counterbalance_2.started,counterbalance_2.stopped,participant,age,gender,date,expName,psychopyVersion,OS,frameRate,STUDY_ID,SESSION_ID,information_2.started,information_2.stopped,information_loop.thisRepN,information_loop.thisTrialN,information_loop.thisN,information_loop.thisIndex,information_loop.ran,information,consent_2.started,consent_2.stopped,slider_1.response,slider_2.response,slider_3.response,slider_4.response,slider_5.response,slider_6.response,instructions.started,instructions.stopped,task1_instr.thisRepN,task1_instr.thisTrialN,task1_instr.thisN,task1_instr.thisIndex,task1_instr.ran,task1,comprehension1_2.started,comprehension1_2.stopped,comp1_mouse.x,comp1_mouse.y,comp1_mouse.leftButton,comp1_mouse.midButton,comp1_mouse.rightButton,comp1_mouse.time,comp1_mouse.clicked_name,cue_o__trial_2.started,cue_o__trial_2.stopped,order,cue_order,out_order,cue_o_mouse.x,cue_o_mouse.y,cue_o_mouse.leftButton,cue_o_mouse.midButton,cue_o_mouse.rightButton,cue_o_mouse.time,cue_o_mouse.clicked_name,cue_selection_2.started,correct_answer,cue_selection_2.stopped,feedback_2.started,feedback_2.stopped,feedback_loop.thisRepN,feedback_loop.thisTrialN,feedback_loop.thisN,feedback_loop.thisIndex,feedback_loop.ran,stage1_trials.thisRepN,stage1_trials.thisTrialN,stage1_trials.thisN,stage1_trials.thisIndex,stage1_trials.ran,cue1,cue2,cue3,outcome,correct_out,o1_feedback,o2_feedback,stage2_feedback_loop.thisRepN,stage2_feedback_loop.thisTrialN,stage2_feedback_loop.thisN,stage2_feedback_loop.thisIndex,stage2_feedback_loop.ran,stage2_trials.thisRepN,stage2_trials.thisTrialN,stage2_trials.thisN,stage2_trials.thisIndex,stage2_trials.ran,stage3_feedback_loop.thisRepN,stage3_feedback_loop.thisTrialN,stage3_feedback_loop.thisN,stage3_feedback_loop.thisIndex,stage3_feedback_loop.ran,stage3_trials.thisRepN,stage3_trials.thisTrialN,stage3_trials.thisN,stage3_trials.thisIndex,stage3_trials.ran,debrief_2.started,debrief_2.stopped,debrief_loop.thisRepN,debrief_loop.thisTrialN,debrief_loop.thisN,debrief_loop.thisIndex,debrief_loop.ran,debrief_img,compr1_completed.thisRepN,compr1_completed.thisTrialN,compr1_completed.thisN,compr1_completed.thisIndex,compr1_completed.ran,consent_loop.thisRepN,consent_loop.thisTrialN,consent_loop.thisN,consent_loop.thisIndex,consent_loop.ran
0.0081,0.0083,5bf5ba787ac3710001c47193,33,male,2024-04-24_13h31.48.565,stockport_simplified,2022.2.4,Win32,119.047619,661e456ee6de07e70aa9ef7b,6628df86ff56ad52dcc23d55,,,,,,,,,,,,,,,,,,,,,,,,,,,,,,,,,,,,,,,,,,,,,,,,,,,,,,,,,,,,,,,,,,,,,,,,,,,,,,,,,,,,,,,,,,,,,,,,,,,,,,,,,
,,5bf5ba787ac3710001c47193,33,male,2024-04-24_13h31.48.565,stockport_simplified,2022.2.4,Win32,119.047619,661e456ee6de07e70aa9ef7b,6628df86ff56ad52dcc23d55,0.0204,31.3688,0,0,0,0,1,instructions/info1.png,,,,,,,,,,,,,,,,,,,,,,,,,,,,,,,,,,,,,,,,,,,,,,,,,,,,,,,,,,,,,,,,,,,,,,,,,,,,,,,,,,,,,,,,,,,,,,,,,
,,5bf5ba787ac3710001c47193,33,male,2024-04-24_13h31.48.565,stockport_simplified,2022.2.4,Win32,119.047619,661e456ee6de07e70aa9ef7b,6628df86ff56ad52dcc23d55,31.3696,34.5366,0,1,1,1,1,instructions/info2.png,,,,,,,,,,,,,,,,,,,,,,,,,,,,,,,,,,,,,,,,,,,,,,,,,,,,,,,,,,,,,,,,,,,,,,,,,,,,,,,,,,,,,,,,,,,,,,,,,
,,5bf5ba787ac3710001c47193,33,male,2024-04-24_13h31.48.565,stockport_simplified,2022.2.4,Win32,119.047619,661e456ee6de07e70aa9ef7b,6628df86ff56ad52dcc23d55,34.5372,37.473,0,2,2,2,1,instructions/info3.png,,,,,,,,,,,,,,,,,,,,,,,,,,,,,,,,,,,,,,,,,,,,,,,,,,,,,,,,,,,,,,,,,,,,,,,,,,,,,,,,,,,,,,,,,,,,,,,,,
,,5bf5ba787ac3710001c47193,33,male,2024-04-24_13h31.48.565,stockport_simplified,2022.2.4,Win32,119.047619,661e456ee6de07e70aa9ef7b,6628df86ff56ad52dcc23d55,,,,,,,,,37.4743,50.264,1,1,1,1,1,1,,,,,,,,,,,,,,,,,,,,,,,,,,,,,,,,,,,,,,,,,,,,,,,,,,,,,,,,,,,,,,,,,,,,,,,,,,,,,,,,,,,,,,,,,
,,5bf5ba787ac3710001c47193,33,male,2024-04-24_13h31.48.565,stockport_simplified,2022.2.4,Win32,119.047619,661e456ee6de07e70aa9ef7b,6628df86ff56ad52dcc23d55,,,,,,,,,,,,,,,,,50.2714,72.0311,0,0,0,0,1,instructions/task1_1.png,,,,,,,,,,,,,,,,,,,,,,,,,,,,,,,,,,,,,,,,,,,,,,,,,,,,,,,,,,,,,,,,,,,,,,,,,,,,,,,,,
,,5bf5ba787ac3710001c47193,33,male,2024-04-24_13h31.48.565,stockport_simplified,2022.2.4,Win32,119.047619,661e456ee6de07e70aa9ef7b,6628df86ff56ad52dcc23d55,,,,,,,,,,,,,,,,,72.0366,85.1296,0,1,1,1,1,instructions/task1_2.png,,,,,,,,,,,,,,,,,,,,,,,,,,,,,,,,,,,,,,,,,,,,,,,,,,,,,,,,,,,,,,,,,,,,,,,,,,,,,,,,,
,,5bf5ba787ac3710001c47193,33,male,2024-04-24_13h31.48.565,stockport_simplified,2022.2.4,Win32,119.047619,661e456ee6de07e70aa9ef7b,6628df86ff56ad52dcc23d55,,,,,,,,,,,,,,,,,85.1374,100.763,0,2,2,2,1,instructions/task1_3.png,,,,,,,,,,,,,,,,,,,,,,,,,,,,,,,,,,,,,,,,,,,,,,,,,,,,,,,,,,,,,,,,,,,,,,,,,,,,,,,,,
,,5bf5ba787ac3710001c47193,33,male,2024-04-24_13h31.48.565,stockport_simplified,2022.2.4,Win32,119.047619,661e456ee6de07e70aa9ef7b,6628df86ff56ad52dcc23d55,,,,,,,,,,,,,,,,,,,,,,,,,100.7637,122.0081,-0.008333347,-0.333333333,1,0,0,21.2437,comp1_resp1,122.0232,124.4785,"[5,3,2,1,6,4,8,7]","[[-0.3,0.2],[0.3,0.2]]","[[-0.125,-0.2],[0.125,-0.2]]",0.10555557,-0.205555598,1,0,0,1.9436,o2_image,124.4792,1,124.9782,124.9787,126.9774,0,0,0,0,1,,,,,,,,,,,,,,,,,,,,,,,,,,,,,,,,,,,,,,,,,,,,,,,,,,
,,5bf5ba787ac3710001c47193,33,male,2024-04-24_13h31.48.565,stockport_simplified,2022.2.4,Win32,119.047619,661e456ee6de07e70aa9ef7b,6628df86ff56ad52dcc23d55,,,,,,,,,,,,,,,,,,,,,,,,,,,,,,,,,,,,,,,,,,,,,,,,,,,,,,,,0,0,0,17,1,B,Y,N,o2_image,stimuli/out2.png,stimuli/out1.png,stimuli/correct_out2.png,,,,,,,,,,,,,,,,,,,,,,,,,,,,,,,,,,,,,,
,,5bf5ba787ac3710001c47193,33,male,2024-04-24_13h31.48.565,stockport_simplified,2022.2.4,Win32,119.047619,661e456ee6de07e70aa9ef7b,6628df86ff56ad52dcc23d55,,,,,,,,,,,,,,,,,,,,,,,,,,,,,,,,,,126.9796,129.1319,"[5,3,2,1,6,4,8,7]","[[0.3,0.2],[-0.3,0.2]]","[[-0.125,-0.2],[0.125,-0.2]]",0.094444487,-0.214814857,1,0,0,1.6481,o2_image,129.1331,1,129.6323,129.6326,131.6362,0,0,0,0,1,,,,,,,,,,,,,,,,,,,,,,,,,,,,,,,,,,,,,,,,,,,,,,,,,,
,,5bf5ba787ac3710001c47193,33,male,2024-04-24_13h31.48.565,stockport_simplified,2022.2.4,Win32,119.047619,661e456ee6de07e70aa9ef7b,6628df86ff56ad52dcc23d55,,,,,,,,,,,,,,,,,,,,,,,,,,,,,,,,,,,,,,,,,,,,,,,,,,,,,,,,0,1,1,43,1,B,X,N,o2_image,stimuli/out2.png,stimuli/out1.png,stimuli/correct_out2.png,,,,,,,,,,,,,,,,,,,,,,,,,,,,,,,,,,,,,,
,,5bf5ba787ac3710001c47193,33,male,2024-04-24_13h31.48.565,stockport_simplified,2022.2.4,Win32,119.047619,661e456ee6de07e70aa9ef7b,6628df86ff56ad52dcc23d55,,,,,,,,,,,,,,,,,,,,,,,,,,,,,,,,,,131.6383,133.8734,"[5,3,2,1,6,4,8,7]","[[0.3,0.2],[-0.3,0.2]]","[[-0.125,-0.2],[0.125,-0.2]]",-0.145370342,-0.161111125,1,0,0,1.7289,o1_image,133.874,1,134.3733,134.3735,136.3664,0,0,0,0,1,,,,,,,,,,,,,,,,,,,,,,,,,,,,,,,,,,,,,,,,,,,,,,,,,,
,,5bf5ba787ac3710001c47193,33,male,2024-04-24_13h31.48.565,stockport_simplified,2022.2.4,Win32,119.047619,661e456ee6de07e70aa9ef7b,6628df86ff56ad52dcc23d55,,,,,,,,,,,,,,,,,,,,,,,,,,,,,,,,,,,,,,,,,,,,,,,,,,,,,,,,0,2,2,1,1,A,X,N,o1_image,stimuli/out1.png,stimuli/correct_out1.png,stimuli/out2.png,,,,,,,,,,,,,,,,,,,,,,,,,,,,,,,,,,,,,,
,,5bf5ba787ac3710001c47193,33,male,2024-04-24_13h31.48.565,stockport_simplified,2022.2.4,Win32,119.047619,661e456ee6de07e70aa9ef7b,6628df86ff56ad52dcc23d55,,,,,,,,,,,,,,,,,,,,,,,,,,,,,,,,,,136.3684,138.976,"[5,3,2,1,6,4,8,7]","[[-0.3,0.2],[0.3,0.2]]","[[0.125,-0.2],[-0.125,-0.2]]",0.099074116,-0.233333376,1,0,0,2.1011,o1_image,138.9765,1,139.4856,139.4857,141.4889,0,0,0,0,1,,,,,,,,,,,,,,,,,,,,,,,,,,,,,,,,,,,,,,,,,,,,,,,,,,
,,5bf5ba787ac3710001c47193,33,male,2024-04-24_13h31.48.565,stockport_simplified,2022.2.4,Win32,119.047619,661e456ee6de07e70aa9ef7b,6628df86ff56ad52dcc23d55,,,,,,,,,,,,,,,,,,,,,,,,,,,,,,,,,,,,,,,,,,,,,,,,,,,,,,,,0,3,3,36,1,A,Y,N,o1_image,stimuli/out1.png,stimuli/correct_out1.png,stimuli/out2.png,,,,,,,,,,,,,,,,,,,,,,,,,,,,,,,,,,,,,,
,,5bf5ba787ac3710001c47193,33,male,2024-04-24_13h31.48.565,stockport_simplified,2022.2.4,Win32,119.047619,661e456ee6de07e70aa9ef7b,6628df86ff56ad52dcc23d55,,,,,,,,,,,,,,,,,,,,,,,,,,,,,,,,,,141.4907,143.7302,"[5,3,2,1,6,4,8,7]","[[0.3,0.2],[-0.3,0.2]]","[[-0.125,-0.2],[0.125,-0.2]]",0.095370399,-0.219444487,1,0,0,1.7323,o2_image,143.7321,1,144.2384,144.2384,146.2334,0,0,0,0,1,,,,,,,,,,,,,,,,,,,,,,,,,,,,,,,,,,,,,,,,,,,,,,,,,,
,,5bf5ba787ac3710001c47193,33,male,2024-04-24_13h31.48.565,stockport_simplified,2022.2.4,Win32,119.047619,661e456ee6de07e70aa9ef7b,6628df86ff56ad52dcc23d55,,,,,,,,,,,,,,,,,,,,,,,,,,,,,,,,,,,,,,,,,,,,,,,,,,,,,,,,0,4,4,18,1,B,Y,N,o2_image,stimuli/out2.png,stimuli/out1.png,stimuli/correct_out2.png,,,,,,,,,,,,,,,,,,,,,,,,,,,,,,,,,,,,,,
,,5bf5ba787ac3710001c47193,33,male,2024-04-24_13h31.48.565,stockport_simplified,2022.2.4,Win32,119.047619,661e456ee6de07e70aa9ef7b,6628df86ff56ad52dcc23d55,,,,,,,,,,,,,,,,,,,,,,,,,,,,,,,,,,146.2352,148.0855,"[5,3,2,1,6,4,8,7]","[[0.3,0.2],[-0.3,0.2]]","[[-0.125,-0.2],[0.125,-0.2]]",0.118518547,-0.209259245,1,0,0,1.336,o2_image,148.0874,1,148.5931,148.5931,150.5944,0,0,0,0,1,,,,,,,,,,,,,,,,,,,,,,,,,,,,,,,,,,,,,,,,,,,,,,,,,,
,,5bf5ba787ac3710001c47193,33,male,2024-04-24_13h31.48.565,stockport_simplified,2022.2.4,Win32,119.047619,661e456ee6de07e70aa9ef7b,6628df86ff56ad52dcc23d55,,,,,,,,,,,,,,,,,,,,,,,,,,,,,,,,,,,,,,,,,,,,,,,,,,,,,,,,0,5,5,19,1,B,Y,N,o2_image,stimuli/out2.png,stimuli/out1.png,stimuli/correct_out2.png,,,,,,,,,,,,,,,,,,,,,,,,,,,,,,,,,,,,,,
,,5bf5ba787ac3710001c47193,33,male,2024-04-24_13h31.48.565,stockport_simplified,2022.2.4,Win32,119.047619,661e456ee6de07e70aa9ef7b,6628df86ff56ad52dcc23d55,,,,,,,,,,,,,,,,,,,,,,,,,,,,,,,,,,150.596,152.5983,"[5,3,2,1,6,4,8,7]","[[0.3,0.2],[-0.3,0.2]]","[[-0.125,-0.2],[0.125,-0.2]]",0.133333347,-0.226851852,1,0,0,1.4959,o2_image,152.5988,1,153.0985,153.0987,155.0938,0,0,0,0,1,,,,,,,,,,,,,,,,,,,,,,,,,,,,,,,,,,,,,,,,,,,,,,,,,,
,,5bf5ba787ac3710001c47193,33,male,2024-04-24_13h31.48.565,stockport_simplified,2022.2.4,Win32,119.047619,661e456ee6de07e70aa9ef7b,6628df86ff56ad52dcc23d55,,,,,,,,,,,,,,,,,,,,,,,,,,,,,,,,,,,,,,,,,,,,,,,,,,,,,,,,0,6,6,47,1,B,Y,N,o2_image,stimuli/out2.png,stimuli/out1.png,stimuli/correct_out2.png,,,,,,,,,,,,,,,,,,,,,,,,,,,,,,,,,,,,,,
,,5bf5ba787ac3710001c47193,33,male,2024-04-24_13h31.48.565,stockport_simplified,2022.2.4,Win32,119.047619,661e456ee6de07e70aa9ef7b,6628df86ff56ad52dcc23d55,,,,,,,,,,,,,,,,,,,,,,,,,,,,,,,,,,155.0941,156.8719,"[5,3,2,1,6,4,8,7]","[[0.3,0.2],[-0.3,0.2]]","[[0.125,-0.2],[-0.125,-0.2]]",0.116666653,-0.213888875,1,0,0,1.2685,o1_image,156.8731,0,157.3675,157.3675,159.3744,0,0,0,0,1,,,,,,,,,,,,,,,,,,,,,,,,,,,,,,,,,,,,,,,,,,,,,,,,,,
,,5bf5ba787ac3710001c47193,33,male,2024-04-24_13h31.48.565,stockport_simplified,2022.2.4,Win32,119.047619,661e456ee6de07e70aa9ef7b,6628df86ff56ad52dcc23d55,,,,,,,,,,,,,,,,,,,,,,,,,,,,,,,,,,,,,,,,,,,,,,,,,,,,,,,,0,7,7,26,1,N,M,D,o2_image,stimuli/out2.png,stimuli/out1.png,stimuli/correct_out2.png,,,,,,,,,,,,,,,,,,,,,,,,,,,,,,,,,,,,,,
,,5bf5ba787ac3710001c47193,33,male,2024-04-24_13h31.48.565,stockport_simplified,2022.2.4,Win32,119.047619,661e456ee6de07e70aa9ef7b,6628df86ff56ad52dcc23d55,,,,,,,,,,,,,,,,,,,,,,,,,,,,,,,,,,159.3763,160.9629,"[5,3,2,1,6,4,8,7]","[[-0.3,0.2],[0.3,0.2]]","[[-0.125,-0.2],[0.125,-0.2]]",0.090740769,-0.20648151,1,0,0,1.0788,o2_image,160.9654,0,161.4684,161.4685,163.4658,0,0,0,0,1,,,,,,,,,,,,,,,,,,,,,,,,,,,,,,,,,,,,,,,,,,,,,,,,,,
,,5bf5ba787ac3710001c47193,33,male,2024-04-24_13h31.48.565,stockport_simplified,2022.2.4,Win32,119.047619,661e456ee6de07e70aa9ef7b,6628df86ff56ad52dcc23d55,,,,,,,,,,,,,,,,,,,,,,,,,,,,,,,,,,,,,,,,,,,,,,,,,,,,,,,,0,8,8,24,1,N,M,C,o1_image,stimuli/out1.png,stimuli/correct_out1.png,stimuli/out2.png,,,,,,,,,,,,,,,,,,,,,,,,,,,,,,,,,,,,,,
,,5bf5ba787ac3710001c47193,33,male,2024-04-24_13h31.48.565,stockport_simplified,2022.2.4,Win32,119.047619,661e456ee6de07e70aa9ef7b,6628df86ff56ad52dcc23d55,,,,,,,,,,,,,,,,,,,,,,,,,,,,,,,,,,163.4675,165.4505,"[5,3,2,1,6,4,8,7]","[[0.3,0.2],[-0.3,0.2]]","[[0.125,-0.2],[-0.125,-0.2]]",-0.12037037,-0.241666653,1,0,0,1.4765,o2_image,165.4509,1,165.9556,165.9558,167.9605,0,0,0,0,1,,,,,,,,,,,,,,,,,,,,,,,,,,,,,,,,,,,,,,,,,,,,,,,,,,
,,5bf5ba787ac3710001c47193,33,male,2024-04-24_13h31.48.565,stockport_simplified,2022.2.4,Win32,119.047619,661e456ee6de07e70aa9ef7b,6628df86ff56ad52dcc23d55,,,,,,,,,,,,,,,,,,,,,,,,,,,,,,,,,,,,,,,,,,,,,,,,,,,,,,,,0,9,9,14,1,B,X,N,o2_image,stimuli/out2.png,stimuli/out1.png,stimuli/correct_out2.png,,,,,,,,,,,,,,,,,,,,,,,,,,,,,,,,,,,,,,
,,5bf5ba787ac3710001c47193,33,male,2024-04-24_13h31.48.565,stockport_simplified,2022.2.4,Win32,119.047619,661e456ee6de07e70aa9ef7b,6628df86ff56ad52dcc23d55,,,,,,,,,,,,,,,,,,,,,,,,,,,,,,,,,,167.9614,170.2798,"[5,3,2,1,6,4,8,7]","[[-0.3,0.2],[0.3,0.2]]","[[0.125,-0.2],[-0.125,-0.2]]",-0.079629616,-0.22592594,1,0,0,1.8084,o2_image,170.2877,1,170.7871,170.7873,172.7803,0,0,0,0,1,,,,,,,,,,,,,,,,,,,,,,,,,,,,,,,,,,,,,,,,,,,,,,,,,,
,,5bf5ba787ac3710001c47193,33,male,2024-04-24_13h31.48.565,stockport_simplified,2022.2.4,Win32,119.047619,661e456ee6de07e70aa9ef7b,6628df86ff56ad52dcc23d55,,,,,,,,,,,,,,,,,,,,,,,,,,,,,,,,,,,,,,,,,,,,,,,,,,,,,,,,0,10,10,58,1,N,M,D,o2_image,stimuli/out2.png,stimuli/out1.png,stimuli/correct_out2.png,,,,,,,,,,,,,,,,,,,,,,,,,,,,,,,,,,,,,,
,,5bf5ba787ac3710001c47193,33,male,2024-04-24_13h31.48.565,stockport_simplified,2022.2.4,Win32,119.047619,661e456ee6de07e70aa9ef7b,6628df86ff56ad52dcc23d55,,,,,,,,,,,,,,,,,,,,,,,,,,,,,,,,,,172.782,174.7198,"[5,3,2,1,6,4,8,7]","[[-0.3,0.2],[0.3,0.2]]","[[0.125,-0.2],[-0.125,-0.2]]",0.102777764,-0.238888917,1,0,0,1.4267,o1_image,174.7212,1,175.2117,175.2118,177.2085,0,0,0,0,1,,,,,,,,,,,,,,,,,,,,,,,,,,,,,,,,,,,,,,,,,,,,,,,,,,
,,5bf5ba787ac3710001c47193,33,male,2024-04-24_13h31.48.565,stockport_simplified,2022.2.4,Win32,119.047619,661e456ee6de07e70aa9ef7b,6628df86ff56ad52dcc23d55,,,,,,,,,,,,,,,,,,,,,,,,,,,,,,,,,,,,,,,,,,,,,,,,,,,,,,,,0,11,11,34,1,A,X,N,o1_image,stimuli/out1.png,stimuli/correct_out1.png,stimuli/out2.png,,,,,,,,,,,,,,,,,,,,,,,,,,,,,,,,,,,,,,
,,5bf5ba787ac3710001c47193,33,male,2024-04-24_13h31.48.565,stockport_simplified,2022.2.4,Win32,119.047619,661e456ee6de07e70aa9ef7b,6628df86ff56ad52dcc23d55,,,,,,,,,,,,,,,,,,,,,,,,,,,,,,,,,,177.2103,179.108,"[5,3,2,1,6,4,8,7]","[[0.3,0.2],[-0.3,0.2]]","[[-0.125,-0.2],[0.125,-0.2]]",-0.136111083,-0.234259288,1,0,0,1.3869,o1_image,179.1098,0,179.6127,179.6127,181.6111,0,0,0,0,1,,,,,,,,,,,,,,,,,,,,,,,,,,,,,,,,,,,,,,,,,,,,,,,,,,
,,5bf5ba787ac3710001c47193,33,male,2024-04-24_13h31.48.565,stockport_simplified,2022.2.4,Win32,119.047619,661e456ee6de07e70aa9ef7b,6628df86ff56ad52dcc23d55,,,,,,,,,,,,,,,,,,,,,,,,,,,,,,,,,,,,,,,,,,,,,,,,,,,,,,,,0,12,12,29,1,N,M,D,o2_image,stimuli/out2.png,stimuli/out1.png,stimuli/correct_out2.png,,,,,,,,,,,,,,,,,,,,,,,,,,,,,,,,,,,,,,
,,5bf5ba787ac3710001c47193,33,male,2024-04-24_13h31.48.565,stockport_simplified,2022.2.4,Win32,119.047619,661e456ee6de07e70aa9ef7b,6628df86ff56ad52dcc23d55,,,,,,,,,,,,,,,,,,,,,,,,,,,,,,,,,,181.6115,184.2317,"[5,3,2,1,6,4,8,7]","[[-0.3,0.2],[0.3,0.2]]","[[0.125,-0.2],[-0.125,-0.2]]",-0.084259245,-0.196296339,1,0,0,2.1136,o2_image,184.2369,1,184.7297,184.7297,186.7192,0,0,0,0,1,,,,,,,,,,,,,,,,,,,,,,,,,,,,,,,,,,,,,,,,,,,,,,,,,,
,,5bf5ba787ac3710001c47193,33,male,2024-04-24_13h31.48.565,stockport_simplified,2022.2.4,Win32,119.047619,661e456ee6de07e70aa9ef7b,6628df86ff56ad52dcc23d55,,,,,,,,,,,,,,,,,,,,,,,,,,,,,,,,,,,,,,,,,,,,,,,,,,,,,,,,0,13,13,15,1,B,Y,N,o2_image,stimuli/out2.png,stimuli/out1.png,stimuli/correct_out2.png,,,,,,,,,,,,,,,,,,,,,,,,,,,,,,,,,,,,,,
,,5bf5ba787ac3710001c47193,33,male,2024-04-24_13h31.48.565,stockport_simplified,2022.2.4,Win32,119.047619,661e456ee6de07e70aa9ef7b,6628df86ff56ad52dcc23d55,,,,,,,,,,,,,,,,,,,,,,,,,,,,,,,,,,186.7206,188.8013,"[5,3,2,1,6,4,8,7]","[[0.3,0.2],[-0.3,0.2]]","[[0.125,-0.2],[-0.125,-0.2]]",-0.123148106,-0.22592594,1,0,0,1.5737,o2_image,188.8017,1,189.2921,189.2923,191.2974,0,0,0,0,1,,,,,,,,,,,,,,,,,,,,,,,,,,,,,,,,,,,,,,,,,,,,,,,,,,
,,5bf5ba787ac3710001c47193,33,male,2024-04-24_13h31.48.565,stockport_simplified,2022.2.4,Win32,119.047619,661e456ee6de07e70aa9ef7b,6628df86ff56ad52dcc23d55,,,,,,,,,,,,,,,,,,,,,,,,,,,,,,,,,,,,,,,,,,,,,,,,,,,,,,,,0,14,14,27,1,N,M,D,o2_image,stimuli/out2.png,stimuli/out1.png,stimuli/correct_out2.png,,,,,,,,,,,,,,,,,,,,,,,,,,,,,,,,,,,,,,
,,5bf5ba787ac3710001c47193,33,male,2024-04-24_13h31.48.565,stockport_simplified,2022.2.4,Win32,119.047619,661e456ee6de07e70aa9ef7b,6628df86ff56ad52dcc23d55,,,,,,,,,,,,,,,,,,,,,,,,,,,,,,,,,,191.299,193.0682,"[5,3,2,1,6,4,8,7]","[[0.3,0.2],[-0.3,0.2]]","[[0.125,-0.2],[-0.125,-0.2]]",0.122222265,-0.193518533,1,0,0,1.2651,o1_image,193.0697,1,193.5584,193.5585,195.5561,0,0,0,0,1,,,,,,,,,,,,,,,,,,,,,,,,,,,,,,,,,,,,,,,,,,,,,,,,,,
,,5bf5ba787ac3710001c47193,33,male,2024-04-24_13h31.48.565,stockport_simplified,2022.2.4,Win32,119.047619,661e456ee6de07e70aa9ef7b,6628df86ff56ad52dcc23d55,,,,,,,,,,,,,,,,,,,,,,,,,,,,,,,,,,,,,,,,,,,,,,,,,,,,,,,,0,15,15,3,1,A,X,N,o1_image,stimuli/out1.png,stimuli/correct_out1.png,stimuli/out2.png,,,,,,,,,,,,,,,,,,,,,,,,,,,,,,,,,,,,,,
,,5bf5ba787ac3710001c47193,33,male,2024-04-24_13h31.48.565,stockport_simplified,2022.2.4,Win32,119.047619,661e456ee6de07e70aa9ef7b,6628df86ff56ad52dcc23d55,,,,,,,,,,,,,,,,,,,,,,,,,,,,,,,,,,195.5579,197.5654,"[5,3,2,1,6,4,8,7]","[[-0.3,0.2],[0.3,0.2]]","[[-0.125,-0.2],[0.125,-0.2]]",-0.135185171,-0.194444444,1,0,0,1.5022,o1_image,197.5659,1,198.0522,198.0524,200.0535,0,0,0,0,1,,,,,,,,,,,,,,,,,,,,,,,,,,,,,,,,,,,,,,,,,,,,,,,,,,
,,5bf5ba787ac3710001c47193,33,male,2024-04-24_13h31.48.565,stockport_simplified,2022.2.4,Win32,119.047619,661e456ee6de07e70aa9ef7b,6628df86ff56ad52dcc23d55,,,,,,,,,,,,,,,,,,,,,,,,,,,,,,,,,,,,,,,,,,,,,,,,,,,,,,,,0,16,16,6,1,A,Y,N,o1_image,stimuli/out1.png,stimuli/correct_out1.png,stimuli/out2.png,,,,,,,,,,,,,,,,,,,,,,,,,,,,,,,,,,,,,,
,,5bf5ba787ac3710001c47193,33,male,2024-04-24_13h31.48.565,stockport_simplified,2022.2.4,Win32,119.047619,661e456ee6de07e70aa9ef7b,6628df86ff56ad52dcc23d55,,,,,,,,,,,,,,,,,,,,,,,,,,,,,,,,,,200.0551,201.975,"[5,3,2,1,6,4,8,7]","[[0.3,0.2],[-0.3,0.2]]","[[-0.125,-0.2],[0.125,-0.2]]",0.140740783,-0.234259288,1,0,0,1.4108,o2_image,201.9755,1,202.4703,202.4706,204.4672,0,0,0,0,1,,,,,,,,,,,,,,,,,,,,,,,,,,,,,,,,,,,,,,,,,,,,,,,,,,
,,5bf5ba787ac3710001c47193,33,male,2024-04-24_13h31.48.565,stockport_simplified,2022.2.4,Win32,119.047619,661e456ee6de07e70aa9ef7b,6628df86ff56ad52dcc23d55,,,,,,,,,,,,,,,,,,,,,,,,,,,,,,,,,,,,,,,,,,,,,,,,,,,,,,,,0,17,17,42,1,B,X,N,o2_image,stimuli/out2.png,stimuli/out1.png,stimuli/correct_out2.png,,,,,,,,,,,,,,,,,,,,,,,,,,,,,,,,,,,,,,
,,5bf5ba787ac3710001c47193,33,male,2024-04-24_13h31.48.565,stockport_simplified,2022.2.4,Win32,119.047619,661e456ee6de07e70aa9ef7b,6628df86ff56ad52dcc23d55,,,,,,,,,,,,,,,,,,,,,,,,,,,,,,,,,,204.4688,206.2377,"[5,3,2,1,6,4,8,7]","[[-0.3,0.2],[0.3,0.2]]","[[-0.125,-0.2],[0.125,-0.2]]",0.112037023,-0.22129631,1,0,0,1.2601,o2_image,206.2388,0,206.7431,206.7433,208.739,0,0,0,0,1,,,,,,,,,,,,,,,,,,,,,,,,,,,,,,,,,,,,,,,,,,,,,,,,,,
,,5bf5ba787ac3710001c47193,33,male,2024-04-24_13h31.48.565,stockport_simplified,2022.2.4,Win32,119.047619,661e456ee6de07e70aa9ef7b,6628df86ff56ad52dcc23d55,,,,,,,,,,,,,,,,,,,,,,,,,,,,,,,,,,,,,,,,,,,,,,,,,,,,,,,,0,18,18,23,1,N,M,C,o1_image,stimuli/out1.png,stimuli/correct_out1.png,stimuli/out2.png,,,,,,,,,,,,,,,,,,,,,,,,,,,,,,,,,,,,,,
,,5bf5ba787ac3710001c47193,33,male,2024-04-24_13h31.48.565,stockport_simplified,2022.2.4,Win32,119.047619,661e456ee6de07e70aa9ef7b,6628df86ff56ad52dcc23d55,,,,,,,,,,,,,,,,,,,,,,,,,,,,,,,,,,208.7405,210.7611,"[5,3,2,1,6,4,8,7]","[[-0.3,0.2],[0.3,0.2]]","[[0.125,-0.2],[-0.125,-0.2]]",-0.095370328,-0.199074074,1,0,0,1.5063,o2_image,210.763,0,211.2657,211.2659,213.2654,0,0,0,0,1,,,,,,,,,,,,,,,,,,,,,,,,,,,,,,,,,,,,,,,,,,,,,,,,,,
,,5bf5ba787ac3710001c47193,33,male,2024-04-24_13h31.48.565,stockport_simplified,2022.2.4,Win32,119.047619,661e456ee6de07e70aa9ef7b,6628df86ff56ad52dcc23d55,,,,,,,,,,,,,,,,,,,,,,,,,,,,,,,,,,,,,,,,,,,,,,,,,,,,,,,,0,19,19,31,1,A,X,N,o1_image,stimuli/out1.png,stimuli/correct_out1.png,stimuli/out2.png,,,,,,,,,,,,,,,,,,,,,,,,,,,,,,,,,,,,,,
,,5bf5ba787ac3710001c47193,33,male,2024-04-24_13h31.48.565,stockport_simplified,2022.2.4,Win32,119.047619,661e456ee6de07e70aa9ef7b,6628df86ff56ad52dcc23d55,,,,,,,,,,,,,,,,,,,,,,,,,,,,,,,,,,213.2673,215.1592,"[5,3,2,1,6,4,8,7]","[[0.3,0.2],[-0.3,0.2]]","[[0.125,-0.2],[-0.125,-0.2]]",0.093518504,-0.196296339,1,0,0,1.386,o1_image,215.1612,1,215.6589,215.6589,217.6547,0,0,0,0,1,,,,,,,,,,,,,,,,,,,,,,,,,,,,,,,,,,,,,,,,,,,,,,,,,,
,,5bf5ba787ac3710001c47193,33,male,2024-04-24_13h31.48.565,stockport_simplified,2022.2.4,Win32,119.047619,661e456ee6de07e70aa9ef7b,6628df86ff56ad52dcc23d55,,,,,,,,,,,,,,,,,,,,,,,,,,,,,,,,,,,,,,,,,,,,,,,,,,,,,,,,0,20,20,9,1,A,Y,N,o1_image,stimuli/out1.png,stimuli/correct_out1.png,stimuli/out2.png,,,,,,,,,,,,,,,,,,,,,,,,,,,,,,,,,,,,,,
,,5bf5ba787ac3710001c47193,33,male,2024-04-24_13h31.48.565,stockport_simplified,2022.2.4,Win32,119.047619,661e456ee6de07e70aa9ef7b,6628df86ff56ad52dcc23d55,,,,,,,,,,,,,,,,,,,,,,,,,,,,,,,,,,217.6564,219.6837,"[5,3,2,1,6,4,8,7]","[[0.3,0.2],[-0.3,0.2]]","[[-0.125,-0.2],[0.125,-0.2]]",-0.091666681,-0.205555598,1,0,0,1.5244,o1_image,219.6847,0,220.1817,220.1819,222.1827,0,0,0,0,1,,,,,,,,,,,,,,,,,,,,,,,,,,,,,,,,,,,,,,,,,,,,,,,,,,
,,5bf5ba787ac3710001c47193,33,male,2024-04-24_13h31.48.565,stockport_simplified,2022.2.4,Win32,119.047619,661e456ee6de07e70aa9ef7b,6628df86ff56ad52dcc23d55,,,,,,,,,,,,,,,,,,,,,,,,,,,,,,,,,,,,,,,,,,,,,,,,,,,,,,,,0,21,21,46,1,B,Y,N,o2_image,stimuli/out2.png,stimuli/out1.png,stimuli/correct_out2.png,,,,,,,,,,,,,,,,,,,,,,,,,,,,,,,,,,,,,,
,,5bf5ba787ac3710001c47193,33,male,2024-04-24_13h31.48.565,stockport_simplified,2022.2.4,Win32,119.047619,661e456ee6de07e70aa9ef7b,6628df86ff56ad52dcc23d55,,,,,,,,,,,,,,,,,,,,,,,,,,,,,,,,,,222.1845,223.7425,"[5,3,2,1,6,4,8,7]","[[-0.3,0.2],[0.3,0.2]]","[[0.125,-0.2],[-0.125,-0.2]]",-0.121296282,-0.22129631,1,0,0,1.047,o2_image,223.7429,1,224.2509,224.2511,226.2553,0,0,0,0,1,,,,,,,,,,,,,,,,,,,,,,,,,,,,,,,,,,,,,,,,,,,,,,,,,,
,,5bf5ba787ac3710001c47193,33,male,2024-04-24_13h31.48.565,stockport_simplified,2022.2.4,Win32,119.047619,661e456ee6de07e70aa9ef7b,6628df86ff56ad52dcc23d55,,,,,,,,,,,,,,,,,,,,,,,,,,,,,,,,,,,,,,,,,,,,,,,,,,,,,,,,0,22,22,55,1,N,M,D,o2_image,stimuli/out2.png,stimuli/out1.png,stimuli/correct_out2.png,,,,,,,,,,,,,,,,,,,,,,,,,,,,,,,,,,,,,,
,,5bf5ba787ac3710001c47193,33,male,2024-04-24_13h31.48.565,stockport_simplified,2022.2.4,Win32,119.047619,661e456ee6de07e70aa9ef7b,6628df86ff56ad52dcc23d55,,,,,,,,,,,,,,,,,,,,,,,,,,,,,,,,,,226.2569,227.923,"[5,3,2,1,6,4,8,7]","[[-0.3,0.2],[0.3,0.2]]","[[0.125,-0.2],[-0.125,-0.2]]",-0.108333305,-0.237963005,1,0,0,1.1606,o2_image,227.9254,1,228.4149,228.4151,230.4115,0,0,0,0,1,,,,,,,,,,,,,,,,,,,,,,,,,,,,,,,,,,,,,,,,,,,,,,,,,,
,,5bf5ba787ac3710001c47193,33,male,2024-04-24_13h31.48.565,stockport_simplified,2022.2.4,Win32,119.047619,661e456ee6de07e70aa9ef7b,6628df86ff56ad52dcc23d55,,,,,,,,,,,,,,,,,,,,,,,,,,,,,,,,,,,,,,,,,,,,,,,,,,,,,,,,0,23,23,40,1,B,X,N,o2_image,stimuli/out2.png,stimuli/out1.png,stimuli/correct_out2.png,,,,,,,,,,,,,,,,,,,,,,,,,,,,,,,,,,,,,,
,,5bf5ba787ac3710001c47193,33,male,2024-04-24_13h31.48.565,stockport_simplified,2022.2.4,Win32,119.047619,661e456ee6de07e70aa9ef7b,6628df86ff56ad52dcc23d55,,,,,,,,,,,,,,,,,,,,,,,,,,,,,,,,,,230.4135,232.307,"[5,3,2,1,6,4,8,7]","[[-0.3,0.2],[0.3,0.2]]","[[-0.125,-0.2],[0.125,-0.2]]",-0.080555527,-0.232407393,1,0,0,1.3839,o1_image,232.3089,0,232.8133,232.8133,234.811,0,0,0,0,1,,,,,,,,,,,,,,,,,,,,,,,,,,,,,,,,,,,,,,,,,,,,,,,,,,
,,5bf5ba787ac3710001c47193,33,male,2024-04-24_13h31.48.565,stockport_simplified,2022.2.4,Win32,119.047619,661e456ee6de07e70aa9ef7b,6628df86ff56ad52dcc23d55,,,,,,,,,,,,,,,,,,,,,,,,,,,,,,,,,,,,,,,,,,,,,,,,,,,,,,,,0,24,24,48,1,B,Y,N,o2_image,stimuli/out2.png,stimuli/out1.png,stimuli/correct_out2.png,,,,,,,,,,,,,,,,,,,,,,,,,,,,,,,,,,,,,,
,,5bf5ba787ac3710001c47193,33,male,2024-04-24_13h31.48.565,stockport_simplified,2022.2.4,Win32,119.047619,661e456ee6de07e70aa9ef7b,6628df86ff56ad52dcc23d55,,,,,,,,,,,,,,,,,,,,,,,,,,,,,,,,,,234.8125,236.5762,"[5,3,2,1,6,4,8,7]","[[0.3,0.2],[-0.3,0.2]]","[[0.125,-0.2],[-0.125,-0.2]]",-0.101851852,-0.237963005,1,0,0,1.2607,o2_image,236.5776,0,237.074,237.0742,239.0741,0,0,0,0,1,,,,,,,,,,,,,,,,,,,,,,,,,,,,,,,,,,,,,,,,,,,,,,,,,,
,,5bf5ba787ac3710001c47193,33,male,2024-04-24_13h31.48.565,stockport_simplified,2022.2.4,Win32,119.047619,661e456ee6de07e70aa9ef7b,6628df86ff56ad52dcc23d55,,,,,,,,,,,,,,,,,,,,,,,,,,,,,,,,,,,,,,,,,,,,,,,,,,,,,,,,0,25,25,21,1,N,M,C,o1_image,stimuli/out1.png,stimuli/correct_out1.png,stimuli/out2.png,,,,,,,,,,,,,,,,,,,,,,,,,,,,,,,,,,,,,,
,,5bf5ba787ac3710001c47193,33,male,2024-04-24_13h31.48.565,stockport_simplified,2022.2.4,Win32,119.047619,661e456ee6de07e70aa9ef7b,6628df86ff56ad52dcc23d55,,,,,,,,,,,,,,,,,,,,,,,,,,,,,,,,,,239.0759,241.0705,"[5,3,2,1,6,4,8,7]","[[-0.3,0.2],[0.3,0.2]]","[[0.125,-0.2],[-0.125,-0.2]]",0.062962991,-0.220370399,1,0,0,1.4845,o1_image,241.0715,1,241.5716,241.5716,243.5691,0,0,0,0,1,,,,,,,,,,,,,,,,,,,,,,,,,,,,,,,,,,,,,,,,,,,,,,,,,,
,,5bf5ba787ac3710001c47193,33,male,2024-04-24_13h31.48.565,stockport_simplified,2022.2.4,Win32,119.047619,661e456ee6de07e70aa9ef7b,6628df86ff56ad52dcc23d55,,,,,,,,,,,,,,,,,,,,,,,,,,,,,,,,,,,,,,,,,,,,,,,,,,,,,,,,0,26,26,38,1,A,Y,N,o1_image,stimuli/out1.png,stimuli/correct_out1.png,stimuli/out2.png,,,,,,,,,,,,,,,,,,,,,,,,,,,,,,,,,,,,,,
,,5bf5ba787ac3710001c47193,33,male,2024-04-24_13h31.48.565,stockport_simplified,2022.2.4,Win32,119.047619,661e456ee6de07e70aa9ef7b,6628df86ff56ad52dcc23d55,,,,,,,,,,,,,,,,,,,,,,,,,,,,,,,,,,243.5712,245.673,"[5,3,2,1,6,4,8,7]","[[0.3,0.2],[-0.3,0.2]]","[[0.125,-0.2],[-0.125,-0.2]]",-0.12037037,-0.223148134,1,0,0,1.5998,o2_image,245.6752,1,246.1724,246.1727,248.1701,0,0,0,0,1,,,,,,,,,,,,,,,,,,,,,,,,,,,,,,,,,,,,,,,,,,,,,,,,,,
,,5bf5ba787ac3710001c47193,33,male,2024-04-24_13h31.48.565,stockport_simplified,2022.2.4,Win32,119.047619,661e456ee6de07e70aa9ef7b,6628df86ff56ad52dcc23d55,,,,,,,,,,,,,,,,,,,,,,,,,,,,,,,,,,,,,,,,,,,,,,,,,,,,,,,,0,27,27,13,1,B,X,N,o2_image,stimuli/out2.png,stimuli/out1.png,stimuli/correct_out2.png,,,,,,,,,,,,,,,,,,,,,,,,,,,,,,,,,,,,,,
,,5bf5ba787ac3710001c47193,33,male,2024-04-24_13h31.48.565,stockport_simplified,2022.2.4,Win32,119.047619,661e456ee6de07e70aa9ef7b,6628df86ff56ad52dcc23d55,,,,,,,,,,,,,,,,,,,,,,,,,,,,,,,,,,248.1717,250.4329,"[5,3,2,1,6,4,8,7]","[[0.3,0.2],[-0.3,0.2]]","[[0.125,-0.2],[-0.125,-0.2]]",0.112037023,-0.194444444,1,0,0,1.7516,o1_image,250.4352,1,250.9354,250.9354,252.9367,0,0,0,0,1,,,,,,,,,,,,,,,,,,,,,,,,,,,,,,,,,,,,,,,,,,,,,,,,,,
,,5bf5ba787ac3710001c47193,33,male,2024-04-24_13h31.48.565,stockport_simplified,2022.2.4,Win32,119.047619,661e456ee6de07e70aa9ef7b,6628df86ff56ad52dcc23d55,,,,,,,,,,,,,,,,,,,,,,,,,,,,,,,,,,,,,,,,,,,,,,,,,,,,,,,,0,28,28,53,1,N,M,C,o1_image,stimuli/out1.png,stimuli/correct_out1.png,stimuli/out2.png,,,,,,,,,,,,,,,,,,,,,,,,,,,,,,,,,,,,,,
,,5bf5ba787ac3710001c47193,33,male,2024-04-24_13h31.48.565,stockport_simplified,2022.2.4,Win32,119.047619,661e456ee6de07e70aa9ef7b,6628df86ff56ad52dcc23d55,,,,,,,,,,,,,,,,,,,,,,,,,,,,,,,,,,252.9383,255.4482,"[5,3,2,1,6,4,8,7]","[[0.3,0.2],[-0.3,0.2]]","[[0.125,-0.2],[-0.125,-0.2]]",0.064814815,-0.209259245,1,0,0,2.003,o1_image,255.4495,0,255.944,255.9442,257.9336,0,0,0,0,1,,,,,,,,,,,,,,,,,,,,,,,,,,,,,,,,,,,,,,,,,,,,,,,,,,
,,5bf5ba787ac3710001c47193,33,male,2024-04-24_13h31.48.565,stockport_simplified,2022.2.4,Win32,119.047619,661e456ee6de07e70aa9ef7b,6628df86ff56ad52dcc23d55,,,,,,,,,,,,,,,,,,,,,,,,,,,,,,,,,,,,,,,,,,,,,,,,,,,,,,,,0,29,29,28,1,N,M,D,o2_image,stimuli/out2.png,stimuli/out1.png,stimuli/correct_out2.png,,,,,,,,,,,,,,,,,,,,,,,,,,,,,,,,,,,,,,
,,5bf5ba787ac3710001c47193,33,male,2024-04-24_13h31.48.565,stockport_simplified,2022.2.4,Win32,119.047619,661e456ee6de07e70aa9ef7b,6628df86ff56ad52dcc23d55,,,,,,,,,,,,,,,,,,,,,,,,,,,,,,,,,,257.9338,259.9525,"[5,3,2,1,6,4,8,7]","[[-0.3,0.2],[0.3,0.2]]","[[0.125,-0.2],[-0.125,-0.2]]",0.145370413,-0.224074116,1,0,0,1.5128,o1_image,259.9547,1,260.4501,260.4503,262.4563,0,0,0,0,1,,,,,,,,,,,,,,,,,,,,,,,,,,,,,,,,,,,,,,,,,,,,,,,,,,
,,5bf5ba787ac3710001c47193,33,male,2024-04-24_13h31.48.565,stockport_simplified,2022.2.4,Win32,119.047619,661e456ee6de07e70aa9ef7b,6628df86ff56ad52dcc23d55,,,,,,,,,,,,,,,,,,,,,,,,,,,,,,,,,,,,,,,,,,,,,,,,,,,,,,,,0,30,30,30,1,A,X,N,o1_image,stimuli/out1.png,stimuli/correct_out1.png,stimuli/out2.png,,,,,,,,,,,,,,,,,,,,,,,,,,,,,,,,,,,,,,
,,5bf5ba787ac3710001c47193,33,male,2024-04-24_13h31.48.565,stockport_simplified,2022.2.4,Win32,119.047619,661e456ee6de07e70aa9ef7b,6628df86ff56ad52dcc23d55,,,,,,,,,,,,,,,,,,,,,,,,,,,,,,,,,,262.4565,264.6516,"[5,3,2,1,6,4,8,7]","[[0.3,0.2],[-0.3,0.2]]","[[-0.125,-0.2],[0.125,-0.2]]",0.127777806,-0.188888903,1,0,0,1.6778,o2_image,264.6594,1,265.1563,265.1563,267.1571,0,0,0,0,1,,,,,,,,,,,,,,,,,,,,,,,,,,,,,,,,,,,,,,,,,,,,,,,,,,
,,5bf5ba787ac3710001c47193,33,male,2024-04-24_13h31.48.565,stockport_simplified,2022.2.4,Win32,119.047619,661e456ee6de07e70aa9ef7b,6628df86ff56ad52dcc23d55,,,,,,,,,,,,,,,,,,,,,,,,,,,,,,,,,,,,,,,,,,,,,,,,,,,,,,,,0,31,31,44,1,B,X,N,o2_image,stimuli/out2.png,stimuli/out1.png,stimuli/correct_out2.png,,,,,,,,,,,,,,,,,,,,,,,,,,,,,,,,,,,,,,
,,5bf5ba787ac3710001c47193,33,male,2024-04-24_13h31.48.565,stockport_simplified,2022.2.4,Win32,119.047619,661e456ee6de07e70aa9ef7b,6628df86ff56ad52dcc23d55,,,,,,,,,,,,,,,,,,,,,,,,,,,,,,,,,,267.159,268.9476,"[5,3,2,1,6,4,8,7]","[[-0.3,0.2],[0.3,0.2]]","[[0.125,-0.2],[-0.125,-0.2]]",0.139814801,-0.181481467,1,0,0,1.2846,o1_image,268.9479,1,269.4339,269.4342,271.4341,0,0,0,0,1,,,,,,,,,,,,,,,,,,,,,,,,,,,,,,,,,,,,,,,,,,,,,,,,,,
,,5bf5ba787ac3710001c47193,33,male,2024-04-24_13h31.48.565,stockport_simplified,2022.2.4,Win32,119.047619,661e456ee6de07e70aa9ef7b,6628df86ff56ad52dcc23d55,,,,,,,,,,,,,,,,,,,,,,,,,,,,,,,,,,,,,,,,,,,,,,,,,,,,,,,,0,32,32,0,1,A,X,N,o1_image,stimuli/out1.png,stimuli/correct_out1.png,stimuli/out2.png,,,,,,,,,,,,,,,,,,,,,,,,,,,,,,,,,,,,,,
,,5bf5ba787ac3710001c47193,33,male,2024-04-24_13h31.48.565,stockport_simplified,2022.2.4,Win32,119.047619,661e456ee6de07e70aa9ef7b,6628df86ff56ad52dcc23d55,,,,,,,,,,,,,,,,,,,,,,,,,,,,,,,,,,271.4356,273.9758,"[5,3,2,1,6,4,8,7]","[[0.3,0.2],[-0.3,0.2]]","[[0.125,-0.2],[-0.125,-0.2]]",0.124074088,-0.224074116,1,0,0,2.0361,o1_image,273.977,1,274.4679,274.4679,276.4567,0,0,0,0,1,,,,,,,,,,,,,,,,,,,,,,,,,,,,,,,,,,,,,,,,,,,,,,,,,,
,,5bf5ba787ac3710001c47193,33,male,2024-04-24_13h31.48.565,stockport_simplified,2022.2.4,Win32,119.047619,661e456ee6de07e70aa9ef7b,6628df86ff56ad52dcc23d55,,,,,,,,,,,,,,,,,,,,,,,,,,,,,,,,,,,,,,,,,,,,,,,,,,,,,,,,0,33,33,51,1,N,M,C,o1_image,stimuli/out1.png,stimuli/correct_out1.png,stimuli/out2.png,,,,,,,,,,,,,,,,,,,,,,,,,,,,,,,,,,,,,,
,,5bf5ba787ac3710001c47193,33,male,2024-04-24_13h31.48.565,stockport_simplified,2022.2.4,Win32,119.047619,661e456ee6de07e70aa9ef7b,6628df86ff56ad52dcc23d55,,,,,,,,,,,,,,,,,,,,,,,,,,,,,,,,,,276.4585,278.0962,"[5,3,2,1,6,4,8,7]","[[0.3,0.2],[-0.3,0.2]]","[[0.125,-0.2],[-0.125,-0.2]]",0.133333347,-0.211111139,1,0,0,1.1326,o1_image,278.0984,1,278.5972,278.5972,280.5911,0,0,0,0,1,,,,,,,,,,,,,,,,,,,,,,,,,,,,,,,,,,,,,,,,,,,,,,,,,,
,,5bf5ba787ac3710001c47193,33,male,2024-04-24_13h31.48.565,stockport_simplified,2022.2.4,Win32,119.047619,661e456ee6de07e70aa9ef7b,6628df86ff56ad52dcc23d55,,,,,,,,,,,,,,,,,,,,,,,,,,,,,,,,,,,,,,,,,,,,,,,,,,,,,,,,0,34,34,52,1,N,M,C,o1_image,stimuli/out1.png,stimuli/correct_out1.png,stimuli/out2.png,,,,,,,,,,,,,,,,,,,,,,,,,,,,,,,,,,,,,,
,,5bf5ba787ac3710001c47193,33,male,2024-04-24_13h31.48.565,stockport_simplified,2022.2.4,Win32,119.047619,661e456ee6de07e70aa9ef7b,6628df86ff56ad52dcc23d55,,,,,,,,,,,,,,,,,,,,,,,,,,,,,,,,,,280.5913,282.5598,"[5,3,2,1,6,4,8,7]","[[-0.3,0.2],[0.3,0.2]]","[[0.125,-0.2],[-0.125,-0.2]]",0.09629631,-0.207407422,1,0,0,1.4544,o1_image,282.5609,1,283.0625,283.0626,285.0538,0,0,0,0,1,,,,,,,,,,,,,,,,,,,,,,,,,,,,,,,,,,,,,,,,,,,,,,,,,,
,,5bf5ba787ac3710001c47193,33,male,2024-04-24_13h31.48.565,stockport_simplified,2022.2.4,Win32,119.047619,661e456ee6de07e70aa9ef7b,6628df86ff56ad52dcc23d55,,,,,,,,,,,,,,,,,,,,,,,,,,,,,,,,,,,,,,,,,,,,,,,,,,,,,,,,0,35,35,37,1,A,Y,N,o1_image,stimuli/out1.png,stimuli/correct_out1.png,stimuli/out2.png,,,,,,,,,,,,,,,,,,,,,,,,,,,,,,,,,,,,,,
,,5bf5ba787ac3710001c47193,33,male,2024-04-24_13h31.48.565,stockport_simplified,2022.2.4,Win32,119.047619,661e456ee6de07e70aa9ef7b,6628df86ff56ad52dcc23d55,,,,,,,,,,,,,,,,,,,,,,,,,,,,,,,,,,285.0556,286.9713,"[5,3,2,1,6,4,8,7]","[[-0.3,0.2],[0.3,0.2]]","[[0.125,-0.2],[-0.125,-0.2]]",-0.151851866,-0.214814857,1,0,0,1.4079,o2_image,286.9736,1,287.4691,287.4693,289.4683,0,0,0,0,1,,,,,,,,,,,,,,,,,,,,,,,,,,,,,,,,,,,,,,,,,,,,,,,,,,
,,5bf5ba787ac3710001c47193,33,male,2024-04-24_13h31.48.565,stockport_simplified,2022.2.4,Win32,119.047619,661e456ee6de07e70aa9ef7b,6628df86ff56ad52dcc23d55,,,,,,,,,,,,,,,,,,,,,,,,,,,,,,,,,,,,,,,,,,,,,,,,,,,,,,,,0,36,36,25,1,N,M,D,o2_image,stimuli/out2.png,stimuli/out1.png,stimuli/correct_out2.png,,,,,,,,,,,,,,,,,,,,,,,,,,,,,,,,,,,,,,
,,5bf5ba787ac3710001c47193,33,male,2024-04-24_13h31.48.565,stockport_simplified,2022.2.4,Win32,119.047619,661e456ee6de07e70aa9ef7b,6628df86ff56ad52dcc23d55,,,,,,,,,,,,,,,,,,,,,,,,,,,,,,,,,,289.4701,291.4458,"[5,3,2,1,6,4,8,7]","[[0.3,0.2],[-0.3,0.2]]","[[-0.125,-0.2],[0.125,-0.2]]",0.091666681,-0.204629616,1,0,0,1.4673,o2_image,291.4462,1,291.9429,291.9431,293.9433,0,0,0,0,1,,,,,,,,,,,,,,,,,,,,,,,,,,,,,,,,,,,,,,,,,,,,,,,,,,
,,5bf5ba787ac3710001c47193,33,male,2024-04-24_13h31.48.565,stockport_simplified,2022.2.4,Win32,119.047619,661e456ee6de07e70aa9ef7b,6628df86ff56ad52dcc23d55,,,,,,,,,,,,,,,,,,,,,,,,,,,,,,,,,,,,,,,,,,,,,,,,,,,,,,,,0,37,37,41,1,B,X,N,o2_image,stimuli/out2.png,stimuli/out1.png,stimuli/correct_out2.png,,,,,,,,,,,,,,,,,,,,,,,,,,,,,,,,,,,,,,
,,5bf5ba787ac3710001c47193,33,male,2024-04-24_13h31.48.565,stockport_simplified,2022.2.4,Win32,119.047619,661e456ee6de07e70aa9ef7b,6628df86ff56ad52dcc23d55,,,,,,,,,,,,,,,,,,,,,,,,,,,,,,,,,,293.9455,295.9626,"[5,3,2,1,6,4,8,7]","[[0.3,0.2],[-0.3,0.2]]","[[0.125,-0.2],[-0.125,-0.2]]",-0.150925884,-0.165740755,1,0,0,1.505,o2_image,295.9651,1,296.4512,296.4514,298.4512,0,0,0,0,1,,,,,,,,,,,,,,,,,,,,,,,,,,,,,,,,,,,,,,,,,,,,,,,,,,
,,5bf5ba787ac3710001c47193,33,male,2024-04-24_13h31.48.565,stockport_simplified,2022.2.4,Win32,119.047619,661e456ee6de07e70aa9ef7b,6628df86ff56ad52dcc23d55,,,,,,,,,,,,,,,,,,,,,,,,,,,,,,,,,,,,,,,,,,,,,,,,,,,,,,,,0,38,38,56,1,N,M,D,o2_image,stimuli/out2.png,stimuli/out1.png,stimuli/correct_out2.png,,,,,,,,,,,,,,,,,,,,,,,,,,,,,,,,,,,,,,
,,5bf5ba787ac3710001c47193,33,male,2024-04-24_13h31.48.565,stockport_simplified,2022.2.4,Win32,119.047619,661e456ee6de07e70aa9ef7b,6628df86ff56ad52dcc23d55,,,,,,,,,,,,,,,,,,,,,,,,,,,,,,,,,,298.4529,300.4809,"[5,3,2,1,6,4,8,7]","[[0.3,0.2],[-0.3,0.2]]","[[0.125,-0.2],[-0.125,-0.2]]",0.09629631,-0.199999986,1,0,0,1.5158,o1_image,300.4828,0,300.9729,300.9731,302.9681,0,0,0,0,1,,,,,,,,,,,,,,,,,,,,,,,,,,,,,,,,,,,,,,,,,,,,,,,,,,
,,5bf5ba787ac3710001c47193,33,male,2024-04-24_13h31.48.565,stockport_simplified,2022.2.4,Win32,119.047619,661e456ee6de07e70aa9ef7b,6628df86ff56ad52dcc23d55,,,,,,,,,,,,,,,,,,,,,,,,,,,,,,,,,,,,,,,,,,,,,,,,,,,,,,,,0,39,39,16,1,B,Y,N,o2_image,stimuli/out2.png,stimuli/out1.png,stimuli/correct_out2.png,,,,,,,,,,,,,,,,,,,,,,,,,,,,,,,,,,,,,,
,,5bf5ba787ac3710001c47193,33,male,2024-04-24_13h31.48.565,stockport_simplified,2022.2.4,Win32,119.047619,661e456ee6de07e70aa9ef7b,6628df86ff56ad52dcc23d55,,,,,,,,,,,,,,,,,,,,,,,,,,,,,,,,,,302.9683,304.589,"[5,3,2,1,6,4,8,7]","[[-0.3,0.2],[0.3,0.2]]","[[-0.125,-0.2],[0.125,-0.2]]",-0.117592564,-0.183333362,1,0,0,1.1167,o1_image,304.591,1,305.0885,305.0886,307.0918,0,0,0,0,1,,,,,,,,,,,,,,,,,,,,,,,,,,,,,,,,,,,,,,,,,,,,,,,,,,
,,5bf5ba787ac3710001c47193,33,male,2024-04-24_13h31.48.565,stockport_simplified,2022.2.4,Win32,119.047619,661e456ee6de07e70aa9ef7b,6628df86ff56ad52dcc23d55,,,,,,,,,,,,,,,,,,,,,,,,,,,,,,,,,,,,,,,,,,,,,,,,,,,,,,,,0,40,40,8,1,A,Y,N,o1_image,stimuli/out1.png,stimuli/correct_out1.png,stimuli/out2.png,,,,,,,,,,,,,,,,,,,,,,,,,,,,,,,,,,,,,,
,,5bf5ba787ac3710001c47193,33,male,2024-04-24_13h31.48.565,stockport_simplified,2022.2.4,Win32,119.047619,661e456ee6de07e70aa9ef7b,6628df86ff56ad52dcc23d55,,,,,,,,,,,,,,,,,,,,,,,,,,,,,,,,,,307.0921,309.2201,"[5,3,2,1,6,4,8,7]","[[-0.3,0.2],[0.3,0.2]]","[[-0.125,-0.2],[0.125,-0.2]]",0.092592593,-0.208333333,1,0,0,1.6202,o2_image,309.2206,1,309.724,309.7242,311.7212,0,0,0,0,1,,,,,,,,,,,,,,,,,,,,,,,,,,,,,,,,,,,,,,,,,,,,,,,,,,
,,5bf5ba787ac3710001c47193,33,male,2024-04-24_13h31.48.565,stockport_simplified,2022.2.4,Win32,119.047619,661e456ee6de07e70aa9ef7b,6628df86ff56ad52dcc23d55,,,,,,,,,,,,,,,,,,,,,,,,,,,,,,,,,,,,,,,,,,,,,,,,,,,,,,,,0,41,41,11,1,B,X,N,o2_image,stimuli/out2.png,stimuli/out1.png,stimuli/correct_out2.png,,,,,,,,,,,,,,,,,,,,,,,,,,,,,,,,,,,,,,
,,5bf5ba787ac3710001c47193,33,male,2024-04-24_13h31.48.565,stockport_simplified,2022.2.4,Win32,119.047619,661e456ee6de07e70aa9ef7b,6628df86ff56ad52dcc23d55,,,,,,,,,,,,,,,,,,,,,,,,,,,,,,,,,,311.723,313.4674,"[5,3,2,1,6,4,8,7]","[[0.3,0.2],[-0.3,0.2]]","[[0.125,-0.2],[-0.125,-0.2]]",0.07685188,-0.208333333,1,0,0,1.2366,o1_image,313.4685,1,313.9622,313.9624,315.9583,0,0,0,0,1,,,,,,,,,,,,,,,,,,,,,,,,,,,,,,,,,,,,,,,,,,,,,,,,,,
,,5bf5ba787ac3710001c47193,33,male,2024-04-24_13h31.48.565,stockport_simplified,2022.2.4,Win32,119.047619,661e456ee6de07e70aa9ef7b,6628df86ff56ad52dcc23d55,,,,,,,,,,,,,,,,,,,,,,,,,,,,,,,,,,,,,,,,,,,,,,,,,,,,,,,,0,42,42,32,1,A,X,N,o1_image,stimuli/out1.png,stimuli/correct_out1.png,stimuli/out2.png,,,,,,,,,,,,,,,,,,,,,,,,,,,,,,,,,,,,,,
,,5bf5ba787ac3710001c47193,33,male,2024-04-24_13h31.48.565,stockport_simplified,2022.2.4,Win32,119.047619,661e456ee6de07e70aa9ef7b,6628df86ff56ad52dcc23d55,,,,,,,,,,,,,,,,,,,,,,,,,,,,,,,,,,315.9596,317.8885,"[5,3,2,1,6,4,8,7]","[[0.3,0.2],[-0.3,0.2]]","[[-0.125,-0.2],[0.125,-0.2]]",0.108333376,-0.214814857,1,0,0,1.426,o2_image,317.8889,1,318.3876,318.3879,320.3921,0,0,0,0,1,,,,,,,,,,,,,,,,,,,,,,,,,,,,,,,,,,,,,,,,,,,,,,,,,,
,,5bf5ba787ac3710001c47193,33,male,2024-04-24_13h31.48.565,stockport_simplified,2022.2.4,Win32,119.047619,661e456ee6de07e70aa9ef7b,6628df86ff56ad52dcc23d55,,,,,,,,,,,,,,,,,,,,,,,,,,,,,,,,,,,,,,,,,,,,,,,,,,,,,,,,0,43,43,10,1,B,X,N,o2_image,stimuli/out2.png,stimuli/out1.png,stimuli/correct_out2.png,,,,,,,,,,,,,,,,,,,,,,,,,,,,,,,,,,,,,,
,,5bf5ba787ac3710001c47193,33,male,2024-04-24_13h31.48.565,stockport_simplified,2022.2.4,Win32,119.047619,661e456ee6de07e70aa9ef7b,6628df86ff56ad52dcc23d55,,,,,,,,,,,,,,,,,,,,,,,,,,,,,,,,,,320.3939,322.2088,"[5,3,2,1,6,4,8,7]","[[0.3,0.2],[-0.3,0.2]]","[[-0.125,-0.2],[0.125,-0.2]]",-0.104629587,-0.195370356,1,0,0,1.3074,o1_image,322.211,0,322.7079,322.7081,324.7039,0,0,0,0,1,,,,,,,,,,,,,,,,,,,,,,,,,,,,,,,,,,,,,,,,,,,,,,,,,,
,,5bf5ba787ac3710001c47193,33,male,2024-04-24_13h31.48.565,stockport_simplified,2022.2.4,Win32,119.047619,661e456ee6de07e70aa9ef7b,6628df86ff56ad52dcc23d55,,,,,,,,,,,,,,,,,,,,,,,,,,,,,,,,,,,,,,,,,,,,,,,,,,,,,,,,0,44,44,59,1,N,M,D,o2_image,stimuli/out2.png,stimuli/out1.png,stimuli/correct_out2.png,,,,,,,,,,,,,,,,,,,,,,,,,,,,,,,,,,,,,,
,,5bf5ba787ac3710001c47193,33,male,2024-04-24_13h31.48.565,stockport_simplified,2022.2.4,Win32,119.047619,661e456ee6de07e70aa9ef7b,6628df86ff56ad52dcc23d55,,,,,,,,,,,,,,,,,,,,,,,,,,,,,,,,,,324.7044,326.1408,"[5,3,2,1,6,4,8,7]","[[-0.3,0.2],[0.3,0.2]]","[[-0.125,-0.2],[0.125,-0.2]]",-0.108333305,-0.191666709,1,0,0,0.9325,o1_image,326.1428,1,326.6325,326.6327,328.6378,0,0,0,0,1,,,,,,,,,,,,,,,,,,,,,,,,,,,,,,,,,,,,,,,,,,,,,,,,,,
,,5bf5ba787ac3710001c47193,33,male,2024-04-24_13h31.48.565,stockport_simplified,2022.2.4,Win32,119.047619,661e456ee6de07e70aa9ef7b,6628df86ff56ad52dcc23d55,,,,,,,,,,,,,,,,,,,,,,,,,,,,,,,,,,,,,,,,,,,,,,,,,,,,,,,,0,45,45,5,1,A,Y,N,o1_image,stimuli/out1.png,stimuli/correct_out1.png,stimuli/out2.png,,,,,,,,,,,,,,,,,,,,,,,,,,,,,,,,,,,,,,
,,5bf5ba787ac3710001c47193,33,male,2024-04-24_13h31.48.565,stockport_simplified,2022.2.4,Win32,119.047619,661e456ee6de07e70aa9ef7b,6628df86ff56ad52dcc23d55,,,,,,,,,,,,,,,,,,,,,,,,,,,,,,,,,,328.6381,331.3395,"[5,3,2,1,6,4,8,7]","[[0.3,0.2],[-0.3,0.2]]","[[0.125,-0.2],[-0.125,-0.2]]",-0.112037023,-0.175000014,1,0,0,2.1992,o2_image,331.3479,1,331.8372,331.8373,333.8366,0,0,0,0,1,,,,,,,,,,,,,,,,,,,,,,,,,,,,,,,,,,,,,,,,,,,,,,,,,,
,,5bf5ba787ac3710001c47193,33,male,2024-04-24_13h31.48.565,stockport_simplified,2022.2.4,Win32,119.047619,661e456ee6de07e70aa9ef7b,6628df86ff56ad52dcc23d55,,,,,,,,,,,,,,,,,,,,,,,,,,,,,,,,,,,,,,,,,,,,,,,,,,,,,,,,0,46,46,45,1,B,Y,N,o2_image,stimuli/out2.png,stimuli/out1.png,stimuli/correct_out2.png,,,,,,,,,,,,,,,,,,,,,,,,,,,,,,,,,,,,,,
,,5bf5ba787ac3710001c47193,33,male,2024-04-24_13h31.48.565,stockport_simplified,2022.2.4,Win32,119.047619,661e456ee6de07e70aa9ef7b,6628df86ff56ad52dcc23d55,,,,,,,,,,,,,,,,,,,,,,,,,,,,,,,,,,333.8368,336.0523,"[5,3,2,1,6,4,8,7]","[[0.3,0.2],[-0.3,0.2]]","[[-0.125,-0.2],[0.125,-0.2]]",-0.103703675,-0.176851838,1,0,0,1.7044,o1_image,336.0534,1,336.5379,336.538,338.5325,0,0,0,0,1,,,,,,,,,,,,,,,,,,,,,,,,,,,,,,,,,,,,,,,,,,,,,,,,,,
,,5bf5ba787ac3710001c47193,33,male,2024-04-24_13h31.48.565,stockport_simplified,2022.2.4,Win32,119.047619,661e456ee6de07e70aa9ef7b,6628df86ff56ad52dcc23d55,,,,,,,,,,,,,,,,,,,,,,,,,,,,,,,,,,,,,,,,,,,,,,,,,,,,,,,,0,47,47,39,1,A,Y,N,o1_image,stimuli/out1.png,stimuli/correct_out1.png,stimuli/out2.png,,,,,,,,,,,,,,,,,,,,,,,,,,,,,,,,,,,,,,
,,5bf5ba787ac3710001c47193,33,male,2024-04-24_13h31.48.565,stockport_simplified,2022.2.4,Win32,119.047619,661e456ee6de07e70aa9ef7b,6628df86ff56ad52dcc23d55,,,,,,,,,,,,,,,,,,,,,,,,,,,,,,,,,,338.5329,340.6304,"[5,3,2,1,6,4,8,7]","[[0.3,0.2],[-0.3,0.2]]","[[0.125,-0.2],[-0.125,-0.2]]",0.167592578,-0.200925968,1,0,0,1.5904,o1_image,340.6315,1,341.1257,341.1257,343.1288,0,0,0,0,1,,,,,,,,,,,,,,,,,,,,,,,,,,,,,,,,,,,,,,,,,,,,,,,,,,
,,5bf5ba787ac3710001c47193,33,male,2024-04-24_13h31.48.565,stockport_simplified,2022.2.4,Win32,119.047619,661e456ee6de07e70aa9ef7b,6628df86ff56ad52dcc23d55,,,,,,,,,,,,,,,,,,,,,,,,,,,,,,,,,,,,,,,,,,,,,,,,,,,,,,,,0,48,48,33,1,A,X,N,o1_image,stimuli/out1.png,stimuli/correct_out1.png,stimuli/out2.png,,,,,,,,,,,,,,,,,,,,,,,,,,,,,,,,,,,,,,
,,5bf5ba787ac3710001c47193,33,male,2024-04-24_13h31.48.565,stockport_simplified,2022.2.4,Win32,119.047619,661e456ee6de07e70aa9ef7b,6628df86ff56ad52dcc23d55,,,,,,,,,,,,,,,,,,,,,,,,,,,,,,,,,,343.1305,345.7481,"[5,3,2,1,6,4,8,7]","[[0.3,0.2],[-0.3,0.2]]","[[0.125,-0.2],[-0.125,-0.2]]",-0.148148148,-0.186111097,1,0,0,2.1079,o2_image,345.7496,1,346.2502,346.2504,348.2502,0,0,0,0,1,,,,,,,,,,,,,,,,,,,,,,,,,,,,,,,,,,,,,,,,,,,,,,,,,,
,,5bf5ba787ac3710001c47193,33,male,2024-04-24_13h31.48.565,stockport_simplified,2022.2.4,Win32,119.047619,661e456ee6de07e70aa9ef7b,6628df86ff56ad52dcc23d55,,,,,,,,,,,,,,,,,,,,,,,,,,,,,,,,,,,,,,,,,,,,,,,,,,,,,,,,0,49,49,49,1,B,Y,N,o2_image,stimuli/out2.png,stimuli/out1.png,stimuli/correct_out2.png,,,,,,,,,,,,,,,,,,,,,,,,,,,,,,,,,,,,,,
,,5bf5ba787ac3710001c47193,33,male,2024-04-24_13h31.48.565,stockport_simplified,2022.2.4,Win32,119.047619,661e456ee6de07e70aa9ef7b,6628df86ff56ad52dcc23d55,,,,,,,,,,,,,,,,,,,,,,,,,,,,,,,,,,348.2517,350.7691,"[5,3,2,1,6,4,8,7]","[[-0.3,0.2],[0.3,0.2]]","[[-0.125,-0.2],[0.125,-0.2]]",-0.127777735,-0.183333362,1,0,0,2.011,o1_image,350.7703,1,351.2542,351.2542,353.252,0,0,0,0,1,,,,,,,,,,,,,,,,,,,,,,,,,,,,,,,,,,,,,,,,,,,,,,,,,,
,,5bf5ba787ac3710001c47193,33,male,2024-04-24_13h31.48.565,stockport_simplified,2022.2.4,Win32,119.047619,661e456ee6de07e70aa9ef7b,6628df86ff56ad52dcc23d55,,,,,,,,,,,,,,,,,,,,,,,,,,,,,,,,,,,,,,,,,,,,,,,,,,,,,,,,0,50,50,35,1,A,Y,N,o1_image,stimuli/out1.png,stimuli/correct_out1.png,stimuli/out2.png,,,,,,,,,,,,,,,,,,,,,,,,,,,,,,,,,,,,,,
,,5bf5ba787ac3710001c47193,33,male,2024-04-24_13h31.48.565,stockport_simplified,2022.2.4,Win32,119.047619,661e456ee6de07e70aa9ef7b,6628df86ff56ad52dcc23d55,,,,,,,,,,,,,,,,,,,,,,,,,,,,,,,,,,353.2538,355.8152,"[5,3,2,1,6,4,8,7]","[[0.3,0.2],[-0.3,0.2]]","[[0.125,-0.2],[-0.125,-0.2]]",0.216666681,-0.237037023,1,0,0,1.6809,o1_image,355.8167,1,356.321,356.3211,358.3204,0,0,0,0,1,,,,,,,,,,,,,,,,,,,,,,,,,,,,,,,,,,,,,,,,,,,,,,,,,,
,,5bf5ba787ac3710001c47193,33,male,2024-04-24_13h31.48.565,stockport_simplified,2022.2.4,Win32,119.047619,661e456ee6de07e70aa9ef7b,6628df86ff56ad52dcc23d55,,,,,,,,,,,,,,,,,,,,,,,,,,,,,,,,,,,,,,,,,,,,,,,,,,,,,,,,0,51,51,7,1,A,Y,N,o1_image,stimuli/out1.png,stimuli/correct_out1.png,stimuli/out2.png,,,,,,,,,,,,,,,,,,,,,,,,,,,,,,,,,,,,,,
,,5bf5ba787ac3710001c47193,33,male,2024-04-24_13h31.48.565,stockport_simplified,2022.2.4,Win32,119.047619,661e456ee6de07e70aa9ef7b,6628df86ff56ad52dcc23d55,,,,,,,,,,,,,,,,,,,,,,,,,,,,,,,,,,358.3206,360.1186,"[5,3,2,1,6,4,8,7]","[[-0.3,0.2],[0.3,0.2]]","[[-0.125,-0.2],[0.125,-0.2]]",0.112037023,-0.194444444,1,0,0,1.2937,o2_image,360.1202,1,360.6203,360.6203,362.6194,0,0,0,0,1,,,,,,,,,,,,,,,,,,,,,,,,,,,,,,,,,,,,,,,,,,,,,,,,,,
,,5bf5ba787ac3710001c47193,33,male,2024-04-24_13h31.48.565,stockport_simplified,2022.2.4,Win32,119.047619,661e456ee6de07e70aa9ef7b,6628df86ff56ad52dcc23d55,,,,,,,,,,,,,,,,,,,,,,,,,,,,,,,,,,,,,,,,,,,,,,,,,,,,,,,,0,52,52,12,1,B,X,N,o2_image,stimuli/out2.png,stimuli/out1.png,stimuli/correct_out2.png,,,,,,,,,,,,,,,,,,,,,,,,,,,,,,,,,,,,,,
,,5bf5ba787ac3710001c47193,33,male,2024-04-24_13h31.48.565,stockport_simplified,2022.2.4,Win32,119.047619,661e456ee6de07e70aa9ef7b,6628df86ff56ad52dcc23d55,,,,,,,,,,,,,,,,,,,,,,,,,,,,,,,,,,362.6207,365.1368,"[5,3,2,1,6,4,8,7]","[[-0.3,0.2],[0.3,0.2]]","[[-0.125,-0.2],[0.125,-0.2]]",-0.112962935,-0.183333362,1,0,0,2.0123,o1_image,365.1466,1,365.6519,365.6519,367.656,0,0,0,0,1,,,,,,,,,,,,,,,,,,,,,,,,,,,,,,,,,,,,,,,,,,,,,,,,,,
,,5bf5ba787ac3710001c47193,33,male,2024-04-24_13h31.48.565,stockport_simplified,2022.2.4,Win32,119.047619,661e456ee6de07e70aa9ef7b,6628df86ff56ad52dcc23d55,,,,,,,,,,,,,,,,,,,,,,,,,,,,,,,,,,,,,,,,,,,,,,,,,,,,,,,,0,53,53,54,1,N,M,C,o1_image,stimuli/out1.png,stimuli/correct_out1.png,stimuli/out2.png,,,,,,,,,,,,,,,,,,,,,,,,,,,,,,,,,,,,,,
,,5bf5ba787ac3710001c47193,33,male,2024-04-24_13h31.48.565,stockport_simplified,2022.2.4,Win32,119.047619,661e456ee6de07e70aa9ef7b,6628df86ff56ad52dcc23d55,,,,,,,,,,,,,,,,,,,,,,,,,,,,,,,,,,367.6562,370.5812,"[5,3,2,1,6,4,8,7]","[[-0.3,0.2],[0.3,0.2]]","[[0.125,-0.2],[-0.125,-0.2]]",0.08148151,-0.209259245,1,0,0,2.4206,o1_image,370.5815,1,371.077,371.0771,373.0701,0,0,0,0,1,,,,,,,,,,,,,,,,,,,,,,,,,,,,,,,,,,,,,,,,,,,,,,,,,,
,,5bf5ba787ac3710001c47193,33,male,2024-04-24_13h31.48.565,stockport_simplified,2022.2.4,Win32,119.047619,661e456ee6de07e70aa9ef7b,6628df86ff56ad52dcc23d55,,,,,,,,,,,,,,,,,,,,,,,,,,,,,,,,,,,,,,,,,,,,,,,,,,,,,,,,0,54,54,20,1,N,M,C,o1_image,stimuli/out1.png,stimuli/correct_out1.png,stimuli/out2.png,,,,,,,,,,,,,,,,,,,,,,,,,,,,,,,,,,,,,,
,,5bf5ba787ac3710001c47193,33,male,2024-04-24_13h31.48.565,stockport_simplified,2022.2.4,Win32,119.047619,661e456ee6de07e70aa9ef7b,6628df86ff56ad52dcc23d55,,,,,,,,,,,,,,,,,,,,,,,,,,,,,,,,,,373.0719,374.843,"[5,3,2,1,6,4,8,7]","[[-0.3,0.2],[0.3,0.2]]","[[0.125,-0.2],[-0.125,-0.2]]",0.131481524,-0.212962963,1,0,0,1.2616,o1_image,374.8451,1,375.3455,375.3456,377.3524,0,0,0,0,1,,,,,,,,,,,,,,,,,,,,,,,,,,,,,,,,,,,,,,,,,,,,,,,,,,
,,5bf5ba787ac3710001c47193,33,male,2024-04-24_13h31.48.565,stockport_simplified,2022.2.4,Win32,119.047619,661e456ee6de07e70aa9ef7b,6628df86ff56ad52dcc23d55,,,,,,,,,,,,,,,,,,,,,,,,,,,,,,,,,,,,,,,,,,,,,,,,,,,,,,,,0,55,55,4,1,A,X,N,o1_image,stimuli/out1.png,stimuli/correct_out1.png,stimuli/out2.png,,,,,,,,,,,,,,,,,,,,,,,,,,,,,,,,,,,,,,
,,5bf5ba787ac3710001c47193,33,male,2024-04-24_13h31.48.565,stockport_simplified,2022.2.4,Win32,119.047619,661e456ee6de07e70aa9ef7b,6628df86ff56ad52dcc23d55,,,,,,,,,,,,,,,,,,,,,,,,,,,,,,,,,,377.354,379.3405,"[5,3,2,1,6,4,8,7]","[[-0.3,0.2],[0.3,0.2]]","[[-0.125,-0.2],[0.125,-0.2]]",-0.138888889,-0.19722225,1,0,0,1.4785,o1_image,379.3413,0,379.8264,379.8264,381.8265,0,0,0,0,1,,,,,,,,,,,,,,,,,,,,,,,,,,,,,,,,,,,,,,,,,,,,,,,,,,
,,5bf5ba787ac3710001c47193,33,male,2024-04-24_13h31.48.565,stockport_simplified,2022.2.4,Win32,119.047619,661e456ee6de07e70aa9ef7b,6628df86ff56ad52dcc23d55,,,,,,,,,,,,,,,,,,,,,,,,,,,,,,,,,,,,,,,,,,,,,,,,,,,,,,,,0,56,56,57,1,N,M,D,o2_image,stimuli/out2.png,stimuli/out1.png,stimuli/correct_out2.png,,,,,,,,,,,,,,,,,,,,,,,,,,,,,,,,,,,,,,
,,5bf5ba787ac3710001c47193,33,male,2024-04-24_13h31.48.565,stockport_simplified,2022.2.4,Win32,119.047619,661e456ee6de07e70aa9ef7b,6628df86ff56ad52dcc23d55,,,,,,,,,,,,,,,,,,,,,,,,,,,,,,,,,,381.8282,384.5288,"[5,3,2,1,6,4,8,7]","[[0.3,0.2],[-0.3,0.2]]","[[-0.125,-0.2],[0.125,-0.2]]",0.079629616,-0.219444487,1,0,0,2.1938,o2_image,384.5305,0,385.0301,385.0303,387.018,0,0,0,0,1,,,,,,,,,,,,,,,,,,,,,,,,,,,,,,,,,,,,,,,,,,,,,,,,,,
,,5bf5ba787ac3710001c47193,33,male,2024-04-24_13h31.48.565,stockport_simplified,2022.2.4,Win32,119.047619,661e456ee6de07e70aa9ef7b,6628df86ff56ad52dcc23d55,,,,,,,,,,,,,,,,,,,,,,,,,,,,,,,,,,,,,,,,,,,,,,,,,,,,,,,,0,57,57,50,1,N,M,C,o1_image,stimuli/out1.png,stimuli/correct_out1.png,stimuli/out2.png,,,,,,,,,,,,,,,,,,,,,,,,,,,,,,,,,,,,,,
,,5bf5ba787ac3710001c47193,33,male,2024-04-24_13h31.48.565,stockport_simplified,2022.2.4,Win32,119.047619,661e456ee6de07e70aa9ef7b,6628df86ff56ad52dcc23d55,,,,,,,,,,,,,,,,,,,,,,,,,,,,,,,,,,387.0201,388.8513,"[5,3,2,1,6,4,8,7]","[[-0.3,0.2],[0.3,0.2]]","[[0.125,-0.2],[-0.125,-0.2]]",-0.103703675,-0.212037051,1,0,0,1.3301,o2_image,388.8517,0,389.3535,389.3537,391.3555,0,0,0,0,1,,,,,,,,,,,,,,,,,,,,,,,,,,,,,,,,,,,,,,,,,,,,,,,,,,
,,5bf5ba787ac3710001c47193,33,male,2024-04-24_13h31.48.565,stockport_simplified,2022.2.4,Win32,119.047619,661e456ee6de07e70aa9ef7b,6628df86ff56ad52dcc23d55,,,,,,,,,,,,,,,,,,,,,,,,,,,,,,,,,,,,,,,,,,,,,,,,,,,,,,,,0,58,58,22,1,N,M,C,o1_image,stimuli/out1.png,stimuli/correct_out1.png,stimuli/out2.png,,,,,,,,,,,,,,,,,,,,,,,,,,,,,,,,,,,,,,
,,5bf5ba787ac3710001c47193,33,male,2024-04-24_13h31.48.565,stockport_simplified,2022.2.4,Win32,119.047619,661e456ee6de07e70aa9ef7b,6628df86ff56ad52dcc23d55,,,,,,,,,,,,,,,,,,,,,,,,,,,,,,,,,,391.3571,392.8781,"[5,3,2,1,6,4,8,7]","[[-0.3,0.2],[0.3,0.2]]","[[-0.125,-0.2],[0.125,-0.2]]",-0.112037023,-0.181481467,1,0,0,1.0156,o1_image,392.8786,1,393.3741,393.3741,395.369,0,0,0,0,1,,,,,,,,,,,,,,,,,,,,,,,,,,,,,,,,,,,,,,,,,,,,,,,,,,
,,5bf5ba787ac3710001c47193,33,male,2024-04-24_13h31.48.565,stockport_simplified,2022.2.4,Win32,119.047619,661e456ee6de07e70aa9ef7b,6628df86ff56ad52dcc23d55,,,,,,,,,,,,,,,,,,,,,,,,,,,,,,,,,,,,,,,,,,,,,,,,,,,,,,,,0,59,59,2,1,A,X,N,o1_image,stimuli/out1.png,stimuli/correct_out1.png,stimuli/out2.png,,,,,,,,,,,,,,,,,,,,,,,,,,,,,,,,,,,,,,
,,5bf5ba787ac3710001c47193,33,male,2024-04-24_13h31.48.565,stockport_simplified,2022.2.4,Win32,119.047619,661e456ee6de07e70aa9ef7b,6628df86ff56ad52dcc23d55,,,,,,,,,,,,,,,,,,,,,,,,,,,,,,,,,,395.3705,397.7059,"[5,3,2,1,6,4,8,7]","[[0.3,0.2],[-0.3,0.2]]","[[-0.125,-0.2],[0.125,-0.2]]",-0.099074046,-0.209259245,1,0,0,1.8327,o1_image,397.708,0,398.2055,398.2056,400.2017,0,0,0,0,1,,,,,,,,,,,,,,,,,,,,,,,,,,,,,,,,,,,,,,,,,,,,,,,,,,
,,5bf5ba787ac3710001c47193,33,male,2024-04-24_13h31.48.565,stockport_simplified,2022.2.4,Win32,119.047619,661e456ee6de07e70aa9ef7b,6628df86ff56ad52dcc23d55,,,,,,,,,,,,,,,,,,,,,,,,,,,,,,,,,,,,,,,,,,,,,,,,,,,,,,,,1,0,60,58,1,N,M,D,o2_image,stimuli/out2.png,stimuli/out1.png,stimuli/correct_out2.png,,,,,,,,,,,,,,,,,,,,,,,,,,,,,,,,,,,,,,
,,5bf5ba787ac3710001c47193,33,male,2024-04-24_13h31.48.565,stockport_simplified,2022.2.4,Win32,119.047619,661e456ee6de07e70aa9ef7b,6628df86ff56ad52dcc23d55,,,,,,,,,,,,,,,,,,,,,,,,,,,,,,,,,,400.2035,402.2732,"[5,3,2,1,6,4,8,7]","[[-0.3,0.2],[0.3,0.2]]","[[-0.125,-0.2],[0.125,-0.2]]",0.10092594,-0.205555598,1,0,0,1.5621,o2_image,402.2754,1,402.7754,402.7754,404.7703,0,0,0,0,1,,,,,,,,,,,,,,,,,,,,,,,,,,,,,,,,,,,,,,,,,,,,,,,,,,
,,5bf5ba787ac3710001c47193,33,male,2024-04-24_13h31.48.565,stockport_simplified,2022.2.4,Win32,119.047619,661e456ee6de07e70aa9ef7b,6628df86ff56ad52dcc23d55,,,,,,,,,,,,,,,,,,,,,,,,,,,,,,,,,,,,,,,,,,,,,,,,,,,,,,,,1,1,61,12,1,B,X,N,o2_image,stimuli/out2.png,stimuli/out1.png,stimuli/correct_out2.png,,,,,,,,,,,,,,,,,,,,,,,,,,,,,,,,,,,,,,
,,5bf5ba787ac3710001c47193,33,male,2024-04-24_13h31.48.565,stockport_simplified,2022.2.4,Win32,119.047619,661e456ee6de07e70aa9ef7b,6628df86ff56ad52dcc23d55,,,,,,,,,,,,,,,,,,,,,,,,,,,,,,,,,,404.7707,407.4837,"[5,3,2,1,6,4,8,7]","[[0.3,0.2],[-0.3,0.2]]","[[-0.125,-0.2],[0.125,-0.2]]",0.066666709,-0.208333333,1,0,0,2.2073,o2_image,407.4921,0,407.9925,407.9927,409.9937,0,0,0,0,1,,,,,,,,,,,,,,,,,,,,,,,,,,,,,,,,,,,,,,,,,,,,,,,,,,
,,5bf5ba787ac3710001c47193,33,male,2024-04-24_13h31.48.565,stockport_simplified,2022.2.4,Win32,119.047619,661e456ee6de07e70aa9ef7b,6628df86ff56ad52dcc23d55,,,,,,,,,,,,,,,,,,,,,,,,,,,,,,,,,,,,,,,,,,,,,,,,,,,,,,,,1,2,62,22,1,N,M,C,o1_image,stimuli/out1.png,stimuli/correct_out1.png,stimuli/out2.png,,,,,,,,,,,,,,,,,,,,,,,,,,,,,,,,,,,,,,
,,5bf5ba787ac3710001c47193,33,male,2024-04-24_13h31.48.565,stockport_simplified,2022.2.4,Win32,119.047619,661e456ee6de07e70aa9ef7b,6628df86ff56ad52dcc23d55,,,,,,,,,,,,,,,,,,,,,,,,,,,,,,,,,,409.9939,411.7483,"[5,3,2,1,6,4,8,7]","[[-0.3,0.2],[0.3,0.2]]","[[-0.125,-0.2],[0.125,-0.2]]",0.097222222,-0.220370399,1,0,0,1.2518,o2_image,411.7487,1,412.2457,412.2458,414.2352,0,0,0,0,1,,,,,,,,,,,,,,,,,,,,,,,,,,,,,,,,,,,,,,,,,,,,,,,,,,
,,5bf5ba787ac3710001c47193,33,male,2024-04-24_13h31.48.565,stockport_simplified,2022.2.4,Win32,119.047619,661e456ee6de07e70aa9ef7b,6628df86ff56ad52dcc23d55,,,,,,,,,,,,,,,,,,,,,,,,,,,,,,,,,,,,,,,,,,,,,,,,,,,,,,,,1,3,63,13,1,B,X,N,o2_image,stimuli/out2.png,stimuli/out1.png,stimuli/correct_out2.png,,,,,,,,,,,,,,,,,,,,,,,,,,,,,,,,,,,,,,
,,5bf5ba787ac3710001c47193,33,male,2024-04-24_13h31.48.565,stockport_simplified,2022.2.4,Win32,119.047619,661e456ee6de07e70aa9ef7b,6628df86ff56ad52dcc23d55,,,,,,,,,,,,,,,,,,,,,,,,,,,,,,,,,,414.2355,415.9927,"[5,3,2,1,6,4,8,7]","[[-0.3,0.2],[0.3,0.2]]","[[0.125,-0.2],[-0.125,-0.2]]",0.118518547,-0.23055557,1,0,0,1.2527,o1_image,415.9936,1,416.4954,416.4954,418.4999,0,0,0,0,1,,,,,,,,,,,,,,,,,,,,,,,,,,,,,,,,,,,,,,,,,,,,,,,,,,
,,5bf5ba787ac3710001c47193,33,male,2024-04-24_13h31.48.565,stockport_simplified,2022.2.4,Win32,119.047619,661e456ee6de07e70aa9ef7b,6628df86ff56ad52dcc23d55,,,,,,,,,,,,,,,,,,,,,,,,,,,,,,,,,,,,,,,,,,,,,,,,,,,,,,,,1,4,64,0,1,A,X,N,o1_image,stimuli/out1.png,stimuli/correct_out1.png,stimuli/out2.png,,,,,,,,,,,,,,,,,,,,,,,,,,,,,,,,,,,,,,
,,5bf5ba787ac3710001c47193,33,male,2024-04-24_13h31.48.565,stockport_simplified,2022.2.4,Win32,119.047619,661e456ee6de07e70aa9ef7b,6628df86ff56ad52dcc23d55,,,,,,,,,,,,,,,,,,,,,,,,,,,,,,,,,,418.5002,420.0389,"[5,3,2,1,6,4,8,7]","[[-0.3,0.2],[0.3,0.2]]","[[-0.125,-0.2],[0.125,-0.2]]",-0.099999958,-0.205555598,1,0,0,1.02,o1_image,420.0392,1,420.5357,420.5357,422.5311,0,0,0,0,1,,,,,,,,,,,,,,,,,,,,,,,,,,,,,,,,,,,,,,,,,,,,,,,,,,
,,5bf5ba787ac3710001c47193,33,male,2024-04-24_13h31.48.565,stockport_simplified,2022.2.4,Win32,119.047619,661e456ee6de07e70aa9ef7b,6628df86ff56ad52dcc23d55,,,,,,,,,,,,,,,,,,,,,,,,,,,,,,,,,,,,,,,,,,,,,,,,,,,,,,,,1,5,65,38,1,A,Y,N,o1_image,stimuli/out1.png,stimuli/correct_out1.png,stimuli/out2.png,,,,,,,,,,,,,,,,,,,,,,,,,,,,,,,,,,,,,,
,,5bf5ba787ac3710001c47193,33,male,2024-04-24_13h31.48.565,stockport_simplified,2022.2.4,Win32,119.047619,661e456ee6de07e70aa9ef7b,6628df86ff56ad52dcc23d55,,,,,,,,,,,,,,,,,,,,,,,,,,,,,,,,,,422.5328,424.6542,"[5,3,2,1,6,4,8,7]","[[-0.3,0.2],[0.3,0.2]]","[[0.125,-0.2],[-0.125,-0.2]]",-0.092592593,-0.229629658,1,0,0,1.6095,o2_image,424.656,0,425.1558,425.1558,427.1511,0,0,0,0,1,,,,,,,,,,,,,,,,,,,,,,,,,,,,,,,,,,,,,,,,,,,,,,,,,,
,,5bf5ba787ac3710001c47193,33,male,2024-04-24_13h31.48.565,stockport_simplified,2022.2.4,Win32,119.047619,661e456ee6de07e70aa9ef7b,6628df86ff56ad52dcc23d55,,,,,,,,,,,,,,,,,,,,,,,,,,,,,,,,,,,,,,,,,,,,,,,,,,,,,,,,1,6,66,52,1,N,M,C,o1_image,stimuli/out1.png,stimuli/correct_out1.png,stimuli/out2.png,,,,,,,,,,,,,,,,,,,,,,,,,,,,,,,,,,,,,,
,,5bf5ba787ac3710001c47193,33,male,2024-04-24_13h31.48.565,stockport_simplified,2022.2.4,Win32,119.047619,661e456ee6de07e70aa9ef7b,6628df86ff56ad52dcc23d55,,,,,,,,,,,,,,,,,,,,,,,,,,,,,,,,,,427.1526,429.0764,"[5,3,2,1,6,4,8,7]","[[0.3,0.2],[-0.3,0.2]]","[[-0.125,-0.2],[0.125,-0.2]]",0.083333333,-0.192592621,1,0,0,1.4176,o2_image,429.0776,0,429.5677,429.5679,431.5626,0,0,0,0,1,,,,,,,,,,,,,,,,,,,,,,,,,,,,,,,,,,,,,,,,,,,,,,,,,,
,,5bf5ba787ac3710001c47193,33,male,2024-04-24_13h31.48.565,stockport_simplified,2022.2.4,Win32,119.047619,661e456ee6de07e70aa9ef7b,6628df86ff56ad52dcc23d55,,,,,,,,,,,,,,,,,,,,,,,,,,,,,,,,,,,,,,,,,,,,,,,,,,,,,,,,1,7,67,23,1,N,M,C,o1_image,stimuli/out1.png,stimuli/correct_out1.png,stimuli/out2.png,,,,,,,,,,,,,,,,,,,,,,,,,,,,,,,,,,,,,,
,,5bf5ba787ac3710001c47193,33,male,2024-04-24_13h31.48.565,stockport_simplified,2022.2.4,Win32,119.047619,661e456ee6de07e70aa9ef7b,6628df86ff56ad52dcc23d55,,,,,,,,,,,,,,,,,,,,,,,,,,,,,,,,,,431.5642,433.1793,"[5,3,2,1,6,4,8,7]","[[-0.3,0.2],[0.3,0.2]]","[[0.125,-0.2],[-0.125,-0.2]]",-0.113888847,-0.205555598,1,0,0,1.1121,o2_image,433.1797,1,433.6908,433.6909,435.6959,0,0,0,0,1,,,,,,,,,,,,,,,,,,,,,,,,,,,,,,,,,,,,,,,,,,,,,,,,,,
,,5bf5ba787ac3710001c47193,33,male,2024-04-24_13h31.48.565,stockport_simplified,2022.2.4,Win32,119.047619,661e456ee6de07e70aa9ef7b,6628df86ff56ad52dcc23d55,,,,,,,,,,,,,,,,,,,,,,,,,,,,,,,,,,,,,,,,,,,,,,,,,,,,,,,,1,8,68,46,1,B,Y,N,o2_image,stimuli/out2.png,stimuli/out1.png,stimuli/correct_out2.png,,,,,,,,,,,,,,,,,,,,,,,,,,,,,,,,,,,,,,
,,5bf5ba787ac3710001c47193,33,male,2024-04-24_13h31.48.565,stockport_simplified,2022.2.4,Win32,119.047619,661e456ee6de07e70aa9ef7b,6628df86ff56ad52dcc23d55,,,,,,,,,,,,,,,,,,,,,,,,,,,,,,,,,,435.6978,437.26,"[5,3,2,1,6,4,8,7]","[[-0.3,0.2],[0.3,0.2]]","[[-0.125,-0.2],[0.125,-0.2]]",-0.14444443,-0.212962963,1,0,0,1.0562,o1_image,437.262,0,437.7587,437.7589,439.7497,0,0,0,0,1,,,,,,,,,,,,,,,,,,,,,,,,,,,,,,,,,,,,,,,,,,,,,,,,,,
,,5bf5ba787ac3710001c47193,33,male,2024-04-24_13h31.48.565,stockport_simplified,2022.2.4,Win32,119.047619,661e456ee6de07e70aa9ef7b,6628df86ff56ad52dcc23d55,,,,,,,,,,,,,,,,,,,,,,,,,,,,,,,,,,,,,,,,,,,,,,,,,,,,,,,,1,9,69,25,1,N,M,D,o2_image,stimuli/out2.png,stimuli/out1.png,stimuli/correct_out2.png,,,,,,,,,,,,,,,,,,,,,,,,,,,,,,,,,,,,,,
,,5bf5ba787ac3710001c47193,33,male,2024-04-24_13h31.48.565,stockport_simplified,2022.2.4,Win32,119.047619,661e456ee6de07e70aa9ef7b,6628df86ff56ad52dcc23d55,,,,,,,,,,,,,,,,,,,,,,,,,,,,,,,,,,439.7513,441.8342,"[5,3,2,1,6,4,8,7]","[[-0.3,0.2],[0.3,0.2]]","[[-0.125,-0.2],[0.125,-0.2]]",0.066666709,-0.19722225,1,0,0,1.5779,o2_image,441.8363,1,442.333,442.3332,444.3241,0,0,0,0,1,,,,,,,,,,,,,,,,,,,,,,,,,,,,,,,,,,,,,,,,,,,,,,,,,,
,,5bf5ba787ac3710001c47193,33,male,2024-04-24_13h31.48.565,stockport_simplified,2022.2.4,Win32,119.047619,661e456ee6de07e70aa9ef7b,6628df86ff56ad52dcc23d55,,,,,,,,,,,,,,,,,,,,,,,,,,,,,,,,,,,,,,,,,,,,,,,,,,,,,,,,1,10,70,16,1,B,Y,N,o2_image,stimuli/out2.png,stimuli/out1.png,stimuli/correct_out2.png,,,,,,,,,,,,,,,,,,,,,,,,,,,,,,,,,,,,,,
,,5bf5ba787ac3710001c47193,33,male,2024-04-24_13h31.48.565,stockport_simplified,2022.2.4,Win32,119.047619,661e456ee6de07e70aa9ef7b,6628df86ff56ad52dcc23d55,,,,,,,,,,,,,,,,,,,,,,,,,,,,,,,,,,444.3258,446.1419,"[5,3,2,1,6,4,8,7]","[[-0.3,0.2],[0.3,0.2]]","[[0.125,-0.2],[-0.125,-0.2]]",0.10555557,-0.194444444,1,0,0,1.3081,o1_image,446.1442,1,446.6373,446.6376,448.6418,0,0,0,0,1,,,,,,,,,,,,,,,,,,,,,,,,,,,,,,,,,,,,,,,,,,,,,,,,,,
,,5bf5ba787ac3710001c47193,33,male,2024-04-24_13h31.48.565,stockport_simplified,2022.2.4,Win32,119.047619,661e456ee6de07e70aa9ef7b,6628df86ff56ad52dcc23d55,,,,,,,,,,,,,,,,,,,,,,,,,,,,,,,,,,,,,,,,,,,,,,,,,,,,,,,,1,11,71,37,1,A,Y,N,o1_image,stimuli/out1.png,stimuli/correct_out1.png,stimuli/out2.png,,,,,,,,,,,,,,,,,,,,,,,,,,,,,,,,,,,,,,
,,5bf5ba787ac3710001c47193,33,male,2024-04-24_13h31.48.565,stockport_simplified,2022.2.4,Win32,119.047619,661e456ee6de07e70aa9ef7b,6628df86ff56ad52dcc23d55,,,,,,,,,,,,,,,,,,,,,,,,,,,,,,,,,,448.6421,450.5285,"[5,3,2,1,6,4,8,7]","[[-0.3,0.2],[0.3,0.2]]","[[0.125,-0.2],[-0.125,-0.2]]",0.09629631,-0.19722225,1,0,0,1.3834,o1_image,450.5305,1,451.0183,451.0184,453.0209,0,0,0,0,1,,,,,,,,,,,,,,,,,,,,,,,,,,,,,,,,,,,,,,,,,,,,,,,,,,
,,5bf5ba787ac3710001c47193,33,male,2024-04-24_13h31.48.565,stockport_simplified,2022.2.4,Win32,119.047619,661e456ee6de07e70aa9ef7b,6628df86ff56ad52dcc23d55,,,,,,,,,,,,,,,,,,,,,,,,,,,,,,,,,,,,,,,,,,,,,,,,,,,,,,,,1,12,72,21,1,N,M,C,o1_image,stimuli/out1.png,stimuli/correct_out1.png,stimuli/out2.png,,,,,,,,,,,,,,,,,,,,,,,,,,,,,,,,,,,,,,
,,5bf5ba787ac3710001c47193,33,male,2024-04-24_13h31.48.565,stockport_simplified,2022.2.4,Win32,119.047619,661e456ee6de07e70aa9ef7b,6628df86ff56ad52dcc23d55,,,,,,,,,,,,,,,,,,,,,,,,,,,,,,,,,,453.0211,455.795,"[5,3,2,1,6,4,8,7]","[[0.3,0.2],[-0.3,0.2]]","[[-0.125,-0.2],[0.125,-0.2]]",0.085185228,-0.205555598,1,0,0,2.2677,o2_image,455.8034,1,456.3028,456.3028,458.2976,0,0,0,0,1,,,,,,,,,,,,,,,,,,,,,,,,,,,,,,,,,,,,,,,,,,,,,,,,,,
,,5bf5ba787ac3710001c47193,33,male,2024-04-24_13h31.48.565,stockport_simplified,2022.2.4,Win32,119.047619,661e456ee6de07e70aa9ef7b,6628df86ff56ad52dcc23d55,,,,,,,,,,,,,,,,,,,,,,,,,,,,,,,,,,,,,,,,,,,,,,,,,,,,,,,,1,13,73,57,1,N,M,D,o2_image,stimuli/out2.png,stimuli/out1.png,stimuli/correct_out2.png,,,,,,,,,,,,,,,,,,,,,,,,,,,,,,,,,,,,,,
,,5bf5ba787ac3710001c47193,33,male,2024-04-24_13h31.48.565,stockport_simplified,2022.2.4,Win32,119.047619,661e456ee6de07e70aa9ef7b,6628df86ff56ad52dcc23d55,,,,,,,,,,,,,,,,,,,,,,,,,,,,,,,,,,458.2995,460.6455,"[5,3,2,1,6,4,8,7]","[[0.3,0.2],[-0.3,0.2]]","[[0.125,-0.2],[-0.125,-0.2]]",0.092592593,-0.198148162,1,0,0,1.8436,o1_image,460.6459,1,461.1494,461.1495,463.1379,0,0,0,0,1,,,,,,,,,,,,,,,,,,,,,,,,,,,,,,,,,,,,,,,,,,,,,,,,,,
,,5bf5ba787ac3710001c47193,33,male,2024-04-24_13h31.48.565,stockport_simplified,2022.2.4,Win32,119.047619,661e456ee6de07e70aa9ef7b,6628df86ff56ad52dcc23d55,,,,,,,,,,,,,,,,,,,,,,,,,,,,,,,,,,,,,,,,,,,,,,,,,,,,,,,,1,14,74,4,1,A,X,N,o1_image,stimuli/out1.png,stimuli/correct_out1.png,stimuli/out2.png,,,,,,,,,,,,,,,,,,,,,,,,,,,,,,,,,,,,,,
,,5bf5ba787ac3710001c47193,33,male,2024-04-24_13h31.48.565,stockport_simplified,2022.2.4,Win32,119.047619,661e456ee6de07e70aa9ef7b,6628df86ff56ad52dcc23d55,,,,,,,,,,,,,,,,,,,,,,,,,,,,,,,,,,463.1381,464.7286,"[5,3,2,1,6,4,8,7]","[[-0.3,0.2],[0.3,0.2]]","[[-0.125,-0.2],[0.125,-0.2]]",-0.16851849,-0.215740769,1,0,0,1.0898,o1_image,464.7291,1,465.2327,465.2327,467.2344,0,0,0,0,1,,,,,,,,,,,,,,,,,,,,,,,,,,,,,,,,,,,,,,,,,,,,,,,,,,
,,5bf5ba787ac3710001c47193,33,male,2024-04-24_13h31.48.565,stockport_simplified,2022.2.4,Win32,119.047619,661e456ee6de07e70aa9ef7b,6628df86ff56ad52dcc23d55,,,,,,,,,,,,,,,,,,,,,,,,,,,,,,,,,,,,,,,,,,,,,,,,,,,,,,,,1,15,75,32,1,A,X,N,o1_image,stimuli/out1.png,stimuli/correct_out1.png,stimuli/out2.png,,,,,,,,,,,,,,,,,,,,,,,,,,,,,,,,,,,,,,
,,5bf5ba787ac3710001c47193,33,male,2024-04-24_13h31.48.565,stockport_simplified,2022.2.4,Win32,119.047619,661e456ee6de07e70aa9ef7b,6628df86ff56ad52dcc23d55,,,,,,,,,,,,,,,,,,,,,,,,,,,,,,,,,,467.236,469.703,"[5,3,2,1,6,4,8,7]","[[0.3,0.2],[-0.3,0.2]]","[[0.125,-0.2],[-0.125,-0.2]]",0.125925912,-0.198148162,1,0,0,1.9593,o1_image,469.7098,0,470.2124,470.2124,472.2046,0,0,0,0,1,,,,,,,,,,,,,,,,,,,,,,,,,,,,,,,,,,,,,,,,,,,,,,,,,,
,,5bf5ba787ac3710001c47193,33,male,2024-04-24_13h31.48.565,stockport_simplified,2022.2.4,Win32,119.047619,661e456ee6de07e70aa9ef7b,6628df86ff56ad52dcc23d55,,,,,,,,,,,,,,,,,,,,,,,,,,,,,,,,,,,,,,,,,,,,,,,,,,,,,,,,1,16,76,42,1,B,X,N,o2_image,stimuli/out2.png,stimuli/out1.png,stimuli/correct_out2.png,,,,,,,,,,,,,,,,,,,,,,,,,,,,,,,,,,,,,,
,,5bf5ba787ac3710001c47193,33,male,2024-04-24_13h31.48.565,stockport_simplified,2022.2.4,Win32,119.047619,661e456ee6de07e70aa9ef7b,6628df86ff56ad52dcc23d55,,,,,,,,,,,,,,,,,,,,,,,,,,,,,,,,,,472.2063,474.1706,"[5,3,2,1,6,4,8,7]","[[0.3,0.2],[-0.3,0.2]]","[[-0.125,-0.2],[0.125,-0.2]]",-0.115740741,-0.192592621,1,0,0,1.4554,o1_image,474.171,1,474.6698,474.6698,476.6623,0,0,0,0,1,,,,,,,,,,,,,,,,,,,,,,,,,,,,,,,,,,,,,,,,,,,,,,,,,,
,,5bf5ba787ac3710001c47193,33,male,2024-04-24_13h31.48.565,stockport_simplified,2022.2.4,Win32,119.047619,661e456ee6de07e70aa9ef7b,6628df86ff56ad52dcc23d55,,,,,,,,,,,,,,,,,,,,,,,,,,,,,,,,,,,,,,,,,,,,,,,,,,,,,,,,1,17,77,50,1,N,M,C,o1_image,stimuli/out1.png,stimuli/correct_out1.png,stimuli/out2.png,,,,,,,,,,,,,,,,,,,,,,,,,,,,,,,,,,,,,,
,,5bf5ba787ac3710001c47193,33,male,2024-04-24_13h31.48.565,stockport_simplified,2022.2.4,Win32,119.047619,661e456ee6de07e70aa9ef7b,6628df86ff56ad52dcc23d55,,,,,,,,,,,,,,,,,,,,,,,,,,,,,,,,,,476.6639,478.3207,"[5,3,2,1,6,4,8,7]","[[-0.3,0.2],[0.3,0.2]]","[[0.125,-0.2],[-0.125,-0.2]]",-0.12962963,-0.186111097,1,0,0,1.1553,o2_image,478.3228,1,478.8225,478.8227,480.8262,0,0,0,0,1,,,,,,,,,,,,,,,,,,,,,,,,,,,,,,,,,,,,,,,,,,,,,,,,,,
,,5bf5ba787ac3710001c47193,33,male,2024-04-24_13h31.48.565,stockport_simplified,2022.2.4,Win32,119.047619,661e456ee6de07e70aa9ef7b,6628df86ff56ad52dcc23d55,,,,,,,,,,,,,,,,,,,,,,,,,,,,,,,,,,,,,,,,,,,,,,,,,,,,,,,,1,18,78,15,1,B,Y,N,o2_image,stimuli/out2.png,stimuli/out1.png,stimuli/correct_out2.png,,,,,,,,,,,,,,,,,,,,,,,,,,,,,,,,,,,,,,
,,5bf5ba787ac3710001c47193,33,male,2024-04-24_13h31.48.565,stockport_simplified,2022.2.4,Win32,119.047619,661e456ee6de07e70aa9ef7b,6628df86ff56ad52dcc23d55,,,,,,,,,,,,,,,,,,,,,,,,,,,,,,,,,,480.8279,483.2589,"[5,3,2,1,6,4,8,7]","[[-0.3,0.2],[0.3,0.2]]","[[0.125,-0.2],[-0.125,-0.2]]",0.115740741,-0.189814815,1,0,0,1.9271,o1_image,483.2592,1,483.7471,483.7472,485.7445,0,0,0,0,1,,,,,,,,,,,,,,,,,,,,,,,,,,,,,,,,,,,,,,,,,,,,,,,,,,
,,5bf5ba787ac3710001c47193,33,male,2024-04-24_13h31.48.565,stockport_simplified,2022.2.4,Win32,119.047619,661e456ee6de07e70aa9ef7b,6628df86ff56ad52dcc23d55,,,,,,,,,,,,,,,,,,,,,,,,,,,,,,,,,,,,,,,,,,,,,,,,,,,,,,,,1,19,79,5,1,A,Y,N,o1_image,stimuli/out1.png,stimuli/correct_out1.png,stimuli/out2.png,,,,,,,,,,,,,,,,,,,,,,,,,,,,,,,,,,,,,,
,,5bf5ba787ac3710001c47193,33,male,2024-04-24_13h31.48.565,stockport_simplified,2022.2.4,Win32,119.047619,661e456ee6de07e70aa9ef7b,6628df86ff56ad52dcc23d55,,,,,,,,,,,,,,,,,,,,,,,,,,,,,,,,,,485.7462,487.629,"[5,3,2,1,6,4,8,7]","[[-0.3,0.2],[0.3,0.2]]","[[-0.125,-0.2],[0.125,-0.2]]",0.130555541,-0.193518533,1,0,0,1.3818,o2_image,487.6315,1,488.126,488.1261,490.1219,0,0,0,0,1,,,,,,,,,,,,,,,,,,,,,,,,,,,,,,,,,,,,,,,,,,,,,,,,,,
,,5bf5ba787ac3710001c47193,33,male,2024-04-24_13h31.48.565,stockport_simplified,2022.2.4,Win32,119.047619,661e456ee6de07e70aa9ef7b,6628df86ff56ad52dcc23d55,,,,,,,,,,,,,,,,,,,,,,,,,,,,,,,,,,,,,,,,,,,,,,,,,,,,,,,,1,20,80,47,1,B,Y,N,o2_image,stimuli/out2.png,stimuli/out1.png,stimuli/correct_out2.png,,,,,,,,,,,,,,,,,,,,,,,,,,,,,,,,,,,,,,
,,5bf5ba787ac3710001c47193,33,male,2024-04-24_13h31.48.565,stockport_simplified,2022.2.4,Win32,119.047619,661e456ee6de07e70aa9ef7b,6628df86ff56ad52dcc23d55,,,,,,,,,,,,,,,,,,,,,,,,,,,,,,,,,,490.1222,491.8319,"[5,3,2,1,6,4,8,7]","[[0.3,0.2],[-0.3,0.2]]","[[-0.125,-0.2],[0.125,-0.2]]",-0.146296254,-0.203703704,1,0,0,1.2069,o1_image,491.8342,1,492.3313,492.3314,494.3267,0,0,0,0,1,,,,,,,,,,,,,,,,,,,,,,,,,,,,,,,,,,,,,,,,,,,,,,,,,,
,,5bf5ba787ac3710001c47193,33,male,2024-04-24_13h31.48.565,stockport_simplified,2022.2.4,Win32,119.047619,661e456ee6de07e70aa9ef7b,6628df86ff56ad52dcc23d55,,,,,,,,,,,,,,,,,,,,,,,,,,,,,,,,,,,,,,,,,,,,,,,,,,,,,,,,1,21,81,36,1,A,Y,N,o1_image,stimuli/out1.png,stimuli/correct_out1.png,stimuli/out2.png,,,,,,,,,,,,,,,,,,,,,,,,,,,,,,,,,,,,,,
,,5bf5ba787ac3710001c47193,33,male,2024-04-24_13h31.48.565,stockport_simplified,2022.2.4,Win32,119.047619,661e456ee6de07e70aa9ef7b,6628df86ff56ad52dcc23d55,,,,,,,,,,,,,,,,,,,,,,,,,,,,,,,,,,494.3285,496.32,"[5,3,2,1,6,4,8,7]","[[0.3,0.2],[-0.3,0.2]]","[[-0.125,-0.2],[0.125,-0.2]]",-0.137036995,-0.193518533,1,0,0,1.4819,o1_image,496.3215,1,496.816,496.816,498.8214,0,0,0,0,1,,,,,,,,,,,,,,,,,,,,,,,,,,,,,,,,,,,,,,,,,,,,,,,,,,
,,5bf5ba787ac3710001c47193,33,male,2024-04-24_13h31.48.565,stockport_simplified,2022.2.4,Win32,119.047619,661e456ee6de07e70aa9ef7b,6628df86ff56ad52dcc23d55,,,,,,,,,,,,,,,,,,,,,,,,,,,,,,,,,,,,,,,,,,,,,,,,,,,,,,,,1,22,82,33,1,A,X,N,o1_image,stimuli/out1.png,stimuli/correct_out1.png,stimuli/out2.png,,,,,,,,,,,,,,,,,,,,,,,,,,,,,,,,,,,,,,
,,5bf5ba787ac3710001c47193,33,male,2024-04-24_13h31.48.565,stockport_simplified,2022.2.4,Win32,119.047619,661e456ee6de07e70aa9ef7b,6628df86ff56ad52dcc23d55,,,,,,,,,,,,,,,,,,,,,,,,,,,,,,,,,,498.8217,501.2729,"[5,3,2,1,6,4,8,7]","[[0.3,0.2],[-0.3,0.2]]","[[-0.125,-0.2],[0.125,-0.2]]",0.084259245,-0.205555598,1,0,0,1.9465,o2_image,501.2743,0,501.7695,501.7697,503.7665,0,0,0,0,1,,,,,,,,,,,,,,,,,,,,,,,,,,,,,,,,,,,,,,,,,,,,,,,,,,
,,5bf5ba787ac3710001c47193,33,male,2024-04-24_13h31.48.565,stockport_simplified,2022.2.4,Win32,119.047619,661e456ee6de07e70aa9ef7b,6628df86ff56ad52dcc23d55,,,,,,,,,,,,,,,,,,,,,,,,,,,,,,,,,,,,,,,,,,,,,,,,,,,,,,,,1,23,83,2,1,A,X,N,o1_image,stimuli/out1.png,stimuli/correct_out1.png,stimuli/out2.png,,,,,,,,,,,,,,,,,,,,,,,,,,,,,,,,,,,,,,
,,5bf5ba787ac3710001c47193,33,male,2024-04-24_13h31.48.565,stockport_simplified,2022.2.4,Win32,119.047619,661e456ee6de07e70aa9ef7b,6628df86ff56ad52dcc23d55,,,,,,,,,,,,,,,,,,,,,,,,,,,,,,,,,,503.7668,505.686,"[5,3,2,1,6,4,8,7]","[[-0.3,0.2],[0.3,0.2]]","[[0.125,-0.2],[-0.125,-0.2]]",0.195370356,-0.242592635,1,0,0,1.4062,o1_image,505.6863,0,506.1825,506.1825,508.1779,0,0,0,0,1,,,,,,,,,,,,,,,,,,,,,,,,,,,,,,,,,,,,,,,,,,,,,,,,,,
,,5bf5ba787ac3710001c47193,33,male,2024-04-24_13h31.48.565,stockport_simplified,2022.2.4,Win32,119.047619,661e456ee6de07e70aa9ef7b,6628df86ff56ad52dcc23d55,,,,,,,,,,,,,,,,,,,,,,,,,,,,,,,,,,,,,,,,,,,,,,,,,,,,,,,,1,24,84,28,1,N,M,D,o2_image,stimuli/out2.png,stimuli/out1.png,stimuli/correct_out2.png,,,,,,,,,,,,,,,,,,,,,,,,,,,,,,,,,,,,,,
,,5bf5ba787ac3710001c47193,33,male,2024-04-24_13h31.48.565,stockport_simplified,2022.2.4,Win32,119.047619,661e456ee6de07e70aa9ef7b,6628df86ff56ad52dcc23d55,,,,,,,,,,,,,,,,,,,,,,,,,,,,,,,,,,508.1797,510.9888,"[5,3,2,1,6,4,8,7]","[[-0.3,0.2],[0.3,0.2]]","[[-0.125,-0.2],[0.125,-0.2]]",0.124074088,-0.19722225,1,0,0,2.3005,o2_image,510.9899,1,511.4893,511.4893,513.487,0,0,0,0,1,,,,,,,,,,,,,,,,,,,,,,,,,,,,,,,,,,,,,,,,,,,,,,,,,,
,,5bf5ba787ac3710001c47193,33,male,2024-04-24_13h31.48.565,stockport_simplified,2022.2.4,Win32,119.047619,661e456ee6de07e70aa9ef7b,6628df86ff56ad52dcc23d55,,,,,,,,,,,,,,,,,,,,,,,,,,,,,,,,,,,,,,,,,,,,,,,,,,,,,,,,1,25,85,45,1,B,Y,N,o2_image,stimuli/out2.png,stimuli/out1.png,stimuli/correct_out2.png,,,,,,,,,,,,,,,,,,,,,,,,,,,,,,,,,,,,,,
,,5bf5ba787ac3710001c47193,33,male,2024-04-24_13h31.48.565,stockport_simplified,2022.2.4,Win32,119.047619,661e456ee6de07e70aa9ef7b,6628df86ff56ad52dcc23d55,,,,,,,,,,,,,,,,,,,,,,,,,,,,,,,,,,513.4873,515.1858,"[5,3,2,1,6,4,8,7]","[[-0.3,0.2],[0.3,0.2]]","[[0.125,-0.2],[-0.125,-0.2]]",0.104629658,-0.187037079,1,0,0,1.1895,o1_image,515.1874,1,515.691,515.6911,517.6913,0,0,0,0,1,,,,,,,,,,,,,,,,,,,,,,,,,,,,,,,,,,,,,,,,,,,,,,,,,,
,,5bf5ba787ac3710001c47193,33,male,2024-04-24_13h31.48.565,stockport_simplified,2022.2.4,Win32,119.047619,661e456ee6de07e70aa9ef7b,6628df86ff56ad52dcc23d55,,,,,,,,,,,,,,,,,,,,,,,,,,,,,,,,,,,,,,,,,,,,,,,,,,,,,,,,1,26,86,54,1,N,M,C,o1_image,stimuli/out1.png,stimuli/correct_out1.png,stimuli/out2.png,,,,,,,,,,,,,,,,,,,,,,,,,,,,,,,,,,,,,,
,,5bf5ba787ac3710001c47193,33,male,2024-04-24_13h31.48.565,stockport_simplified,2022.2.4,Win32,119.047619,661e456ee6de07e70aa9ef7b,6628df86ff56ad52dcc23d55,,,,,,,,,,,,,,,,,,,,,,,,,,,,,,,,,,517.6929,519.6847,"[5,3,2,1,6,4,8,7]","[[-0.3,0.2],[0.3,0.2]]","[[-0.125,-0.2],[0.125,-0.2]]",0.095370399,-0.161111125,1,0,0,1.4791,o2_image,519.6867,1,520.1815,520.1815,522.1769,0,0,0,0,1,,,,,,,,,,,,,,,,,,,,,,,,,,,,,,,,,,,,,,,,,,,,,,,,,,
,,5bf5ba787ac3710001c47193,33,male,2024-04-24_13h31.48.565,stockport_simplified,2022.2.4,Win32,119.047619,661e456ee6de07e70aa9ef7b,6628df86ff56ad52dcc23d55,,,,,,,,,,,,,,,,,,,,,,,,,,,,,,,,,,,,,,,,,,,,,,,,,,,,,,,,1,27,87,11,1,B,X,N,o2_image,stimuli/out2.png,stimuli/out1.png,stimuli/correct_out2.png,,,,,,,,,,,,,,,,,,,,,,,,,,,,,,,,,,,,,,
,,5bf5ba787ac3710001c47193,33,male,2024-04-24_13h31.48.565,stockport_simplified,2022.2.4,Win32,119.047619,661e456ee6de07e70aa9ef7b,6628df86ff56ad52dcc23d55,,,,,,,,,,,,,,,,,,,,,,,,,,,,,,,,,,522.1782,524.074,"[5,3,2,1,6,4,8,7]","[[-0.3,0.2],[0.3,0.2]]","[[-0.125,-0.2],[0.125,-0.2]]",-0.118518476,-0.193518533,1,0,0,1.3913,o1_image,524.0761,1,524.5746,524.5748,526.5708,0,0,0,0,1,,,,,,,,,,,,,,,,,,,,,,,,,,,,,,,,,,,,,,,,,,,,,,,,,,
,,5bf5ba787ac3710001c47193,33,male,2024-04-24_13h31.48.565,stockport_simplified,2022.2.4,Win32,119.047619,661e456ee6de07e70aa9ef7b,6628df86ff56ad52dcc23d55,,,,,,,,,,,,,,,,,,,,,,,,,,,,,,,,,,,,,,,,,,,,,,,,,,,,,,,,1,28,88,39,1,A,Y,N,o1_image,stimuli/out1.png,stimuli/correct_out1.png,stimuli/out2.png,,,,,,,,,,,,,,,,,,,,,,,,,,,,,,,,,,,,,,
,,5bf5ba787ac3710001c47193,33,male,2024-04-24_13h31.48.565,stockport_simplified,2022.2.4,Win32,119.047619,661e456ee6de07e70aa9ef7b,6628df86ff56ad52dcc23d55,,,,,,,,,,,,,,,,,,,,,,,,,,,,,,,,,,526.5711,528.304,"[5,3,2,1,6,4,8,7]","[[-0.3,0.2],[0.3,0.2]]","[[-0.125,-0.2],[0.125,-0.2]]",0.05277782,-0.173148191,1,0,0,1.224,o2_image,528.3044,0,528.8037,528.8037,530.7918,0,0,0,0,1,,,,,,,,,,,,,,,,,,,,,,,,,,,,,,,,,,,,,,,,,,,,,,,,,,
,,5bf5ba787ac3710001c47193,33,male,2024-04-24_13h31.48.565,stockport_simplified,2022.2.4,Win32,119.047619,661e456ee6de07e70aa9ef7b,6628df86ff56ad52dcc23d55,,,,,,,,,,,,,,,,,,,,,,,,,,,,,,,,,,,,,,,,,,,,,,,,,,,,,,,,1,29,89,30,1,A,X,N,o1_image,stimuli/out1.png,stimuli/correct_out1.png,stimuli/out2.png,,,,,,,,,,,,,,,,,,,,,,,,,,,,,,,,,,,,,,
,,5bf5ba787ac3710001c47193,33,male,2024-04-24_13h31.48.565,stockport_simplified,2022.2.4,Win32,119.047619,661e456ee6de07e70aa9ef7b,6628df86ff56ad52dcc23d55,,,,,,,,,,,,,,,,,,,,,,,,,,,,,,,,,,530.7937,532.6912,"[5,3,2,1,6,4,8,7]","[[0.3,0.2],[-0.3,0.2]]","[[0.125,-0.2],[-0.125,-0.2]]",0.118518547,-0.187037079,1,0,0,1.396,o1_image,532.6917,1,533.1918,533.1918,535.1954,0,0,0,0,1,,,,,,,,,,,,,,,,,,,,,,,,,,,,,,,,,,,,,,,,,,,,,,,,,,
,,5bf5ba787ac3710001c47193,33,male,2024-04-24_13h31.48.565,stockport_simplified,2022.2.4,Win32,119.047619,661e456ee6de07e70aa9ef7b,6628df86ff56ad52dcc23d55,,,,,,,,,,,,,,,,,,,,,,,,,,,,,,,,,,,,,,,,,,,,,,,,,,,,,,,,1,30,90,1,1,A,X,N,o1_image,stimuli/out1.png,stimuli/correct_out1.png,stimuli/out2.png,,,,,,,,,,,,,,,,,,,,,,,,,,,,,,,,,,,,,,
,,5bf5ba787ac3710001c47193,33,male,2024-04-24_13h31.48.565,stockport_simplified,2022.2.4,Win32,119.047619,661e456ee6de07e70aa9ef7b,6628df86ff56ad52dcc23d55,,,,,,,,,,,,,,,,,,,,,,,,,,,,,,,,,,535.1975,537.6822,"[5,3,2,1,6,4,8,7]","[[0.3,0.2],[-0.3,0.2]]","[[0.125,-0.2],[-0.125,-0.2]]",0.162037037,-0.179629644,1,0,0,1.9737,o1_image,537.6826,1,538.1879,538.1879,540.1862,0,0,0,0,1,,,,,,,,,,,,,,,,,,,,,,,,,,,,,,,,,,,,,,,,,,,,,,,,,,
,,5bf5ba787ac3710001c47193,33,male,2024-04-24_13h31.48.565,stockport_simplified,2022.2.4,Win32,119.047619,661e456ee6de07e70aa9ef7b,6628df86ff56ad52dcc23d55,,,,,,,,,,,,,,,,,,,,,,,,,,,,,,,,,,,,,,,,,,,,,,,,,,,,,,,,1,31,91,8,1,A,Y,N,o1_image,stimuli/out1.png,stimuli/correct_out1.png,stimuli/out2.png,,,,,,,,,,,,,,,,,,,,,,,,,,,,,,,,,,,,,,
,,5bf5ba787ac3710001c47193,33,male,2024-04-24_13h31.48.565,stockport_simplified,2022.2.4,Win32,119.047619,661e456ee6de07e70aa9ef7b,6628df86ff56ad52dcc23d55,,,,,,,,,,,,,,,,,,,,,,,,,,,,,,,,,,540.1882,542.3084,"[5,3,2,1,6,4,8,7]","[[0.3,0.2],[-0.3,0.2]]","[[0.125,-0.2],[-0.125,-0.2]]",-0.135185171,-0.189814815,1,0,0,1.612,o2_image,542.3104,0,542.8025,542.8026,544.8019,0,0,0,0,1,,,,,,,,,,,,,,,,,,,,,,,,,,,,,,,,,,,,,,,,,,,,,,,,,,
,,5bf5ba787ac3710001c47193,33,male,2024-04-24_13h31.48.565,stockport_simplified,2022.2.4,Win32,119.047619,661e456ee6de07e70aa9ef7b,6628df86ff56ad52dcc23d55,,,,,,,,,,,,,,,,,,,,,,,,,,,,,,,,,,,,,,,,,,,,,,,,,,,,,,,,1,32,92,20,1,N,M,C,o1_image,stimuli/out1.png,stimuli/correct_out1.png,stimuli/out2.png,,,,,,,,,,,,,,,,,,,,,,,,,,,,,,,,,,,,,,
,,5bf5ba787ac3710001c47193,33,male,2024-04-24_13h31.48.565,stockport_simplified,2022.2.4,Win32,119.047619,661e456ee6de07e70aa9ef7b,6628df86ff56ad52dcc23d55,,,,,,,,,,,,,,,,,,,,,,,,,,,,,,,,,,544.8045,546.8821,"[5,3,2,1,6,4,8,7]","[[0.3,0.2],[-0.3,0.2]]","[[0.125,-0.2],[-0.125,-0.2]]",-0.125,-0.202777792,1,0,0,1.5725,o2_image,546.8824,0,547.3775,547.3776,549.3745,0,0,0,0,1,,,,,,,,,,,,,,,,,,,,,,,,,,,,,,,,,,,,,,,,,,,,,,,,,,
,,5bf5ba787ac3710001c47193,33,male,2024-04-24_13h31.48.565,stockport_simplified,2022.2.4,Win32,119.047619,661e456ee6de07e70aa9ef7b,6628df86ff56ad52dcc23d55,,,,,,,,,,,,,,,,,,,,,,,,,,,,,,,,,,,,,,,,,,,,,,,,,,,,,,,,1,33,93,3,1,A,X,N,o1_image,stimuli/out1.png,stimuli/correct_out1.png,stimuli/out2.png,,,,,,,,,,,,,,,,,,,,,,,,,,,,,,,,,,,,,,
,,5bf5ba787ac3710001c47193,33,male,2024-04-24_13h31.48.565,stockport_simplified,2022.2.4,Win32,119.047619,661e456ee6de07e70aa9ef7b,6628df86ff56ad52dcc23d55,,,,,,,,,,,,,,,,,,,,,,,,,,,,,,,,,,549.3761,551.1697,"[5,3,2,1,6,4,8,7]","[[-0.3,0.2],[0.3,0.2]]","[[0.125,-0.2],[-0.125,-0.2]]",0.082407422,-0.194444444,1,0,0,1.2914,o1_image,551.1715,1,551.6647,551.6648,553.6612,0,0,0,0,1,,,,,,,,,,,,,,,,,,,,,,,,,,,,,,,,,,,,,,,,,,,,,,,,,,
,,5bf5ba787ac3710001c47193,33,male,2024-04-24_13h31.48.565,stockport_simplified,2022.2.4,Win32,119.047619,661e456ee6de07e70aa9ef7b,6628df86ff56ad52dcc23d55,,,,,,,,,,,,,,,,,,,,,,,,,,,,,,,,,,,,,,,,,,,,,,,,,,,,,,,,1,34,94,6,1,A,Y,N,o1_image,stimuli/out1.png,stimuli/correct_out1.png,stimuli/out2.png,,,,,,,,,,,,,,,,,,,,,,,,,,,,,,,,,,,,,,
,,5bf5ba787ac3710001c47193,33,male,2024-04-24_13h31.48.565,stockport_simplified,2022.2.4,Win32,119.047619,661e456ee6de07e70aa9ef7b,6628df86ff56ad52dcc23d55,,,,,,,,,,,,,,,,,,,,,,,,,,,,,,,,,,553.6633,555.7109,"[5,3,2,1,6,4,8,7]","[[0.3,0.2],[-0.3,0.2]]","[[0.125,-0.2],[-0.125,-0.2]]",-0.109259217,-0.196296339,1,0,0,1.5455,o2_image,555.7133,1,556.1987,556.1988,558.1998,0,0,0,0,1,,,,,,,,,,,,,,,,,,,,,,,,,,,,,,,,,,,,,,,,,,,,,,,,,,
,,5bf5ba787ac3710001c47193,33,male,2024-04-24_13h31.48.565,stockport_simplified,2022.2.4,Win32,119.047619,661e456ee6de07e70aa9ef7b,6628df86ff56ad52dcc23d55,,,,,,,,,,,,,,,,,,,,,,,,,,,,,,,,,,,,,,,,,,,,,,,,,,,,,,,,1,35,95,40,1,B,X,N,o2_image,stimuli/out2.png,stimuli/out1.png,stimuli/correct_out2.png,,,,,,,,,,,,,,,,,,,,,,,,,,,,,,,,,,,,,,
,,5bf5ba787ac3710001c47193,33,male,2024-04-24_13h31.48.565,stockport_simplified,2022.2.4,Win32,119.047619,661e456ee6de07e70aa9ef7b,6628df86ff56ad52dcc23d55,,,,,,,,,,,,,,,,,,,,,,,,,,,,,,,,,,558.2001,560.2811,"[5,3,2,1,6,4,8,7]","[[0.3,0.2],[-0.3,0.2]]","[[0.125,-0.2],[-0.125,-0.2]]",-0.102777764,-0.198148162,1,0,0,1.5741,o2_image,560.2827,0,560.793,560.793,562.7907,0,0,0,0,1,,,,,,,,,,,,,,,,,,,,,,,,,,,,,,,,,,,,,,,,,,,,,,,,,,
,,5bf5ba787ac3710001c47193,33,male,2024-04-24_13h31.48.565,stockport_simplified,2022.2.4,Win32,119.047619,661e456ee6de07e70aa9ef7b,6628df86ff56ad52dcc23d55,,,,,,,,,,,,,,,,,,,,,,,,,,,,,,,,,,,,,,,,,,,,,,,,,,,,,,,,1,36,96,24,1,N,M,C,o1_image,stimuli/out1.png,stimuli/correct_out1.png,stimuli/out2.png,,,,,,,,,,,,,,,,,,,,,,,,,,,,,,,,,,,,,,
,,5bf5ba787ac3710001c47193,33,male,2024-04-24_13h31.48.565,stockport_simplified,2022.2.4,Win32,119.047619,661e456ee6de07e70aa9ef7b,6628df86ff56ad52dcc23d55,,,,,,,,,,,,,,,,,,,,,,,,,,,,,,,,,,562.7927,564.7993,"[5,3,2,1,6,4,8,7]","[[-0.3,0.2],[0.3,0.2]]","[[-0.125,-0.2],[0.125,-0.2]]",0.110185199,-0.202777792,1,0,0,1.4928,o2_image,564.8013,0,565.3026,565.3028,567.2991,0,0,0,0,1,,,,,,,,,,,,,,,,,,,,,,,,,,,,,,,,,,,,,,,,,,,,,,,,,,
,,5bf5ba787ac3710001c47193,33,male,2024-04-24_13h31.48.565,stockport_simplified,2022.2.4,Win32,119.047619,661e456ee6de07e70aa9ef7b,6628df86ff56ad52dcc23d55,,,,,,,,,,,,,,,,,,,,,,,,,,,,,,,,,,,,,,,,,,,,,,,,,,,,,,,,1,37,97,34,1,A,X,N,o1_image,stimuli/out1.png,stimuli/correct_out1.png,stimuli/out2.png,,,,,,,,,,,,,,,,,,,,,,,,,,,,,,,,,,,,,,
,,5bf5ba787ac3710001c47193,33,male,2024-04-24_13h31.48.565,stockport_simplified,2022.2.4,Win32,119.047619,661e456ee6de07e70aa9ef7b,6628df86ff56ad52dcc23d55,,,,,,,,,,,,,,,,,,,,,,,,,,,,,,,,,,567.301,569.5755,"[5,3,2,1,6,4,8,7]","[[0.3,0.2],[-0.3,0.2]]","[[-0.125,-0.2],[0.125,-0.2]]",0.037962949,-0.193518533,1,0,0,1.3477,o2_image,569.576,1,570.0637,570.0637,572.0583,0,0,0,0,1,,,,,,,,,,,,,,,,,,,,,,,,,,,,,,,,,,,,,,,,,,,,,,,,,,
,,5bf5ba787ac3710001c47193,33,male,2024-04-24_13h31.48.565,stockport_simplified,2022.2.4,Win32,119.047619,661e456ee6de07e70aa9ef7b,6628df86ff56ad52dcc23d55,,,,,,,,,,,,,,,,,,,,,,,,,,,,,,,,,,,,,,,,,,,,,,,,,,,,,,,,1,38,98,17,1,B,Y,N,o2_image,stimuli/out2.png,stimuli/out1.png,stimuli/correct_out2.png,,,,,,,,,,,,,,,,,,,,,,,,,,,,,,,,,,,,,,
,,5bf5ba787ac3710001c47193,33,male,2024-04-24_13h31.48.565,stockport_simplified,2022.2.4,Win32,119.047619,661e456ee6de07e70aa9ef7b,6628df86ff56ad52dcc23d55,,,,,,,,,,,,,,,,,,,,,,,,,,,,,,,,,,572.0586,574.2854,"[5,3,2,1,6,4,8,7]","[[0.3,0.2],[-0.3,0.2]]","[[0.125,-0.2],[-0.125,-0.2]]",-0.125,-0.199074074,1,0,0,1.719,o2_image,574.2878,1,574.7851,574.7852,576.786,0,0,0,0,1,,,,,,,,,,,,,,,,,,,,,,,,,,,,,,,,,,,,,,,,,,,,,,,,,,
,,5bf5ba787ac3710001c47193,33,male,2024-04-24_13h31.48.565,stockport_simplified,2022.2.4,Win32,119.047619,661e456ee6de07e70aa9ef7b,6628df86ff56ad52dcc23d55,,,,,,,,,,,,,,,,,,,,,,,,,,,,,,,,,,,,,,,,,,,,,,,,,,,,,,,,1,39,99,44,1,B,X,N,o2_image,stimuli/out2.png,stimuli/out1.png,stimuli/correct_out2.png,,,,,,,,,,,,,,,,,,,,,,,,,,,,,,,,,,,,,,
,,5bf5ba787ac3710001c47193,33,male,2024-04-24_13h31.48.565,stockport_simplified,2022.2.4,Win32,119.047619,661e456ee6de07e70aa9ef7b,6628df86ff56ad52dcc23d55,,,,,,,,,,,,,,,,,,,,,,,,,,,,,,,,,,576.7872,578.7362,"[5,3,2,1,6,4,8,7]","[[0.3,0.2],[-0.3,0.2]]","[[-0.125,-0.2],[0.125,-0.2]]",0.108333376,-0.170370384,1,0,0,1.4439,o2_image,578.7388,1,579.2389,579.2389,581.243,0,0,0,0,1,,,,,,,,,,,,,,,,,,,,,,,,,,,,,,,,,,,,,,,,,,,,,,,,,,
,,5bf5ba787ac3710001c47193,33,male,2024-04-24_13h31.48.565,stockport_simplified,2022.2.4,Win32,119.047619,661e456ee6de07e70aa9ef7b,6628df86ff56ad52dcc23d55,,,,,,,,,,,,,,,,,,,,,,,,,,,,,,,,,,,,,,,,,,,,,,,,,,,,,,,,1,40,100,41,1,B,X,N,o2_image,stimuli/out2.png,stimuli/out1.png,stimuli/correct_out2.png,,,,,,,,,,,,,,,,,,,,,,,,,,,,,,,,,,,,,,
,,5bf5ba787ac3710001c47193,33,male,2024-04-24_13h31.48.565,stockport_simplified,2022.2.4,Win32,119.047619,661e456ee6de07e70aa9ef7b,6628df86ff56ad52dcc23d55,,,,,,,,,,,,,,,,,,,,,,,,,,,,,,,,,,581.2444,583.0021,"[5,3,2,1,6,4,8,7]","[[0.3,0.2],[-0.3,0.2]]","[[0.125,-0.2],[-0.125,-0.2]]",0.077777792,-0.173148191,1,0,0,1.2493,o1_image,583.0025,1,583.5015,583.5018,585.5055,0,0,0,0,1,,,,,,,,,,,,,,,,,,,,,,,,,,,,,,,,,,,,,,,,,,,,,,,,,,
,,5bf5ba787ac3710001c47193,33,male,2024-04-24_13h31.48.565,stockport_simplified,2022.2.4,Win32,119.047619,661e456ee6de07e70aa9ef7b,6628df86ff56ad52dcc23d55,,,,,,,,,,,,,,,,,,,,,,,,,,,,,,,,,,,,,,,,,,,,,,,,,,,,,,,,1,41,101,53,1,N,M,C,o1_image,stimuli/out1.png,stimuli/correct_out1.png,stimuli/out2.png,,,,,,,,,,,,,,,,,,,,,,,,,,,,,,,,,,,,,,
,,5bf5ba787ac3710001c47193,33,male,2024-04-24_13h31.48.565,stockport_simplified,2022.2.4,Win32,119.047619,661e456ee6de07e70aa9ef7b,6628df86ff56ad52dcc23d55,,,,,,,,,,,,,,,,,,,,,,,,,,,,,,,,,,585.5076,587.4349,"[5,3,2,1,6,4,8,7]","[[-0.3,0.2],[0.3,0.2]]","[[0.125,-0.2],[-0.125,-0.2]]",-0.080555527,-0.199999986,1,0,0,1.4215,o2_image,587.4374,0,587.9377,587.9379,589.9275,0,0,0,0,1,,,,,,,,,,,,,,,,,,,,,,,,,,,,,,,,,,,,,,,,,,,,,,,,,,
,,5bf5ba787ac3710001c47193,33,male,2024-04-24_13h31.48.565,stockport_simplified,2022.2.4,Win32,119.047619,661e456ee6de07e70aa9ef7b,6628df86ff56ad52dcc23d55,,,,,,,,,,,,,,,,,,,,,,,,,,,,,,,,,,,,,,,,,,,,,,,,,,,,,,,,1,42,102,31,1,A,X,N,o1_image,stimuli/out1.png,stimuli/correct_out1.png,stimuli/out2.png,,,,,,,,,,,,,,,,,,,,,,,,,,,,,,,,,,,,,,
,,5bf5ba787ac3710001c47193,33,male,2024-04-24_13h31.48.565,stockport_simplified,2022.2.4,Win32,119.047619,661e456ee6de07e70aa9ef7b,6628df86ff56ad52dcc23d55,,,,,,,,,,,,,,,,,,,,,,,,,,,,,,,,,,589.9277,591.8808,"[5,3,2,1,6,4,8,7]","[[-0.3,0.2],[0.3,0.2]]","[[-0.125,-0.2],[0.125,-0.2]]",-0.10092594,-0.200925968,1,0,0,1.4437,o1_image,591.8827,1,592.3781,592.3783,594.3791,0,0,0,0,1,,,,,,,,,,,,,,,,,,,,,,,,,,,,,,,,,,,,,,,,,,,,,,,,,,
,,5bf5ba787ac3710001c47193,33,male,2024-04-24_13h31.48.565,stockport_simplified,2022.2.4,Win32,119.047619,661e456ee6de07e70aa9ef7b,6628df86ff56ad52dcc23d55,,,,,,,,,,,,,,,,,,,,,,,,,,,,,,,,,,,,,,,,,,,,,,,,,,,,,,,,1,43,103,9,1,A,Y,N,o1_image,stimuli/out1.png,stimuli/correct_out1.png,stimuli/out2.png,,,,,,,,,,,,,,,,,,,,,,,,,,,,,,,,,,,,,,
,,5bf5ba787ac3710001c47193,33,male,2024-04-24_13h31.48.565,stockport_simplified,2022.2.4,Win32,119.047619,661e456ee6de07e70aa9ef7b,6628df86ff56ad52dcc23d55,,,,,,,,,,,,,,,,,,,,,,,,,,,,,,,,,,594.381,596.2353,"[5,3,2,1,6,4,8,7]","[[0.3,0.2],[-0.3,0.2]]","[[-0.125,-0.2],[0.125,-0.2]]",-0.117592564,-0.204629616,1,0,0,1.348,o1_image,596.2374,0,596.736,596.7362,598.7393,0,0,0,0,1,,,,,,,,,,,,,,,,,,,,,,,,,,,,,,,,,,,,,,,,,,,,,,,,,,
,,5bf5ba787ac3710001c47193,33,male,2024-04-24_13h31.48.565,stockport_simplified,2022.2.4,Win32,119.047619,661e456ee6de07e70aa9ef7b,6628df86ff56ad52dcc23d55,,,,,,,,,,,,,,,,,,,,,,,,,,,,,,,,,,,,,,,,,,,,,,,,,,,,,,,,1,44,104,55,1,N,M,D,o2_image,stimuli/out2.png,stimuli/out1.png,stimuli/correct_out2.png,,,,,,,,,,,,,,,,,,,,,,,,,,,,,,,,,,,,,,
,,5bf5ba787ac3710001c47193,33,male,2024-04-24_13h31.48.565,stockport_simplified,2022.2.4,Win32,119.047619,661e456ee6de07e70aa9ef7b,6628df86ff56ad52dcc23d55,,,,,,,,,,,,,,,,,,,,,,,,,,,,,,,,,,598.7394,601.1186,"[5,3,2,1,6,4,8,7]","[[-0.3,0.2],[0.3,0.2]]","[[0.125,-0.2],[-0.125,-0.2]]",-0.117592564,-0.204629616,1,0,0,1.8724,o2_image,601.1203,1,601.6216,601.6219,603.6112,0,0,0,0,1,,,,,,,,,,,,,,,,,,,,,,,,,,,,,,,,,,,,,,,,,,,,,,,,,,
,,5bf5ba787ac3710001c47193,33,male,2024-04-24_13h31.48.565,stockport_simplified,2022.2.4,Win32,119.047619,661e456ee6de07e70aa9ef7b,6628df86ff56ad52dcc23d55,,,,,,,,,,,,,,,,,,,,,,,,,,,,,,,,,,,,,,,,,,,,,,,,,,,,,,,,1,45,105,59,1,N,M,D,o2_image,stimuli/out2.png,stimuli/out1.png,stimuli/correct_out2.png,,,,,,,,,,,,,,,,,,,,,,,,,,,,,,,,,,,,,,
,,5bf5ba787ac3710001c47193,33,male,2024-04-24_13h31.48.565,stockport_simplified,2022.2.4,Win32,119.047619,661e456ee6de07e70aa9ef7b,6628df86ff56ad52dcc23d55,,,,,,,,,,,,,,,,,,,,,,,,,,,,,,,,,,603.6128,605.8689,"[5,3,2,1,6,4,8,7]","[[0.3,0.2],[-0.3,0.2]]","[[-0.125,-0.2],[0.125,-0.2]]",0.092592593,-0.203703704,1,0,0,1.7495,o2_image,605.87,1,606.3645,606.3645,608.3694,0,0,0,0,1,,,,,,,,,,,,,,,,,,,,,,,,,,,,,,,,,,,,,,,,,,,,,,,,,,
,,5bf5ba787ac3710001c47193,33,male,2024-04-24_13h31.48.565,stockport_simplified,2022.2.4,Win32,119.047619,661e456ee6de07e70aa9ef7b,6628df86ff56ad52dcc23d55,,,,,,,,,,,,,,,,,,,,,,,,,,,,,,,,,,,,,,,,,,,,,,,,,,,,,,,,1,46,106,48,1,B,Y,N,o2_image,stimuli/out2.png,stimuli/out1.png,stimuli/correct_out2.png,,,,,,,,,,,,,,,,,,,,,,,,,,,,,,,,,,,,,,
,,5bf5ba787ac3710001c47193,33,male,2024-04-24_13h31.48.565,stockport_simplified,2022.2.4,Win32,119.047619,661e456ee6de07e70aa9ef7b,6628df86ff56ad52dcc23d55,,,,,,,,,,,,,,,,,,,,,,,,,,,,,,,,,,608.3709,610.0355,"[5,3,2,1,6,4,8,7]","[[-0.3,0.2],[0.3,0.2]]","[[-0.125,-0.2],[0.125,-0.2]]",0.089814857,-0.190740727,1,0,0,1.1634,o2_image,610.0359,1,610.5303,610.5305,612.5314,0,0,0,0,1,,,,,,,,,,,,,,,,,,,,,,,,,,,,,,,,,,,,,,,,,,,,,,,,,,
,,5bf5ba787ac3710001c47193,33,male,2024-04-24_13h31.48.565,stockport_simplified,2022.2.4,Win32,119.047619,661e456ee6de07e70aa9ef7b,6628df86ff56ad52dcc23d55,,,,,,,,,,,,,,,,,,,,,,,,,,,,,,,,,,,,,,,,,,,,,,,,,,,,,,,,1,47,107,10,1,B,X,N,o2_image,stimuli/out2.png,stimuli/out1.png,stimuli/correct_out2.png,,,,,,,,,,,,,,,,,,,,,,,,,,,,,,,,,,,,,,
,,5bf5ba787ac3710001c47193,33,male,2024-04-24_13h31.48.565,stockport_simplified,2022.2.4,Win32,119.047619,661e456ee6de07e70aa9ef7b,6628df86ff56ad52dcc23d55,,,,,,,,,,,,,,,,,,,,,,,,,,,,,,,,,,612.5331,614.1369,"[5,3,2,1,6,4,8,7]","[[0.3,0.2],[-0.3,0.2]]","[[-0.125,-0.2],[0.125,-0.2]]",0.103703746,-0.188888903,1,0,0,1.0953,o2_image,614.139,1,614.637,614.637,616.6324,0,0,0,0,1,,,,,,,,,,,,,,,,,,,,,,,,,,,,,,,,,,,,,,,,,,,,,,,,,,
,,5bf5ba787ac3710001c47193,33,male,2024-04-24_13h31.48.565,stockport_simplified,2022.2.4,Win32,119.047619,661e456ee6de07e70aa9ef7b,6628df86ff56ad52dcc23d55,,,,,,,,,,,,,,,,,,,,,,,,,,,,,,,,,,,,,,,,,,,,,,,,,,,,,,,,1,48,108,43,1,B,X,N,o2_image,stimuli/out2.png,stimuli/out1.png,stimuli/correct_out2.png,,,,,,,,,,,,,,,,,,,,,,,,,,,,,,,,,,,,,,
,,5bf5ba787ac3710001c47193,33,male,2024-04-24_13h31.48.565,stockport_simplified,2022.2.4,Win32,119.047619,661e456ee6de07e70aa9ef7b,6628df86ff56ad52dcc23d55,,,,,,,,,,,,,,,,,,,,,,,,,,,,,,,,,,616.6327,618.9447,"[5,3,2,1,6,4,8,7]","[[0.3,0.2],[-0.3,0.2]]","[[0.125,-0.2],[-0.125,-0.2]]",0.075925968,-0.199999986,1,0,0,1.8028,o1_image,618.9452,0,619.4526,619.4526,621.4491,0,0,0,0,1,,,,,,,,,,,,,,,,,,,,,,,,,,,,,,,,,,,,,,,,,,,,,,,,,,
,,5bf5ba787ac3710001c47193,33,male,2024-04-24_13h31.48.565,stockport_simplified,2022.2.4,Win32,119.047619,661e456ee6de07e70aa9ef7b,6628df86ff56ad52dcc23d55,,,,,,,,,,,,,,,,,,,,,,,,,,,,,,,,,,,,,,,,,,,,,,,,,,,,,,,,1,49,109,18,1,B,Y,N,o2_image,stimuli/out2.png,stimuli/out1.png,stimuli/correct_out2.png,,,,,,,,,,,,,,,,,,,,,,,,,,,,,,,,,,,,,,
,,5bf5ba787ac3710001c47193,33,male,2024-04-24_13h31.48.565,stockport_simplified,2022.2.4,Win32,119.047619,661e456ee6de07e70aa9ef7b,6628df86ff56ad52dcc23d55,,,,,,,,,,,,,,,,,,,,,,,,,,,,,,,,,,621.4495,624.3177,"[5,3,2,1,6,4,8,7]","[[-0.3,0.2],[0.3,0.2]]","[[-0.125,-0.2],[0.125,-0.2]]",-0.084259245,-0.208333333,1,0,0,2.3612,o1_image,624.3241,1,624.8211,624.8213,626.8209,0,0,0,0,1,,,,,,,,,,,,,,,,,,,,,,,,,,,,,,,,,,,,,,,,,,,,,,,,,,
,,5bf5ba787ac3710001c47193,33,male,2024-04-24_13h31.48.565,stockport_simplified,2022.2.4,Win32,119.047619,661e456ee6de07e70aa9ef7b,6628df86ff56ad52dcc23d55,,,,,,,,,,,,,,,,,,,,,,,,,,,,,,,,,,,,,,,,,,,,,,,,,,,,,,,,1,50,110,51,1,N,M,C,o1_image,stimuli/out1.png,stimuli/correct_out1.png,stimuli/out2.png,,,,,,,,,,,,,,,,,,,,,,,,,,,,,,,,,,,,,,
,,5bf5ba787ac3710001c47193,33,male,2024-04-24_13h31.48.565,stockport_simplified,2022.2.4,Win32,119.047619,661e456ee6de07e70aa9ef7b,6628df86ff56ad52dcc23d55,,,,,,,,,,,,,,,,,,,,,,,,,,,,,,,,,,626.8226,629.3313,"[5,3,2,1,6,4,8,7]","[[0.3,0.2],[-0.3,0.2]]","[[-0.125,-0.2],[0.125,-0.2]]",-0.125,-0.212962963,1,0,0,2.002,o1_image,629.3324,0,629.8348,629.8349,631.8272,0,0,0,0,1,,,,,,,,,,,,,,,,,,,,,,,,,,,,,,,,,,,,,,,,,,,,,,,,,,
,,5bf5ba787ac3710001c47193,33,male,2024-04-24_13h31.48.565,stockport_simplified,2022.2.4,Win32,119.047619,661e456ee6de07e70aa9ef7b,6628df86ff56ad52dcc23d55,,,,,,,,,,,,,,,,,,,,,,,,,,,,,,,,,,,,,,,,,,,,,,,,,,,,,,,,1,51,111,26,1,N,M,D,o2_image,stimuli/out2.png,stimuli/out1.png,stimuli/correct_out2.png,,,,,,,,,,,,,,,,,,,,,,,,,,,,,,,,,,,,,,
,,5bf5ba787ac3710001c47193,33,male,2024-04-24_13h31.48.565,stockport_simplified,2022.2.4,Win32,119.047619,661e456ee6de07e70aa9ef7b,6628df86ff56ad52dcc23d55,,,,,,,,,,,,,,,,,,,,,,,,,,,,,,,,,,631.8289,633.5344,"[5,3,2,1,6,4,8,7]","[[-0.3,0.2],[0.3,0.2]]","[[0.125,-0.2],[-0.125,-0.2]]",-0.099074046,-0.226851852,1,0,0,1.1966,o2_image,633.5363,1,634.0336,634.0339,636.0314,0,0,0,0,1,,,,,,,,,,,,,,,,,,,,,,,,,,,,,,,,,,,,,,,,,,,,,,,,,,
,,5bf5ba787ac3710001c47193,33,male,2024-04-24_13h31.48.565,stockport_simplified,2022.2.4,Win32,119.047619,661e456ee6de07e70aa9ef7b,6628df86ff56ad52dcc23d55,,,,,,,,,,,,,,,,,,,,,,,,,,,,,,,,,,,,,,,,,,,,,,,,,,,,,,,,1,52,112,49,1,B,Y,N,o2_image,stimuli/out2.png,stimuli/out1.png,stimuli/correct_out2.png,,,,,,,,,,,,,,,,,,,,,,,,,,,,,,,,,,,,,,
,,5bf5ba787ac3710001c47193,33,male,2024-04-24_13h31.48.565,stockport_simplified,2022.2.4,Win32,119.047619,661e456ee6de07e70aa9ef7b,6628df86ff56ad52dcc23d55,,,,,,,,,,,,,,,,,,,,,,,,,,,,,,,,,,636.0332,638.4691,"[5,3,2,1,6,4,8,7]","[[0.3,0.2],[-0.3,0.2]]","[[-0.125,-0.2],[0.125,-0.2]]",0.091666681,-0.215740769,1,0,0,1.934,o2_image,638.4766,1,638.9732,638.9733,640.9737,0,0,0,0,1,,,,,,,,,,,,,,,,,,,,,,,,,,,,,,,,,,,,,,,,,,,,,,,,,,
,,5bf5ba787ac3710001c47193,33,male,2024-04-24_13h31.48.565,stockport_simplified,2022.2.4,Win32,119.047619,661e456ee6de07e70aa9ef7b,6628df86ff56ad52dcc23d55,,,,,,,,,,,,,,,,,,,,,,,,,,,,,,,,,,,,,,,,,,,,,,,,,,,,,,,,1,53,113,27,1,N,M,D,o2_image,stimuli/out2.png,stimuli/out1.png,stimuli/correct_out2.png,,,,,,,,,,,,,,,,,,,,,,,,,,,,,,,,,,,,,,
,,5bf5ba787ac3710001c47193,33,male,2024-04-24_13h31.48.565,stockport_simplified,2022.2.4,Win32,119.047619,661e456ee6de07e70aa9ef7b,6628df86ff56ad52dcc23d55,,,,,,,,,,,,,,,,,,,,,,,,,,,,,,,,,,640.9755,643.1954,"[5,3,2,1,6,4,8,7]","[[0.3,0.2],[-0.3,0.2]]","[[0.125,-0.2],[-0.125,-0.2]]",-0.037037037,-0.219444487,1,0,0,1.2779,o2_image,643.1958,1,643.6957,643.6958,645.6868,0,0,0,0,1,,,,,,,,,,,,,,,,,,,,,,,,,,,,,,,,,,,,,,,,,,,,,,,,,,
,,5bf5ba787ac3710001c47193,33,male,2024-04-24_13h31.48.565,stockport_simplified,2022.2.4,Win32,119.047619,661e456ee6de07e70aa9ef7b,6628df86ff56ad52dcc23d55,,,,,,,,,,,,,,,,,,,,,,,,,,,,,,,,,,,,,,,,,,,,,,,,,,,,,,,,1,54,114,56,1,N,M,D,o2_image,stimuli/out2.png,stimuli/out1.png,stimuli/correct_out2.png,,,,,,,,,,,,,,,,,,,,,,,,,,,,,,,,,,,,,,
,,5bf5ba787ac3710001c47193,33,male,2024-04-24_13h31.48.565,stockport_simplified,2022.2.4,Win32,119.047619,661e456ee6de07e70aa9ef7b,6628df86ff56ad52dcc23d55,,,,,,,,,,,,,,,,,,,,,,,,,,,,,,,,,,645.6884,647.455,"[5,3,2,1,6,4,8,7]","[[0.3,0.2],[-0.3,0.2]]","[[0.125,-0.2],[-0.125,-0.2]]",-0.06759255,-0.212037051,1,0,0,1.2639,o2_image,647.4571,1,647.9485,647.9486,649.9484,0,0,0,0,1,,,,,,,,,,,,,,,,,,,,,,,,,,,,,,,,,,,,,,,,,,,,,,,,,,
,,5bf5ba787ac3710001c47193,33,male,2024-04-24_13h31.48.565,stockport_simplified,2022.2.4,Win32,119.047619,661e456ee6de07e70aa9ef7b,6628df86ff56ad52dcc23d55,,,,,,,,,,,,,,,,,,,,,,,,,,,,,,,,,,,,,,,,,,,,,,,,,,,,,,,,1,55,115,19,1,B,Y,N,o2_image,stimuli/out2.png,stimuli/out1.png,stimuli/correct_out2.png,,,,,,,,,,,,,,,,,,,,,,,,,,,,,,,,,,,,,,
,,5bf5ba787ac3710001c47193,33,male,2024-04-24_13h31.48.565,stockport_simplified,2022.2.4,Win32,119.047619,661e456ee6de07e70aa9ef7b,6628df86ff56ad52dcc23d55,,,,,,,,,,,,,,,,,,,,,,,,,,,,,,,,,,649.9502,652.0242,"[5,3,2,1,6,4,8,7]","[[-0.3,0.2],[0.3,0.2]]","[[0.125,-0.2],[-0.125,-0.2]]",0.073148162,-0.209259245,1,0,0,1.5729,o1_image,652.0248,1,652.5184,652.5185,654.5195,0,0,0,0,1,,,,,,,,,,,,,,,,,,,,,,,,,,,,,,,,,,,,,,,,,,,,,,,,,,
,,5bf5ba787ac3710001c47193,33,male,2024-04-24_13h31.48.565,stockport_simplified,2022.2.4,Win32,119.047619,661e456ee6de07e70aa9ef7b,6628df86ff56ad52dcc23d55,,,,,,,,,,,,,,,,,,,,,,,,,,,,,,,,,,,,,,,,,,,,,,,,,,,,,,,,1,56,116,35,1,A,Y,N,o1_image,stimuli/out1.png,stimuli/correct_out1.png,stimuli/out2.png,,,,,,,,,,,,,,,,,,,,,,,,,,,,,,,,,,,,,,
,,5bf5ba787ac3710001c47193,33,male,2024-04-24_13h31.48.565,stockport_simplified,2022.2.4,Win32,119.047619,661e456ee6de07e70aa9ef7b,6628df86ff56ad52dcc23d55,,,,,,,,,,,,,,,,,,,,,,,,,,,,,,,,,,654.521,656.6226,"[5,3,2,1,6,4,8,7]","[[0.3,0.2],[-0.3,0.2]]","[[-0.125,-0.2],[0.125,-0.2]]",-0.107407393,-0.220370399,1,0,0,1.596,o1_image,656.623,1,657.1247,657.1249,659.1194,0,0,0,0,1,,,,,,,,,,,,,,,,,,,,,,,,,,,,,,,,,,,,,,,,,,,,,,,,,,
,,5bf5ba787ac3710001c47193,33,male,2024-04-24_13h31.48.565,stockport_simplified,2022.2.4,Win32,119.047619,661e456ee6de07e70aa9ef7b,6628df86ff56ad52dcc23d55,,,,,,,,,,,,,,,,,,,,,,,,,,,,,,,,,,,,,,,,,,,,,,,,,,,,,,,,1,57,117,7,1,A,Y,N,o1_image,stimuli/out1.png,stimuli/correct_out1.png,stimuli/out2.png,,,,,,,,,,,,,,,,,,,,,,,,,,,,,,,,,,,,,,
,,5bf5ba787ac3710001c47193,33,male,2024-04-24_13h31.48.565,stockport_simplified,2022.2.4,Win32,119.047619,661e456ee6de07e70aa9ef7b,6628df86ff56ad52dcc23d55,,,,,,,,,,,,,,,,,,,,,,,,,,,,,,,,,,659.1212,661.0899,"[5,3,2,1,6,4,8,7]","[[-0.3,0.2],[0.3,0.2]]","[[0.125,-0.2],[-0.125,-0.2]]",-0.090740698,-0.204629616,1,0,0,1.4649,o2_image,661.0921,1,661.598,661.5981,663.5951,0,0,0,0,1,,,,,,,,,,,,,,,,,,,,,,,,,,,,,,,,,,,,,,,,,,,,,,,,,,
,,5bf5ba787ac3710001c47193,33,male,2024-04-24_13h31.48.565,stockport_simplified,2022.2.4,Win32,119.047619,661e456ee6de07e70aa9ef7b,6628df86ff56ad52dcc23d55,,,,,,,,,,,,,,,,,,,,,,,,,,,,,,,,,,,,,,,,,,,,,,,,,,,,,,,,1,58,118,14,1,B,X,N,o2_image,stimuli/out2.png,stimuli/out1.png,stimuli/correct_out2.png,,,,,,,,,,,,,,,,,,,,,,,,,,,,,,,,,,,,,,
,,5bf5ba787ac3710001c47193,33,male,2024-04-24_13h31.48.565,stockport_simplified,2022.2.4,Win32,119.047619,661e456ee6de07e70aa9ef7b,6628df86ff56ad52dcc23d55,,,,,,,,,,,,,,,,,,,,,,,,,,,,,,,,,,663.5954,666.576,"[5,3,2,1,6,4,8,7]","[[-0.3,0.2],[0.3,0.2]]","[[-0.125,-0.2],[0.125,-0.2]]",0.056481467,-0.193518533,1,0,0,2.4724,o2_image,666.5834,1,667.0886,667.0888,669.0718,0,0,0,0,1,,,,,,,,,,,,,,,,,,,,,,,,,,,,,,,,,,,,,,,,,,,,,,,,,,
,,5bf5ba787ac3710001c47193,33,male,2024-04-24_13h31.48.565,stockport_simplified,2022.2.4,Win32,119.047619,661e456ee6de07e70aa9ef7b,6628df86ff56ad52dcc23d55,,,,,,,,,,,,,,,,,,,,,,,,,,,,,,,,,,,,,,,,,,,,,,,,,,,,,,,,1,59,119,29,1,N,M,D,o2_image,stimuli/out2.png,stimuli/out1.png,stimuli/correct_out2.png,,,,,,,,,,,,,,,,,,,,,,,,,,,,,,,,,,,,,,
,,5bf5ba787ac3710001c47193,33,male,2024-04-24_13h31.48.565,stockport_simplified,2022.2.4,Win32,119.047619,661e456ee6de07e70aa9ef7b,6628df86ff56ad52dcc23d55,,,,,,,,,,,,,,,,,,,,,,,,,,,,,,,,,,669.0842,672.324,"[5,3,2,1,6,4,8,7]","[[0.3,0.2],[-0.3,0.2]]","[[0.125,-0.2],[-0.125,-0.2]]",-0.19259255,-0.19722225,1,0,0,2.7286,o2_image,672.3317,1,672.8288,672.829,674.8247,,,,,,,,,,,,,,,,,,0,0,0,0,1,,,,,,,,,,,,,,,,,,,,,,,,,,,,,,,,,
,,5bf5ba787ac3710001c47193,33,male,2024-04-24_13h31.48.565,stockport_simplified,2022.2.4,Win32,119.047619,661e456ee6de07e70aa9ef7b,6628df86ff56ad52dcc23d55,,,,,,,,,,,,,,,,,,,,,,,,,,,,,,,,,,,,,,,,,,,,,,,,,,,,,,,,,,,,,N,M,D,o2_image,stimuli/out2.png,stimuli/out1.png,stimuli/correct_out2.png,,,,,,0,0,0,58,1,,,,,,,,,,,,,,,,,,,,,,,,,,,,
,,5bf5ba787ac3710001c47193,33,male,2024-04-24_13h31.48.565,stockport_simplified,2022.2.4,Win32,119.047619,661e456ee6de07e70aa9ef7b,6628df86ff56ad52dcc23d55,,,,,,,,,,,,,,,,,,,,,,,,,,,,,,,,,,674.8252,676.6686,"[5,3,2,1,6,4,8,7]","[[0.3,0.2],[-0.3,0.2]]","[[-0.125,-0.2],[0.125,-0.2]]",0.077777792,-0.162962949,1,0,0,1.3372,o2_image,676.6691,1,677.1656,677.1657,679.1612,,,,,,,,,,,,,,,,,,0,0,0,0,1,,,,,,,,,,,,,,,,,,,,,,,,,,,,,,,,,
,,5bf5ba787ac3710001c47193,33,male,2024-04-24_13h31.48.565,stockport_simplified,2022.2.4,Win32,119.047619,661e456ee6de07e70aa9ef7b,6628df86ff56ad52dcc23d55,,,,,,,,,,,,,,,,,,,,,,,,,,,,,,,,,,,,,,,,,,,,,,,,,,,,,,,,,,,,,B,Y,N,o2_image,stimuli/out2.png,stimuli/out1.png,stimuli/correct_out2.png,,,,,,0,1,1,31,1,,,,,,,,,,,,,,,,,,,,,,,,,,,,
,,5bf5ba787ac3710001c47193,33,male,2024-04-24_13h31.48.565,stockport_simplified,2022.2.4,Win32,119.047619,661e456ee6de07e70aa9ef7b,6628df86ff56ad52dcc23d55,,,,,,,,,,,,,,,,,,,,,,,,,,,,,,,,,,679.1631,680.958,"[5,3,2,1,6,4,8,7]","[[-0.3,0.2],[0.3,0.2]]","[[-0.125,-0.2],[0.125,-0.2]]",-0.140740712,-0.172222208,1,0,0,1.2938,o1_image,680.9599,1,681.4552,681.4553,683.4459,,,,,,,,,,,,,,,,,,0,0,0,0,1,,,,,,,,,,,,,,,,,,,,,,,,,,,,,,,,,
,,5bf5ba787ac3710001c47193,33,male,2024-04-24_13h31.48.565,stockport_simplified,2022.2.4,Win32,119.047619,661e456ee6de07e70aa9ef7b,6628df86ff56ad52dcc23d55,,,,,,,,,,,,,,,,,,,,,,,,,,,,,,,,,,,,,,,,,,,,,,,,,,,,,,,,,,,,,A,Y,N,o1_image,stimuli/out1.png,stimuli/correct_out1.png,stimuli/out2.png,,,,,,0,2,2,10,1,,,,,,,,,,,,,,,,,,,,,,,,,,,,
,,5bf5ba787ac3710001c47193,33,male,2024-04-24_13h31.48.565,stockport_simplified,2022.2.4,Win32,119.047619,661e456ee6de07e70aa9ef7b,6628df86ff56ad52dcc23d55,,,,,,,,,,,,,,,,,,,,,,,,,,,,,,,,,,683.4476,685.2549,"[5,3,2,1,6,4,8,7]","[[-0.3,0.2],[0.3,0.2]]","[[-0.125,-0.2],[0.125,-0.2]]",0.090740769,-0.156481496,1,0,0,1.3024,o2_image,685.2573,0,685.7661,685.7662,687.7645,,,,,,,,,,,,,,,,,,0,0,0,0,1,,,,,,,,,,,,,,,,,,,,,,,,,,,,,,,,,
,,5bf5ba787ac3710001c47193,33,male,2024-04-24_13h31.48.565,stockport_simplified,2022.2.4,Win32,119.047619,661e456ee6de07e70aa9ef7b,6628df86ff56ad52dcc23d55,,,,,,,,,,,,,,,,,,,,,,,,,,,,,,,,,,,,,,,,,,,,,,,,,,,,,,,,,,,,,A,X,N,o1_image,stimuli/out1.png,stimuli/correct_out1.png,stimuli/out2.png,,,,,,0,3,3,0,1,,,,,,,,,,,,,,,,,,,,,,,,,,,,
,,5bf5ba787ac3710001c47193,33,male,2024-04-24_13h31.48.565,stockport_simplified,2022.2.4,Win32,119.047619,661e456ee6de07e70aa9ef7b,6628df86ff56ad52dcc23d55,,,,,,,,,,,,,,,,,,,,,,,,,,,,,,,,,,687.765,689.5918,"[5,3,2,1,6,4,8,7]","[[0.3,0.2],[-0.3,0.2]]","[[0.125,-0.2],[-0.125,-0.2]]",0.141666695,-0.190740727,1,0,0,1.3206,o1_image,689.5942,1,690.0929,690.0932,692.09,,,,,,,,,,,,,,,,,,0,0,0,0,1,,,,,,,,,,,,,,,,,,,,,,,,,,,,,,,,,
