counterbalance_2.started,counterbalance_2.stopped,participant,age,gender,date,expName,psychopyVersion,OS,frameRate,STUDY_ID,SESSION_ID,information_2.started,information_2.stopped,information_loop.thisRepN,information_loop.thisTrialN,information_loop.thisN,information_loop.thisIndex,information_loop.ran,information,consent_2.started,consent_2.stopped,slider_1.response,slider_2.response,slider_3.response,slider_4.response,slider_5.response,slider_6.response,instructions.started,instructions.stopped,task1_instr.thisRepN,task1_instr.thisTrialN,task1_instr.thisN,task1_instr.thisIndex,task1_instr.ran,task1,comprehension1_2.started,comprehension1_2.stopped,comp1_mouse.x,comp1_mouse.y,comp1_mouse.leftButton,comp1_mouse.midButton,comp1_mouse.rightButton,comp1_mouse.time,comp1_mouse.clicked_name,cue_o__trial_2.started,cue_o__trial_2.stopped,order,cue_order,out_order,cue_o_mouse.x,cue_o_mouse.y,cue_o_mouse.leftButton,cue_o_mouse.midButton,cue_o_mouse.rightButton,cue_o_mouse.time,cue_o_mouse.clicked_name,cue_selection_2.started,correct_answer,cue_selection_2.stopped,feedback_2.started,feedback_2.stopped,feedback_loop.thisRepN,feedback_loop.thisTrialN,feedback_loop.thisN,feedback_loop.thisIndex,feedback_loop.ran,stage1_trials.thisRepN,stage1_trials.thisTrialN,stage1_trials.thisN,stage1_trials.thisIndex,stage1_trials.ran,cue1,cue2,cue3,outcome,correct_out,o1_feedback,o2_feedback,stage2_feedback_loop.thisRepN,stage2_feedback_loop.thisTrialN,stage2_feedback_loop.thisN,stage2_feedback_loop.thisIndex,stage2_feedback_loop.ran,stage2_trials.thisRepN,stage2_trials.thisTrialN,stage2_trials.thisN,stage2_trials.thisIndex,stage2_trials.ran,stage3_feedback_loop.thisRepN,stage3_feedback_loop.thisTrialN,stage3_feedback_loop.thisN,stage3_feedback_loop.thisIndex,stage3_feedback_loop.ran,stage3_trials.thisRepN,stage3_trials.thisTrialN,stage3_trials.thisN,stage3_trials.thisIndex,stage3_trials.ran,debrief_2.started,debrief_2.stopped,debrief_loop.thisRepN,debrief_loop.thisTrialN,debrief_loop.thisN,debrief_loop.thisIndex,debrief_loop.ran,debrief_img,compr1_completed.thisRepN,compr1_completed.thisTrialN,compr1_completed.thisN,compr1_completed.thisIndex,compr1_completed.ran,consent_loop.thisRepN,consent_loop.thisTrialN,consent_loop.thisN,consent_loop.thisIndex,consent_loop.ran
0,0,6489a99c65564c916995612d,28,male,2024-04-19_18h37.50.809,stockport_simplified,2022.2.4,Win32,60.0240096,661e456ee6de07e70aa9ef7b,66229da40d5c58a5bc008edd,,,,,,,,,,,,,,,,,,,,,,,,,,,,,,,,,,,,,,,,,,,,,,,,,,,,,,,,,,,,,,,,,,,,,,,,,,,,,,,,,,,,,,,,,,,,,,,,,,,,,,,,,
,,6489a99c65564c916995612d,28,male,2024-04-19_18h37.50.809,stockport_simplified,2022.2.4,Win32,60.0240096,661e456ee6de07e70aa9ef7b,66229da40d5c58a5bc008edd,0.055,48.484,0,0,0,0,1,instructions/info1.png,,,,,,,,,,,,,,,,,,,,,,,,,,,,,,,,,,,,,,,,,,,,,,,,,,,,,,,,,,,,,,,,,,,,,,,,,,,,,,,,,,,,,,,,,,,,,,,,,
,,6489a99c65564c916995612d,28,male,2024-04-19_18h37.50.809,stockport_simplified,2022.2.4,Win32,60.0240096,661e456ee6de07e70aa9ef7b,66229da40d5c58a5bc008edd,48.487,56.829,0,1,1,1,1,instructions/info2.png,,,,,,,,,,,,,,,,,,,,,,,,,,,,,,,,,,,,,,,,,,,,,,,,,,,,,,,,,,,,,,,,,,,,,,,,,,,,,,,,,,,,,,,,,,,,,,,,,
,,6489a99c65564c916995612d,28,male,2024-04-19_18h37.50.809,stockport_simplified,2022.2.4,Win32,60.0240096,661e456ee6de07e70aa9ef7b,66229da40d5c58a5bc008edd,56.832,120.411,0,2,2,2,1,instructions/info3.png,,,,,,,,,,,,,,,,,,,,,,,,,,,,,,,,,,,,,,,,,,,,,,,,,,,,,,,,,,,,,,,,,,,,,,,,,,,,,,,,,,,,,,,,,,,,,,,,,
,,6489a99c65564c916995612d,28,male,2024-04-19_18h37.50.809,stockport_simplified,2022.2.4,Win32,60.0240096,661e456ee6de07e70aa9ef7b,66229da40d5c58a5bc008edd,,,,,,,,,120.412,139.434,1,1,1,1,1,1,,,,,,,,,,,,,,,,,,,,,,,,,,,,,,,,,,,,,,,,,,,,,,,,,,,,,,,,,,,,,,,,,,,,,,,,,,,,,,,,,,,,,,,,,
,,6489a99c65564c916995612d,28,male,2024-04-19_18h37.50.809,stockport_simplified,2022.2.4,Win32,60.0240096,661e456ee6de07e70aa9ef7b,66229da40d5c58a5bc008edd,,,,,,,,,,,,,,,,,139.459,158.044,0,0,0,0,1,instructions/task1_1.png,,,,,,,,,,,,,,,,,,,,,,,,,,,,,,,,,,,,,,,,,,,,,,,,,,,,,,,,,,,,,,,,,,,,,,,,,,,,,,,,,
,,6489a99c65564c916995612d,28,male,2024-04-19_18h37.50.809,stockport_simplified,2022.2.4,Win32,60.0240096,661e456ee6de07e70aa9ef7b,66229da40d5c58a5bc008edd,,,,,,,,,,,,,,,,,158.049,182.437,0,1,1,1,1,instructions/task1_2.png,,,,,,,,,,,,,,,,,,,,,,,,,,,,,,,,,,,,,,,,,,,,,,,,,,,,,,,,,,,,,,,,,,,,,,,,,,,,,,,,,
,,6489a99c65564c916995612d,28,male,2024-04-19_18h37.50.809,stockport_simplified,2022.2.4,Win32,60.0240096,661e456ee6de07e70aa9ef7b,66229da40d5c58a5bc008edd,,,,,,,,,,,,,,,,,182.438,210.412,0,2,2,2,1,instructions/task1_3.png,,,,,,,,,,,,,,,,,,,,,,,,,,,,,,,,,,,,,,,,,,,,,,,,,,,,,,,,,,,,,,,,,,,,,,,,,,,,,,,,,
,,6489a99c65564c916995612d,28,male,2024-04-19_18h37.50.809,stockport_simplified,2022.2.4,Win32,60.0240096,661e456ee6de07e70aa9ef7b,66229da40d5c58a5bc008edd,,,,,,,,,,,,,,,,,,,,,,,,,210.413,230.934,0.001388889,-0.331944444,1,0,0,20.519,comp1_resp1,230.969,234.581,"[7,1,6,5,8,4,2,3]","[[0.3,0.2],[-0.3,0.2]]","[[0.125,-0.2],[-0.125,-0.2]]",0.129166667,-0.2,1,0,0,3.094,o1_image,234.584,0,235.081,235.081,237.08,0,0,0,0,1,,,,,,,,,,,,,,,,,,,,,,,,,,,,,,,,,,,,,,,,,,,,,,,,,,
,,6489a99c65564c916995612d,28,male,2024-04-19_18h37.50.809,stockport_simplified,2022.2.4,Win32,60.0240096,661e456ee6de07e70aa9ef7b,66229da40d5c58a5bc008edd,,,,,,,,,,,,,,,,,,,,,,,,,,,,,,,,,,,,,,,,,,,,,,,,,,,,,,,,0,0,0,25,1,N,M,D,o2_image,stimuli/out2.png,stimuli/out1.png,stimuli/correct_out2.png,,,,,,,,,,,,,,,,,,,,,,,,,,,,,,,,,,,,,,
,,6489a99c65564c916995612d,28,male,2024-04-19_18h37.50.809,stockport_simplified,2022.2.4,Win32,60.0240096,661e456ee6de07e70aa9ef7b,66229da40d5c58a5bc008edd,,,,,,,,,,,,,,,,,,,,,,,,,,,,,,,,,,237.081,239.678,"[7,1,6,5,8,4,2,3]","[[-0.3,0.2],[0.3,0.2]]","[[0.125,-0.2],[-0.125,-0.2]]",-0.109722222,-0.180555556,1,0,0,2.08,o2_image,239.681,1,240.178,240.178,242.178,0,0,0,0,1,,,,,,,,,,,,,,,,,,,,,,,,,,,,,,,,,,,,,,,,,,,,,,,,,,
,,6489a99c65564c916995612d,28,male,2024-04-19_18h37.50.809,stockport_simplified,2022.2.4,Win32,60.0240096,661e456ee6de07e70aa9ef7b,66229da40d5c58a5bc008edd,,,,,,,,,,,,,,,,,,,,,,,,,,,,,,,,,,,,,,,,,,,,,,,,,,,,,,,,0,1,1,41,1,B,X,N,o2_image,stimuli/out2.png,stimuli/out1.png,stimuli/correct_out2.png,,,,,,,,,,,,,,,,,,,,,,,,,,,,,,,,,,,,,,
,,6489a99c65564c916995612d,28,male,2024-04-19_18h37.50.809,stockport_simplified,2022.2.4,Win32,60.0240096,661e456ee6de07e70aa9ef7b,66229da40d5c58a5bc008edd,,,,,,,,,,,,,,,,,,,,,,,,,,,,,,,,,,242.178,244.692,"[7,1,6,5,8,4,2,3]","[[-0.3,0.2],[0.3,0.2]]","[[0.125,-0.2],[-0.125,-0.2]]",-0.106944444,-0.140277778,1,0,0,1.998,o2_image,244.694,1,245.192,245.192,247.191,0,0,0,0,1,,,,,,,,,,,,,,,,,,,,,,,,,,,,,,,,,,,,,,,,,,,,,,,,,,
,,6489a99c65564c916995612d,28,male,2024-04-19_18h37.50.809,stockport_simplified,2022.2.4,Win32,60.0240096,661e456ee6de07e70aa9ef7b,66229da40d5c58a5bc008edd,,,,,,,,,,,,,,,,,,,,,,,,,,,,,,,,,,,,,,,,,,,,,,,,,,,,,,,,0,2,2,27,1,N,M,D,o2_image,stimuli/out2.png,stimuli/out1.png,stimuli/correct_out2.png,,,,,,,,,,,,,,,,,,,,,,,,,,,,,,,,,,,,,,
,,6489a99c65564c916995612d,28,male,2024-04-19_18h37.50.809,stockport_simplified,2022.2.4,Win32,60.0240096,661e456ee6de07e70aa9ef7b,66229da40d5c58a5bc008edd,,,,,,,,,,,,,,,,,,,,,,,,,,,,,,,,,,247.192,249.972,"[7,1,6,5,8,4,2,3]","[[0.3,0.2],[-0.3,0.2]]","[[-0.125,-0.2],[0.125,-0.2]]",0.143055556,-0.194444444,1,0,0,2.265,o2_image,249.976,1,250.472,250.472,252.471,0,0,0,0,1,,,,,,,,,,,,,,,,,,,,,,,,,,,,,,,,,,,,,,,,,,,,,,,,,,
,,6489a99c65564c916995612d,28,male,2024-04-19_18h37.50.809,stockport_simplified,2022.2.4,Win32,60.0240096,661e456ee6de07e70aa9ef7b,66229da40d5c58a5bc008edd,,,,,,,,,,,,,,,,,,,,,,,,,,,,,,,,,,,,,,,,,,,,,,,,,,,,,,,,0,3,3,56,1,N,M,D,o2_image,stimuli/out2.png,stimuli/out1.png,stimuli/correct_out2.png,,,,,,,,,,,,,,,,,,,,,,,,,,,,,,,,,,,,,,
,,6489a99c65564c916995612d,28,male,2024-04-19_18h37.50.809,stockport_simplified,2022.2.4,Win32,60.0240096,661e456ee6de07e70aa9ef7b,66229da40d5c58a5bc008edd,,,,,,,,,,,,,,,,,,,,,,,,,,,,,,,,,,252.472,255.72,"[7,1,6,5,8,4,2,3]","[[0.3,0.2],[-0.3,0.2]]","[[0.125,-0.2],[-0.125,-0.2]]",0.131944444,-0.194444444,1,0,0,2.732,o1_image,255.722,1,256.22,256.22,258.218,0,0,0,0,1,,,,,,,,,,,,,,,,,,,,,,,,,,,,,,,,,,,,,,,,,,,,,,,,,,
,,6489a99c65564c916995612d,28,male,2024-04-19_18h37.50.809,stockport_simplified,2022.2.4,Win32,60.0240096,661e456ee6de07e70aa9ef7b,66229da40d5c58a5bc008edd,,,,,,,,,,,,,,,,,,,,,,,,,,,,,,,,,,,,,,,,,,,,,,,,,,,,,,,,0,4,4,31,1,A,X,N,o1_image,stimuli/out1.png,stimuli/correct_out1.png,stimuli/out2.png,,,,,,,,,,,,,,,,,,,,,,,,,,,,,,,,,,,,,,
,,6489a99c65564c916995612d,28,male,2024-04-19_18h37.50.809,stockport_simplified,2022.2.4,Win32,60.0240096,661e456ee6de07e70aa9ef7b,66229da40d5c58a5bc008edd,,,,,,,,,,,,,,,,,,,,,,,,,,,,,,,,,,258.221,261.366,"[7,1,6,5,8,4,2,3]","[[-0.3,0.2],[0.3,0.2]]","[[0.125,-0.2],[-0.125,-0.2]]",0.113888889,-0.193055556,1,0,0,2.63,o1_image,261.368,0,261.866,261.866,263.866,0,0,0,0,1,,,,,,,,,,,,,,,,,,,,,,,,,,,,,,,,,,,,,,,,,,,,,,,,,,
,,6489a99c65564c916995612d,28,male,2024-04-19_18h37.50.809,stockport_simplified,2022.2.4,Win32,60.0240096,661e456ee6de07e70aa9ef7b,66229da40d5c58a5bc008edd,,,,,,,,,,,,,,,,,,,,,,,,,,,,,,,,,,,,,,,,,,,,,,,,,,,,,,,,0,5,5,45,1,B,Y,N,o2_image,stimuli/out2.png,stimuli/out1.png,stimuli/correct_out2.png,,,,,,,,,,,,,,,,,,,,,,,,,,,,,,,,,,,,,,
,,6489a99c65564c916995612d,28,male,2024-04-19_18h37.50.809,stockport_simplified,2022.2.4,Win32,60.0240096,661e456ee6de07e70aa9ef7b,66229da40d5c58a5bc008edd,,,,,,,,,,,,,,,,,,,,,,,,,,,,,,,,,,263.874,266.265,"[7,1,6,5,8,4,2,3]","[[-0.3,0.2],[0.3,0.2]]","[[-0.125,-0.2],[0.125,-0.2]]",0.123611111,-0.195833333,1,0,0,1.883,o2_image,266.271,1,266.764,266.764,268.763,0,0,0,0,1,,,,,,,,,,,,,,,,,,,,,,,,,,,,,,,,,,,,,,,,,,,,,,,,,,
,,6489a99c65564c916995612d,28,male,2024-04-19_18h37.50.809,stockport_simplified,2022.2.4,Win32,60.0240096,661e456ee6de07e70aa9ef7b,66229da40d5c58a5bc008edd,,,,,,,,,,,,,,,,,,,,,,,,,,,,,,,,,,,,,,,,,,,,,,,,,,,,,,,,0,6,6,18,1,B,Y,N,o2_image,stimuli/out2.png,stimuli/out1.png,stimuli/correct_out2.png,,,,,,,,,,,,,,,,,,,,,,,,,,,,,,,,,,,,,,
,,6489a99c65564c916995612d,28,male,2024-04-19_18h37.50.809,stockport_simplified,2022.2.4,Win32,60.0240096,661e456ee6de07e70aa9ef7b,66229da40d5c58a5bc008edd,,,,,,,,,,,,,,,,,,,,,,,,,,,,,,,,,,268.764,272.727,"[7,1,6,5,8,4,2,3]","[[-0.3,0.2],[0.3,0.2]]","[[0.125,-0.2],[-0.125,-0.2]]",-0.095833333,-0.191666667,1,0,0,3.445,o2_image,272.729,0,273.226,273.226,275.226,0,0,0,0,1,,,,,,,,,,,,,,,,,,,,,,,,,,,,,,,,,,,,,,,,,,,,,,,,,,
,,6489a99c65564c916995612d,28,male,2024-04-19_18h37.50.809,stockport_simplified,2022.2.4,Win32,60.0240096,661e456ee6de07e70aa9ef7b,66229da40d5c58a5bc008edd,,,,,,,,,,,,,,,,,,,,,,,,,,,,,,,,,,,,,,,,,,,,,,,,,,,,,,,,0,7,7,8,1,A,Y,N,o1_image,stimuli/out1.png,stimuli/correct_out1.png,stimuli/out2.png,,,,,,,,,,,,,,,,,,,,,,,,,,,,,,,,,,,,,,
,,6489a99c65564c916995612d,28,male,2024-04-19_18h37.50.809,stockport_simplified,2022.2.4,Win32,60.0240096,661e456ee6de07e70aa9ef7b,66229da40d5c58a5bc008edd,,,,,,,,,,,,,,,,,,,,,,,,,,,,,,,,,,275.227,277.691,"[7,1,6,5,8,4,2,3]","[[-0.3,0.2],[0.3,0.2]]","[[-0.125,-0.2],[0.125,-0.2]]",0.118055556,-0.180555556,1,0,0,1.946,o2_image,277.693,0,278.19,278.191,280.189,0,0,0,0,1,,,,,,,,,,,,,,,,,,,,,,,,,,,,,,,,,,,,,,,,,,,,,,,,,,
,,6489a99c65564c916995612d,28,male,2024-04-19_18h37.50.809,stockport_simplified,2022.2.4,Win32,60.0240096,661e456ee6de07e70aa9ef7b,66229da40d5c58a5bc008edd,,,,,,,,,,,,,,,,,,,,,,,,,,,,,,,,,,,,,,,,,,,,,,,,,,,,,,,,0,8,8,54,1,N,M,C,o1_image,stimuli/out1.png,stimuli/correct_out1.png,stimuli/out2.png,,,,,,,,,,,,,,,,,,,,,,,,,,,,,,,,,,,,,,
,,6489a99c65564c916995612d,28,male,2024-04-19_18h37.50.809,stockport_simplified,2022.2.4,Win32,60.0240096,661e456ee6de07e70aa9ef7b,66229da40d5c58a5bc008edd,,,,,,,,,,,,,,,,,,,,,,,,,,,,,,,,,,280.19,282.222,"[7,1,6,5,8,4,2,3]","[[0.3,0.2],[-0.3,0.2]]","[[-0.125,-0.2],[0.125,-0.2]]",0.102777778,-0.215277778,1,0,0,1.515,o2_image,282.224,0,282.721,282.721,284.72,0,0,0,0,1,,,,,,,,,,,,,,,,,,,,,,,,,,,,,,,,,,,,,,,,,,,,,,,,,,
,,6489a99c65564c916995612d,28,male,2024-04-19_18h37.50.809,stockport_simplified,2022.2.4,Win32,60.0240096,661e456ee6de07e70aa9ef7b,66229da40d5c58a5bc008edd,,,,,,,,,,,,,,,,,,,,,,,,,,,,,,,,,,,,,,,,,,,,,,,,,,,,,,,,0,9,9,1,1,A,X,N,o1_image,stimuli/out1.png,stimuli/correct_out1.png,stimuli/out2.png,,,,,,,,,,,,,,,,,,,,,,,,,,,,,,,,,,,,,,
,,6489a99c65564c916995612d,28,male,2024-04-19_18h37.50.809,stockport_simplified,2022.2.4,Win32,60.0240096,661e456ee6de07e70aa9ef7b,66229da40d5c58a5bc008edd,,,,,,,,,,,,,,,,,,,,,,,,,,,,,,,,,,284.722,287.569,"[7,1,6,5,8,4,2,3]","[[0.3,0.2],[-0.3,0.2]]","[[0.125,-0.2],[-0.125,-0.2]]",0.130555556,-0.190277778,1,0,0,2.332,o1_image,287.57,0,288.069,288.069,290.068,0,0,0,0,1,,,,,,,,,,,,,,,,,,,,,,,,,,,,,,,,,,,,,,,,,,,,,,,,,,
,,6489a99c65564c916995612d,28,male,2024-04-19_18h37.50.809,stockport_simplified,2022.2.4,Win32,60.0240096,661e456ee6de07e70aa9ef7b,66229da40d5c58a5bc008edd,,,,,,,,,,,,,,,,,,,,,,,,,,,,,,,,,,,,,,,,,,,,,,,,,,,,,,,,0,10,10,40,1,B,X,N,o2_image,stimuli/out2.png,stimuli/out1.png,stimuli/correct_out2.png,,,,,,,,,,,,,,,,,,,,,,,,,,,,,,,,,,,,,,
,,6489a99c65564c916995612d,28,male,2024-04-19_18h37.50.809,stockport_simplified,2022.2.4,Win32,60.0240096,661e456ee6de07e70aa9ef7b,66229da40d5c58a5bc008edd,,,,,,,,,,,,,,,,,,,,,,,,,,,,,,,,,,290.069,293.832,"[7,1,6,5,8,4,2,3]","[[0.3,0.2],[-0.3,0.2]]","[[-0.125,-0.2],[0.125,-0.2]]",-0.098611111,-0.195833333,1,0,0,3.248,o1_image,293.835,0,294.332,294.332,296.331,0,0,0,0,1,,,,,,,,,,,,,,,,,,,,,,,,,,,,,,,,,,,,,,,,,,,,,,,,,,
,,6489a99c65564c916995612d,28,male,2024-04-19_18h37.50.809,stockport_simplified,2022.2.4,Win32,60.0240096,661e456ee6de07e70aa9ef7b,66229da40d5c58a5bc008edd,,,,,,,,,,,,,,,,,,,,,,,,,,,,,,,,,,,,,,,,,,,,,,,,,,,,,,,,0,11,11,10,1,B,X,N,o2_image,stimuli/out2.png,stimuli/out1.png,stimuli/correct_out2.png,,,,,,,,,,,,,,,,,,,,,,,,,,,,,,,,,,,,,,
,,6489a99c65564c916995612d,28,male,2024-04-19_18h37.50.809,stockport_simplified,2022.2.4,Win32,60.0240096,661e456ee6de07e70aa9ef7b,66229da40d5c58a5bc008edd,,,,,,,,,,,,,,,,,,,,,,,,,,,,,,,,,,296.336,298.546,"[7,1,6,5,8,4,2,3]","[[0.3,0.2],[-0.3,0.2]]","[[0.125,-0.2],[-0.125,-0.2]]",-0.180555556,-0.184722222,1,0,0,1.695,o2_image,298.554,0,299.046,299.046,301.045,0,0,0,0,1,,,,,,,,,,,,,,,,,,,,,,,,,,,,,,,,,,,,,,,,,,,,,,,,,,
,,6489a99c65564c916995612d,28,male,2024-04-19_18h37.50.809,stockport_simplified,2022.2.4,Win32,60.0240096,661e456ee6de07e70aa9ef7b,66229da40d5c58a5bc008edd,,,,,,,,,,,,,,,,,,,,,,,,,,,,,,,,,,,,,,,,,,,,,,,,,,,,,,,,0,12,12,36,1,A,Y,N,o1_image,stimuli/out1.png,stimuli/correct_out1.png,stimuli/out2.png,,,,,,,,,,,,,,,,,,,,,,,,,,,,,,,,,,,,,,
,,6489a99c65564c916995612d,28,male,2024-04-19_18h37.50.809,stockport_simplified,2022.2.4,Win32,60.0240096,661e456ee6de07e70aa9ef7b,66229da40d5c58a5bc008edd,,,,,,,,,,,,,,,,,,,,,,,,,,,,,,,,,,301.047,303.143,"[7,1,6,5,8,4,2,3]","[[0.3,0.2],[-0.3,0.2]]","[[-0.125,-0.2],[0.125,-0.2]]",0.129166667,-0.180555556,1,0,0,1.581,o2_image,303.147,0,303.643,303.643,305.642,0,0,0,0,1,,,,,,,,,,,,,,,,,,,,,,,,,,,,,,,,,,,,,,,,,,,,,,,,,,
,,6489a99c65564c916995612d,28,male,2024-04-19_18h37.50.809,stockport_simplified,2022.2.4,Win32,60.0240096,661e456ee6de07e70aa9ef7b,66229da40d5c58a5bc008edd,,,,,,,,,,,,,,,,,,,,,,,,,,,,,,,,,,,,,,,,,,,,,,,,,,,,,,,,0,13,13,0,1,A,X,N,o1_image,stimuli/out1.png,stimuli/correct_out1.png,stimuli/out2.png,,,,,,,,,,,,,,,,,,,,,,,,,,,,,,,,,,,,,,
,,6489a99c65564c916995612d,28,male,2024-04-19_18h37.50.809,stockport_simplified,2022.2.4,Win32,60.0240096,661e456ee6de07e70aa9ef7b,66229da40d5c58a5bc008edd,,,,,,,,,,,,,,,,,,,,,,,,,,,,,,,,,,305.642,307.725,"[7,1,6,5,8,4,2,3]","[[0.3,0.2],[-0.3,0.2]]","[[-0.125,-0.2],[0.125,-0.2]]",0.129166667,-0.180555556,1,0,0,1.566,o2_image,307.732,1,308.225,308.225,310.223,0,0,0,0,1,,,,,,,,,,,,,,,,,,,,,,,,,,,,,,,,,,,,,,,,,,,,,,,,,,
,,6489a99c65564c916995612d,28,male,2024-04-19_18h37.50.809,stockport_simplified,2022.2.4,Win32,60.0240096,661e456ee6de07e70aa9ef7b,66229da40d5c58a5bc008edd,,,,,,,,,,,,,,,,,,,,,,,,,,,,,,,,,,,,,,,,,,,,,,,,,,,,,,,,0,14,14,12,1,B,X,N,o2_image,stimuli/out2.png,stimuli/out1.png,stimuli/correct_out2.png,,,,,,,,,,,,,,,,,,,,,,,,,,,,,,,,,,,,,,
,,6489a99c65564c916995612d,28,male,2024-04-19_18h37.50.809,stockport_simplified,2022.2.4,Win32,60.0240096,661e456ee6de07e70aa9ef7b,66229da40d5c58a5bc008edd,,,,,,,,,,,,,,,,,,,,,,,,,,,,,,,,,,310.224,311.789,"[7,1,6,5,8,4,2,3]","[[0.3,0.2],[-0.3,0.2]]","[[-0.125,-0.2],[0.125,-0.2]]",0.183333333,-0.183333333,1,0,0,1.048,o2_image,311.79,0,312.288,312.288,314.287,0,0,0,0,1,,,,,,,,,,,,,,,,,,,,,,,,,,,,,,,,,,,,,,,,,,,,,,,,,,
,,6489a99c65564c916995612d,28,male,2024-04-19_18h37.50.809,stockport_simplified,2022.2.4,Win32,60.0240096,661e456ee6de07e70aa9ef7b,66229da40d5c58a5bc008edd,,,,,,,,,,,,,,,,,,,,,,,,,,,,,,,,,,,,,,,,,,,,,,,,,,,,,,,,0,15,15,32,1,A,X,N,o1_image,stimuli/out1.png,stimuli/correct_out1.png,stimuli/out2.png,,,,,,,,,,,,,,,,,,,,,,,,,,,,,,,,,,,,,,
,,6489a99c65564c916995612d,28,male,2024-04-19_18h37.50.809,stockport_simplified,2022.2.4,Win32,60.0240096,661e456ee6de07e70aa9ef7b,66229da40d5c58a5bc008edd,,,,,,,,,,,,,,,,,,,,,,,,,,,,,,,,,,314.288,316.902,"[7,1,6,5,8,4,2,3]","[[0.3,0.2],[-0.3,0.2]]","[[-0.125,-0.2],[0.125,-0.2]]",-0.106944444,-0.1625,1,0,0,2.097,o1_image,316.905,1,317.402,317.402,319.402,0,0,0,0,1,,,,,,,,,,,,,,,,,,,,,,,,,,,,,,,,,,,,,,,,,,,,,,,,,,
,,6489a99c65564c916995612d,28,male,2024-04-19_18h37.50.809,stockport_simplified,2022.2.4,Win32,60.0240096,661e456ee6de07e70aa9ef7b,66229da40d5c58a5bc008edd,,,,,,,,,,,,,,,,,,,,,,,,,,,,,,,,,,,,,,,,,,,,,,,,,,,,,,,,0,16,16,51,1,N,M,C,o1_image,stimuli/out1.png,stimuli/correct_out1.png,stimuli/out2.png,,,,,,,,,,,,,,,,,,,,,,,,,,,,,,,,,,,,,,
,,6489a99c65564c916995612d,28,male,2024-04-19_18h37.50.809,stockport_simplified,2022.2.4,Win32,60.0240096,661e456ee6de07e70aa9ef7b,66229da40d5c58a5bc008edd,,,,,,,,,,,,,,,,,,,,,,,,,,,,,,,,,,319.402,322,"[7,1,6,5,8,4,2,3]","[[-0.3,0.2],[0.3,0.2]]","[[-0.125,-0.2],[0.125,-0.2]]",0.140277778,-0.154166667,1,0,0,2.081,o2_image,322.003,1,322.5,322.5,324.499,0,0,0,0,1,,,,,,,,,,,,,,,,,,,,,,,,,,,,,,,,,,,,,,,,,,,,,,,,,,
,,6489a99c65564c916995612d,28,male,2024-04-19_18h37.50.809,stockport_simplified,2022.2.4,Win32,60.0240096,661e456ee6de07e70aa9ef7b,66229da40d5c58a5bc008edd,,,,,,,,,,,,,,,,,,,,,,,,,,,,,,,,,,,,,,,,,,,,,,,,,,,,,,,,0,17,17,44,1,B,X,N,o2_image,stimuli/out2.png,stimuli/out1.png,stimuli/correct_out2.png,,,,,,,,,,,,,,,,,,,,,,,,,,,,,,,,,,,,,,
,,6489a99c65564c916995612d,28,male,2024-04-19_18h37.50.809,stockport_simplified,2022.2.4,Win32,60.0240096,661e456ee6de07e70aa9ef7b,66229da40d5c58a5bc008edd,,,,,,,,,,,,,,,,,,,,,,,,,,,,,,,,,,324.5,327.047,"[7,1,6,5,8,4,2,3]","[[-0.3,0.2],[0.3,0.2]]","[[0.125,-0.2],[-0.125,-0.2]]",0.141666667,-0.188888889,1,0,0,2.031,o1_image,327.051,1,327.546,327.546,329.546,0,0,0,0,1,,,,,,,,,,,,,,,,,,,,,,,,,,,,,,,,,,,,,,,,,,,,,,,,,,
,,6489a99c65564c916995612d,28,male,2024-04-19_18h37.50.809,stockport_simplified,2022.2.4,Win32,60.0240096,661e456ee6de07e70aa9ef7b,66229da40d5c58a5bc008edd,,,,,,,,,,,,,,,,,,,,,,,,,,,,,,,,,,,,,,,,,,,,,,,,,,,,,,,,0,18,18,37,1,A,Y,N,o1_image,stimuli/out1.png,stimuli/correct_out1.png,stimuli/out2.png,,,,,,,,,,,,,,,,,,,,,,,,,,,,,,,,,,,,,,
,,6489a99c65564c916995612d,28,male,2024-04-19_18h37.50.809,stockport_simplified,2022.2.4,Win32,60.0240096,661e456ee6de07e70aa9ef7b,66229da40d5c58a5bc008edd,,,,,,,,,,,,,,,,,,,,,,,,,,,,,,,,,,329.546,333.227,"[7,1,6,5,8,4,2,3]","[[-0.3,0.2],[0.3,0.2]]","[[-0.125,-0.2],[0.125,-0.2]]",-0.104166667,-0.191666667,1,0,0,3.162,o1_image,333.236,0,333.727,333.727,335.726,0,0,0,0,1,,,,,,,,,,,,,,,,,,,,,,,,,,,,,,,,,,,,,,,,,,,,,,,,,,
,,6489a99c65564c916995612d,28,male,2024-04-19_18h37.50.809,stockport_simplified,2022.2.4,Win32,60.0240096,661e456ee6de07e70aa9ef7b,66229da40d5c58a5bc008edd,,,,,,,,,,,,,,,,,,,,,,,,,,,,,,,,,,,,,,,,,,,,,,,,,,,,,,,,0,19,19,17,1,B,Y,N,o2_image,stimuli/out2.png,stimuli/out1.png,stimuli/correct_out2.png,,,,,,,,,,,,,,,,,,,,,,,,,,,,,,,,,,,,,,
,,6489a99c65564c916995612d,28,male,2024-04-19_18h37.50.809,stockport_simplified,2022.2.4,Win32,60.0240096,661e456ee6de07e70aa9ef7b,66229da40d5c58a5bc008edd,,,,,,,,,,,,,,,,,,,,,,,,,,,,,,,,,,335.728,337.841,"[7,1,6,5,8,4,2,3]","[[0.3,0.2],[-0.3,0.2]]","[[-0.125,-0.2],[0.125,-0.2]]",-0.127777778,-0.168055556,1,0,0,1.597,o1_image,337.844,1,338.341,338.341,340.34,0,0,0,0,1,,,,,,,,,,,,,,,,,,,,,,,,,,,,,,,,,,,,,,,,,,,,,,,,,,
,,6489a99c65564c916995612d,28,male,2024-04-19_18h37.50.809,stockport_simplified,2022.2.4,Win32,60.0240096,661e456ee6de07e70aa9ef7b,66229da40d5c58a5bc008edd,,,,,,,,,,,,,,,,,,,,,,,,,,,,,,,,,,,,,,,,,,,,,,,,,,,,,,,,0,20,20,9,1,A,Y,N,o1_image,stimuli/out1.png,stimuli/correct_out1.png,stimuli/out2.png,,,,,,,,,,,,,,,,,,,,,,,,,,,,,,,,,,,,,,
,,6489a99c65564c916995612d,28,male,2024-04-19_18h37.50.809,stockport_simplified,2022.2.4,Win32,60.0240096,661e456ee6de07e70aa9ef7b,66229da40d5c58a5bc008edd,,,,,,,,,,,,,,,,,,,,,,,,,,,,,,,,,,340.34,342.789,"[7,1,6,5,8,4,2,3]","[[-0.3,0.2],[0.3,0.2]]","[[0.125,-0.2],[-0.125,-0.2]]",0.148611111,-0.184722222,1,0,0,1.949,o1_image,342.792,1,343.288,343.288,345.287,0,0,0,0,1,,,,,,,,,,,,,,,,,,,,,,,,,,,,,,,,,,,,,,,,,,,,,,,,,,
,,6489a99c65564c916995612d,28,male,2024-04-19_18h37.50.809,stockport_simplified,2022.2.4,Win32,60.0240096,661e456ee6de07e70aa9ef7b,66229da40d5c58a5bc008edd,,,,,,,,,,,,,,,,,,,,,,,,,,,,,,,,,,,,,,,,,,,,,,,,,,,,,,,,0,21,21,35,1,A,Y,N,o1_image,stimuli/out1.png,stimuli/correct_out1.png,stimuli/out2.png,,,,,,,,,,,,,,,,,,,,,,,,,,,,,,,,,,,,,,
,,6489a99c65564c916995612d,28,male,2024-04-19_18h37.50.809,stockport_simplified,2022.2.4,Win32,60.0240096,661e456ee6de07e70aa9ef7b,66229da40d5c58a5bc008edd,,,,,,,,,,,,,,,,,,,,,,,,,,,,,,,,,,345.287,348.669,"[7,1,6,5,8,4,2,3]","[[-0.3,0.2],[0.3,0.2]]","[[0.125,-0.2],[-0.125,-0.2]]",-0.090277778,-0.208333333,1,0,0,2.879,o2_image,348.672,1,349.169,349.169,351.167,0,0,0,0,1,,,,,,,,,,,,,,,,,,,,,,,,,,,,,,,,,,,,,,,,,,,,,,,,,,
,,6489a99c65564c916995612d,28,male,2024-04-19_18h37.50.809,stockport_simplified,2022.2.4,Win32,60.0240096,661e456ee6de07e70aa9ef7b,66229da40d5c58a5bc008edd,,,,,,,,,,,,,,,,,,,,,,,,,,,,,,,,,,,,,,,,,,,,,,,,,,,,,,,,0,22,22,55,1,N,M,D,o2_image,stimuli/out2.png,stimuli/out1.png,stimuli/correct_out2.png,,,,,,,,,,,,,,,,,,,,,,,,,,,,,,,,,,,,,,
,,6489a99c65564c916995612d,28,male,2024-04-19_18h37.50.809,stockport_simplified,2022.2.4,Win32,60.0240096,661e456ee6de07e70aa9ef7b,66229da40d5c58a5bc008edd,,,,,,,,,,,,,,,,,,,,,,,,,,,,,,,,,,351.168,353.383,"[7,1,6,5,8,4,2,3]","[[0.3,0.2],[-0.3,0.2]]","[[0.125,-0.2],[-0.125,-0.2]]",0.184722222,-0.193055556,1,0,0,1.697,o1_image,353.386,1,353.882,353.882,355.881,0,0,0,0,1,,,,,,,,,,,,,,,,,,,,,,,,,,,,,,,,,,,,,,,,,,,,,,,,,,
,,6489a99c65564c916995612d,28,male,2024-04-19_18h37.50.809,stockport_simplified,2022.2.4,Win32,60.0240096,661e456ee6de07e70aa9ef7b,66229da40d5c58a5bc008edd,,,,,,,,,,,,,,,,,,,,,,,,,,,,,,,,,,,,,,,,,,,,,,,,,,,,,,,,0,23,23,5,1,A,Y,N,o1_image,stimuli/out1.png,stimuli/correct_out1.png,stimuli/out2.png,,,,,,,,,,,,,,,,,,,,,,,,,,,,,,,,,,,,,,
,,6489a99c65564c916995612d,28,male,2024-04-19_18h37.50.809,stockport_simplified,2022.2.4,Win32,60.0240096,661e456ee6de07e70aa9ef7b,66229da40d5c58a5bc008edd,,,,,,,,,,,,,,,,,,,,,,,,,,,,,,,,,,355.882,358.096,"[7,1,6,5,8,4,2,3]","[[0.3,0.2],[-0.3,0.2]]","[[-0.125,-0.2],[0.125,-0.2]]",-0.106944444,-0.181944444,1,0,0,1.698,o1_image,358.098,1,358.596,358.596,360.595,0,0,0,0,1,,,,,,,,,,,,,,,,,,,,,,,,,,,,,,,,,,,,,,,,,,,,,,,,,,
,,6489a99c65564c916995612d,28,male,2024-04-19_18h37.50.809,stockport_simplified,2022.2.4,Win32,60.0240096,661e456ee6de07e70aa9ef7b,66229da40d5c58a5bc008edd,,,,,,,,,,,,,,,,,,,,,,,,,,,,,,,,,,,,,,,,,,,,,,,,,,,,,,,,0,24,24,7,1,A,Y,N,o1_image,stimuli/out1.png,stimuli/correct_out1.png,stimuli/out2.png,,,,,,,,,,,,,,,,,,,,,,,,,,,,,,,,,,,,,,
,,6489a99c65564c916995612d,28,male,2024-04-19_18h37.50.809,stockport_simplified,2022.2.4,Win32,60.0240096,661e456ee6de07e70aa9ef7b,66229da40d5c58a5bc008edd,,,,,,,,,,,,,,,,,,,,,,,,,,,,,,,,,,360.596,364.278,"[7,1,6,5,8,4,2,3]","[[0.3,0.2],[-0.3,0.2]]","[[-0.125,-0.2],[0.125,-0.2]]",-0.129166667,-0.181944444,1,0,0,3.164,o1_image,364.284,0,364.777,364.778,366.775,0,0,0,0,1,,,,,,,,,,,,,,,,,,,,,,,,,,,,,,,,,,,,,,,,,,,,,,,,,,
,,6489a99c65564c916995612d,28,male,2024-04-19_18h37.50.809,stockport_simplified,2022.2.4,Win32,60.0240096,661e456ee6de07e70aa9ef7b,66229da40d5c58a5bc008edd,,,,,,,,,,,,,,,,,,,,,,,,,,,,,,,,,,,,,,,,,,,,,,,,,,,,,,,,0,25,25,47,1,B,Y,N,o2_image,stimuli/out2.png,stimuli/out1.png,stimuli/correct_out2.png,,,,,,,,,,,,,,,,,,,,,,,,,,,,,,,,,,,,,,
,,6489a99c65564c916995612d,28,male,2024-04-19_18h37.50.809,stockport_simplified,2022.2.4,Win32,60.0240096,661e456ee6de07e70aa9ef7b,66229da40d5c58a5bc008edd,,,,,,,,,,,,,,,,,,,,,,,,,,,,,,,,,,366.777,368.492,"[7,1,6,5,8,4,2,3]","[[0.3,0.2],[-0.3,0.2]]","[[0.125,-0.2],[-0.125,-0.2]]",0.098611111,-0.173611111,1,0,0,1.196,o1_image,368.494,1,368.991,368.991,370.99,0,0,0,0,1,,,,,,,,,,,,,,,,,,,,,,,,,,,,,,,,,,,,,,,,,,,,,,,,,,
,,6489a99c65564c916995612d,28,male,2024-04-19_18h37.50.809,stockport_simplified,2022.2.4,Win32,60.0240096,661e456ee6de07e70aa9ef7b,66229da40d5c58a5bc008edd,,,,,,,,,,,,,,,,,,,,,,,,,,,,,,,,,,,,,,,,,,,,,,,,,,,,,,,,0,26,26,50,1,N,M,C,o1_image,stimuli/out1.png,stimuli/correct_out1.png,stimuli/out2.png,,,,,,,,,,,,,,,,,,,,,,,,,,,,,,,,,,,,,,
,,6489a99c65564c916995612d,28,male,2024-04-19_18h37.50.809,stockport_simplified,2022.2.4,Win32,60.0240096,661e456ee6de07e70aa9ef7b,66229da40d5c58a5bc008edd,,,,,,,,,,,,,,,,,,,,,,,,,,,,,,,,,,370.99,373.388,"[7,1,6,5,8,4,2,3]","[[0.3,0.2],[-0.3,0.2]]","[[0.125,-0.2],[-0.125,-0.2]]",-0.084722222,-0.186111111,1,0,0,1.897,o2_image,373.391,1,373.888,373.888,375.887,0,0,0,0,1,,,,,,,,,,,,,,,,,,,,,,,,,,,,,,,,,,,,,,,,,,,,,,,,,,
,,6489a99c65564c916995612d,28,male,2024-04-19_18h37.50.809,stockport_simplified,2022.2.4,Win32,60.0240096,661e456ee6de07e70aa9ef7b,66229da40d5c58a5bc008edd,,,,,,,,,,,,,,,,,,,,,,,,,,,,,,,,,,,,,,,,,,,,,,,,,,,,,,,,0,27,27,13,1,B,X,N,o2_image,stimuli/out2.png,stimuli/out1.png,stimuli/correct_out2.png,,,,,,,,,,,,,,,,,,,,,,,,,,,,,,,,,,,,,,
,,6489a99c65564c916995612d,28,male,2024-04-19_18h37.50.809,stockport_simplified,2022.2.4,Win32,60.0240096,661e456ee6de07e70aa9ef7b,66229da40d5c58a5bc008edd,,,,,,,,,,,,,,,,,,,,,,,,,,,,,,,,,,375.887,379.269,"[7,1,6,5,8,4,2,3]","[[-0.3,0.2],[0.3,0.2]]","[[-0.125,-0.2],[0.125,-0.2]]",-0.120833333,-0.195833333,1,0,0,2.88,o1_image,379.272,0,379.768,379.768,381.767,0,0,0,0,1,,,,,,,,,,,,,,,,,,,,,,,,,,,,,,,,,,,,,,,,,,,,,,,,,,
,,6489a99c65564c916995612d,28,male,2024-04-19_18h37.50.809,stockport_simplified,2022.2.4,Win32,60.0240096,661e456ee6de07e70aa9ef7b,66229da40d5c58a5bc008edd,,,,,,,,,,,,,,,,,,,,,,,,,,,,,,,,,,,,,,,,,,,,,,,,,,,,,,,,0,28,28,29,1,N,M,D,o2_image,stimuli/out2.png,stimuli/out1.png,stimuli/correct_out2.png,,,,,,,,,,,,,,,,,,,,,,,,,,,,,,,,,,,,,,
,,6489a99c65564c916995612d,28,male,2024-04-19_18h37.50.809,stockport_simplified,2022.2.4,Win32,60.0240096,661e456ee6de07e70aa9ef7b,66229da40d5c58a5bc008edd,,,,,,,,,,,,,,,,,,,,,,,,,,,,,,,,,,381.77,385.781,"[7,1,6,5,8,4,2,3]","[[0.3,0.2],[-0.3,0.2]]","[[0.125,-0.2],[-0.125,-0.2]]",-0.116666667,-0.183333333,1,0,0,3.497,o2_image,385.784,1,386.281,386.281,388.28,0,0,0,0,1,,,,,,,,,,,,,,,,,,,,,,,,,,,,,,,,,,,,,,,,,,,,,,,,,,
,,6489a99c65564c916995612d,28,male,2024-04-19_18h37.50.809,stockport_simplified,2022.2.4,Win32,60.0240096,661e456ee6de07e70aa9ef7b,66229da40d5c58a5bc008edd,,,,,,,,,,,,,,,,,,,,,,,,,,,,,,,,,,,,,,,,,,,,,,,,,,,,,,,,0,29,29,14,1,B,X,N,o2_image,stimuli/out2.png,stimuli/out1.png,stimuli/correct_out2.png,,,,,,,,,,,,,,,,,,,,,,,,,,,,,,,,,,,,,,
,,6489a99c65564c916995612d,28,male,2024-04-19_18h37.50.809,stockport_simplified,2022.2.4,Win32,60.0240096,661e456ee6de07e70aa9ef7b,66229da40d5c58a5bc008edd,,,,,,,,,,,,,,,,,,,,,,,,,,,,,,,,,,388.281,390.346,"[7,1,6,5,8,4,2,3]","[[-0.3,0.2],[0.3,0.2]]","[[-0.125,-0.2],[0.125,-0.2]]",-0.155555556,-0.148611111,1,0,0,1.548,o1_image,390.347,1,390.846,390.846,392.845,0,0,0,0,1,,,,,,,,,,,,,,,,,,,,,,,,,,,,,,,,,,,,,,,,,,,,,,,,,,
,,6489a99c65564c916995612d,28,male,2024-04-19_18h37.50.809,stockport_simplified,2022.2.4,Win32,60.0240096,661e456ee6de07e70aa9ef7b,66229da40d5c58a5bc008edd,,,,,,,,,,,,,,,,,,,,,,,,,,,,,,,,,,,,,,,,,,,,,,,,,,,,,,,,0,30,30,21,1,N,M,C,o1_image,stimuli/out1.png,stimuli/correct_out1.png,stimuli/out2.png,,,,,,,,,,,,,,,,,,,,,,,,,,,,,,,,,,,,,,
,,6489a99c65564c916995612d,28,male,2024-04-19_18h37.50.809,stockport_simplified,2022.2.4,Win32,60.0240096,661e456ee6de07e70aa9ef7b,66229da40d5c58a5bc008edd,,,,,,,,,,,,,,,,,,,,,,,,,,,,,,,,,,392.846,395.609,"[7,1,6,5,8,4,2,3]","[[-0.3,0.2],[0.3,0.2]]","[[-0.125,-0.2],[0.125,-0.2]]",0.127777778,-0.191666667,1,0,0,2.247,o2_image,395.612,1,396.11,396.11,398.109,0,0,0,0,1,,,,,,,,,,,,,,,,,,,,,,,,,,,,,,,,,,,,,,,,,,,,,,,,,,
,,6489a99c65564c916995612d,28,male,2024-04-19_18h37.50.809,stockport_simplified,2022.2.4,Win32,60.0240096,661e456ee6de07e70aa9ef7b,66229da40d5c58a5bc008edd,,,,,,,,,,,,,,,,,,,,,,,,,,,,,,,,,,,,,,,,,,,,,,,,,,,,,,,,0,31,31,11,1,B,X,N,o2_image,stimuli/out2.png,stimuli/out1.png,stimuli/correct_out2.png,,,,,,,,,,,,,,,,,,,,,,,,,,,,,,,,,,,,,,
,,6489a99c65564c916995612d,28,male,2024-04-19_18h37.50.809,stockport_simplified,2022.2.4,Win32,60.0240096,661e456ee6de07e70aa9ef7b,66229da40d5c58a5bc008edd,,,,,,,,,,,,,,,,,,,,,,,,,,,,,,,,,,398.113,400.524,"[7,1,6,5,8,4,2,3]","[[-0.3,0.2],[0.3,0.2]]","[[0.125,-0.2],[-0.125,-0.2]]",-0.108333333,-0.15,1,0,0,1.897,o2_image,400.528,0,401.023,401.023,403.022,0,0,0,0,1,,,,,,,,,,,,,,,,,,,,,,,,,,,,,,,,,,,,,,,,,,,,,,,,,,
,,6489a99c65564c916995612d,28,male,2024-04-19_18h37.50.809,stockport_simplified,2022.2.4,Win32,60.0240096,661e456ee6de07e70aa9ef7b,66229da40d5c58a5bc008edd,,,,,,,,,,,,,,,,,,,,,,,,,,,,,,,,,,,,,,,,,,,,,,,,,,,,,,,,0,32,32,33,1,A,X,N,o1_image,stimuli/out1.png,stimuli/correct_out1.png,stimuli/out2.png,,,,,,,,,,,,,,,,,,,,,,,,,,,,,,,,,,,,,,
,,6489a99c65564c916995612d,28,male,2024-04-19_18h37.50.809,stockport_simplified,2022.2.4,Win32,60.0240096,661e456ee6de07e70aa9ef7b,66229da40d5c58a5bc008edd,,,,,,,,,,,,,,,,,,,,,,,,,,,,,,,,,,403.024,404.954,"[7,1,6,5,8,4,2,3]","[[-0.3,0.2],[0.3,0.2]]","[[-0.125,-0.2],[0.125,-0.2]]",-0.176388889,-0.216666667,1,0,0,1.415,o1_image,404.957,1,405.455,405.455,407.453,0,0,0,0,1,,,,,,,,,,,,,,,,,,,,,,,,,,,,,,,,,,,,,,,,,,,,,,,,,,
,,6489a99c65564c916995612d,28,male,2024-04-19_18h37.50.809,stockport_simplified,2022.2.4,Win32,60.0240096,661e456ee6de07e70aa9ef7b,66229da40d5c58a5bc008edd,,,,,,,,,,,,,,,,,,,,,,,,,,,,,,,,,,,,,,,,,,,,,,,,,,,,,,,,0,33,33,30,1,A,X,N,o1_image,stimuli/out1.png,stimuli/correct_out1.png,stimuli/out2.png,,,,,,,,,,,,,,,,,,,,,,,,,,,,,,,,,,,,,,
,,6489a99c65564c916995612d,28,male,2024-04-19_18h37.50.809,stockport_simplified,2022.2.4,Win32,60.0240096,661e456ee6de07e70aa9ef7b,66229da40d5c58a5bc008edd,,,,,,,,,,,,,,,,,,,,,,,,,,,,,,,,,,407.454,409.27,"[7,1,6,5,8,4,2,3]","[[-0.3,0.2],[0.3,0.2]]","[[-0.125,-0.2],[0.125,-0.2]]",-0.140277778,-0.181944444,1,0,0,1.297,o1_image,409.271,1,409.768,409.768,411.768,0,0,0,0,1,,,,,,,,,,,,,,,,,,,,,,,,,,,,,,,,,,,,,,,,,,,,,,,,,,
,,6489a99c65564c916995612d,28,male,2024-04-19_18h37.50.809,stockport_simplified,2022.2.4,Win32,60.0240096,661e456ee6de07e70aa9ef7b,66229da40d5c58a5bc008edd,,,,,,,,,,,,,,,,,,,,,,,,,,,,,,,,,,,,,,,,,,,,,,,,,,,,,,,,0,34,34,38,1,A,Y,N,o1_image,stimuli/out1.png,stimuli/correct_out1.png,stimuli/out2.png,,,,,,,,,,,,,,,,,,,,,,,,,,,,,,,,,,,,,,
,,6489a99c65564c916995612d,28,male,2024-04-19_18h37.50.809,stockport_simplified,2022.2.4,Win32,60.0240096,661e456ee6de07e70aa9ef7b,66229da40d5c58a5bc008edd,,,,,,,,,,,,,,,,,,,,,,,,,,,,,,,,,,411.768,413.8,"[7,1,6,5,8,4,2,3]","[[-0.3,0.2],[0.3,0.2]]","[[0.125,-0.2],[-0.125,-0.2]]",0.125,-0.166666667,1,0,0,1.513,o1_image,413.802,1,414.299,414.299,416.298,0,0,0,0,1,,,,,,,,,,,,,,,,,,,,,,,,,,,,,,,,,,,,,,,,,,,,,,,,,,
,,6489a99c65564c916995612d,28,male,2024-04-19_18h37.50.809,stockport_simplified,2022.2.4,Win32,60.0240096,661e456ee6de07e70aa9ef7b,66229da40d5c58a5bc008edd,,,,,,,,,,,,,,,,,,,,,,,,,,,,,,,,,,,,,,,,,,,,,,,,,,,,,,,,0,35,35,53,1,N,M,C,o1_image,stimuli/out1.png,stimuli/correct_out1.png,stimuli/out2.png,,,,,,,,,,,,,,,,,,,,,,,,,,,,,,,,,,,,,,
,,6489a99c65564c916995612d,28,male,2024-04-19_18h37.50.809,stockport_simplified,2022.2.4,Win32,60.0240096,661e456ee6de07e70aa9ef7b,66229da40d5c58a5bc008edd,,,,,,,,,,,,,,,,,,,,,,,,,,,,,,,,,,416.299,419.43,"[7,1,6,5,8,4,2,3]","[[0.3,0.2],[-0.3,0.2]]","[[0.125,-0.2],[-0.125,-0.2]]",-0.170833333,-0.191666667,1,0,0,2.614,o2_image,419.431,0,419.93,419.93,421.929,0,0,0,0,1,,,,,,,,,,,,,,,,,,,,,,,,,,,,,,,,,,,,,,,,,,,,,,,,,,
,,6489a99c65564c916995612d,28,male,2024-04-19_18h37.50.809,stockport_simplified,2022.2.4,Win32,60.0240096,661e456ee6de07e70aa9ef7b,66229da40d5c58a5bc008edd,,,,,,,,,,,,,,,,,,,,,,,,,,,,,,,,,,,,,,,,,,,,,,,,,,,,,,,,0,36,36,6,1,A,Y,N,o1_image,stimuli/out1.png,stimuli/correct_out1.png,stimuli/out2.png,,,,,,,,,,,,,,,,,,,,,,,,,,,,,,,,,,,,,,
,,6489a99c65564c916995612d,28,male,2024-04-19_18h37.50.809,stockport_simplified,2022.2.4,Win32,60.0240096,661e456ee6de07e70aa9ef7b,66229da40d5c58a5bc008edd,,,,,,,,,,,,,,,,,,,,,,,,,,,,,,,,,,421.929,423.894,"[7,1,6,5,8,4,2,3]","[[-0.3,0.2],[0.3,0.2]]","[[-0.125,-0.2],[0.125,-0.2]]",0.109722222,-0.176388889,1,0,0,1.465,o2_image,423.896,1,424.394,424.394,426.393,0,0,0,0,1,,,,,,,,,,,,,,,,,,,,,,,,,,,,,,,,,,,,,,,,,,,,,,,,,,
,,6489a99c65564c916995612d,28,male,2024-04-19_18h37.50.809,stockport_simplified,2022.2.4,Win32,60.0240096,661e456ee6de07e70aa9ef7b,66229da40d5c58a5bc008edd,,,,,,,,,,,,,,,,,,,,,,,,,,,,,,,,,,,,,,,,,,,,,,,,,,,,,,,,0,37,37,59,1,N,M,D,o2_image,stimuli/out2.png,stimuli/out1.png,stimuli/correct_out2.png,,,,,,,,,,,,,,,,,,,,,,,,,,,,,,,,,,,,,,
,,6489a99c65564c916995612d,28,male,2024-04-19_18h37.50.809,stockport_simplified,2022.2.4,Win32,60.0240096,661e456ee6de07e70aa9ef7b,66229da40d5c58a5bc008edd,,,,,,,,,,,,,,,,,,,,,,,,,,,,,,,,,,426.393,427.908,"[7,1,6,5,8,4,2,3]","[[-0.3,0.2],[0.3,0.2]]","[[-0.125,-0.2],[0.125,-0.2]]",-0.118055556,-0.219444444,1,0,0,0.998,o1_image,427.91,1,428.409,428.409,430.407,0,0,0,0,1,,,,,,,,,,,,,,,,,,,,,,,,,,,,,,,,,,,,,,,,,,,,,,,,,,
,,6489a99c65564c916995612d,28,male,2024-04-19_18h37.50.809,stockport_simplified,2022.2.4,Win32,60.0240096,661e456ee6de07e70aa9ef7b,66229da40d5c58a5bc008edd,,,,,,,,,,,,,,,,,,,,,,,,,,,,,,,,,,,,,,,,,,,,,,,,,,,,,,,,0,38,38,24,1,N,M,C,o1_image,stimuli/out1.png,stimuli/correct_out1.png,stimuli/out2.png,,,,,,,,,,,,,,,,,,,,,,,,,,,,,,,,,,,,,,
,,6489a99c65564c916995612d,28,male,2024-04-19_18h37.50.809,stockport_simplified,2022.2.4,Win32,60.0240096,661e456ee6de07e70aa9ef7b,66229da40d5c58a5bc008edd,,,,,,,,,,,,,,,,,,,,,,,,,,,,,,,,,,430.407,433.374,"[7,1,6,5,8,4,2,3]","[[0.3,0.2],[-0.3,0.2]]","[[-0.125,-0.2],[0.125,-0.2]]",-0.122222222,-0.213888889,1,0,0,2.464,o1_image,433.381,0,433.871,433.872,435.871,0,0,0,0,1,,,,,,,,,,,,,,,,,,,,,,,,,,,,,,,,,,,,,,,,,,,,,,,,,,
,,6489a99c65564c916995612d,28,male,2024-04-19_18h37.50.809,stockport_simplified,2022.2.4,Win32,60.0240096,661e456ee6de07e70aa9ef7b,66229da40d5c58a5bc008edd,,,,,,,,,,,,,,,,,,,,,,,,,,,,,,,,,,,,,,,,,,,,,,,,,,,,,,,,0,39,39,15,1,B,Y,N,o2_image,stimuli/out2.png,stimuli/out1.png,stimuli/correct_out2.png,,,,,,,,,,,,,,,,,,,,,,,,,,,,,,,,,,,,,,
,,6489a99c65564c916995612d,28,male,2024-04-19_18h37.50.809,stockport_simplified,2022.2.4,Win32,60.0240096,661e456ee6de07e70aa9ef7b,66229da40d5c58a5bc008edd,,,,,,,,,,,,,,,,,,,,,,,,,,,,,,,,,,435.871,438.12,"[7,1,6,5,8,4,2,3]","[[-0.3,0.2],[0.3,0.2]]","[[0.125,-0.2],[-0.125,-0.2]]",-0.129166667,-0.176388889,1,0,0,1.746,o2_image,438.122,1,438.62,438.62,440.618,0,0,0,0,1,,,,,,,,,,,,,,,,,,,,,,,,,,,,,,,,,,,,,,,,,,,,,,,,,,
,,6489a99c65564c916995612d,28,male,2024-04-19_18h37.50.809,stockport_simplified,2022.2.4,Win32,60.0240096,661e456ee6de07e70aa9ef7b,66229da40d5c58a5bc008edd,,,,,,,,,,,,,,,,,,,,,,,,,,,,,,,,,,,,,,,,,,,,,,,,,,,,,,,,0,40,40,57,1,N,M,D,o2_image,stimuli/out2.png,stimuli/out1.png,stimuli/correct_out2.png,,,,,,,,,,,,,,,,,,,,,,,,,,,,,,,,,,,,,,
,,6489a99c65564c916995612d,28,male,2024-04-19_18h37.50.809,stockport_simplified,2022.2.4,Win32,60.0240096,661e456ee6de07e70aa9ef7b,66229da40d5c58a5bc008edd,,,,,,,,,,,,,,,,,,,,,,,,,,,,,,,,,,440.619,444.8,"[7,1,6,5,8,4,2,3]","[[0.3,0.2],[-0.3,0.2]]","[[0.125,-0.2],[-0.125,-0.2]]",-0.097222222,-0.186111111,1,0,0,3.664,o2_image,444.802,0,445.299,445.299,447.298,0,0,0,0,1,,,,,,,,,,,,,,,,,,,,,,,,,,,,,,,,,,,,,,,,,,,,,,,,,,
,,6489a99c65564c916995612d,28,male,2024-04-19_18h37.50.809,stockport_simplified,2022.2.4,Win32,60.0240096,661e456ee6de07e70aa9ef7b,66229da40d5c58a5bc008edd,,,,,,,,,,,,,,,,,,,,,,,,,,,,,,,,,,,,,,,,,,,,,,,,,,,,,,,,0,41,41,2,1,A,X,N,o1_image,stimuli/out1.png,stimuli/correct_out1.png,stimuli/out2.png,,,,,,,,,,,,,,,,,,,,,,,,,,,,,,,,,,,,,,
,,6489a99c65564c916995612d,28,male,2024-04-19_18h37.50.809,stockport_simplified,2022.2.4,Win32,60.0240096,661e456ee6de07e70aa9ef7b,66229da40d5c58a5bc008edd,,,,,,,,,,,,,,,,,,,,,,,,,,,,,,,,,,447.299,449.164,"[7,1,6,5,8,4,2,3]","[[0.3,0.2],[-0.3,0.2]]","[[0.125,-0.2],[-0.125,-0.2]]",0.136111111,-0.170833333,1,0,0,1.349,o1_image,449.168,1,449.664,449.664,451.662,0,0,0,0,1,,,,,,,,,,,,,,,,,,,,,,,,,,,,,,,,,,,,,,,,,,,,,,,,,,
,,6489a99c65564c916995612d,28,male,2024-04-19_18h37.50.809,stockport_simplified,2022.2.4,Win32,60.0240096,661e456ee6de07e70aa9ef7b,66229da40d5c58a5bc008edd,,,,,,,,,,,,,,,,,,,,,,,,,,,,,,,,,,,,,,,,,,,,,,,,,,,,,,,,0,42,42,23,1,N,M,C,o1_image,stimuli/out1.png,stimuli/correct_out1.png,stimuli/out2.png,,,,,,,,,,,,,,,,,,,,,,,,,,,,,,,,,,,,,,
,,6489a99c65564c916995612d,28,male,2024-04-19_18h37.50.809,stockport_simplified,2022.2.4,Win32,60.0240096,661e456ee6de07e70aa9ef7b,66229da40d5c58a5bc008edd,,,,,,,,,,,,,,,,,,,,,,,,,,,,,,,,,,451.662,453.178,"[7,1,6,5,8,4,2,3]","[[0.3,0.2],[-0.3,0.2]]","[[-0.125,-0.2],[0.125,-0.2]]",-0.184722222,-0.156944444,1,0,0,1.016,o1_image,453.181,1,453.678,453.678,455.677,0,0,0,0,1,,,,,,,,,,,,,,,,,,,,,,,,,,,,,,,,,,,,,,,,,,,,,,,,,,
,,6489a99c65564c916995612d,28,male,2024-04-19_18h37.50.809,stockport_simplified,2022.2.4,Win32,60.0240096,661e456ee6de07e70aa9ef7b,66229da40d5c58a5bc008edd,,,,,,,,,,,,,,,,,,,,,,,,,,,,,,,,,,,,,,,,,,,,,,,,,,,,,,,,0,43,43,20,1,N,M,C,o1_image,stimuli/out1.png,stimuli/correct_out1.png,stimuli/out2.png,,,,,,,,,,,,,,,,,,,,,,,,,,,,,,,,,,,,,,
,,6489a99c65564c916995612d,28,male,2024-04-19_18h37.50.809,stockport_simplified,2022.2.4,Win32,60.0240096,661e456ee6de07e70aa9ef7b,66229da40d5c58a5bc008edd,,,,,,,,,,,,,,,,,,,,,,,,,,,,,,,,,,455.678,457.092,"[7,1,6,5,8,4,2,3]","[[-0.3,0.2],[0.3,0.2]]","[[-0.125,-0.2],[0.125,-0.2]]",-0.165277778,-0.148611111,1,0,0,0.899,o1_image,457.093,1,457.593,457.593,459.591,0,0,0,0,1,,,,,,,,,,,,,,,,,,,,,,,,,,,,,,,,,,,,,,,,,,,,,,,,,,
,,6489a99c65564c916995612d,28,male,2024-04-19_18h37.50.809,stockport_simplified,2022.2.4,Win32,60.0240096,661e456ee6de07e70aa9ef7b,66229da40d5c58a5bc008edd,,,,,,,,,,,,,,,,,,,,,,,,,,,,,,,,,,,,,,,,,,,,,,,,,,,,,,,,0,44,44,22,1,N,M,C,o1_image,stimuli/out1.png,stimuli/correct_out1.png,stimuli/out2.png,,,,,,,,,,,,,,,,,,,,,,,,,,,,,,,,,,,,,,
,,6489a99c65564c916995612d,28,male,2024-04-19_18h37.50.809,stockport_simplified,2022.2.4,Win32,60.0240096,661e456ee6de07e70aa9ef7b,66229da40d5c58a5bc008edd,,,,,,,,,,,,,,,,,,,,,,,,,,,,,,,,,,459.591,461.523,"[7,1,6,5,8,4,2,3]","[[0.3,0.2],[-0.3,0.2]]","[[0.125,-0.2],[-0.125,-0.2]]",-0.120833333,-0.170833333,1,0,0,1.415,o2_image,461.526,1,462.023,462.023,464.022,0,0,0,0,1,,,,,,,,,,,,,,,,,,,,,,,,,,,,,,,,,,,,,,,,,,,,,,,,,,
,,6489a99c65564c916995612d,28,male,2024-04-19_18h37.50.809,stockport_simplified,2022.2.4,Win32,60.0240096,661e456ee6de07e70aa9ef7b,66229da40d5c58a5bc008edd,,,,,,,,,,,,,,,,,,,,,,,,,,,,,,,,,,,,,,,,,,,,,,,,,,,,,,,,0,45,45,19,1,B,Y,N,o2_image,stimuli/out2.png,stimuli/out1.png,stimuli/correct_out2.png,,,,,,,,,,,,,,,,,,,,,,,,,,,,,,,,,,,,,,
,,6489a99c65564c916995612d,28,male,2024-04-19_18h37.50.809,stockport_simplified,2022.2.4,Win32,60.0240096,661e456ee6de07e70aa9ef7b,66229da40d5c58a5bc008edd,,,,,,,,,,,,,,,,,,,,,,,,,,,,,,,,,,464.023,467.023,"[7,1,6,5,8,4,2,3]","[[-0.3,0.2],[0.3,0.2]]","[[-0.125,-0.2],[0.125,-0.2]]",0.126388889,-0.215277778,1,0,0,2.482,o2_image,467.03,1,467.52,467.52,469.52,0,0,0,0,1,,,,,,,,,,,,,,,,,,,,,,,,,,,,,,,,,,,,,,,,,,,,,,,,,,
,,6489a99c65564c916995612d,28,male,2024-04-19_18h37.50.809,stockport_simplified,2022.2.4,Win32,60.0240096,661e456ee6de07e70aa9ef7b,66229da40d5c58a5bc008edd,,,,,,,,,,,,,,,,,,,,,,,,,,,,,,,,,,,,,,,,,,,,,,,,,,,,,,,,0,46,46,48,1,B,Y,N,o2_image,stimuli/out2.png,stimuli/out1.png,stimuli/correct_out2.png,,,,,,,,,,,,,,,,,,,,,,,,,,,,,,,,,,,,,,
,,6489a99c65564c916995612d,28,male,2024-04-19_18h37.50.809,stockport_simplified,2022.2.4,Win32,60.0240096,661e456ee6de07e70aa9ef7b,66229da40d5c58a5bc008edd,,,,,,,,,,,,,,,,,,,,,,,,,,,,,,,,,,469.52,471.368,"[7,1,6,5,8,4,2,3]","[[0.3,0.2],[-0.3,0.2]]","[[-0.125,-0.2],[0.125,-0.2]]",-0.123611111,-0.1625,1,0,0,1.329,o1_image,471.37,1,471.868,471.868,473.867,0,0,0,0,1,,,,,,,,,,,,,,,,,,,,,,,,,,,,,,,,,,,,,,,,,,,,,,,,,,
,,6489a99c65564c916995612d,28,male,2024-04-19_18h37.50.809,stockport_simplified,2022.2.4,Win32,60.0240096,661e456ee6de07e70aa9ef7b,66229da40d5c58a5bc008edd,,,,,,,,,,,,,,,,,,,,,,,,,,,,,,,,,,,,,,,,,,,,,,,,,,,,,,,,0,47,47,4,1,A,X,N,o1_image,stimuli/out1.png,stimuli/correct_out1.png,stimuli/out2.png,,,,,,,,,,,,,,,,,,,,,,,,,,,,,,,,,,,,,,
,,6489a99c65564c916995612d,28,male,2024-04-19_18h37.50.809,stockport_simplified,2022.2.4,Win32,60.0240096,661e456ee6de07e70aa9ef7b,66229da40d5c58a5bc008edd,,,,,,,,,,,,,,,,,,,,,,,,,,,,,,,,,,473.867,476.232,"[7,1,6,5,8,4,2,3]","[[-0.3,0.2],[0.3,0.2]]","[[-0.125,-0.2],[0.125,-0.2]]",0.069444444,-0.173611111,1,0,0,1.845,o2_image,476.234,1,476.732,476.732,478.73,0,0,0,0,1,,,,,,,,,,,,,,,,,,,,,,,,,,,,,,,,,,,,,,,,,,,,,,,,,,
,,6489a99c65564c916995612d,28,male,2024-04-19_18h37.50.809,stockport_simplified,2022.2.4,Win32,60.0240096,661e456ee6de07e70aa9ef7b,66229da40d5c58a5bc008edd,,,,,,,,,,,,,,,,,,,,,,,,,,,,,,,,,,,,,,,,,,,,,,,,,,,,,,,,0,48,48,26,1,N,M,D,o2_image,stimuli/out2.png,stimuli/out1.png,stimuli/correct_out2.png,,,,,,,,,,,,,,,,,,,,,,,,,,,,,,,,,,,,,,
,,6489a99c65564c916995612d,28,male,2024-04-19_18h37.50.809,stockport_simplified,2022.2.4,Win32,60.0240096,661e456ee6de07e70aa9ef7b,66229da40d5c58a5bc008edd,,,,,,,,,,,,,,,,,,,,,,,,,,,,,,,,,,478.731,480.163,"[7,1,6,5,8,4,2,3]","[[-0.3,0.2],[0.3,0.2]]","[[-0.125,-0.2],[0.125,-0.2]]",-0.130555556,-0.205555556,1,0,0,0.916,o1_image,480.164,1,480.663,480.663,482.662,0,0,0,0,1,,,,,,,,,,,,,,,,,,,,,,,,,,,,,,,,,,,,,,,,,,,,,,,,,,
,,6489a99c65564c916995612d,28,male,2024-04-19_18h37.50.809,stockport_simplified,2022.2.4,Win32,60.0240096,661e456ee6de07e70aa9ef7b,66229da40d5c58a5bc008edd,,,,,,,,,,,,,,,,,,,,,,,,,,,,,,,,,,,,,,,,,,,,,,,,,,,,,,,,0,49,49,52,1,N,M,C,o1_image,stimuli/out1.png,stimuli/correct_out1.png,stimuli/out2.png,,,,,,,,,,,,,,,,,,,,,,,,,,,,,,,,,,,,,,
,,6489a99c65564c916995612d,28,male,2024-04-19_18h37.50.809,stockport_simplified,2022.2.4,Win32,60.0240096,661e456ee6de07e70aa9ef7b,66229da40d5c58a5bc008edd,,,,,,,,,,,,,,,,,,,,,,,,,,,,,,,,,,482.662,485.194,"[7,1,6,5,8,4,2,3]","[[-0.3,0.2],[0.3,0.2]]","[[0.125,-0.2],[-0.125,-0.2]]",0.169444444,-0.183333333,1,0,0,2.015,o1_image,485.195,1,485.694,485.694,487.693,0,0,0,0,1,,,,,,,,,,,,,,,,,,,,,,,,,,,,,,,,,,,,,,,,,,,,,,,,,,
,,6489a99c65564c916995612d,28,male,2024-04-19_18h37.50.809,stockport_simplified,2022.2.4,Win32,60.0240096,661e456ee6de07e70aa9ef7b,66229da40d5c58a5bc008edd,,,,,,,,,,,,,,,,,,,,,,,,,,,,,,,,,,,,,,,,,,,,,,,,,,,,,,,,0,50,50,3,1,A,X,N,o1_image,stimuli/out1.png,stimuli/correct_out1.png,stimuli/out2.png,,,,,,,,,,,,,,,,,,,,,,,,,,,,,,,,,,,,,,
,,6489a99c65564c916995612d,28,male,2024-04-19_18h37.50.809,stockport_simplified,2022.2.4,Win32,60.0240096,661e456ee6de07e70aa9ef7b,66229da40d5c58a5bc008edd,,,,,,,,,,,,,,,,,,,,,,,,,,,,,,,,,,487.693,489.858,"[7,1,6,5,8,4,2,3]","[[-0.3,0.2],[0.3,0.2]]","[[-0.125,-0.2],[0.125,-0.2]]",0.090277778,-0.176388889,1,0,0,1.648,o2_image,489.86,1,490.358,490.358,492.357,0,0,0,0,1,,,,,,,,,,,,,,,,,,,,,,,,,,,,,,,,,,,,,,,,,,,,,,,,,,
,,6489a99c65564c916995612d,28,male,2024-04-19_18h37.50.809,stockport_simplified,2022.2.4,Win32,60.0240096,661e456ee6de07e70aa9ef7b,66229da40d5c58a5bc008edd,,,,,,,,,,,,,,,,,,,,,,,,,,,,,,,,,,,,,,,,,,,,,,,,,,,,,,,,0,51,51,58,1,N,M,D,o2_image,stimuli/out2.png,stimuli/out1.png,stimuli/correct_out2.png,,,,,,,,,,,,,,,,,,,,,,,,,,,,,,,,,,,,,,
,,6489a99c65564c916995612d,28,male,2024-04-19_18h37.50.809,stockport_simplified,2022.2.4,Win32,60.0240096,661e456ee6de07e70aa9ef7b,66229da40d5c58a5bc008edd,,,,,,,,,,,,,,,,,,,,,,,,,,,,,,,,,,492.357,494.871,"[7,1,6,5,8,4,2,3]","[[0.3,0.2],[-0.3,0.2]]","[[0.125,-0.2],[-0.125,-0.2]]",-0.156944444,-0.165277778,1,0,0,1.997,o2_image,494.875,1,495.372,495.372,497.371,0,0,0,0,1,,,,,,,,,,,,,,,,,,,,,,,,,,,,,,,,,,,,,,,,,,,,,,,,,,
,,6489a99c65564c916995612d,28,male,2024-04-19_18h37.50.809,stockport_simplified,2022.2.4,Win32,60.0240096,661e456ee6de07e70aa9ef7b,66229da40d5c58a5bc008edd,,,,,,,,,,,,,,,,,,,,,,,,,,,,,,,,,,,,,,,,,,,,,,,,,,,,,,,,0,52,52,43,1,B,X,N,o2_image,stimuli/out2.png,stimuli/out1.png,stimuli/correct_out2.png,,,,,,,,,,,,,,,,,,,,,,,,,,,,,,,,,,,,,,
,,6489a99c65564c916995612d,28,male,2024-04-19_18h37.50.809,stockport_simplified,2022.2.4,Win32,60.0240096,661e456ee6de07e70aa9ef7b,66229da40d5c58a5bc008edd,,,,,,,,,,,,,,,,,,,,,,,,,,,,,,,,,,497.371,499.303,"[7,1,6,5,8,4,2,3]","[[-0.3,0.2],[0.3,0.2]]","[[0.125,-0.2],[-0.125,-0.2]]",-0.080555556,-0.169444444,1,0,0,1.416,o2_image,499.305,1,499.802,499.802,501.802,0,0,0,0,1,,,,,,,,,,,,,,,,,,,,,,,,,,,,,,,,,,,,,,,,,,,,,,,,,,
,,6489a99c65564c916995612d,28,male,2024-04-19_18h37.50.809,stockport_simplified,2022.2.4,Win32,60.0240096,661e456ee6de07e70aa9ef7b,66229da40d5c58a5bc008edd,,,,,,,,,,,,,,,,,,,,,,,,,,,,,,,,,,,,,,,,,,,,,,,,,,,,,,,,0,53,53,42,1,B,X,N,o2_image,stimuli/out2.png,stimuli/out1.png,stimuli/correct_out2.png,,,,,,,,,,,,,,,,,,,,,,,,,,,,,,,,,,,,,,
,,6489a99c65564c916995612d,28,male,2024-04-19_18h37.50.809,stockport_simplified,2022.2.4,Win32,60.0240096,661e456ee6de07e70aa9ef7b,66229da40d5c58a5bc008edd,,,,,,,,,,,,,,,,,,,,,,,,,,,,,,,,,,501.806,503.501,"[7,1,6,5,8,4,2,3]","[[0.3,0.2],[-0.3,0.2]]","[[0.125,-0.2],[-0.125,-0.2]]",-0.141666667,-0.152777778,1,0,0,1.18,o2_image,503.504,1,504.001,504.001,506,0,0,0,0,1,,,,,,,,,,,,,,,,,,,,,,,,,,,,,,,,,,,,,,,,,,,,,,,,,,
,,6489a99c65564c916995612d,28,male,2024-04-19_18h37.50.809,stockport_simplified,2022.2.4,Win32,60.0240096,661e456ee6de07e70aa9ef7b,66229da40d5c58a5bc008edd,,,,,,,,,,,,,,,,,,,,,,,,,,,,,,,,,,,,,,,,,,,,,,,,,,,,,,,,0,54,54,49,1,B,Y,N,o2_image,stimuli/out2.png,stimuli/out1.png,stimuli/correct_out2.png,,,,,,,,,,,,,,,,,,,,,,,,,,,,,,,,,,,,,,
,,6489a99c65564c916995612d,28,male,2024-04-19_18h37.50.809,stockport_simplified,2022.2.4,Win32,60.0240096,661e456ee6de07e70aa9ef7b,66229da40d5c58a5bc008edd,,,,,,,,,,,,,,,,,,,,,,,,,,,,,,,,,,506.001,507.481,"[7,1,6,5,8,4,2,3]","[[0.3,0.2],[-0.3,0.2]]","[[0.125,-0.2],[-0.125,-0.2]]",-0.130555556,-0.156944444,1,0,0,0.965,o2_image,507.484,1,507.982,507.982,509.98,0,0,0,0,1,,,,,,,,,,,,,,,,,,,,,,,,,,,,,,,,,,,,,,,,,,,,,,,,,,
,,6489a99c65564c916995612d,28,male,2024-04-19_18h37.50.809,stockport_simplified,2022.2.4,Win32,60.0240096,661e456ee6de07e70aa9ef7b,66229da40d5c58a5bc008edd,,,,,,,,,,,,,,,,,,,,,,,,,,,,,,,,,,,,,,,,,,,,,,,,,,,,,,,,0,55,55,16,1,B,Y,N,o2_image,stimuli/out2.png,stimuli/out1.png,stimuli/correct_out2.png,,,,,,,,,,,,,,,,,,,,,,,,,,,,,,,,,,,,,,
,,6489a99c65564c916995612d,28,male,2024-04-19_18h37.50.809,stockport_simplified,2022.2.4,Win32,60.0240096,661e456ee6de07e70aa9ef7b,66229da40d5c58a5bc008edd,,,,,,,,,,,,,,,,,,,,,,,,,,,,,,,,,,509.98,512.013,"[7,1,6,5,8,4,2,3]","[[0.3,0.2],[-0.3,0.2]]","[[0.125,-0.2],[-0.125,-0.2]]",0.122222222,-0.183333333,1,0,0,1.531,o1_image,512.015,1,512.512,512.512,514.511,0,0,0,0,1,,,,,,,,,,,,,,,,,,,,,,,,,,,,,,,,,,,,,,,,,,,,,,,,,,
,,6489a99c65564c916995612d,28,male,2024-04-19_18h37.50.809,stockport_simplified,2022.2.4,Win32,60.0240096,661e456ee6de07e70aa9ef7b,66229da40d5c58a5bc008edd,,,,,,,,,,,,,,,,,,,,,,,,,,,,,,,,,,,,,,,,,,,,,,,,,,,,,,,,0,56,56,39,1,A,Y,N,o1_image,stimuli/out1.png,stimuli/correct_out1.png,stimuli/out2.png,,,,,,,,,,,,,,,,,,,,,,,,,,,,,,,,,,,,,,
,,6489a99c65564c916995612d,28,male,2024-04-19_18h37.50.809,stockport_simplified,2022.2.4,Win32,60.0240096,661e456ee6de07e70aa9ef7b,66229da40d5c58a5bc008edd,,,,,,,,,,,,,,,,,,,,,,,,,,,,,,,,,,514.512,516.027,"[7,1,6,5,8,4,2,3]","[[-0.3,0.2],[0.3,0.2]]","[[0.125,-0.2],[-0.125,-0.2]]",-0.063888889,-0.145833333,1,0,0,0.999,o2_image,516.03,1,516.526,516.526,518.525,0,0,0,0,1,,,,,,,,,,,,,,,,,,,,,,,,,,,,,,,,,,,,,,,,,,,,,,,,,,
,,6489a99c65564c916995612d,28,male,2024-04-19_18h37.50.809,stockport_simplified,2022.2.4,Win32,60.0240096,661e456ee6de07e70aa9ef7b,66229da40d5c58a5bc008edd,,,,,,,,,,,,,,,,,,,,,,,,,,,,,,,,,,,,,,,,,,,,,,,,,,,,,,,,0,57,57,46,1,B,Y,N,o2_image,stimuli/out2.png,stimuli/out1.png,stimuli/correct_out2.png,,,,,,,,,,,,,,,,,,,,,,,,,,,,,,,,,,,,,,
,,6489a99c65564c916995612d,28,male,2024-04-19_18h37.50.809,stockport_simplified,2022.2.4,Win32,60.0240096,661e456ee6de07e70aa9ef7b,66229da40d5c58a5bc008edd,,,,,,,,,,,,,,,,,,,,,,,,,,,,,,,,,,518.529,520.374,"[7,1,6,5,8,4,2,3]","[[-0.3,0.2],[0.3,0.2]]","[[0.125,-0.2],[-0.125,-0.2]]",0.1125,-0.154166667,1,0,0,1.331,o1_image,520.377,1,520.874,520.875,522.873,0,0,0,0,1,,,,,,,,,,,,,,,,,,,,,,,,,,,,,,,,,,,,,,,,,,,,,,,,,,
,,6489a99c65564c916995612d,28,male,2024-04-19_18h37.50.809,stockport_simplified,2022.2.4,Win32,60.0240096,661e456ee6de07e70aa9ef7b,66229da40d5c58a5bc008edd,,,,,,,,,,,,,,,,,,,,,,,,,,,,,,,,,,,,,,,,,,,,,,,,,,,,,,,,0,58,58,34,1,A,X,N,o1_image,stimuli/out1.png,stimuli/correct_out1.png,stimuli/out2.png,,,,,,,,,,,,,,,,,,,,,,,,,,,,,,,,,,,,,,
,,6489a99c65564c916995612d,28,male,2024-04-19_18h37.50.809,stockport_simplified,2022.2.4,Win32,60.0240096,661e456ee6de07e70aa9ef7b,66229da40d5c58a5bc008edd,,,,,,,,,,,,,,,,,,,,,,,,,,,,,,,,,,522.874,524.273,"[7,1,6,5,8,4,2,3]","[[-0.3,0.2],[0.3,0.2]]","[[0.125,-0.2],[-0.125,-0.2]]",-0.134722222,-0.179166667,1,0,0,0.883,o2_image,524.275,1,524.773,524.773,526.771,0,0,0,0,1,,,,,,,,,,,,,,,,,,,,,,,,,,,,,,,,,,,,,,,,,,,,,,,,,,
,,6489a99c65564c916995612d,28,male,2024-04-19_18h37.50.809,stockport_simplified,2022.2.4,Win32,60.0240096,661e456ee6de07e70aa9ef7b,66229da40d5c58a5bc008edd,,,,,,,,,,,,,,,,,,,,,,,,,,,,,,,,,,,,,,,,,,,,,,,,,,,,,,,,0,59,59,28,1,N,M,D,o2_image,stimuli/out2.png,stimuli/out1.png,stimuli/correct_out2.png,,,,,,,,,,,,,,,,,,,,,,,,,,,,,,,,,,,,,,
,,6489a99c65564c916995612d,28,male,2024-04-19_18h37.50.809,stockport_simplified,2022.2.4,Win32,60.0240096,661e456ee6de07e70aa9ef7b,66229da40d5c58a5bc008edd,,,,,,,,,,,,,,,,,,,,,,,,,,,,,,,,,,526.772,528.17,"[7,1,6,5,8,4,2,3]","[[0.3,0.2],[-0.3,0.2]]","[[0.125,-0.2],[-0.125,-0.2]]",-0.123611111,-0.173611111,1,0,0,0.881,o2_image,528.171,1,528.669,528.669,530.67,0,0,0,0,1,,,,,,,,,,,,,,,,,,,,,,,,,,,,,,,,,,,,,,,,,,,,,,,,,,
,,6489a99c65564c916995612d,28,male,2024-04-19_18h37.50.809,stockport_simplified,2022.2.4,Win32,60.0240096,661e456ee6de07e70aa9ef7b,66229da40d5c58a5bc008edd,,,,,,,,,,,,,,,,,,,,,,,,,,,,,,,,,,,,,,,,,,,,,,,,,,,,,,,,1,0,60,17,1,B,Y,N,o2_image,stimuli/out2.png,stimuli/out1.png,stimuli/correct_out2.png,,,,,,,,,,,,,,,,,,,,,,,,,,,,,,,,,,,,,,
,,6489a99c65564c916995612d,28,male,2024-04-19_18h37.50.809,stockport_simplified,2022.2.4,Win32,60.0240096,661e456ee6de07e70aa9ef7b,66229da40d5c58a5bc008edd,,,,,,,,,,,,,,,,,,,,,,,,,,,,,,,,,,530.67,532.751,"[7,1,6,5,8,4,2,3]","[[0.3,0.2],[-0.3,0.2]]","[[-0.125,-0.2],[0.125,-0.2]]",0.209722222,-0.191666667,1,0,0,1.148,o2_image,532.752,1,533.251,533.251,535.25,0,0,0,0,1,,,,,,,,,,,,,,,,,,,,,,,,,,,,,,,,,,,,,,,,,,,,,,,,,,
,,6489a99c65564c916995612d,28,male,2024-04-19_18h37.50.809,stockport_simplified,2022.2.4,Win32,60.0240096,661e456ee6de07e70aa9ef7b,66229da40d5c58a5bc008edd,,,,,,,,,,,,,,,,,,,,,,,,,,,,,,,,,,,,,,,,,,,,,,,,,,,,,,,,1,1,61,56,1,N,M,D,o2_image,stimuli/out2.png,stimuli/out1.png,stimuli/correct_out2.png,,,,,,,,,,,,,,,,,,,,,,,,,,,,,,,,,,,,,,
,,6489a99c65564c916995612d,28,male,2024-04-19_18h37.50.809,stockport_simplified,2022.2.4,Win32,60.0240096,661e456ee6de07e70aa9ef7b,66229da40d5c58a5bc008edd,,,,,,,,,,,,,,,,,,,,,,,,,,,,,,,,,,535.255,537.216,"[7,1,6,5,8,4,2,3]","[[0.3,0.2],[-0.3,0.2]]","[[0.125,-0.2],[-0.125,-0.2]]",-0.063888889,-0.195833333,1,0,0,1.445,o2_image,537.22,1,537.715,537.715,539.714,0,0,0,0,1,,,,,,,,,,,,,,,,,,,,,,,,,,,,,,,,,,,,,,,,,,,,,,,,,,
,,6489a99c65564c916995612d,28,male,2024-04-19_18h37.50.809,stockport_simplified,2022.2.4,Win32,60.0240096,661e456ee6de07e70aa9ef7b,66229da40d5c58a5bc008edd,,,,,,,,,,,,,,,,,,,,,,,,,,,,,,,,,,,,,,,,,,,,,,,,,,,,,,,,1,2,62,40,1,B,X,N,o2_image,stimuli/out2.png,stimuli/out1.png,stimuli/correct_out2.png,,,,,,,,,,,,,,,,,,,,,,,,,,,,,,,,,,,,,,
,,6489a99c65564c916995612d,28,male,2024-04-19_18h37.50.809,stockport_simplified,2022.2.4,Win32,60.0240096,661e456ee6de07e70aa9ef7b,66229da40d5c58a5bc008edd,,,,,,,,,,,,,,,,,,,,,,,,,,,,,,,,,,539.714,541.413,"[7,1,6,5,8,4,2,3]","[[-0.3,0.2],[0.3,0.2]]","[[0.125,-0.2],[-0.125,-0.2]]",-0.1375,-0.159722222,1,0,0,1.182,o2_image,541.416,1,541.913,541.913,543.911,0,0,0,0,1,,,,,,,,,,,,,,,,,,,,,,,,,,,,,,,,,,,,,,,,,,,,,,,,,,
,,6489a99c65564c916995612d,28,male,2024-04-19_18h37.50.809,stockport_simplified,2022.2.4,Win32,60.0240096,661e456ee6de07e70aa9ef7b,66229da40d5c58a5bc008edd,,,,,,,,,,,,,,,,,,,,,,,,,,,,,,,,,,,,,,,,,,,,,,,,,,,,,,,,1,3,63,45,1,B,Y,N,o2_image,stimuli/out2.png,stimuli/out1.png,stimuli/correct_out2.png,,,,,,,,,,,,,,,,,,,,,,,,,,,,,,,,,,,,,,
,,6489a99c65564c916995612d,28,male,2024-04-19_18h37.50.809,stockport_simplified,2022.2.4,Win32,60.0240096,661e456ee6de07e70aa9ef7b,66229da40d5c58a5bc008edd,,,,,,,,,,,,,,,,,,,,,,,,,,,,,,,,,,543.912,545.494,"[7,1,6,5,8,4,2,3]","[[0.3,0.2],[-0.3,0.2]]","[[0.125,-0.2],[-0.125,-0.2]]",0.070833333,-0.198611111,1,0,0,1.081,o1_image,545.497,1,545.994,545.994,547.993,0,0,0,0,1,,,,,,,,,,,,,,,,,,,,,,,,,,,,,,,,,,,,,,,,,,,,,,,,,,
,,6489a99c65564c916995612d,28,male,2024-04-19_18h37.50.809,stockport_simplified,2022.2.4,Win32,60.0240096,661e456ee6de07e70aa9ef7b,66229da40d5c58a5bc008edd,,,,,,,,,,,,,,,,,,,,,,,,,,,,,,,,,,,,,,,,,,,,,,,,,,,,,,,,1,4,64,54,1,N,M,C,o1_image,stimuli/out1.png,stimuli/correct_out1.png,stimuli/out2.png,,,,,,,,,,,,,,,,,,,,,,,,,,,,,,,,,,,,,,
,,6489a99c65564c916995612d,28,male,2024-04-19_18h37.50.809,stockport_simplified,2022.2.4,Win32,60.0240096,661e456ee6de07e70aa9ef7b,66229da40d5c58a5bc008edd,,,,,,,,,,,,,,,,,,,,,,,,,,,,,,,,,,547.994,549.875,"[7,1,6,5,8,4,2,3]","[[-0.3,0.2],[0.3,0.2]]","[[0.125,-0.2],[-0.125,-0.2]]",-0.176388889,-0.173611111,1,0,0,1.381,o2_image,549.877,1,550.374,550.374,552.373,0,0,0,0,1,,,,,,,,,,,,,,,,,,,,,,,,,,,,,,,,,,,,,,,,,,,,,,,,,,
,,6489a99c65564c916995612d,28,male,2024-04-19_18h37.50.809,stockport_simplified,2022.2.4,Win32,60.0240096,661e456ee6de07e70aa9ef7b,66229da40d5c58a5bc008edd,,,,,,,,,,,,,,,,,,,,,,,,,,,,,,,,,,,,,,,,,,,,,,,,,,,,,,,,1,5,65,13,1,B,X,N,o2_image,stimuli/out2.png,stimuli/out1.png,stimuli/correct_out2.png,,,,,,,,,,,,,,,,,,,,,,,,,,,,,,,,,,,,,,
,,6489a99c65564c916995612d,28,male,2024-04-19_18h37.50.809,stockport_simplified,2022.2.4,Win32,60.0240096,661e456ee6de07e70aa9ef7b,66229da40d5c58a5bc008edd,,,,,,,,,,,,,,,,,,,,,,,,,,,,,,,,,,552.375,554.306,"[7,1,6,5,8,4,2,3]","[[-0.3,0.2],[0.3,0.2]]","[[0.125,-0.2],[-0.125,-0.2]]",-0.140277778,-0.161111111,1,0,0,1.415,o2_image,554.307,0,554.805,554.806,556.805,0,0,0,0,1,,,,,,,,,,,,,,,,,,,,,,,,,,,,,,,,,,,,,,,,,,,,,,,,,,
,,6489a99c65564c916995612d,28,male,2024-04-19_18h37.50.809,stockport_simplified,2022.2.4,Win32,60.0240096,661e456ee6de07e70aa9ef7b,66229da40d5c58a5bc008edd,,,,,,,,,,,,,,,,,,,,,,,,,,,,,,,,,,,,,,,,,,,,,,,,,,,,,,,,1,6,66,39,1,A,Y,N,o1_image,stimuli/out1.png,stimuli/correct_out1.png,stimuli/out2.png,,,,,,,,,,,,,,,,,,,,,,,,,,,,,,,,,,,,,,
,,6489a99c65564c916995612d,28,male,2024-04-19_18h37.50.809,stockport_simplified,2022.2.4,Win32,60.0240096,661e456ee6de07e70aa9ef7b,66229da40d5c58a5bc008edd,,,,,,,,,,,,,,,,,,,,,,,,,,,,,,,,,,556.805,558.437,"[7,1,6,5,8,4,2,3]","[[-0.3,0.2],[0.3,0.2]]","[[0.125,-0.2],[-0.125,-0.2]]",0.123611111,-0.2,1,0,0,1.132,o1_image,558.439,1,558.937,558.937,560.936,0,0,0,0,1,,,,,,,,,,,,,,,,,,,,,,,,,,,,,,,,,,,,,,,,,,,,,,,,,,
,,6489a99c65564c916995612d,28,male,2024-04-19_18h37.50.809,stockport_simplified,2022.2.4,Win32,60.0240096,661e456ee6de07e70aa9ef7b,66229da40d5c58a5bc008edd,,,,,,,,,,,,,,,,,,,,,,,,,,,,,,,,,,,,,,,,,,,,,,,,,,,,,,,,1,7,67,38,1,A,Y,N,o1_image,stimuli/out1.png,stimuli/correct_out1.png,stimuli/out2.png,,,,,,,,,,,,,,,,,,,,,,,,,,,,,,,,,,,,,,
,,6489a99c65564c916995612d,28,male,2024-04-19_18h37.50.809,stockport_simplified,2022.2.4,Win32,60.0240096,661e456ee6de07e70aa9ef7b,66229da40d5c58a5bc008edd,,,,,,,,,,,,,,,,,,,,,,,,,,,,,,,,,,560.936,562.568,"[7,1,6,5,8,4,2,3]","[[-0.3,0.2],[0.3,0.2]]","[[0.125,-0.2],[-0.125,-0.2]]",-0.070833333,-0.254166667,1,0,0,1.115,o2_image,562.571,1,563.067,563.068,565.067,0,0,0,0,1,,,,,,,,,,,,,,,,,,,,,,,,,,,,,,,,,,,,,,,,,,,,,,,,,,
,,6489a99c65564c916995612d,28,male,2024-04-19_18h37.50.809,stockport_simplified,2022.2.4,Win32,60.0240096,661e456ee6de07e70aa9ef7b,66229da40d5c58a5bc008edd,,,,,,,,,,,,,,,,,,,,,,,,,,,,,,,,,,,,,,,,,,,,,,,,,,,,,,,,1,8,68,55,1,N,M,D,o2_image,stimuli/out2.png,stimuli/out1.png,stimuli/correct_out2.png,,,,,,,,,,,,,,,,,,,,,,,,,,,,,,,,,,,,,,
,,6489a99c65564c916995612d,28,male,2024-04-19_18h37.50.809,stockport_simplified,2022.2.4,Win32,60.0240096,661e456ee6de07e70aa9ef7b,66229da40d5c58a5bc008edd,,,,,,,,,,,,,,,,,,,,,,,,,,,,,,,,,,565.068,566.9,"[7,1,6,5,8,4,2,3]","[[0.3,0.2],[-0.3,0.2]]","[[0.125,-0.2],[-0.125,-0.2]]",0.109722222,-0.183333333,1,0,0,1.313,o1_image,566.908,1,567.399,567.399,569.398,0,0,0,0,1,,,,,,,,,,,,,,,,,,,,,,,,,,,,,,,,,,,,,,,,,,,,,,,,,,
,,6489a99c65564c916995612d,28,male,2024-04-19_18h37.50.809,stockport_simplified,2022.2.4,Win32,60.0240096,661e456ee6de07e70aa9ef7b,66229da40d5c58a5bc008edd,,,,,,,,,,,,,,,,,,,,,,,,,,,,,,,,,,,,,,,,,,,,,,,,,,,,,,,,1,9,69,21,1,N,M,C,o1_image,stimuli/out1.png,stimuli/correct_out1.png,stimuli/out2.png,,,,,,,,,,,,,,,,,,,,,,,,,,,,,,,,,,,,,,
,,6489a99c65564c916995612d,28,male,2024-04-19_18h37.50.809,stockport_simplified,2022.2.4,Win32,60.0240096,661e456ee6de07e70aa9ef7b,66229da40d5c58a5bc008edd,,,,,,,,,,,,,,,,,,,,,,,,,,,,,,,,,,569.4,571.33,"[7,1,6,5,8,4,2,3]","[[0.3,0.2],[-0.3,0.2]]","[[0.125,-0.2],[-0.125,-0.2]]",0.109722222,-0.179166667,1,0,0,1.413,o1_image,571.332,0,571.83,571.83,573.829,0,0,0,0,1,,,,,,,,,,,,,,,,,,,,,,,,,,,,,,,,,,,,,,,,,,,,,,,,,,
,,6489a99c65564c916995612d,28,male,2024-04-19_18h37.50.809,stockport_simplified,2022.2.4,Win32,60.0240096,661e456ee6de07e70aa9ef7b,66229da40d5c58a5bc008edd,,,,,,,,,,,,,,,,,,,,,,,,,,,,,,,,,,,,,,,,,,,,,,,,,,,,,,,,1,10,70,19,1,B,Y,N,o2_image,stimuli/out2.png,stimuli/out1.png,stimuli/correct_out2.png,,,,,,,,,,,,,,,,,,,,,,,,,,,,,,,,,,,,,,
,,6489a99c65564c916995612d,28,male,2024-04-19_18h37.50.809,stockport_simplified,2022.2.4,Win32,60.0240096,661e456ee6de07e70aa9ef7b,66229da40d5c58a5bc008edd,,,,,,,,,,,,,,,,,,,,,,,,,,,,,,,,,,573.829,575.911,"[7,1,6,5,8,4,2,3]","[[0.3,0.2],[-0.3,0.2]]","[[-0.125,-0.2],[0.125,-0.2]]",0.101388889,-0.208333333,1,0,0,1.566,o2_image,575.914,1,576.41,576.411,578.41,0,0,0,0,1,,,,,,,,,,,,,,,,,,,,,,,,,,,,,,,,,,,,,,,,,,,,,,,,,,
,,6489a99c65564c916995612d,28,male,2024-04-19_18h37.50.809,stockport_simplified,2022.2.4,Win32,60.0240096,661e456ee6de07e70aa9ef7b,66229da40d5c58a5bc008edd,,,,,,,,,,,,,,,,,,,,,,,,,,,,,,,,,,,,,,,,,,,,,,,,,,,,,,,,1,11,71,47,1,B,Y,N,o2_image,stimuli/out2.png,stimuli/out1.png,stimuli/correct_out2.png,,,,,,,,,,,,,,,,,,,,,,,,,,,,,,,,,,,,,,
,,6489a99c65564c916995612d,28,male,2024-04-19_18h37.50.809,stockport_simplified,2022.2.4,Win32,60.0240096,661e456ee6de07e70aa9ef7b,66229da40d5c58a5bc008edd,,,,,,,,,,,,,,,,,,,,,,,,,,,,,,,,,,578.411,580.275,"[7,1,6,5,8,4,2,3]","[[-0.3,0.2],[0.3,0.2]]","[[0.125,-0.2],[-0.125,-0.2]]",0.148611111,-0.166666667,1,0,0,1.349,o1_image,580.278,1,580.775,580.775,582.773,0,0,0,0,1,,,,,,,,,,,,,,,,,,,,,,,,,,,,,,,,,,,,,,,,,,,,,,,,,,
,,6489a99c65564c916995612d,28,male,2024-04-19_18h37.50.809,stockport_simplified,2022.2.4,Win32,60.0240096,661e456ee6de07e70aa9ef7b,66229da40d5c58a5bc008edd,,,,,,,,,,,,,,,,,,,,,,,,,,,,,,,,,,,,,,,,,,,,,,,,,,,,,,,,1,12,72,52,1,N,M,C,o1_image,stimuli/out1.png,stimuli/correct_out1.png,stimuli/out2.png,,,,,,,,,,,,,,,,,,,,,,,,,,,,,,,,,,,,,,
,,6489a99c65564c916995612d,28,male,2024-04-19_18h37.50.809,stockport_simplified,2022.2.4,Win32,60.0240096,661e456ee6de07e70aa9ef7b,66229da40d5c58a5bc008edd,,,,,,,,,,,,,,,,,,,,,,,,,,,,,,,,,,582.774,584.422,"[7,1,6,5,8,4,2,3]","[[-0.3,0.2],[0.3,0.2]]","[[0.125,-0.2],[-0.125,-0.2]]",-0.136111111,-0.165277778,1,0,0,1.148,o2_image,584.425,1,584.922,584.922,586.922,0,0,0,0,1,,,,,,,,,,,,,,,,,,,,,,,,,,,,,,,,,,,,,,,,,,,,,,,,,,
,,6489a99c65564c916995612d,28,male,2024-04-19_18h37.50.809,stockport_simplified,2022.2.4,Win32,60.0240096,661e456ee6de07e70aa9ef7b,66229da40d5c58a5bc008edd,,,,,,,,,,,,,,,,,,,,,,,,,,,,,,,,,,,,,,,,,,,,,,,,,,,,,,,,1,13,73,44,1,B,X,N,o2_image,stimuli/out2.png,stimuli/out1.png,stimuli/correct_out2.png,,,,,,,,,,,,,,,,,,,,,,,,,,,,,,,,,,,,,,
,,6489a99c65564c916995612d,28,male,2024-04-19_18h37.50.809,stockport_simplified,2022.2.4,Win32,60.0240096,661e456ee6de07e70aa9ef7b,66229da40d5c58a5bc008edd,,,,,,,,,,,,,,,,,,,,,,,,,,,,,,,,,,586.922,589.47,"[7,1,6,5,8,4,2,3]","[[0.3,0.2],[-0.3,0.2]]","[[-0.125,-0.2],[0.125,-0.2]]",0.151388889,-0.163888889,1,0,0,2.033,o2_image,589.473,1,589.97,589.97,591.969,0,0,0,0,1,,,,,,,,,,,,,,,,,,,,,,,,,,,,,,,,,,,,,,,,,,,,,,,,,,
,,6489a99c65564c916995612d,28,male,2024-04-19_18h37.50.809,stockport_simplified,2022.2.4,Win32,60.0240096,661e456ee6de07e70aa9ef7b,66229da40d5c58a5bc008edd,,,,,,,,,,,,,,,,,,,,,,,,,,,,,,,,,,,,,,,,,,,,,,,,,,,,,,,,1,14,74,12,1,B,X,N,o2_image,stimuli/out2.png,stimuli/out1.png,stimuli/correct_out2.png,,,,,,,,,,,,,,,,,,,,,,,,,,,,,,,,,,,,,,
,,6489a99c65564c916995612d,28,male,2024-04-19_18h37.50.809,stockport_simplified,2022.2.4,Win32,60.0240096,661e456ee6de07e70aa9ef7b,66229da40d5c58a5bc008edd,,,,,,,,,,,,,,,,,,,,,,,,,,,,,,,,,,591.969,595.266,"[7,1,6,5,8,4,2,3]","[[-0.3,0.2],[0.3,0.2]]","[[-0.125,-0.2],[0.125,-0.2]]",0.086111111,-0.179166667,1,0,0,2.797,o2_image,595.269,0,595.766,595.766,597.766,0,0,0,0,1,,,,,,,,,,,,,,,,,,,,,,,,,,,,,,,,,,,,,,,,,,,,,,,,,,
,,6489a99c65564c916995612d,28,male,2024-04-19_18h37.50.809,stockport_simplified,2022.2.4,Win32,60.0240096,661e456ee6de07e70aa9ef7b,66229da40d5c58a5bc008edd,,,,,,,,,,,,,,,,,,,,,,,,,,,,,,,,,,,,,,,,,,,,,,,,,,,,,,,,1,15,75,37,1,A,Y,N,o1_image,stimuli/out1.png,stimuli/correct_out1.png,stimuli/out2.png,,,,,,,,,,,,,,,,,,,,,,,,,,,,,,,,,,,,,,
,,6489a99c65564c916995612d,28,male,2024-04-19_18h37.50.809,stockport_simplified,2022.2.4,Win32,60.0240096,661e456ee6de07e70aa9ef7b,66229da40d5c58a5bc008edd,,,,,,,,,,,,,,,,,,,,,,,,,,,,,,,,,,597.766,600.465,"[7,1,6,5,8,4,2,3]","[[0.3,0.2],[-0.3,0.2]]","[[-0.125,-0.2],[0.125,-0.2]]",0.170833333,-0.197222222,1,0,0,2.197,o2_image,600.473,1,600.964,600.964,602.963,0,0,0,0,1,,,,,,,,,,,,,,,,,,,,,,,,,,,,,,,,,,,,,,,,,,,,,,,,,,
,,6489a99c65564c916995612d,28,male,2024-04-19_18h37.50.809,stockport_simplified,2022.2.4,Win32,60.0240096,661e456ee6de07e70aa9ef7b,66229da40d5c58a5bc008edd,,,,,,,,,,,,,,,,,,,,,,,,,,,,,,,,,,,,,,,,,,,,,,,,,,,,,,,,1,16,76,10,1,B,X,N,o2_image,stimuli/out2.png,stimuli/out1.png,stimuli/correct_out2.png,,,,,,,,,,,,,,,,,,,,,,,,,,,,,,,,,,,,,,
,,6489a99c65564c916995612d,28,male,2024-04-19_18h37.50.809,stockport_simplified,2022.2.4,Win32,60.0240096,661e456ee6de07e70aa9ef7b,66229da40d5c58a5bc008edd,,,,,,,,,,,,,,,,,,,,,,,,,,,,,,,,,,602.964,605.795,"[7,1,6,5,8,4,2,3]","[[-0.3,0.2],[0.3,0.2]]","[[-0.125,-0.2],[0.125,-0.2]]",-0.065277778,-0.145833333,1,0,0,2.313,o1_image,605.797,1,606.294,606.294,608.293,0,0,0,0,1,,,,,,,,,,,,,,,,,,,,,,,,,,,,,,,,,,,,,,,,,,,,,,,,,,
,,6489a99c65564c916995612d,28,male,2024-04-19_18h37.50.809,stockport_simplified,2022.2.4,Win32,60.0240096,661e456ee6de07e70aa9ef7b,66229da40d5c58a5bc008edd,,,,,,,,,,,,,,,,,,,,,,,,,,,,,,,,,,,,,,,,,,,,,,,,,,,,,,,,1,17,77,6,1,A,Y,N,o1_image,stimuli/out1.png,stimuli/correct_out1.png,stimuli/out2.png,,,,,,,,,,,,,,,,,,,,,,,,,,,,,,,,,,,,,,
,,6489a99c65564c916995612d,28,male,2024-04-19_18h37.50.809,stockport_simplified,2022.2.4,Win32,60.0240096,661e456ee6de07e70aa9ef7b,66229da40d5c58a5bc008edd,,,,,,,,,,,,,,,,,,,,,,,,,,,,,,,,,,608.294,610.658,"[7,1,6,5,8,4,2,3]","[[0.3,0.2],[-0.3,0.2]]","[[0.125,-0.2],[-0.125,-0.2]]",-0.056944444,-0.145833333,1,0,0,1.848,o2_image,610.661,1,611.159,611.159,613.157,0,0,0,0,1,,,,,,,,,,,,,,,,,,,,,,,,,,,,,,,,,,,,,,,,,,,,,,,,,,
,,6489a99c65564c916995612d,28,male,2024-04-19_18h37.50.809,stockport_simplified,2022.2.4,Win32,60.0240096,661e456ee6de07e70aa9ef7b,66229da40d5c58a5bc008edd,,,,,,,,,,,,,,,,,,,,,,,,,,,,,,,,,,,,,,,,,,,,,,,,,,,,,,,,1,18,78,11,1,B,X,N,o2_image,stimuli/out2.png,stimuli/out1.png,stimuli/correct_out2.png,,,,,,,,,,,,,,,,,,,,,,,,,,,,,,,,,,,,,,
,,6489a99c65564c916995612d,28,male,2024-04-19_18h37.50.809,stockport_simplified,2022.2.4,Win32,60.0240096,661e456ee6de07e70aa9ef7b,66229da40d5c58a5bc008edd,,,,,,,,,,,,,,,,,,,,,,,,,,,,,,,,,,613.158,615.489,"[7,1,6,5,8,4,2,3]","[[0.3,0.2],[-0.3,0.2]]","[[-0.125,-0.2],[0.125,-0.2]]",0.144444444,-0.194444444,1,0,0,1.814,o2_image,615.492,0,615.989,615.989,617.988,0,0,0,0,1,,,,,,,,,,,,,,,,,,,,,,,,,,,,,,,,,,,,,,,,,,,,,,,,,,
,,6489a99c65564c916995612d,28,male,2024-04-19_18h37.50.809,stockport_simplified,2022.2.4,Win32,60.0240096,661e456ee6de07e70aa9ef7b,66229da40d5c58a5bc008edd,,,,,,,,,,,,,,,,,,,,,,,,,,,,,,,,,,,,,,,,,,,,,,,,,,,,,,,,1,19,79,8,1,A,Y,N,o1_image,stimuli/out1.png,stimuli/correct_out1.png,stimuli/out2.png,,,,,,,,,,,,,,,,,,,,,,,,,,,,,,,,,,,,,,
,,6489a99c65564c916995612d,28,male,2024-04-19_18h37.50.809,stockport_simplified,2022.2.4,Win32,60.0240096,661e456ee6de07e70aa9ef7b,66229da40d5c58a5bc008edd,,,,,,,,,,,,,,,,,,,,,,,,,,,,,,,,,,617.989,619.554,"[7,1,6,5,8,4,2,3]","[[-0.3,0.2],[0.3,0.2]]","[[-0.125,-0.2],[0.125,-0.2]]",-0.093055556,-0.161111111,1,0,0,1.049,o1_image,619.555,1,620.054,620.054,622.052,0,0,0,0,1,,,,,,,,,,,,,,,,,,,,,,,,,,,,,,,,,,,,,,,,,,,,,,,,,,
,,6489a99c65564c916995612d,28,male,2024-04-19_18h37.50.809,stockport_simplified,2022.2.4,Win32,60.0240096,661e456ee6de07e70aa9ef7b,66229da40d5c58a5bc008edd,,,,,,,,,,,,,,,,,,,,,,,,,,,,,,,,,,,,,,,,,,,,,,,,,,,,,,,,1,20,80,20,1,N,M,C,o1_image,stimuli/out1.png,stimuli/correct_out1.png,stimuli/out2.png,,,,,,,,,,,,,,,,,,,,,,,,,,,,,,,,,,,,,,
,,6489a99c65564c916995612d,28,male,2024-04-19_18h37.50.809,stockport_simplified,2022.2.4,Win32,60.0240096,661e456ee6de07e70aa9ef7b,66229da40d5c58a5bc008edd,,,,,,,,,,,,,,,,,,,,,,,,,,,,,,,,,,622.052,623.701,"[7,1,6,5,8,4,2,3]","[[0.3,0.2],[-0.3,0.2]]","[[0.125,-0.2],[-0.125,-0.2]]",0.143055556,-0.195833333,1,0,0,1.149,o1_image,623.704,1,624.202,624.202,626.2,0,0,0,0,1,,,,,,,,,,,,,,,,,,,,,,,,,,,,,,,,,,,,,,,,,,,,,,,,,,
,,6489a99c65564c916995612d,28,male,2024-04-19_18h37.50.809,stockport_simplified,2022.2.4,Win32,60.0240096,661e456ee6de07e70aa9ef7b,66229da40d5c58a5bc008edd,,,,,,,,,,,,,,,,,,,,,,,,,,,,,,,,,,,,,,,,,,,,,,,,,,,,,,,,1,21,81,50,1,N,M,C,o1_image,stimuli/out1.png,stimuli/correct_out1.png,stimuli/out2.png,,,,,,,,,,,,,,,,,,,,,,,,,,,,,,,,,,,,,,
,,6489a99c65564c916995612d,28,male,2024-04-19_18h37.50.809,stockport_simplified,2022.2.4,Win32,60.0240096,661e456ee6de07e70aa9ef7b,66229da40d5c58a5bc008edd,,,,,,,,,,,,,,,,,,,,,,,,,,,,,,,,,,626.2,628.249,"[7,1,6,5,8,4,2,3]","[[-0.3,0.2],[0.3,0.2]]","[[-0.125,-0.2],[0.125,-0.2]]",0.144444444,-0.201388889,1,0,0,1.531,o2_image,628.251,0,628.749,628.749,630.747,0,0,0,0,1,,,,,,,,,,,,,,,,,,,,,,,,,,,,,,,,,,,,,,,,,,,,,,,,,,
,,6489a99c65564c916995612d,28,male,2024-04-19_18h37.50.809,stockport_simplified,2022.2.4,Win32,60.0240096,661e456ee6de07e70aa9ef7b,66229da40d5c58a5bc008edd,,,,,,,,,,,,,,,,,,,,,,,,,,,,,,,,,,,,,,,,,,,,,,,,,,,,,,,,1,22,82,1,1,A,X,N,o1_image,stimuli/out1.png,stimuli/correct_out1.png,stimuli/out2.png,,,,,,,,,,,,,,,,,,,,,,,,,,,,,,,,,,,,,,
,,6489a99c65564c916995612d,28,male,2024-04-19_18h37.50.809,stockport_simplified,2022.2.4,Win32,60.0240096,661e456ee6de07e70aa9ef7b,66229da40d5c58a5bc008edd,,,,,,,,,,,,,,,,,,,,,,,,,,,,,,,,,,630.748,633.18,"[7,1,6,5,8,4,2,3]","[[0.3,0.2],[-0.3,0.2]]","[[-0.125,-0.2],[0.125,-0.2]]",-0.119444444,-0.197222222,1,0,0,1.916,o1_image,633.188,1,633.68,633.68,635.678,0,0,0,0,1,,,,,,,,,,,,,,,,,,,,,,,,,,,,,,,,,,,,,,,,,,,,,,,,,,
,,6489a99c65564c916995612d,28,male,2024-04-19_18h37.50.809,stockport_simplified,2022.2.4,Win32,60.0240096,661e456ee6de07e70aa9ef7b,66229da40d5c58a5bc008edd,,,,,,,,,,,,,,,,,,,,,,,,,,,,,,,,,,,,,,,,,,,,,,,,,,,,,,,,1,23,83,22,1,N,M,C,o1_image,stimuli/out1.png,stimuli/correct_out1.png,stimuli/out2.png,,,,,,,,,,,,,,,,,,,,,,,,,,,,,,,,,,,,,,
,,6489a99c65564c916995612d,28,male,2024-04-19_18h37.50.809,stockport_simplified,2022.2.4,Win32,60.0240096,661e456ee6de07e70aa9ef7b,66229da40d5c58a5bc008edd,,,,,,,,,,,,,,,,,,,,,,,,,,,,,,,,,,635.679,637.344,"[7,1,6,5,8,4,2,3]","[[0.3,0.2],[-0.3,0.2]]","[[-0.125,-0.2],[0.125,-0.2]]",0.106944444,-0.151388889,1,0,0,1.148,o2_image,637.347,1,637.844,637.844,639.842,0,0,0,0,1,,,,,,,,,,,,,,,,,,,,,,,,,,,,,,,,,,,,,,,,,,,,,,,,,,
,,6489a99c65564c916995612d,28,male,2024-04-19_18h37.50.809,stockport_simplified,2022.2.4,Win32,60.0240096,661e456ee6de07e70aa9ef7b,66229da40d5c58a5bc008edd,,,,,,,,,,,,,,,,,,,,,,,,,,,,,,,,,,,,,,,,,,,,,,,,,,,,,,,,1,24,84,49,1,B,Y,N,o2_image,stimuli/out2.png,stimuli/out1.png,stimuli/correct_out2.png,,,,,,,,,,,,,,,,,,,,,,,,,,,,,,,,,,,,,,
,,6489a99c65564c916995612d,28,male,2024-04-19_18h37.50.809,stockport_simplified,2022.2.4,Win32,60.0240096,661e456ee6de07e70aa9ef7b,66229da40d5c58a5bc008edd,,,,,,,,,,,,,,,,,,,,,,,,,,,,,,,,,,639.843,641.409,"[7,1,6,5,8,4,2,3]","[[0.3,0.2],[-0.3,0.2]]","[[-0.125,-0.2],[0.125,-0.2]]",-0.15,-0.168055556,1,0,0,1.049,o1_image,641.411,1,641.908,641.908,643.907,0,0,0,0,1,,,,,,,,,,,,,,,,,,,,,,,,,,,,,,,,,,,,,,,,,,,,,,,,,,
,,6489a99c65564c916995612d,28,male,2024-04-19_18h37.50.809,stockport_simplified,2022.2.4,Win32,60.0240096,661e456ee6de07e70aa9ef7b,66229da40d5c58a5bc008edd,,,,,,,,,,,,,,,,,,,,,,,,,,,,,,,,,,,,,,,,,,,,,,,,,,,,,,,,1,25,85,23,1,N,M,C,o1_image,stimuli/out1.png,stimuli/correct_out1.png,stimuli/out2.png,,,,,,,,,,,,,,,,,,,,,,,,,,,,,,,,,,,,,,
,,6489a99c65564c916995612d,28,male,2024-04-19_18h37.50.809,stockport_simplified,2022.2.4,Win32,60.0240096,661e456ee6de07e70aa9ef7b,66229da40d5c58a5bc008edd,,,,,,,,,,,,,,,,,,,,,,,,,,,,,,,,,,643.908,646.238,"[7,1,6,5,8,4,2,3]","[[-0.3,0.2],[0.3,0.2]]","[[0.125,-0.2],[-0.125,-0.2]]",0.090277778,-0.179166667,1,0,0,1.814,o1_image,646.242,0,646.739,646.739,648.742,0,0,0,0,1,,,,,,,,,,,,,,,,,,,,,,,,,,,,,,,,,,,,,,,,,,,,,,,,,,
,,6489a99c65564c916995612d,28,male,2024-04-19_18h37.50.809,stockport_simplified,2022.2.4,Win32,60.0240096,661e456ee6de07e70aa9ef7b,66229da40d5c58a5bc008edd,,,,,,,,,,,,,,,,,,,,,,,,,,,,,,,,,,,,,,,,,,,,,,,,,,,,,,,,1,26,86,18,1,B,Y,N,o2_image,stimuli/out2.png,stimuli/out1.png,stimuli/correct_out2.png,,,,,,,,,,,,,,,,,,,,,,,,,,,,,,,,,,,,,,
,,6489a99c65564c916995612d,28,male,2024-04-19_18h37.50.809,stockport_simplified,2022.2.4,Win32,60.0240096,661e456ee6de07e70aa9ef7b,66229da40d5c58a5bc008edd,,,,,,,,,,,,,,,,,,,,,,,,,,,,,,,,,,648.743,650.22,"[7,1,6,5,8,4,2,3]","[[0.3,0.2],[-0.3,0.2]]","[[-0.125,-0.2],[0.125,-0.2]]",-0.091666667,-0.148611111,1,0,0,0.965,o1_image,650.222,1,650.72,650.72,652.719,0,0,0,0,1,,,,,,,,,,,,,,,,,,,,,,,,,,,,,,,,,,,,,,,,,,,,,,,,,,
,,6489a99c65564c916995612d,28,male,2024-04-19_18h37.50.809,stockport_simplified,2022.2.4,Win32,60.0240096,661e456ee6de07e70aa9ef7b,66229da40d5c58a5bc008edd,,,,,,,,,,,,,,,,,,,,,,,,,,,,,,,,,,,,,,,,,,,,,,,,,,,,,,,,1,27,87,51,1,N,M,C,o1_image,stimuli/out1.png,stimuli/correct_out1.png,stimuli/out2.png,,,,,,,,,,,,,,,,,,,,,,,,,,,,,,,,,,,,,,
,,6489a99c65564c916995612d,28,male,2024-04-19_18h37.50.809,stockport_simplified,2022.2.4,Win32,60.0240096,661e456ee6de07e70aa9ef7b,66229da40d5c58a5bc008edd,,,,,,,,,,,,,,,,,,,,,,,,,,,,,,,,,,652.72,654.068,"[7,1,6,5,8,4,2,3]","[[0.3,0.2],[-0.3,0.2]]","[[-0.125,-0.2],[0.125,-0.2]]",-0.130555556,-0.173611111,1,0,0,0.832,o1_image,654.069,1,654.572,654.572,656.566,0,0,0,0,1,,,,,,,,,,,,,,,,,,,,,,,,,,,,,,,,,,,,,,,,,,,,,,,,,,
,,6489a99c65564c916995612d,28,male,2024-04-19_18h37.50.809,stockport_simplified,2022.2.4,Win32,60.0240096,661e456ee6de07e70aa9ef7b,66229da40d5c58a5bc008edd,,,,,,,,,,,,,,,,,,,,,,,,,,,,,,,,,,,,,,,,,,,,,,,,,,,,,,,,1,28,88,24,1,N,M,C,o1_image,stimuli/out1.png,stimuli/correct_out1.png,stimuli/out2.png,,,,,,,,,,,,,,,,,,,,,,,,,,,,,,,,,,,,,,
,,6489a99c65564c916995612d,28,male,2024-04-19_18h37.50.809,stockport_simplified,2022.2.4,Win32,60.0240096,661e456ee6de07e70aa9ef7b,66229da40d5c58a5bc008edd,,,,,,,,,,,,,,,,,,,,,,,,,,,,,,,,,,656.567,658.415,"[7,1,6,5,8,4,2,3]","[[-0.3,0.2],[0.3,0.2]]","[[0.125,-0.2],[-0.125,-0.2]]",-0.129166667,-0.170833333,1,0,0,1.332,o2_image,658.416,1,658.915,658.915,660.914,0,0,0,0,1,,,,,,,,,,,,,,,,,,,,,,,,,,,,,,,,,,,,,,,,,,,,,,,,,,
,,6489a99c65564c916995612d,28,male,2024-04-19_18h37.50.809,stockport_simplified,2022.2.4,Win32,60.0240096,661e456ee6de07e70aa9ef7b,66229da40d5c58a5bc008edd,,,,,,,,,,,,,,,,,,,,,,,,,,,,,,,,,,,,,,,,,,,,,,,,,,,,,,,,1,29,89,29,1,N,M,D,o2_image,stimuli/out2.png,stimuli/out1.png,stimuli/correct_out2.png,,,,,,,,,,,,,,,,,,,,,,,,,,,,,,,,,,,,,,
,,6489a99c65564c916995612d,28,male,2024-04-19_18h37.50.809,stockport_simplified,2022.2.4,Win32,60.0240096,661e456ee6de07e70aa9ef7b,66229da40d5c58a5bc008edd,,,,,,,,,,,,,,,,,,,,,,,,,,,,,,,,,,660.917,662.18,"[7,1,6,5,8,4,2,3]","[[-0.3,0.2],[0.3,0.2]]","[[0.125,-0.2],[-0.125,-0.2]]",-0.151388889,-0.186111111,1,0,0,0.749,o2_image,662.182,1,662.68,662.68,664.679,0,0,0,0,1,,,,,,,,,,,,,,,,,,,,,,,,,,,,,,,,,,,,,,,,,,,,,,,,,,
,,6489a99c65564c916995612d,28,male,2024-04-19_18h37.50.809,stockport_simplified,2022.2.4,Win32,60.0240096,661e456ee6de07e70aa9ef7b,66229da40d5c58a5bc008edd,,,,,,,,,,,,,,,,,,,,,,,,,,,,,,,,,,,,,,,,,,,,,,,,,,,,,,,,1,30,90,58,1,N,M,D,o2_image,stimuli/out2.png,stimuli/out1.png,stimuli/correct_out2.png,,,,,,,,,,,,,,,,,,,,,,,,,,,,,,,,,,,,,,
,,6489a99c65564c916995612d,28,male,2024-04-19_18h37.50.809,stockport_simplified,2022.2.4,Win32,60.0240096,661e456ee6de07e70aa9ef7b,66229da40d5c58a5bc008edd,,,,,,,,,,,,,,,,,,,,,,,,,,,,,,,,,,664.68,666.262,"[7,1,6,5,8,4,2,3]","[[0.3,0.2],[-0.3,0.2]]","[[-0.125,-0.2],[0.125,-0.2]]",0.102777778,-0.206944444,1,0,0,1.065,o2_image,666.27,1,666.761,666.761,668.76,0,0,0,0,1,,,,,,,,,,,,,,,,,,,,,,,,,,,,,,,,,,,,,,,,,,,,,,,,,,
,,6489a99c65564c916995612d,28,male,2024-04-19_18h37.50.809,stockport_simplified,2022.2.4,Win32,60.0240096,661e456ee6de07e70aa9ef7b,66229da40d5c58a5bc008edd,,,,,,,,,,,,,,,,,,,,,,,,,,,,,,,,,,,,,,,,,,,,,,,,,,,,,,,,1,31,91,27,1,N,M,D,o2_image,stimuli/out2.png,stimuli/out1.png,stimuli/correct_out2.png,,,,,,,,,,,,,,,,,,,,,,,,,,,,,,,,,,,,,,
,,6489a99c65564c916995612d,28,male,2024-04-19_18h37.50.809,stockport_simplified,2022.2.4,Win32,60.0240096,661e456ee6de07e70aa9ef7b,66229da40d5c58a5bc008edd,,,,,,,,,,,,,,,,,,,,,,,,,,,,,,,,,,668.761,672.208,"[7,1,6,5,8,4,2,3]","[[-0.3,0.2],[0.3,0.2]]","[[0.125,-0.2],[-0.125,-0.2]]",0.081944444,-0.161111111,1,0,0,2.927,o1_image,672.211,1,672.708,672.708,674.707,0,0,0,0,1,,,,,,,,,,,,,,,,,,,,,,,,,,,,,,,,,,,,,,,,,,,,,,,,,,
,,6489a99c65564c916995612d,28,male,2024-04-19_18h37.50.809,stockport_simplified,2022.2.4,Win32,60.0240096,661e456ee6de07e70aa9ef7b,66229da40d5c58a5bc008edd,,,,,,,,,,,,,,,,,,,,,,,,,,,,,,,,,,,,,,,,,,,,,,,,,,,,,,,,1,32,92,2,1,A,X,N,o1_image,stimuli/out1.png,stimuli/correct_out1.png,stimuli/out2.png,,,,,,,,,,,,,,,,,,,,,,,,,,,,,,,,,,,,,,
,,6489a99c65564c916995612d,28,male,2024-04-19_18h37.50.809,stockport_simplified,2022.2.4,Win32,60.0240096,661e456ee6de07e70aa9ef7b,66229da40d5c58a5bc008edd,,,,,,,,,,,,,,,,,,,,,,,,,,,,,,,,,,674.708,676.589,"[7,1,6,5,8,4,2,3]","[[0.3,0.2],[-0.3,0.2]]","[[0.125,-0.2],[-0.125,-0.2]]",0.0875,-0.179166667,1,0,0,1.366,o1_image,676.592,1,677.089,677.089,679.088,0,0,0,0,1,,,,,,,,,,,,,,,,,,,,,,,,,,,,,,,,,,,,,,,,,,,,,,,,,,
,,6489a99c65564c916995612d,28,male,2024-04-19_18h37.50.809,stockport_simplified,2022.2.4,Win32,60.0240096,661e456ee6de07e70aa9ef7b,66229da40d5c58a5bc008edd,,,,,,,,,,,,,,,,,,,,,,,,,,,,,,,,,,,,,,,,,,,,,,,,,,,,,,,,1,33,93,3,1,A,X,N,o1_image,stimuli/out1.png,stimuli/correct_out1.png,stimuli/out2.png,,,,,,,,,,,,,,,,,,,,,,,,,,,,,,,,,,,,,,
,,6489a99c65564c916995612d,28,male,2024-04-19_18h37.50.809,stockport_simplified,2022.2.4,Win32,60.0240096,661e456ee6de07e70aa9ef7b,66229da40d5c58a5bc008edd,,,,,,,,,,,,,,,,,,,,,,,,,,,,,,,,,,679.088,682.303,"[7,1,6,5,8,4,2,3]","[[-0.3,0.2],[0.3,0.2]]","[[0.125,-0.2],[-0.125,-0.2]]",0.129166667,-0.179166667,1,0,0,2.698,o1_image,682.304,0,682.802,682.802,684.801,0,0,0,0,1,,,,,,,,,,,,,,,,,,,,,,,,,,,,,,,,,,,,,,,,,,,,,,,,,,
,,6489a99c65564c916995612d,28,male,2024-04-19_18h37.50.809,stockport_simplified,2022.2.4,Win32,60.0240096,661e456ee6de07e70aa9ef7b,66229da40d5c58a5bc008edd,,,,,,,,,,,,,,,,,,,,,,,,,,,,,,,,,,,,,,,,,,,,,,,,,,,,,,,,1,34,94,59,1,N,M,D,o2_image,stimuli/out2.png,stimuli/out1.png,stimuli/correct_out2.png,,,,,,,,,,,,,,,,,,,,,,,,,,,,,,,,,,,,,,
,,6489a99c65564c916995612d,28,male,2024-04-19_18h37.50.809,stockport_simplified,2022.2.4,Win32,60.0240096,661e456ee6de07e70aa9ef7b,66229da40d5c58a5bc008edd,,,,,,,,,,,,,,,,,,,,,,,,,,,,,,,,,,684.801,687.033,"[7,1,6,5,8,4,2,3]","[[0.3,0.2],[-0.3,0.2]]","[[-0.125,-0.2],[0.125,-0.2]]",-0.120833333,-0.176388889,1,0,0,1.731,o1_image,687.034,1,687.533,687.533,689.532,0,0,0,0,1,,,,,,,,,,,,,,,,,,,,,,,,,,,,,,,,,,,,,,,,,,,,,,,,,,
,,6489a99c65564c916995612d,28,male,2024-04-19_18h37.50.809,stockport_simplified,2022.2.4,Win32,60.0240096,661e456ee6de07e70aa9ef7b,66229da40d5c58a5bc008edd,,,,,,,,,,,,,,,,,,,,,,,,,,,,,,,,,,,,,,,,,,,,,,,,,,,,,,,,1,35,95,53,1,N,M,C,o1_image,stimuli/out1.png,stimuli/correct_out1.png,stimuli/out2.png,,,,,,,,,,,,,,,,,,,,,,,,,,,,,,,,,,,,,,
,,6489a99c65564c916995612d,28,male,2024-04-19_18h37.50.809,stockport_simplified,2022.2.4,Win32,60.0240096,661e456ee6de07e70aa9ef7b,66229da40d5c58a5bc008edd,,,,,,,,,,,,,,,,,,,,,,,,,,,,,,,,,,689.533,691.531,"[7,1,6,5,8,4,2,3]","[[-0.3,0.2],[0.3,0.2]]","[[-0.125,-0.2],[0.125,-0.2]]",-0.095833333,-0.181944444,1,0,0,1.482,o1_image,691.532,1,692.03,692.03,694.03,0,0,0,0,1,,,,,,,,,,,,,,,,,,,,,,,,,,,,,,,,,,,,,,,,,,,,,,,,,,
,,6489a99c65564c916995612d,28,male,2024-04-19_18h37.50.809,stockport_simplified,2022.2.4,Win32,60.0240096,661e456ee6de07e70aa9ef7b,66229da40d5c58a5bc008edd,,,,,,,,,,,,,,,,,,,,,,,,,,,,,,,,,,,,,,,,,,,,,,,,,,,,,,,,1,36,96,30,1,A,X,N,o1_image,stimuli/out1.png,stimuli/correct_out1.png,stimuli/out2.png,,,,,,,,,,,,,,,,,,,,,,,,,,,,,,,,,,,,,,
,,6489a99c65564c916995612d,28,male,2024-04-19_18h37.50.809,stockport_simplified,2022.2.4,Win32,60.0240096,661e456ee6de07e70aa9ef7b,66229da40d5c58a5bc008edd,,,,,,,,,,,,,,,,,,,,,,,,,,,,,,,,,,694.031,697.095,"[7,1,6,5,8,4,2,3]","[[-0.3,0.2],[0.3,0.2]]","[[-0.125,-0.2],[0.125,-0.2]]",-0.083333333,-0.198611111,1,0,0,2.548,o1_image,697.097,0,697.594,697.594,699.594,0,0,0,0,1,,,,,,,,,,,,,,,,,,,,,,,,,,,,,,,,,,,,,,,,,,,,,,,,,,
,,6489a99c65564c916995612d,28,male,2024-04-19_18h37.50.809,stockport_simplified,2022.2.4,Win32,60.0240096,661e456ee6de07e70aa9ef7b,66229da40d5c58a5bc008edd,,,,,,,,,,,,,,,,,,,,,,,,,,,,,,,,,,,,,,,,,,,,,,,,,,,,,,,,1,37,97,48,1,B,Y,N,o2_image,stimuli/out2.png,stimuli/out1.png,stimuli/correct_out2.png,,,,,,,,,,,,,,,,,,,,,,,,,,,,,,,,,,,,,,
,,6489a99c65564c916995612d,28,male,2024-04-19_18h37.50.809,stockport_simplified,2022.2.4,Win32,60.0240096,661e456ee6de07e70aa9ef7b,66229da40d5c58a5bc008edd,,,,,,,,,,,,,,,,,,,,,,,,,,,,,,,,,,699.598,701.575,"[7,1,6,5,8,4,2,3]","[[0.3,0.2],[-0.3,0.2]]","[[0.125,-0.2],[-0.125,-0.2]]",0.115277778,-0.188888889,1,0,0,1.462,o1_image,701.58,1,702.076,702.076,704.073,0,0,0,0,1,,,,,,,,,,,,,,,,,,,,,,,,,,,,,,,,,,,,,,,,,,,,,,,,,,
,,6489a99c65564c916995612d,28,male,2024-04-19_18h37.50.809,stockport_simplified,2022.2.4,Win32,60.0240096,661e456ee6de07e70aa9ef7b,66229da40d5c58a5bc008edd,,,,,,,,,,,,,,,,,,,,,,,,,,,,,,,,,,,,,,,,,,,,,,,,,,,,,,,,1,38,98,32,1,A,X,N,o1_image,stimuli/out1.png,stimuli/correct_out1.png,stimuli/out2.png,,,,,,,,,,,,,,,,,,,,,,,,,,,,,,,,,,,,,,
,,6489a99c65564c916995612d,28,male,2024-04-19_18h37.50.809,stockport_simplified,2022.2.4,Win32,60.0240096,661e456ee6de07e70aa9ef7b,66229da40d5c58a5bc008edd,,,,,,,,,,,,,,,,,,,,,,,,,,,,,,,,,,704.075,705.94,"[7,1,6,5,8,4,2,3]","[[0.3,0.2],[-0.3,0.2]]","[[-0.125,-0.2],[0.125,-0.2]]",-0.090277778,-0.158333333,1,0,0,1.346,o1_image,705.942,0,706.439,706.439,708.438,0,0,0,0,1,,,,,,,,,,,,,,,,,,,,,,,,,,,,,,,,,,,,,,,,,,,,,,,,,,
,,6489a99c65564c916995612d,28,male,2024-04-19_18h37.50.809,stockport_simplified,2022.2.4,Win32,60.0240096,661e456ee6de07e70aa9ef7b,66229da40d5c58a5bc008edd,,,,,,,,,,,,,,,,,,,,,,,,,,,,,,,,,,,,,,,,,,,,,,,,,,,,,,,,1,39,99,15,1,B,Y,N,o2_image,stimuli/out2.png,stimuli/out1.png,stimuli/correct_out2.png,,,,,,,,,,,,,,,,,,,,,,,,,,,,,,,,,,,,,,
,,6489a99c65564c916995612d,28,male,2024-04-19_18h37.50.809,stockport_simplified,2022.2.4,Win32,60.0240096,661e456ee6de07e70aa9ef7b,66229da40d5c58a5bc008edd,,,,,,,,,,,,,,,,,,,,,,,,,,,,,,,,,,708.439,710.254,"[7,1,6,5,8,4,2,3]","[[0.3,0.2],[-0.3,0.2]]","[[0.125,-0.2],[-0.125,-0.2]]",-0.058333333,-0.176388889,1,0,0,1.299,o2_image,710.257,0,710.754,710.754,712.752,0,0,0,0,1,,,,,,,,,,,,,,,,,,,,,,,,,,,,,,,,,,,,,,,,,,,,,,,,,,
,,6489a99c65564c916995612d,28,male,2024-04-19_18h37.50.809,stockport_simplified,2022.2.4,Win32,60.0240096,661e456ee6de07e70aa9ef7b,66229da40d5c58a5bc008edd,,,,,,,,,,,,,,,,,,,,,,,,,,,,,,,,,,,,,,,,,,,,,,,,,,,,,,,,1,40,100,35,1,A,Y,N,o1_image,stimuli/out1.png,stimuli/correct_out1.png,stimuli/out2.png,,,,,,,,,,,,,,,,,,,,,,,,,,,,,,,,,,,,,,
,,6489a99c65564c916995612d,28,male,2024-04-19_18h37.50.809,stockport_simplified,2022.2.4,Win32,60.0240096,661e456ee6de07e70aa9ef7b,66229da40d5c58a5bc008edd,,,,,,,,,,,,,,,,,,,,,,,,,,,,,,,,,,712.753,714.851,"[7,1,6,5,8,4,2,3]","[[-0.3,0.2],[0.3,0.2]]","[[-0.125,-0.2],[0.125,-0.2]]",0.119444444,-0.186111111,1,0,0,1.581,o2_image,714.854,1,715.351,715.351,717.35,0,0,0,0,1,,,,,,,,,,,,,,,,,,,,,,,,,,,,,,,,,,,,,,,,,,,,,,,,,,
,,6489a99c65564c916995612d,28,male,2024-04-19_18h37.50.809,stockport_simplified,2022.2.4,Win32,60.0240096,661e456ee6de07e70aa9ef7b,66229da40d5c58a5bc008edd,,,,,,,,,,,,,,,,,,,,,,,,,,,,,,,,,,,,,,,,,,,,,,,,,,,,,,,,1,41,101,16,1,B,Y,N,o2_image,stimuli/out2.png,stimuli/out1.png,stimuli/correct_out2.png,,,,,,,,,,,,,,,,,,,,,,,,,,,,,,,,,,,,,,
,,6489a99c65564c916995612d,28,male,2024-04-19_18h37.50.809,stockport_simplified,2022.2.4,Win32,60.0240096,661e456ee6de07e70aa9ef7b,66229da40d5c58a5bc008edd,,,,,,,,,,,,,,,,,,,,,,,,,,,,,,,,,,717.35,719.266,"[7,1,6,5,8,4,2,3]","[[0.3,0.2],[-0.3,0.2]]","[[0.125,-0.2],[-0.125,-0.2]]",-0.055555556,-0.190277778,1,0,0,1.416,o2_image,719.269,0,719.765,719.765,721.765,0,0,0,0,1,,,,,,,,,,,,,,,,,,,,,,,,,,,,,,,,,,,,,,,,,,,,,,,,,,
,,6489a99c65564c916995612d,28,male,2024-04-19_18h37.50.809,stockport_simplified,2022.2.4,Win32,60.0240096,661e456ee6de07e70aa9ef7b,66229da40d5c58a5bc008edd,,,,,,,,,,,,,,,,,,,,,,,,,,,,,,,,,,,,,,,,,,,,,,,,,,,,,,,,1,42,102,36,1,A,Y,N,o1_image,stimuli/out1.png,stimuli/correct_out1.png,stimuli/out2.png,,,,,,,,,,,,,,,,,,,,,,,,,,,,,,,,,,,,,,
,,6489a99c65564c916995612d,28,male,2024-04-19_18h37.50.809,stockport_simplified,2022.2.4,Win32,60.0240096,661e456ee6de07e70aa9ef7b,66229da40d5c58a5bc008edd,,,,,,,,,,,,,,,,,,,,,,,,,,,,,,,,,,721.765,723.53,"[7,1,6,5,8,4,2,3]","[[0.3,0.2],[-0.3,0.2]]","[[0.125,-0.2],[-0.125,-0.2]]",0.0625,-0.201388889,1,0,0,1.248,o1_image,723.532,0,724.029,724.03,726.028,0,0,0,0,1,,,,,,,,,,,,,,,,,,,,,,,,,,,,,,,,,,,,,,,,,,,,,,,,,,
,,6489a99c65564c916995612d,28,male,2024-04-19_18h37.50.809,stockport_simplified,2022.2.4,Win32,60.0240096,661e456ee6de07e70aa9ef7b,66229da40d5c58a5bc008edd,,,,,,,,,,,,,,,,,,,,,,,,,,,,,,,,,,,,,,,,,,,,,,,,,,,,,,,,1,43,103,14,1,B,X,N,o2_image,stimuli/out2.png,stimuli/out1.png,stimuli/correct_out2.png,,,,,,,,,,,,,,,,,,,,,,,,,,,,,,,,,,,,,,
,,6489a99c65564c916995612d,28,male,2024-04-19_18h37.50.809,stockport_simplified,2022.2.4,Win32,60.0240096,661e456ee6de07e70aa9ef7b,66229da40d5c58a5bc008edd,,,,,,,,,,,,,,,,,,,,,,,,,,,,,,,,,,726.029,728.027,"[7,1,6,5,8,4,2,3]","[[0.3,0.2],[-0.3,0.2]]","[[-0.125,-0.2],[0.125,-0.2]]",0.079166667,-0.205555556,1,0,0,1.481,o2_image,728.03,0,728.527,728.527,730.526,0,0,0,0,1,,,,,,,,,,,,,,,,,,,,,,,,,,,,,,,,,,,,,,,,,,,,,,,,,,
,,6489a99c65564c916995612d,28,male,2024-04-19_18h37.50.809,stockport_simplified,2022.2.4,Win32,60.0240096,661e456ee6de07e70aa9ef7b,66229da40d5c58a5bc008edd,,,,,,,,,,,,,,,,,,,,,,,,,,,,,,,,,,,,,,,,,,,,,,,,,,,,,,,,1,44,104,5,1,A,Y,N,o1_image,stimuli/out1.png,stimuli/correct_out1.png,stimuli/out2.png,,,,,,,,,,,,,,,,,,,,,,,,,,,,,,,,,,,,,,
,,6489a99c65564c916995612d,28,male,2024-04-19_18h37.50.809,stockport_simplified,2022.2.4,Win32,60.0240096,661e456ee6de07e70aa9ef7b,66229da40d5c58a5bc008edd,,,,,,,,,,,,,,,,,,,,,,,,,,,,,,,,,,730.527,732.876,"[7,1,6,5,8,4,2,3]","[[-0.3,0.2],[0.3,0.2]]","[[0.125,-0.2],[-0.125,-0.2]]",-0.111111111,-0.181944444,1,0,0,1.831,o2_image,732.884,0,733.375,733.375,735.374,0,0,0,0,1,,,,,,,,,,,,,,,,,,,,,,,,,,,,,,,,,,,,,,,,,,,,,,,,,,
,,6489a99c65564c916995612d,28,male,2024-04-19_18h37.50.809,stockport_simplified,2022.2.4,Win32,60.0240096,661e456ee6de07e70aa9ef7b,66229da40d5c58a5bc008edd,,,,,,,,,,,,,,,,,,,,,,,,,,,,,,,,,,,,,,,,,,,,,,,,,,,,,,,,1,45,105,9,1,A,Y,N,o1_image,stimuli/out1.png,stimuli/correct_out1.png,stimuli/out2.png,,,,,,,,,,,,,,,,,,,,,,,,,,,,,,,,,,,,,,
,,6489a99c65564c916995612d,28,male,2024-04-19_18h37.50.809,stockport_simplified,2022.2.4,Win32,60.0240096,661e456ee6de07e70aa9ef7b,66229da40d5c58a5bc008edd,,,,,,,,,,,,,,,,,,,,,,,,,,,,,,,,,,735.375,737.04,"[7,1,6,5,8,4,2,3]","[[-0.3,0.2],[0.3,0.2]]","[[0.125,-0.2],[-0.125,-0.2]]",-0.129166667,-0.158333333,1,0,0,1.147,o2_image,737.044,1,737.539,737.539,739.538,0,0,0,0,1,,,,,,,,,,,,,,,,,,,,,,,,,,,,,,,,,,,,,,,,,,,,,,,,,,
,,6489a99c65564c916995612d,28,male,2024-04-19_18h37.50.809,stockport_simplified,2022.2.4,Win32,60.0240096,661e456ee6de07e70aa9ef7b,66229da40d5c58a5bc008edd,,,,,,,,,,,,,,,,,,,,,,,,,,,,,,,,,,,,,,,,,,,,,,,,,,,,,,,,1,46,106,28,1,N,M,D,o2_image,stimuli/out2.png,stimuli/out1.png,stimuli/correct_out2.png,,,,,,,,,,,,,,,,,,,,,,,,,,,,,,,,,,,,,,
,,6489a99c65564c916995612d,28,male,2024-04-19_18h37.50.809,stockport_simplified,2022.2.4,Win32,60.0240096,661e456ee6de07e70aa9ef7b,66229da40d5c58a5bc008edd,,,,,,,,,,,,,,,,,,,,,,,,,,,,,,,,,,739.539,740.887,"[7,1,6,5,8,4,2,3]","[[-0.3,0.2],[0.3,0.2]]","[[0.125,-0.2],[-0.125,-0.2]]",-0.155555556,-0.193055556,1,0,0,0.833,o2_image,740.89,1,741.387,741.387,743.386,0,0,0,0,1,,,,,,,,,,,,,,,,,,,,,,,,,,,,,,,,,,,,,,,,,,,,,,,,,,
,,6489a99c65564c916995612d,28,male,2024-04-19_18h37.50.809,stockport_simplified,2022.2.4,Win32,60.0240096,661e456ee6de07e70aa9ef7b,66229da40d5c58a5bc008edd,,,,,,,,,,,,,,,,,,,,,,,,,,,,,,,,,,,,,,,,,,,,,,,,,,,,,,,,1,47,107,26,1,N,M,D,o2_image,stimuli/out2.png,stimuli/out1.png,stimuli/correct_out2.png,,,,,,,,,,,,,,,,,,,,,,,,,,,,,,,,,,,,,,
,,6489a99c65564c916995612d,28,male,2024-04-19_18h37.50.809,stockport_simplified,2022.2.4,Win32,60.0240096,661e456ee6de07e70aa9ef7b,66229da40d5c58a5bc008edd,,,,,,,,,,,,,,,,,,,,,,,,,,,,,,,,,,743.386,745.102,"[7,1,6,5,8,4,2,3]","[[-0.3,0.2],[0.3,0.2]]","[[0.125,-0.2],[-0.125,-0.2]]",0.101388889,-0.165277778,1,0,0,1.198,o1_image,745.103,1,745.601,745.601,747.6,0,0,0,0,1,,,,,,,,,,,,,,,,,,,,,,,,,,,,,,,,,,,,,,,,,,,,,,,,,,
,,6489a99c65564c916995612d,28,male,2024-04-19_18h37.50.809,stockport_simplified,2022.2.4,Win32,60.0240096,661e456ee6de07e70aa9ef7b,66229da40d5c58a5bc008edd,,,,,,,,,,,,,,,,,,,,,,,,,,,,,,,,,,,,,,,,,,,,,,,,,,,,,,,,1,48,108,7,1,A,Y,N,o1_image,stimuli/out1.png,stimuli/correct_out1.png,stimuli/out2.png,,,,,,,,,,,,,,,,,,,,,,,,,,,,,,,,,,,,,,
,,6489a99c65564c916995612d,28,male,2024-04-19_18h37.50.809,stockport_simplified,2022.2.4,Win32,60.0240096,661e456ee6de07e70aa9ef7b,66229da40d5c58a5bc008edd,,,,,,,,,,,,,,,,,,,,,,,,,,,,,,,,,,747.6,749.265,"[7,1,6,5,8,4,2,3]","[[-0.3,0.2],[0.3,0.2]]","[[-0.125,-0.2],[0.125,-0.2]]",-0.169444444,-0.155555556,1,0,0,1.165,o1_image,749.269,1,749.765,749.766,751.765,0,0,0,0,1,,,,,,,,,,,,,,,,,,,,,,,,,,,,,,,,,,,,,,,,,,,,,,,,,,
,,6489a99c65564c916995612d,28,male,2024-04-19_18h37.50.809,stockport_simplified,2022.2.4,Win32,60.0240096,661e456ee6de07e70aa9ef7b,66229da40d5c58a5bc008edd,,,,,,,,,,,,,,,,,,,,,,,,,,,,,,,,,,,,,,,,,,,,,,,,,,,,,,,,1,49,109,4,1,A,X,N,o1_image,stimuli/out1.png,stimuli/correct_out1.png,stimuli/out2.png,,,,,,,,,,,,,,,,,,,,,,,,,,,,,,,,,,,,,,
,,6489a99c65564c916995612d,28,male,2024-04-19_18h37.50.809,stockport_simplified,2022.2.4,Win32,60.0240096,661e456ee6de07e70aa9ef7b,66229da40d5c58a5bc008edd,,,,,,,,,,,,,,,,,,,,,,,,,,,,,,,,,,751.765,753.581,"[7,1,6,5,8,4,2,3]","[[0.3,0.2],[-0.3,0.2]]","[[0.125,-0.2],[-0.125,-0.2]]",0.143055556,-0.176388889,1,0,0,1.299,o1_image,753.583,1,754.08,754.081,756.079,0,0,0,0,1,,,,,,,,,,,,,,,,,,,,,,,,,,,,,,,,,,,,,,,,,,,,,,,,,,
,,6489a99c65564c916995612d,28,male,2024-04-19_18h37.50.809,stockport_simplified,2022.2.4,Win32,60.0240096,661e456ee6de07e70aa9ef7b,66229da40d5c58a5bc008edd,,,,,,,,,,,,,,,,,,,,,,,,,,,,,,,,,,,,,,,,,,,,,,,,,,,,,,,,1,50,110,31,1,A,X,N,o1_image,stimuli/out1.png,stimuli/correct_out1.png,stimuli/out2.png,,,,,,,,,,,,,,,,,,,,,,,,,,,,,,,,,,,,,,
,,6489a99c65564c916995612d,28,male,2024-04-19_18h37.50.809,stockport_simplified,2022.2.4,Win32,60.0240096,661e456ee6de07e70aa9ef7b,66229da40d5c58a5bc008edd,,,,,,,,,,,,,,,,,,,,,,,,,,,,,,,,,,756.08,758.927,"[7,1,6,5,8,4,2,3]","[[-0.3,0.2],[0.3,0.2]]","[[-0.125,-0.2],[0.125,-0.2]]",-0.098611111,-0.176388889,1,0,0,2.332,o1_image,758.929,1,759.426,759.427,761.426,0,0,0,0,1,,,,,,,,,,,,,,,,,,,,,,,,,,,,,,,,,,,,,,,,,,,,,,,,,,
,,6489a99c65564c916995612d,28,male,2024-04-19_18h37.50.809,stockport_simplified,2022.2.4,Win32,60.0240096,661e456ee6de07e70aa9ef7b,66229da40d5c58a5bc008edd,,,,,,,,,,,,,,,,,,,,,,,,,,,,,,,,,,,,,,,,,,,,,,,,,,,,,,,,1,51,111,0,1,A,X,N,o1_image,stimuli/out1.png,stimuli/correct_out1.png,stimuli/out2.png,,,,,,,,,,,,,,,,,,,,,,,,,,,,,,,,,,,,,,
,,6489a99c65564c916995612d,28,male,2024-04-19_18h37.50.809,stockport_simplified,2022.2.4,Win32,60.0240096,661e456ee6de07e70aa9ef7b,66229da40d5c58a5bc008edd,,,,,,,,,,,,,,,,,,,,,,,,,,,,,,,,,,761.427,763.242,"[7,1,6,5,8,4,2,3]","[[-0.3,0.2],[0.3,0.2]]","[[0.125,-0.2],[-0.125,-0.2]]",-0.129166667,-0.138888889,1,0,0,1.299,o2_image,763.244,1,763.742,763.742,765.741,0,0,0,0,1,,,,,,,,,,,,,,,,,,,,,,,,,,,,,,,,,,,,,,,,,,,,,,,,,,
,,6489a99c65564c916995612d,28,male,2024-04-19_18h37.50.809,stockport_simplified,2022.2.4,Win32,60.0240096,661e456ee6de07e70aa9ef7b,66229da40d5c58a5bc008edd,,,,,,,,,,,,,,,,,,,,,,,,,,,,,,,,,,,,,,,,,,,,,,,,,,,,,,,,1,52,112,25,1,N,M,D,o2_image,stimuli/out2.png,stimuli/out1.png,stimuli/correct_out2.png,,,,,,,,,,,,,,,,,,,,,,,,,,,,,,,,,,,,,,
,,6489a99c65564c916995612d,28,male,2024-04-19_18h37.50.809,stockport_simplified,2022.2.4,Win32,60.0240096,661e456ee6de07e70aa9ef7b,66229da40d5c58a5bc008edd,,,,,,,,,,,,,,,,,,,,,,,,,,,,,,,,,,765.744,767.39,"[7,1,6,5,8,4,2,3]","[[-0.3,0.2],[0.3,0.2]]","[[-0.125,-0.2],[0.125,-0.2]]",-0.098611111,-0.154166667,1,0,0,1.127,o1_image,767.393,1,767.889,767.889,769.888,0,0,0,0,1,,,,,,,,,,,,,,,,,,,,,,,,,,,,,,,,,,,,,,,,,,,,,,,,,,
,,6489a99c65564c916995612d,28,male,2024-04-19_18h37.50.809,stockport_simplified,2022.2.4,Win32,60.0240096,661e456ee6de07e70aa9ef7b,66229da40d5c58a5bc008edd,,,,,,,,,,,,,,,,,,,,,,,,,,,,,,,,,,,,,,,,,,,,,,,,,,,,,,,,1,53,113,34,1,A,X,N,o1_image,stimuli/out1.png,stimuli/correct_out1.png,stimuli/out2.png,,,,,,,,,,,,,,,,,,,,,,,,,,,,,,,,,,,,,,
,,6489a99c65564c916995612d,28,male,2024-04-19_18h37.50.809,stockport_simplified,2022.2.4,Win32,60.0240096,661e456ee6de07e70aa9ef7b,66229da40d5c58a5bc008edd,,,,,,,,,,,,,,,,,,,,,,,,,,,,,,,,,,769.889,771.587,"[7,1,6,5,8,4,2,3]","[[-0.3,0.2],[0.3,0.2]]","[[-0.125,-0.2],[0.125,-0.2]]",0.068055556,-0.15,1,0,0,1.181,o2_image,771.589,1,772.087,772.087,774.086,0,0,0,0,1,,,,,,,,,,,,,,,,,,,,,,,,,,,,,,,,,,,,,,,,,,,,,,,,,,
,,6489a99c65564c916995612d,28,male,2024-04-19_18h37.50.809,stockport_simplified,2022.2.4,Win32,60.0240096,661e456ee6de07e70aa9ef7b,66229da40d5c58a5bc008edd,,,,,,,,,,,,,,,,,,,,,,,,,,,,,,,,,,,,,,,,,,,,,,,,,,,,,,,,1,54,114,57,1,N,M,D,o2_image,stimuli/out2.png,stimuli/out1.png,stimuli/correct_out2.png,,,,,,,,,,,,,,,,,,,,,,,,,,,,,,,,,,,,,,
,,6489a99c65564c916995612d,28,male,2024-04-19_18h37.50.809,stockport_simplified,2022.2.4,Win32,60.0240096,661e456ee6de07e70aa9ef7b,66229da40d5c58a5bc008edd,,,,,,,,,,,,,,,,,,,,,,,,,,,,,,,,,,774.087,776.002,"[7,1,6,5,8,4,2,3]","[[-0.3,0.2],[0.3,0.2]]","[[0.125,-0.2],[-0.125,-0.2]]",-0.120833333,-0.190277778,1,0,0,1.399,o2_image,776.005,1,776.501,776.501,778.499,0,0,0,0,1,,,,,,,,,,,,,,,,,,,,,,,,,,,,,,,,,,,,,,,,,,,,,,,,,,
,,6489a99c65564c916995612d,28,male,2024-04-19_18h37.50.809,stockport_simplified,2022.2.4,Win32,60.0240096,661e456ee6de07e70aa9ef7b,66229da40d5c58a5bc008edd,,,,,,,,,,,,,,,,,,,,,,,,,,,,,,,,,,,,,,,,,,,,,,,,,,,,,,,,1,55,115,43,1,B,X,N,o2_image,stimuli/out2.png,stimuli/out1.png,stimuli/correct_out2.png,,,,,,,,,,,,,,,,,,,,,,,,,,,,,,,,,,,,,,
,,6489a99c65564c916995612d,28,male,2024-04-19_18h37.50.809,stockport_simplified,2022.2.4,Win32,60.0240096,661e456ee6de07e70aa9ef7b,66229da40d5c58a5bc008edd,,,,,,,,,,,,,,,,,,,,,,,,,,,,,,,,,,778.5,779.966,"[7,1,6,5,8,4,2,3]","[[-0.3,0.2],[0.3,0.2]]","[[0.125,-0.2],[-0.125,-0.2]]",-0.140277778,-0.184722222,1,0,0,0.949,o2_image,779.967,1,780.465,780.465,782.464,0,0,0,0,1,,,,,,,,,,,,,,,,,,,,,,,,,,,,,,,,,,,,,,,,,,,,,,,,,,
,,6489a99c65564c916995612d,28,male,2024-04-19_18h37.50.809,stockport_simplified,2022.2.4,Win32,60.0240096,661e456ee6de07e70aa9ef7b,66229da40d5c58a5bc008edd,,,,,,,,,,,,,,,,,,,,,,,,,,,,,,,,,,,,,,,,,,,,,,,,,,,,,,,,1,56,116,41,1,B,X,N,o2_image,stimuli/out2.png,stimuli/out1.png,stimuli/correct_out2.png,,,,,,,,,,,,,,,,,,,,,,,,,,,,,,,,,,,,,,
,,6489a99c65564c916995612d,28,male,2024-04-19_18h37.50.809,stockport_simplified,2022.2.4,Win32,60.0240096,661e456ee6de07e70aa9ef7b,66229da40d5c58a5bc008edd,,,,,,,,,,,,,,,,,,,,,,,,,,,,,,,,,,782.465,784.297,"[7,1,6,5,8,4,2,3]","[[-0.3,0.2],[0.3,0.2]]","[[-0.125,-0.2],[0.125,-0.2]]",0.066666667,-0.154166667,1,0,0,1.316,o2_image,784.299,1,784.796,784.796,786.795,0,0,0,0,1,,,,,,,,,,,,,,,,,,,,,,,,,,,,,,,,,,,,,,,,,,,,,,,,,,
,,6489a99c65564c916995612d,28,male,2024-04-19_18h37.50.809,stockport_simplified,2022.2.4,Win32,60.0240096,661e456ee6de07e70aa9ef7b,66229da40d5c58a5bc008edd,,,,,,,,,,,,,,,,,,,,,,,,,,,,,,,,,,,,,,,,,,,,,,,,,,,,,,,,1,57,117,46,1,B,Y,N,o2_image,stimuli/out2.png,stimuli/out1.png,stimuli/correct_out2.png,,,,,,,,,,,,,,,,,,,,,,,,,,,,,,,,,,,,,,
,,6489a99c65564c916995612d,28,male,2024-04-19_18h37.50.809,stockport_simplified,2022.2.4,Win32,60.0240096,661e456ee6de07e70aa9ef7b,66229da40d5c58a5bc008edd,,,,,,,,,,,,,,,,,,,,,,,,,,,,,,,,,,786.796,788.694,"[7,1,6,5,8,4,2,3]","[[0.3,0.2],[-0.3,0.2]]","[[-0.125,-0.2],[0.125,-0.2]]",0.168055556,-0.183333333,1,0,0,1.382,o2_image,788.696,1,789.194,789.194,791.193,0,0,0,0,1,,,,,,,,,,,,,,,,,,,,,,,,,,,,,,,,,,,,,,,,,,,,,,,,,,
,,6489a99c65564c916995612d,28,male,2024-04-19_18h37.50.809,stockport_simplified,2022.2.4,Win32,60.0240096,661e456ee6de07e70aa9ef7b,66229da40d5c58a5bc008edd,,,,,,,,,,,,,,,,,,,,,,,,,,,,,,,,,,,,,,,,,,,,,,,,,,,,,,,,1,58,118,42,1,B,X,N,o2_image,stimuli/out2.png,stimuli/out1.png,stimuli/correct_out2.png,,,,,,,,,,,,,,,,,,,,,,,,,,,,,,,,,,,,,,
,,6489a99c65564c916995612d,28,male,2024-04-19_18h37.50.809,stockport_simplified,2022.2.4,Win32,60.0240096,661e456ee6de07e70aa9ef7b,66229da40d5c58a5bc008edd,,,,,,,,,,,,,,,,,,,,,,,,,,,,,,,,,,791.194,793.158,"[7,1,6,5,8,4,2,3]","[[-0.3,0.2],[0.3,0.2]]","[[0.125,-0.2],[-0.125,-0.2]]",-0.118055556,-0.170833333,1,0,0,1.448,o2_image,793.161,0,793.659,793.659,795.657,0,0,0,0,1,,,,,,,,,,,,,,,,,,,,,,,,,,,,,,,,,,,,,,,,,,,,,,,,,,
,,6489a99c65564c916995612d,28,male,2024-04-19_18h37.50.809,stockport_simplified,2022.2.4,Win32,60.0240096,661e456ee6de07e70aa9ef7b,66229da40d5c58a5bc008edd,,,,,,,,,,,,,,,,,,,,,,,,,,,,,,,,,,,,,,,,,,,,,,,,,,,,,,,,1,59,119,33,1,A,X,N,o1_image,stimuli/out1.png,stimuli/correct_out1.png,stimuli/out2.png,,,,,,,,,,,,,,,,,,,,,,,,,,,,,,,,,,,,,,
,,6489a99c65564c916995612d,28,male,2024-04-19_18h37.50.809,stockport_simplified,2022.2.4,Win32,60.0240096,661e456ee6de07e70aa9ef7b,66229da40d5c58a5bc008edd,,,,,,,,,,,,,,,,,,,,,,,,,,,,,,,,,,795.684,797.439,"[7,1,6,5,8,4,2,3]","[[0.3,0.2],[-0.3,0.2]]","[[-0.125,-0.2],[0.125,-0.2]]",-0.095833333,-0.147222222,1,0,0,1.248,o1_image,797.44,1,797.94,797.94,799.939,,,,,,,,,,,,,,,,,,0,0,0,0,1,,,,,,,,,,,,,,,,,,,,,,,,,,,,,,,,,
,,6489a99c65564c916995612d,28,male,2024-04-19_18h37.50.809,stockport_simplified,2022.2.4,Win32,60.0240096,661e456ee6de07e70aa9ef7b,66229da40d5c58a5bc008edd,,,,,,,,,,,,,,,,,,,,,,,,,,,,,,,,,,,,,,,,,,,,,,,,,,,,,,,,,,,,,N,M,C,o1_image,stimuli/out1.png,stimuli/correct_out1.png,stimuli/out2.png,,,,,,0,0,0,48,1,,,,,,,,,,,,,,,,,,,,,,,,,,,,
,,6489a99c65564c916995612d,28,male,2024-04-19_18h37.50.809,stockport_simplified,2022.2.4,Win32,60.0240096,661e456ee6de07e70aa9ef7b,66229da40d5c58a5bc008edd,,,,,,,,,,,,,,,,,,,,,,,,,,,,,,,,,,799.943,801.404,"[7,1,6,5,8,4,2,3]","[[0.3,0.2],[-0.3,0.2]]","[[-0.125,-0.2],[0.125,-0.2]]",-0.093055556,-0.151388889,1,0,0,0.949,o1_image,801.409,1,801.904,801.904,803.903,,,,,,,,,,,,,,,,,,0,0,0,0,1,,,,,,,,,,,,,,,,,,,,,,,,,,,,,,,,,
,,6489a99c65564c916995612d,28,male,2024-04-19_18h37.50.809,stockport_simplified,2022.2.4,Win32,60.0240096,661e456ee6de07e70aa9ef7b,66229da40d5c58a5bc008edd,,,,,,,,,,,,,,,,,,,,,,,,,,,,,,,,,,,,,,,,,,,,,,,,,,,,,,,,,,,,,N,M,C,o1_image,stimuli/out1.png,stimuli/correct_out1.png,stimuli/out2.png,,,,,,0,1,1,45,1,,,,,,,,,,,,,,,,,,,,,,,,,,,,
,,6489a99c65564c916995612d,28,male,2024-04-19_18h37.50.809,stockport_simplified,2022.2.4,Win32,60.0240096,661e456ee6de07e70aa9ef7b,66229da40d5c58a5bc008edd,,,,,,,,,,,,,,,,,,,,,,,,,,,,,,,,,,803.904,806.168,"[7,1,6,5,8,4,2,3]","[[-0.3,0.2],[0.3,0.2]]","[[0.125,-0.2],[-0.125,-0.2]]",-0.065277778,-0.156944444,1,0,0,1.745,o2_image,806.169,0,806.668,806.668,808.666,,,,,,,,,,,,,,,,,,0,0,0,0,1,,,,,,,,,,,,,,,,,,,,,,,,,,,,,,,,,
,,6489a99c65564c916995612d,28,male,2024-04-19_18h37.50.809,stockport_simplified,2022.2.4,Win32,60.0240096,661e456ee6de07e70aa9ef7b,66229da40d5c58a5bc008edd,,,,,,,,,,,,,,,,,,,,,,,,,,,,,,,,,,,,,,,,,,,,,,,,,,,,,,,,,,,,,B,X,N,o1_image,stimuli/out1.png,stimuli/correct_out1.png,stimuli/out2.png,,,,,,0,2,2,27,1,,,,,,,,,,,,,,,,,,,,,,,,,,,,
,,6489a99c65564c916995612d,28,male,2024-04-19_18h37.50.809,stockport_simplified,2022.2.4,Win32,60.0240096,661e456ee6de07e70aa9ef7b,66229da40d5c58a5bc008edd,,,,,,,,,,,,,,,,,,,,,,,,,,,,,,,,,,808.667,810.35,"[7,1,6,5,8,4,2,3]","[[-0.3,0.2],[0.3,0.2]]","[[0.125,-0.2],[-0.125,-0.2]]",0.176388889,-0.181944444,1,0,0,1.164,o1_image,810.352,1,810.849,810.85,812.848,,,,,,,,,,,,,,,,,,0,0,0,0,1,,,,,,,,,,,,,,,,,,,,,,,,,,,,,,,,,
,,6489a99c65564c916995612d,28,male,2024-04-19_18h37.50.809,stockport_simplified,2022.2.4,Win32,60.0240096,661e456ee6de07e70aa9ef7b,66229da40d5c58a5bc008edd,,,,,,,,,,,,,,,,,,,,,,,,,,,,,,,,,,,,,,,,,,,,,,,,,,,,,,,,,,,,,N,M,C,o1_image,stimuli/out1.png,stimuli/correct_out1.png,stimuli/out2.png,,,,,,0,3,3,42,1,,,,,,,,,,,,,,,,,,,,,,,,,,,,
,,6489a99c65564c916995612d,28,male,2024-04-19_18h37.50.809,stockport_simplified,2022.2.4,Win32,60.0240096,661e456ee6de07e70aa9ef7b,66229da40d5c58a5bc008edd,,,,,,,,,,,,,,,,,,,,,,,,,,,,,,,,,,812.849,814.98,"[7,1,6,5,8,4,2,3]","[[-0.3,0.2],[0.3,0.2]]","[[0.125,-0.2],[-0.125,-0.2]]",-0.120833333,-0.151388889,1,0,0,1.614,o2_image,814.982,1,815.479,815.48,817.479,,,,,,,,,,,,,,,,,,0,0,0,0,1,,,,,,,,,,,,,,,,,,,,,,,,,,,,,,,,,
,,6489a99c65564c916995612d,28,male,2024-04-19_18h37.50.809,stockport_simplified,2022.2.4,Win32,60.0240096,661e456ee6de07e70aa9ef7b,66229da40d5c58a5bc008edd,,,,,,,,,,,,,,,,,,,,,,,,,,,,,,,,,,,,,,,,,,,,,,,,,,,,,,,,,,,,,B,X,N,o2_image,stimuli/out2.png,stimuli/out1.png,stimuli/correct_out2.png,,,,,,0,4,4,22,1,,,,,,,,,,,,,,,,,,,,,,,,,,,,
,,6489a99c65564c916995612d,28,male,2024-04-19_18h37.50.809,stockport_simplified,2022.2.4,Win32,60.0240096,661e456ee6de07e70aa9ef7b,66229da40d5c58a5bc008edd,,,,,,,,,,,,,,,,,,,,,,,,,,,,,,,,,,817.479,819.094,"[7,1,6,5,8,4,2,3]","[[0.3,0.2],[-0.3,0.2]]","[[0.125,-0.2],[-0.125,-0.2]]",-0.156944444,-0.155555556,1,0,0,1.099,o2_image,819.097,1,819.594,819.594,821.593,,,,,,,,,,,,,,,,,,0,0,0,0,1,,,,,,,,,,,,,,,,,,,,,,,,,,,,,,,,,
,,6489a99c65564c916995612d,28,male,2024-04-19_18h37.50.809,stockport_simplified,2022.2.4,Win32,60.0240096,661e456ee6de07e70aa9ef7b,66229da40d5c58a5bc008edd,,,,,,,,,,,,,,,,,,,,,,,,,,,,,,,,,,,,,,,,,,,,,,,,,,,,,,,,,,,,,B,Y,N,o2_image,stimuli/out2.png,stimuli/out1.png,stimuli/correct_out2.png,,,,,,0,5,5,33,1,,,,,,,,,,,,,,,,,,,,,,,,,,,,
