counterbalance_2.started,counterbalance_2.stopped,participant,age,gender,date,expName,psychopyVersion,OS,frameRate,STUDY_ID,SESSION_ID,information_2.started,information_2.stopped,information_loop.thisRepN,information_loop.thisTrialN,information_loop.thisN,information_loop.thisIndex,information_loop.ran,information,consent_2.started,consent_2.stopped,slider_1.response,slider_2.response,slider_3.response,slider_4.response,slider_5.response,slider_6.response,instructions.started,instructions.stopped,task1_instr.thisRepN,task1_instr.thisTrialN,task1_instr.thisN,task1_instr.thisIndex,task1_instr.ran,task1,comprehension1_2.started,comprehension1_2.stopped,comp1_mouse.x,comp1_mouse.y,comp1_mouse.leftButton,comp1_mouse.midButton,comp1_mouse.rightButton,comp1_mouse.time,comp1_mouse.clicked_name,cue_o__trial_2.started,cue_o__trial_2.stopped,order,cue_order,out_order,cue_o_mouse.x,cue_o_mouse.y,cue_o_mouse.leftButton,cue_o_mouse.midButton,cue_o_mouse.rightButton,cue_o_mouse.time,cue_o_mouse.clicked_name,cue_selection_2.started,correct_answer,cue_selection_2.stopped,feedback_2.started,feedback_2.stopped,feedback_loop.thisRepN,feedback_loop.thisTrialN,feedback_loop.thisN,feedback_loop.thisIndex,feedback_loop.ran,stage1_trials.thisRepN,stage1_trials.thisTrialN,stage1_trials.thisN,stage1_trials.thisIndex,stage1_trials.ran,cue1,cue2,cue3,outcome,correct_out,o1_feedback,o2_feedback,stage2_feedback_loop.thisRepN,stage2_feedback_loop.thisTrialN,stage2_feedback_loop.thisN,stage2_feedback_loop.thisIndex,stage2_feedback_loop.ran,stage2_trials.thisRepN,stage2_trials.thisTrialN,stage2_trials.thisN,stage2_trials.thisIndex,stage2_trials.ran,stage3_feedback_loop.thisRepN,stage3_feedback_loop.thisTrialN,stage3_feedback_loop.thisN,stage3_feedback_loop.thisIndex,stage3_feedback_loop.ran,stage3_trials.thisRepN,stage3_trials.thisTrialN,stage3_trials.thisN,stage3_trials.thisIndex,stage3_trials.ran,debrief_2.started,debrief_2.stopped,debrief_loop.thisRepN,debrief_loop.thisTrialN,debrief_loop.thisN,debrief_loop.thisIndex,debrief_loop.ran,debrief_img,compr1_completed.thisRepN,compr1_completed.thisTrialN,compr1_completed.thisN,compr1_completed.thisIndex,compr1_completed.ran,consent_loop.thisRepN,consent_loop.thisTrialN,consent_loop.thisN,consent_loop.thisIndex,consent_loop.ran
0,0.001,6487929144e5af4f15fde1f8,22,male,2024-04-19_18h37.16.250,stockport_simplified,2022.2.4,Win32,29.41176471,661e456ee6de07e70aa9ef7b,66229da09b1138af584eafc1,,,,,,,,,,,,,,,,,,,,,,,,,,,,,,,,,,,,,,,,,,,,,,,,,,,,,,,,,,,,,,,,,,,,,,,,,,,,,,,,,,,,,,,,,,,,,,,,,,,,,,,,,
,,6487929144e5af4f15fde1f8,22,male,2024-04-19_18h37.16.250,stockport_simplified,2022.2.4,Win32,29.41176471,661e456ee6de07e70aa9ef7b,66229da09b1138af584eafc1,0.01,5.761,0,0,0,0,1,instructions/info1.png,,,,,,,,,,,,,,,,,,,,,,,,,,,,,,,,,,,,,,,,,,,,,,,,,,,,,,,,,,,,,,,,,,,,,,,,,,,,,,,,,,,,,,,,,,,,,,,,,
,,6487929144e5af4f15fde1f8,22,male,2024-04-19_18h37.16.250,stockport_simplified,2022.2.4,Win32,29.41176471,661e456ee6de07e70aa9ef7b,66229da09b1138af584eafc1,5.761,9.429,0,1,1,1,1,instructions/info2.png,,,,,,,,,,,,,,,,,,,,,,,,,,,,,,,,,,,,,,,,,,,,,,,,,,,,,,,,,,,,,,,,,,,,,,,,,,,,,,,,,,,,,,,,,,,,,,,,,
,,6487929144e5af4f15fde1f8,22,male,2024-04-19_18h37.16.250,stockport_simplified,2022.2.4,Win32,29.41176471,661e456ee6de07e70aa9ef7b,66229da09b1138af584eafc1,9.429,16.067,0,2,2,2,1,instructions/info3.png,,,,,,,,,,,,,,,,,,,,,,,,,,,,,,,,,,,,,,,,,,,,,,,,,,,,,,,,,,,,,,,,,,,,,,,,,,,,,,,,,,,,,,,,,,,,,,,,,
,,6487929144e5af4f15fde1f8,22,male,2024-04-19_18h37.16.250,stockport_simplified,2022.2.4,Win32,29.41176471,661e456ee6de07e70aa9ef7b,66229da09b1138af584eafc1,,,,,,,,,16.068,25.106,1,1,1,1,1,1,,,,,,,,,,,,,,,,,,,,,,,,,,,,,,,,,,,,,,,,,,,,,,,,,,,,,,,,,,,,,,,,,,,,,,,,,,,,,,,,,,,,,,,,,
,,6487929144e5af4f15fde1f8,22,male,2024-04-19_18h37.16.250,stockport_simplified,2022.2.4,Win32,29.41176471,661e456ee6de07e70aa9ef7b,66229da09b1138af584eafc1,,,,,,,,,,,,,,,,,25.11,41.483,0,0,0,0,1,instructions/task1_1.png,,,,,,,,,,,,,,,,,,,,,,,,,,,,,,,,,,,,,,,,,,,,,,,,,,,,,,,,,,,,,,,,,,,,,,,,,,,,,,,,,
,,6487929144e5af4f15fde1f8,22,male,2024-04-19_18h37.16.250,stockport_simplified,2022.2.4,Win32,29.41176471,661e456ee6de07e70aa9ef7b,66229da09b1138af584eafc1,,,,,,,,,,,,,,,,,41.484,47.187,0,1,1,1,1,instructions/task1_2.png,,,,,,,,,,,,,,,,,,,,,,,,,,,,,,,,,,,,,,,,,,,,,,,,,,,,,,,,,,,,,,,,,,,,,,,,,,,,,,,,,
,,6487929144e5af4f15fde1f8,22,male,2024-04-19_18h37.16.250,stockport_simplified,2022.2.4,Win32,29.41176471,661e456ee6de07e70aa9ef7b,66229da09b1138af584eafc1,,,,,,,,,,,,,,,,,47.187,58.161,0,2,2,2,1,instructions/task1_3.png,,,,,,,,,,,,,,,,,,,,,,,,,,,,,,,,,,,,,,,,,,,,,,,,,,,,,,,,,,,,,,,,,,,,,,,,,,,,,,,,,
,,6487929144e5af4f15fde1f8,22,male,2024-04-19_18h37.16.250,stockport_simplified,2022.2.4,Win32,29.41176471,661e456ee6de07e70aa9ef7b,66229da09b1138af584eafc1,,,,,,,,,,,,,,,,,,,,,,,,,58.161,72.437,-0.043981425,-0.330555556,1,0,0,14.276,comp1_resp1,72.448,77.64,"[2,1,7,5,8,6,3,4]","[[-0.3,0.2],[0.3,0.2]]","[[-0.125,-0.2],[0.125,-0.2]]",0.272685242,0.077314801,1,0,0,3.636,o1_image,77.646,0,78.14,78.14,80.142,0,0,0,0,1,,,,,,,,,,,,,,,,,,,,,,,,,,,,,,,,,,,,,,,,,,,,,,,,,,
,,6487929144e5af4f15fde1f8,22,male,2024-04-19_18h37.16.250,stockport_simplified,2022.2.4,Win32,29.41176471,661e456ee6de07e70aa9ef7b,66229da09b1138af584eafc1,,,,,,,,,,,,,,,,,,,,,,,,,,,,,,,,,,,,,,,,,,,,,,,,,,,,,,,,0,0,0,48,1,B,Y,N,o2_image,stimuli/out2.png,stimuli/out1.png,stimuli/correct_out2.png,,,,,,,,,,,,,,,,,,,,,,,,,,,,,,,,,,,,,,
,,6487929144e5af4f15fde1f8,22,male,2024-04-19_18h37.16.250,stockport_simplified,2022.2.4,Win32,29.41176471,661e456ee6de07e70aa9ef7b,66229da09b1138af584eafc1,,,,,,,,,,,,,,,,,,,,,,,,,,,,,,,,,,80.143,83.01,"[2,1,7,5,8,6,3,4]","[[-0.3,0.2],[0.3,0.2]]","[[-0.125,-0.2],[0.125,-0.2]]",0.108333333,-0.177777778,1,0,0,2.335,o2_image,83.015,0,83.511,83.511,85.512,0,0,0,0,1,,,,,,,,,,,,,,,,,,,,,,,,,,,,,,,,,,,,,,,,,,,,,,,,,,
,,6487929144e5af4f15fde1f8,22,male,2024-04-19_18h37.16.250,stockport_simplified,2022.2.4,Win32,29.41176471,661e456ee6de07e70aa9ef7b,66229da09b1138af584eafc1,,,,,,,,,,,,,,,,,,,,,,,,,,,,,,,,,,,,,,,,,,,,,,,,,,,,,,,,0,1,1,23,1,N,M,C,o1_image,stimuli/out1.png,stimuli/correct_out1.png,stimuli/out2.png,,,,,,,,,,,,,,,,,,,,,,,,,,,,,,,,,,,,,,
,,6487929144e5af4f15fde1f8,22,male,2024-04-19_18h37.16.250,stockport_simplified,2022.2.4,Win32,29.41176471,661e456ee6de07e70aa9ef7b,66229da09b1138af584eafc1,,,,,,,,,,,,,,,,,,,,,,,,,,,,,,,,,,85.512,88.214,"[2,1,7,5,8,6,3,4]","[[-0.3,0.2],[0.3,0.2]]","[[0.125,-0.2],[-0.125,-0.2]]",0.105092621,-0.174074088,1,0,0,2.168,o1_image,88.214,1,88.714,88.714,90.715,0,0,0,0,1,,,,,,,,,,,,,,,,,,,,,,,,,,,,,,,,,,,,,,,,,,,,,,,,,,
,,6487929144e5af4f15fde1f8,22,male,2024-04-19_18h37.16.250,stockport_simplified,2022.2.4,Win32,29.41176471,661e456ee6de07e70aa9ef7b,66229da09b1138af584eafc1,,,,,,,,,,,,,,,,,,,,,,,,,,,,,,,,,,,,,,,,,,,,,,,,,,,,,,,,0,2,2,0,1,A,X,N,o1_image,stimuli/out1.png,stimuli/correct_out1.png,stimuli/out2.png,,,,,,,,,,,,,,,,,,,,,,,,,,,,,,,,,,,,,,
,,6487929144e5af4f15fde1f8,22,male,2024-04-19_18h37.16.250,stockport_simplified,2022.2.4,Win32,29.41176471,661e456ee6de07e70aa9ef7b,66229da09b1138af584eafc1,,,,,,,,,,,,,,,,,,,,,,,,,,,,,,,,,,90.715,92.983,"[2,1,7,5,8,6,3,4]","[[0.3,0.2],[-0.3,0.2]]","[[-0.125,-0.2],[0.125,-0.2]]",-0.1125,-0.182870399,1,0,0,1.768,o1_image,92.983,0,93.484,93.484,95.484,0,0,0,0,1,,,,,,,,,,,,,,,,,,,,,,,,,,,,,,,,,,,,,,,,,,,,,,,,,,
,,6487929144e5af4f15fde1f8,22,male,2024-04-19_18h37.16.250,stockport_simplified,2022.2.4,Win32,29.41176471,661e456ee6de07e70aa9ef7b,66229da09b1138af584eafc1,,,,,,,,,,,,,,,,,,,,,,,,,,,,,,,,,,,,,,,,,,,,,,,,,,,,,,,,0,3,3,11,1,B,X,N,o2_image,stimuli/out2.png,stimuli/out1.png,stimuli/correct_out2.png,,,,,,,,,,,,,,,,,,,,,,,,,,,,,,,,,,,,,,
,,6487929144e5af4f15fde1f8,22,male,2024-04-19_18h37.16.250,stockport_simplified,2022.2.4,Win32,29.41176471,661e456ee6de07e70aa9ef7b,66229da09b1138af584eafc1,,,,,,,,,,,,,,,,,,,,,,,,,,,,,,,,,,95.484,97.485,"[2,1,7,5,8,6,3,4]","[[-0.3,0.2],[0.3,0.2]]","[[0.125,-0.2],[-0.125,-0.2]]",-0.099074046,-0.191203732,1,0,0,1.5,o2_image,97.486,0,97.99,97.99,99.988,0,0,0,0,1,,,,,,,,,,,,,,,,,,,,,,,,,,,,,,,,,,,,,,,,,,,,,,,,,,
,,6487929144e5af4f15fde1f8,22,male,2024-04-19_18h37.16.250,stockport_simplified,2022.2.4,Win32,29.41176471,661e456ee6de07e70aa9ef7b,66229da09b1138af584eafc1,,,,,,,,,,,,,,,,,,,,,,,,,,,,,,,,,,,,,,,,,,,,,,,,,,,,,,,,0,4,4,51,1,N,M,C,o1_image,stimuli/out1.png,stimuli/correct_out1.png,stimuli/out2.png,,,,,,,,,,,,,,,,,,,,,,,,,,,,,,,,,,,,,,
,,6487929144e5af4f15fde1f8,22,male,2024-04-19_18h37.16.250,stockport_simplified,2022.2.4,Win32,29.41176471,661e456ee6de07e70aa9ef7b,66229da09b1138af584eafc1,,,,,,,,,,,,,,,,,,,,,,,,,,,,,,,,,,99.988,101.555,"[2,1,7,5,8,6,3,4]","[[-0.3,0.2],[0.3,0.2]]","[[-0.125,-0.2],[0.125,-0.2]]",-0.101388889,-0.195833333,1,0,0,1.067,o1_image,101.556,0,102.056,102.056,104.056,0,0,0,0,1,,,,,,,,,,,,,,,,,,,,,,,,,,,,,,,,,,,,,,,,,,,,,,,,,,
,,6487929144e5af4f15fde1f8,22,male,2024-04-19_18h37.16.250,stockport_simplified,2022.2.4,Win32,29.41176471,661e456ee6de07e70aa9ef7b,66229da09b1138af584eafc1,,,,,,,,,,,,,,,,,,,,,,,,,,,,,,,,,,,,,,,,,,,,,,,,,,,,,,,,0,5,5,19,1,B,Y,N,o2_image,stimuli/out2.png,stimuli/out1.png,stimuli/correct_out2.png,,,,,,,,,,,,,,,,,,,,,,,,,,,,,,,,,,,,,,
,,6487929144e5af4f15fde1f8,22,male,2024-04-19_18h37.16.250,stockport_simplified,2022.2.4,Win32,29.41176471,661e456ee6de07e70aa9ef7b,66229da09b1138af584eafc1,,,,,,,,,,,,,,,,,,,,,,,,,,,,,,,,,,104.057,105.491,"[2,1,7,5,8,6,3,4]","[[0.3,0.2],[-0.3,0.2]]","[[0.125,-0.2],[-0.125,-0.2]]",0.124074131,-0.203703732,1,0,0,0.934,o1_image,105.492,1,105.991,105.991,107.993,0,0,0,0,1,,,,,,,,,,,,,,,,,,,,,,,,,,,,,,,,,,,,,,,,,,,,,,,,,,
,,6487929144e5af4f15fde1f8,22,male,2024-04-19_18h37.16.250,stockport_simplified,2022.2.4,Win32,29.41176471,661e456ee6de07e70aa9ef7b,66229da09b1138af584eafc1,,,,,,,,,,,,,,,,,,,,,,,,,,,,,,,,,,,,,,,,,,,,,,,,,,,,,,,,0,6,6,24,1,N,M,C,o1_image,stimuli/out1.png,stimuli/correct_out1.png,stimuli/out2.png,,,,,,,,,,,,,,,,,,,,,,,,,,,,,,,,,,,,,,
,,6487929144e5af4f15fde1f8,22,male,2024-04-19_18h37.16.250,stockport_simplified,2022.2.4,Win32,29.41176471,661e456ee6de07e70aa9ef7b,66229da09b1138af584eafc1,,,,,,,,,,,,,,,,,,,,,,,,,,,,,,,,,,107.993,109.727,"[2,1,7,5,8,6,3,4]","[[0.3,0.2],[-0.3,0.2]]","[[0.125,-0.2],[-0.125,-0.2]]",0.087037065,-0.190740755,1,0,0,1.234,o1_image,109.727,0,110.227,110.227,112.229,0,0,0,0,1,,,,,,,,,,,,,,,,,,,,,,,,,,,,,,,,,,,,,,,,,,,,,,,,,,
,,6487929144e5af4f15fde1f8,22,male,2024-04-19_18h37.16.250,stockport_simplified,2022.2.4,Win32,29.41176471,661e456ee6de07e70aa9ef7b,66229da09b1138af584eafc1,,,,,,,,,,,,,,,,,,,,,,,,,,,,,,,,,,,,,,,,,,,,,,,,,,,,,,,,0,7,7,57,1,N,M,D,o2_image,stimuli/out2.png,stimuli/out1.png,stimuli/correct_out2.png,,,,,,,,,,,,,,,,,,,,,,,,,,,,,,,,,,,,,,
,,6487929144e5af4f15fde1f8,22,male,2024-04-19_18h37.16.250,stockport_simplified,2022.2.4,Win32,29.41176471,661e456ee6de07e70aa9ef7b,66229da09b1138af584eafc1,,,,,,,,,,,,,,,,,,,,,,,,,,,,,,,,,,112.229,113.496,"[2,1,7,5,8,6,3,4]","[[0.3,0.2],[-0.3,0.2]]","[[-0.125,-0.2],[0.125,-0.2]]",0.106944444,-0.191203732,1,0,0,0.767,o2_image,113.497,0,113.997,113.997,115.998,0,0,0,0,1,,,,,,,,,,,,,,,,,,,,,,,,,,,,,,,,,,,,,,,,,,,,,,,,,,
,,6487929144e5af4f15fde1f8,22,male,2024-04-19_18h37.16.250,stockport_simplified,2022.2.4,Win32,29.41176471,661e456ee6de07e70aa9ef7b,66229da09b1138af584eafc1,,,,,,,,,,,,,,,,,,,,,,,,,,,,,,,,,,,,,,,,,,,,,,,,,,,,,,,,0,8,8,39,1,A,Y,N,o1_image,stimuli/out1.png,stimuli/correct_out1.png,stimuli/out2.png,,,,,,,,,,,,,,,,,,,,,,,,,,,,,,,,,,,,,,
,,6487929144e5af4f15fde1f8,22,male,2024-04-19_18h37.16.250,stockport_simplified,2022.2.4,Win32,29.41176471,661e456ee6de07e70aa9ef7b,66229da09b1138af584eafc1,,,,,,,,,,,,,,,,,,,,,,,,,,,,,,,,,,115.998,118.1,"[2,1,7,5,8,6,3,4]","[[-0.3,0.2],[0.3,0.2]]","[[0.125,-0.2],[-0.125,-0.2]]",0.097685242,-0.197222222,1,0,0,1.602,o1_image,118.101,1,118.599,118.599,120.6,0,0,0,0,1,,,,,,,,,,,,,,,,,,,,,,,,,,,,,,,,,,,,,,,,,,,,,,,,,,
,,6487929144e5af4f15fde1f8,22,male,2024-04-19_18h37.16.250,stockport_simplified,2022.2.4,Win32,29.41176471,661e456ee6de07e70aa9ef7b,66229da09b1138af584eafc1,,,,,,,,,,,,,,,,,,,,,,,,,,,,,,,,,,,,,,,,,,,,,,,,,,,,,,,,0,9,9,4,1,A,X,N,o1_image,stimuli/out1.png,stimuli/correct_out1.png,stimuli/out2.png,,,,,,,,,,,,,,,,,,,,,,,,,,,,,,,,,,,,,,
,,6487929144e5af4f15fde1f8,22,male,2024-04-19_18h37.16.250,stockport_simplified,2022.2.4,Win32,29.41176471,661e456ee6de07e70aa9ef7b,66229da09b1138af584eafc1,,,,,,,,,,,,,,,,,,,,,,,,,,,,,,,,,,120.601,122.236,"[2,1,7,5,8,6,3,4]","[[0.3,0.2],[-0.3,0.2]]","[[-0.125,-0.2],[0.125,-0.2]]",0.099537065,-0.184722222,1,0,0,1.134,o2_image,122.236,0,122.736,122.736,124.737,0,0,0,0,1,,,,,,,,,,,,,,,,,,,,,,,,,,,,,,,,,,,,,,,,,,,,,,,,,,
,,6487929144e5af4f15fde1f8,22,male,2024-04-19_18h37.16.250,stockport_simplified,2022.2.4,Win32,29.41176471,661e456ee6de07e70aa9ef7b,66229da09b1138af584eafc1,,,,,,,,,,,,,,,,,,,,,,,,,,,,,,,,,,,,,,,,,,,,,,,,,,,,,,,,0,10,10,36,1,A,Y,N,o1_image,stimuli/out1.png,stimuli/correct_out1.png,stimuli/out2.png,,,,,,,,,,,,,,,,,,,,,,,,,,,,,,,,,,,,,,
,,6487929144e5af4f15fde1f8,22,male,2024-04-19_18h37.16.250,stockport_simplified,2022.2.4,Win32,29.41176471,661e456ee6de07e70aa9ef7b,66229da09b1138af584eafc1,,,,,,,,,,,,,,,,,,,,,,,,,,,,,,,,,,124.738,127.105,"[2,1,7,5,8,6,3,4]","[[-0.3,0.2],[0.3,0.2]]","[[0.125,-0.2],[-0.125,-0.2]]",-0.075,-0.192592621,1,0,0,1.834,o2_image,127.105,1,127.605,127.605,129.606,0,0,0,0,1,,,,,,,,,,,,,,,,,,,,,,,,,,,,,,,,,,,,,,,,,,,,,,,,,,
,,6487929144e5af4f15fde1f8,22,male,2024-04-19_18h37.16.250,stockport_simplified,2022.2.4,Win32,29.41176471,661e456ee6de07e70aa9ef7b,66229da09b1138af584eafc1,,,,,,,,,,,,,,,,,,,,,,,,,,,,,,,,,,,,,,,,,,,,,,,,,,,,,,,,0,11,11,12,1,B,X,N,o2_image,stimuli/out2.png,stimuli/out1.png,stimuli/correct_out2.png,,,,,,,,,,,,,,,,,,,,,,,,,,,,,,,,,,,,,,
,,6487929144e5af4f15fde1f8,22,male,2024-04-19_18h37.16.250,stockport_simplified,2022.2.4,Win32,29.41176471,661e456ee6de07e70aa9ef7b,66229da09b1138af584eafc1,,,,,,,,,,,,,,,,,,,,,,,,,,,,,,,,,,129.607,131.541,"[2,1,7,5,8,6,3,4]","[[0.3,0.2],[-0.3,0.2]]","[[0.125,-0.2],[-0.125,-0.2]]",0.142592621,-0.153703732,1,0,0,1.433,o1_image,131.541,0,132.042,132.042,134.043,0,0,0,0,1,,,,,,,,,,,,,,,,,,,,,,,,,,,,,,,,,,,,,,,,,,,,,,,,,,
,,6487929144e5af4f15fde1f8,22,male,2024-04-19_18h37.16.250,stockport_simplified,2022.2.4,Win32,29.41176471,661e456ee6de07e70aa9ef7b,66229da09b1138af584eafc1,,,,,,,,,,,,,,,,,,,,,,,,,,,,,,,,,,,,,,,,,,,,,,,,,,,,,,,,0,12,12,17,1,B,Y,N,o2_image,stimuli/out2.png,stimuli/out1.png,stimuli/correct_out2.png,,,,,,,,,,,,,,,,,,,,,,,,,,,,,,,,,,,,,,
,,6487929144e5af4f15fde1f8,22,male,2024-04-19_18h37.16.250,stockport_simplified,2022.2.4,Win32,29.41176471,661e456ee6de07e70aa9ef7b,66229da09b1138af584eafc1,,,,,,,,,,,,,,,,,,,,,,,,,,,,,,,,,,134.043,135.377,"[2,1,7,5,8,6,3,4]","[[0.3,0.2],[-0.3,0.2]]","[[0.125,-0.2],[-0.125,-0.2]]",0.079166667,-0.165740755,1,0,0,0.834,o1_image,135.377,0,135.877,135.877,137.879,0,0,0,0,1,,,,,,,,,,,,,,,,,,,,,,,,,,,,,,,,,,,,,,,,,,,,,,,,,,
,,6487929144e5af4f15fde1f8,22,male,2024-04-19_18h37.16.250,stockport_simplified,2022.2.4,Win32,29.41176471,661e456ee6de07e70aa9ef7b,66229da09b1138af584eafc1,,,,,,,,,,,,,,,,,,,,,,,,,,,,,,,,,,,,,,,,,,,,,,,,,,,,,,,,0,13,13,41,1,B,X,N,o2_image,stimuli/out2.png,stimuli/out1.png,stimuli/correct_out2.png,,,,,,,,,,,,,,,,,,,,,,,,,,,,,,,,,,,,,,
,,6487929144e5af4f15fde1f8,22,male,2024-04-19_18h37.16.250,stockport_simplified,2022.2.4,Win32,29.41176471,661e456ee6de07e70aa9ef7b,66229da09b1138af584eafc1,,,,,,,,,,,,,,,,,,,,,,,,,,,,,,,,,,137.879,138.879,"[2,1,7,5,8,6,3,4]","[[0.3,0.2],[-0.3,0.2]]","[[0.125,-0.2],[-0.125,-0.2]]",-0.076388889,-0.179629644,1,0,0,0.5,o2_image,138.88,1,139.38,139.38,141.381,0,0,0,0,1,,,,,,,,,,,,,,,,,,,,,,,,,,,,,,,,,,,,,,,,,,,,,,,,,,
,,6487929144e5af4f15fde1f8,22,male,2024-04-19_18h37.16.250,stockport_simplified,2022.2.4,Win32,29.41176471,661e456ee6de07e70aa9ef7b,66229da09b1138af584eafc1,,,,,,,,,,,,,,,,,,,,,,,,,,,,,,,,,,,,,,,,,,,,,,,,,,,,,,,,0,14,14,18,1,B,Y,N,o2_image,stimuli/out2.png,stimuli/out1.png,stimuli/correct_out2.png,,,,,,,,,,,,,,,,,,,,,,,,,,,,,,,,,,,,,,
,,6487929144e5af4f15fde1f8,22,male,2024-04-19_18h37.16.250,stockport_simplified,2022.2.4,Win32,29.41176471,661e456ee6de07e70aa9ef7b,66229da09b1138af584eafc1,,,,,,,,,,,,,,,,,,,,,,,,,,,,,,,,,,141.381,142.915,"[2,1,7,5,8,6,3,4]","[[-0.3,0.2],[0.3,0.2]]","[[-0.125,-0.2],[0.125,-0.2]]",0.100463019,-0.187962977,1,0,0,1.034,o2_image,142.916,1,143.415,143.415,145.416,0,0,0,0,1,,,,,,,,,,,,,,,,,,,,,,,,,,,,,,,,,,,,,,,,,,,,,,,,,,
,,6487929144e5af4f15fde1f8,22,male,2024-04-19_18h37.16.250,stockport_simplified,2022.2.4,Win32,29.41176471,661e456ee6de07e70aa9ef7b,66229da09b1138af584eafc1,,,,,,,,,,,,,,,,,,,,,,,,,,,,,,,,,,,,,,,,,,,,,,,,,,,,,,,,0,15,15,43,1,B,X,N,o2_image,stimuli/out2.png,stimuli/out1.png,stimuli/correct_out2.png,,,,,,,,,,,,,,,,,,,,,,,,,,,,,,,,,,,,,,
,,6487929144e5af4f15fde1f8,22,male,2024-04-19_18h37.16.250,stockport_simplified,2022.2.4,Win32,29.41176471,661e456ee6de07e70aa9ef7b,66229da09b1138af584eafc1,,,,,,,,,,,,,,,,,,,,,,,,,,,,,,,,,,145.417,147.718,"[2,1,7,5,8,6,3,4]","[[-0.3,0.2],[0.3,0.2]]","[[0.125,-0.2],[-0.125,-0.2]]",-0.133796268,-0.201851866,1,0,0,1.8,o2_image,147.719,1,148.218,148.218,150.219,0,0,0,0,1,,,,,,,,,,,,,,,,,,,,,,,,,,,,,,,,,,,,,,,,,,,,,,,,,,
,,6487929144e5af4f15fde1f8,22,male,2024-04-19_18h37.16.250,stockport_simplified,2022.2.4,Win32,29.41176471,661e456ee6de07e70aa9ef7b,66229da09b1138af584eafc1,,,,,,,,,,,,,,,,,,,,,,,,,,,,,,,,,,,,,,,,,,,,,,,,,,,,,,,,0,16,16,58,1,N,M,D,o2_image,stimuli/out2.png,stimuli/out1.png,stimuli/correct_out2.png,,,,,,,,,,,,,,,,,,,,,,,,,,,,,,,,,,,,,,
,,6487929144e5af4f15fde1f8,22,male,2024-04-19_18h37.16.250,stockport_simplified,2022.2.4,Win32,29.41176471,661e456ee6de07e70aa9ef7b,66229da09b1138af584eafc1,,,,,,,,,,,,,,,,,,,,,,,,,,,,,,,,,,150.22,152.154,"[2,1,7,5,8,6,3,4]","[[-0.3,0.2],[0.3,0.2]]","[[0.125,-0.2],[-0.125,-0.2]]",-0.097222222,-0.191666667,1,0,0,1.434,o2_image,152.155,1,152.654,152.655,154.656,0,0,0,0,1,,,,,,,,,,,,,,,,,,,,,,,,,,,,,,,,,,,,,,,,,,,,,,,,,,
,,6487929144e5af4f15fde1f8,22,male,2024-04-19_18h37.16.250,stockport_simplified,2022.2.4,Win32,29.41176471,661e456ee6de07e70aa9ef7b,66229da09b1138af584eafc1,,,,,,,,,,,,,,,,,,,,,,,,,,,,,,,,,,,,,,,,,,,,,,,,,,,,,,,,0,17,17,27,1,N,M,D,o2_image,stimuli/out2.png,stimuli/out1.png,stimuli/correct_out2.png,,,,,,,,,,,,,,,,,,,,,,,,,,,,,,,,,,,,,,
,,6487929144e5af4f15fde1f8,22,male,2024-04-19_18h37.16.250,stockport_simplified,2022.2.4,Win32,29.41176471,661e456ee6de07e70aa9ef7b,66229da09b1138af584eafc1,,,,,,,,,,,,,,,,,,,,,,,,,,,,,,,,,,154.656,157.591,"[2,1,7,5,8,6,3,4]","[[-0.3,0.2],[0.3,0.2]]","[[-0.125,-0.2],[0.125,-0.2]]",-0.055092536,-0.189351866,1,0,0,2.434,o1_image,157.591,1,158.091,158.091,160.098,0,0,0,0,1,,,,,,,,,,,,,,,,,,,,,,,,,,,,,,,,,,,,,,,,,,,,,,,,,,
,,6487929144e5af4f15fde1f8,22,male,2024-04-19_18h37.16.250,stockport_simplified,2022.2.4,Win32,29.41176471,661e456ee6de07e70aa9ef7b,66229da09b1138af584eafc1,,,,,,,,,,,,,,,,,,,,,,,,,,,,,,,,,,,,,,,,,,,,,,,,,,,,,,,,0,18,18,33,1,A,X,N,o1_image,stimuli/out1.png,stimuli/correct_out1.png,stimuli/out2.png,,,,,,,,,,,,,,,,,,,,,,,,,,,,,,,,,,,,,,
,,6487929144e5af4f15fde1f8,22,male,2024-04-19_18h37.16.250,stockport_simplified,2022.2.4,Win32,29.41176471,661e456ee6de07e70aa9ef7b,66229da09b1138af584eafc1,,,,,,,,,,,,,,,,,,,,,,,,,,,,,,,,,,160.099,162.928,"[2,1,7,5,8,6,3,4]","[[0.3,0.2],[-0.3,0.2]]","[[0.125,-0.2],[-0.125,-0.2]]",0.121296353,-0.185185199,1,0,0,2.3,o1_image,162.934,0,163.428,163.428,165.43,0,0,0,0,1,,,,,,,,,,,,,,,,,,,,,,,,,,,,,,,,,,,,,,,,,,,,,,,,,,
,,6487929144e5af4f15fde1f8,22,male,2024-04-19_18h37.16.250,stockport_simplified,2022.2.4,Win32,29.41176471,661e456ee6de07e70aa9ef7b,66229da09b1138af584eafc1,,,,,,,,,,,,,,,,,,,,,,,,,,,,,,,,,,,,,,,,,,,,,,,,,,,,,,,,0,19,19,25,1,N,M,D,o2_image,stimuli/out2.png,stimuli/out1.png,stimuli/correct_out2.png,,,,,,,,,,,,,,,,,,,,,,,,,,,,,,,,,,,,,,
,,6487929144e5af4f15fde1f8,22,male,2024-04-19_18h37.16.250,stockport_simplified,2022.2.4,Win32,29.41176471,661e456ee6de07e70aa9ef7b,66229da09b1138af584eafc1,,,,,,,,,,,,,,,,,,,,,,,,,,,,,,,,,,165.431,167.531,"[2,1,7,5,8,6,3,4]","[[0.3,0.2],[-0.3,0.2]]","[[-0.125,-0.2],[0.125,-0.2]]",-0.110185157,-0.175,1,0,0,1.567,o1_image,167.532,0,168.031,168.031,170.032,0,0,0,0,1,,,,,,,,,,,,,,,,,,,,,,,,,,,,,,,,,,,,,,,,,,,,,,,,,,
,,6487929144e5af4f15fde1f8,22,male,2024-04-19_18h37.16.250,stockport_simplified,2022.2.4,Win32,29.41176471,661e456ee6de07e70aa9ef7b,66229da09b1138af584eafc1,,,,,,,,,,,,,,,,,,,,,,,,,,,,,,,,,,,,,,,,,,,,,,,,,,,,,,,,0,20,20,13,1,B,X,N,o2_image,stimuli/out2.png,stimuli/out1.png,stimuli/correct_out2.png,,,,,,,,,,,,,,,,,,,,,,,,,,,,,,,,,,,,,,
,,6487929144e5af4f15fde1f8,22,male,2024-04-19_18h37.16.250,stockport_simplified,2022.2.4,Win32,29.41176471,661e456ee6de07e70aa9ef7b,66229da09b1138af584eafc1,,,,,,,,,,,,,,,,,,,,,,,,,,,,,,,,,,170.032,171.6,"[2,1,7,5,8,6,3,4]","[[-0.3,0.2],[0.3,0.2]]","[[0.125,-0.2],[-0.125,-0.2]]",0.134722222,-0.203240755,1,0,0,1.067,o1_image,171.601,1,172.1,172.1,174.102,0,0,0,0,1,,,,,,,,,,,,,,,,,,,,,,,,,,,,,,,,,,,,,,,,,,,,,,,,,,
,,6487929144e5af4f15fde1f8,22,male,2024-04-19_18h37.16.250,stockport_simplified,2022.2.4,Win32,29.41176471,661e456ee6de07e70aa9ef7b,66229da09b1138af584eafc1,,,,,,,,,,,,,,,,,,,,,,,,,,,,,,,,,,,,,,,,,,,,,,,,,,,,,,,,0,21,21,2,1,A,X,N,o1_image,stimuli/out1.png,stimuli/correct_out1.png,stimuli/out2.png,,,,,,,,,,,,,,,,,,,,,,,,,,,,,,,,,,,,,,
,,6487929144e5af4f15fde1f8,22,male,2024-04-19_18h37.16.250,stockport_simplified,2022.2.4,Win32,29.41176471,661e456ee6de07e70aa9ef7b,66229da09b1138af584eafc1,,,,,,,,,,,,,,,,,,,,,,,,,,,,,,,,,,174.102,175.236,"[2,1,7,5,8,6,3,4]","[[0.3,0.2],[-0.3,0.2]]","[[0.125,-0.2],[-0.125,-0.2]]",0.130092621,-0.205555556,1,0,0,0.634,o1_image,175.237,1,175.736,175.736,177.737,0,0,0,0,1,,,,,,,,,,,,,,,,,,,,,,,,,,,,,,,,,,,,,,,,,,,,,,,,,,
,,6487929144e5af4f15fde1f8,22,male,2024-04-19_18h37.16.250,stockport_simplified,2022.2.4,Win32,29.41176471,661e456ee6de07e70aa9ef7b,66229da09b1138af584eafc1,,,,,,,,,,,,,,,,,,,,,,,,,,,,,,,,,,,,,,,,,,,,,,,,,,,,,,,,0,22,22,30,1,A,X,N,o1_image,stimuli/out1.png,stimuli/correct_out1.png,stimuli/out2.png,,,,,,,,,,,,,,,,,,,,,,,,,,,,,,,,,,,,,,
,,6487929144e5af4f15fde1f8,22,male,2024-04-19_18h37.16.250,stockport_simplified,2022.2.4,Win32,29.41176471,661e456ee6de07e70aa9ef7b,66229da09b1138af584eafc1,,,,,,,,,,,,,,,,,,,,,,,,,,,,,,,,,,177.738,179.038,"[2,1,7,5,8,6,3,4]","[[0.3,0.2],[-0.3,0.2]]","[[0.125,-0.2],[-0.125,-0.2]]",0.125925954,-0.215740797,1,0,0,0.766,o1_image,179.038,0,179.539,179.539,181.541,0,0,0,0,1,,,,,,,,,,,,,,,,,,,,,,,,,,,,,,,,,,,,,,,,,,,,,,,,,,
,,6487929144e5af4f15fde1f8,22,male,2024-04-19_18h37.16.250,stockport_simplified,2022.2.4,Win32,29.41176471,661e456ee6de07e70aa9ef7b,66229da09b1138af584eafc1,,,,,,,,,,,,,,,,,,,,,,,,,,,,,,,,,,,,,,,,,,,,,,,,,,,,,,,,0,23,23,29,1,N,M,D,o2_image,stimuli/out2.png,stimuli/out1.png,stimuli/correct_out2.png,,,,,,,,,,,,,,,,,,,,,,,,,,,,,,,,,,,,,,
,,6487929144e5af4f15fde1f8,22,male,2024-04-19_18h37.16.250,stockport_simplified,2022.2.4,Win32,29.41176471,661e456ee6de07e70aa9ef7b,66229da09b1138af584eafc1,,,,,,,,,,,,,,,,,,,,,,,,,,,,,,,,,,181.541,183.375,"[2,1,7,5,8,6,3,4]","[[0.3,0.2],[-0.3,0.2]]","[[0.125,-0.2],[-0.125,-0.2]]",-0.152314758,-0.182407422,1,0,0,1.301,o2_image,183.375,0,183.875,183.875,185.876,0,0,0,0,1,,,,,,,,,,,,,,,,,,,,,,,,,,,,,,,,,,,,,,,,,,,,,,,,,,
,,6487929144e5af4f15fde1f8,22,male,2024-04-19_18h37.16.250,stockport_simplified,2022.2.4,Win32,29.41176471,661e456ee6de07e70aa9ef7b,66229da09b1138af584eafc1,,,,,,,,,,,,,,,,,,,,,,,,,,,,,,,,,,,,,,,,,,,,,,,,,,,,,,,,0,24,24,22,1,N,M,C,o1_image,stimuli/out1.png,stimuli/correct_out1.png,stimuli/out2.png,,,,,,,,,,,,,,,,,,,,,,,,,,,,,,,,,,,,,,
,,6487929144e5af4f15fde1f8,22,male,2024-04-19_18h37.16.250,stockport_simplified,2022.2.4,Win32,29.41176471,661e456ee6de07e70aa9ef7b,66229da09b1138af584eafc1,,,,,,,,,,,,,,,,,,,,,,,,,,,,,,,,,,185.876,187.276,"[2,1,7,5,8,6,3,4]","[[-0.3,0.2],[0.3,0.2]]","[[-0.125,-0.2],[0.125,-0.2]]",0.099537065,-0.185648176,1,0,0,0.9,o2_image,187.277,0,187.777,187.777,189.778,0,0,0,0,1,,,,,,,,,,,,,,,,,,,,,,,,,,,,,,,,,,,,,,,,,,,,,,,,,,
,,6487929144e5af4f15fde1f8,22,male,2024-04-19_18h37.16.250,stockport_simplified,2022.2.4,Win32,29.41176471,661e456ee6de07e70aa9ef7b,66229da09b1138af584eafc1,,,,,,,,,,,,,,,,,,,,,,,,,,,,,,,,,,,,,,,,,,,,,,,,,,,,,,,,0,25,25,38,1,A,Y,N,o1_image,stimuli/out1.png,stimuli/correct_out1.png,stimuli/out2.png,,,,,,,,,,,,,,,,,,,,,,,,,,,,,,,,,,,,,,
,,6487929144e5af4f15fde1f8,22,male,2024-04-19_18h37.16.250,stockport_simplified,2022.2.4,Win32,29.41176471,661e456ee6de07e70aa9ef7b,66229da09b1138af584eafc1,,,,,,,,,,,,,,,,,,,,,,,,,,,,,,,,,,189.779,190.845,"[2,1,7,5,8,6,3,4]","[[0.3,0.2],[-0.3,0.2]]","[[-0.125,-0.2],[0.125,-0.2]]",-0.127314758,-0.177314843,1,0,0,0.532,o1_image,190.846,1,191.346,191.346,193.347,0,0,0,0,1,,,,,,,,,,,,,,,,,,,,,,,,,,,,,,,,,,,,,,,,,,,,,,,,,,
,,6487929144e5af4f15fde1f8,22,male,2024-04-19_18h37.16.250,stockport_simplified,2022.2.4,Win32,29.41176471,661e456ee6de07e70aa9ef7b,66229da09b1138af584eafc1,,,,,,,,,,,,,,,,,,,,,,,,,,,,,,,,,,,,,,,,,,,,,,,,,,,,,,,,0,26,26,37,1,A,Y,N,o1_image,stimuli/out1.png,stimuli/correct_out1.png,stimuli/out2.png,,,,,,,,,,,,,,,,,,,,,,,,,,,,,,,,,,,,,,
,,6487929144e5af4f15fde1f8,22,male,2024-04-19_18h37.16.250,stockport_simplified,2022.2.4,Win32,29.41176471,661e456ee6de07e70aa9ef7b,66229da09b1138af584eafc1,,,,,,,,,,,,,,,,,,,,,,,,,,,,,,,,,,193.347,194.615,"[2,1,7,5,8,6,3,4]","[[-0.3,0.2],[0.3,0.2]]","[[0.125,-0.2],[-0.125,-0.2]]",0.091666667,-0.189351866,1,0,0,0.767,o1_image,194.615,1,195.115,195.115,197.116,0,0,0,0,1,,,,,,,,,,,,,,,,,,,,,,,,,,,,,,,,,,,,,,,,,,,,,,,,,,
,,6487929144e5af4f15fde1f8,22,male,2024-04-19_18h37.16.250,stockport_simplified,2022.2.4,Win32,29.41176471,661e456ee6de07e70aa9ef7b,66229da09b1138af584eafc1,,,,,,,,,,,,,,,,,,,,,,,,,,,,,,,,,,,,,,,,,,,,,,,,,,,,,,,,0,27,27,1,1,A,X,N,o1_image,stimuli/out1.png,stimuli/correct_out1.png,stimuli/out2.png,,,,,,,,,,,,,,,,,,,,,,,,,,,,,,,,,,,,,,
,,6487929144e5af4f15fde1f8,22,male,2024-04-19_18h37.16.250,stockport_simplified,2022.2.4,Win32,29.41176471,661e456ee6de07e70aa9ef7b,66229da09b1138af584eafc1,,,,,,,,,,,,,,,,,,,,,,,,,,,,,,,,,,197.117,198.284,"[2,1,7,5,8,6,3,4]","[[0.3,0.2],[-0.3,0.2]]","[[0.125,-0.2],[-0.125,-0.2]]",0.096759288,-0.1875,1,0,0,0.634,o1_image,198.285,0,198.784,198.784,200.785,0,0,0,0,1,,,,,,,,,,,,,,,,,,,,,,,,,,,,,,,,,,,,,,,,,,,,,,,,,,
,,6487929144e5af4f15fde1f8,22,male,2024-04-19_18h37.16.250,stockport_simplified,2022.2.4,Win32,29.41176471,661e456ee6de07e70aa9ef7b,66229da09b1138af584eafc1,,,,,,,,,,,,,,,,,,,,,,,,,,,,,,,,,,,,,,,,,,,,,,,,,,,,,,,,0,28,28,45,1,B,Y,N,o2_image,stimuli/out2.png,stimuli/out1.png,stimuli/correct_out2.png,,,,,,,,,,,,,,,,,,,,,,,,,,,,,,,,,,,,,,
,,6487929144e5af4f15fde1f8,22,male,2024-04-19_18h37.16.250,stockport_simplified,2022.2.4,Win32,29.41176471,661e456ee6de07e70aa9ef7b,66229da09b1138af584eafc1,,,,,,,,,,,,,,,,,,,,,,,,,,,,,,,,,,200.785,201.786,"[2,1,7,5,8,6,3,4]","[[0.3,0.2],[-0.3,0.2]]","[[-0.125,-0.2],[0.125,-0.2]]",0.075925954,-0.218518575,1,0,0,0.5,o2_image,201.786,0,202.287,202.287,204.288,0,0,0,0,1,,,,,,,,,,,,,,,,,,,,,,,,,,,,,,,,,,,,,,,,,,,,,,,,,,
,,6487929144e5af4f15fde1f8,22,male,2024-04-19_18h37.16.250,stockport_simplified,2022.2.4,Win32,29.41176471,661e456ee6de07e70aa9ef7b,66229da09b1138af584eafc1,,,,,,,,,,,,,,,,,,,,,,,,,,,,,,,,,,,,,,,,,,,,,,,,,,,,,,,,0,29,29,32,1,A,X,N,o1_image,stimuli/out1.png,stimuli/correct_out1.png,stimuli/out2.png,,,,,,,,,,,,,,,,,,,,,,,,,,,,,,,,,,,,,,
,,6487929144e5af4f15fde1f8,22,male,2024-04-19_18h37.16.250,stockport_simplified,2022.2.4,Win32,29.41176471,661e456ee6de07e70aa9ef7b,66229da09b1138af584eafc1,,,,,,,,,,,,,,,,,,,,,,,,,,,,,,,,,,204.289,205.355,"[2,1,7,5,8,6,3,4]","[[0.3,0.2],[-0.3,0.2]]","[[0.125,-0.2],[-0.125,-0.2]]",0.084259288,-0.196759288,1,0,0,0.533,o1_image,205.355,1,205.856,205.856,207.857,0,0,0,0,1,,,,,,,,,,,,,,,,,,,,,,,,,,,,,,,,,,,,,,,,,,,,,,,,,,
,,6487929144e5af4f15fde1f8,22,male,2024-04-19_18h37.16.250,stockport_simplified,2022.2.4,Win32,29.41176471,661e456ee6de07e70aa9ef7b,66229da09b1138af584eafc1,,,,,,,,,,,,,,,,,,,,,,,,,,,,,,,,,,,,,,,,,,,,,,,,,,,,,,,,0,30,30,54,1,N,M,C,o1_image,stimuli/out1.png,stimuli/correct_out1.png,stimuli/out2.png,,,,,,,,,,,,,,,,,,,,,,,,,,,,,,,,,,,,,,
,,6487929144e5af4f15fde1f8,22,male,2024-04-19_18h37.16.250,stockport_simplified,2022.2.4,Win32,29.41176471,661e456ee6de07e70aa9ef7b,66229da09b1138af584eafc1,,,,,,,,,,,,,,,,,,,,,,,,,,,,,,,,,,207.857,208.991,"[2,1,7,5,8,6,3,4]","[[-0.3,0.2],[0.3,0.2]]","[[0.125,-0.2],[-0.125,-0.2]]",0.093055556,-0.194907422,1,0,0,0.634,o1_image,208.991,1,209.491,209.491,211.492,0,0,0,0,1,,,,,,,,,,,,,,,,,,,,,,,,,,,,,,,,,,,,,,,,,,,,,,,,,,
,,6487929144e5af4f15fde1f8,22,male,2024-04-19_18h37.16.250,stockport_simplified,2022.2.4,Win32,29.41176471,661e456ee6de07e70aa9ef7b,66229da09b1138af584eafc1,,,,,,,,,,,,,,,,,,,,,,,,,,,,,,,,,,,,,,,,,,,,,,,,,,,,,,,,0,31,31,21,1,N,M,C,o1_image,stimuli/out1.png,stimuli/correct_out1.png,stimuli/out2.png,,,,,,,,,,,,,,,,,,,,,,,,,,,,,,,,,,,,,,
,,6487929144e5af4f15fde1f8,22,male,2024-04-19_18h37.16.250,stockport_simplified,2022.2.4,Win32,29.41176471,661e456ee6de07e70aa9ef7b,66229da09b1138af584eafc1,,,,,,,,,,,,,,,,,,,,,,,,,,,,,,,,,,211.492,213.594,"[2,1,7,5,8,6,3,4]","[[0.3,0.2],[-0.3,0.2]]","[[-0.125,-0.2],[0.125,-0.2]]",-0.108796268,-0.177777778,1,0,0,1.602,o1_image,213.594,1,214.094,214.094,216.096,0,0,0,0,1,,,,,,,,,,,,,,,,,,,,,,,,,,,,,,,,,,,,,,,,,,,,,,,,,,
,,6487929144e5af4f15fde1f8,22,male,2024-04-19_18h37.16.250,stockport_simplified,2022.2.4,Win32,29.41176471,661e456ee6de07e70aa9ef7b,66229da09b1138af584eafc1,,,,,,,,,,,,,,,,,,,,,,,,,,,,,,,,,,,,,,,,,,,,,,,,,,,,,,,,0,32,32,5,1,A,Y,N,o1_image,stimuli/out1.png,stimuli/correct_out1.png,stimuli/out2.png,,,,,,,,,,,,,,,,,,,,,,,,,,,,,,,,,,,,,,
,,6487929144e5af4f15fde1f8,22,male,2024-04-19_18h37.16.250,stockport_simplified,2022.2.4,Win32,29.41176471,661e456ee6de07e70aa9ef7b,66229da09b1138af584eafc1,,,,,,,,,,,,,,,,,,,,,,,,,,,,,,,,,,216.096,217.896,"[2,1,7,5,8,6,3,4]","[[-0.3,0.2],[0.3,0.2]]","[[-0.125,-0.2],[0.125,-0.2]]",-0.103240712,-0.165740755,1,0,0,1.267,o1_image,217.897,0,218.397,218.397,220.398,0,0,0,0,1,,,,,,,,,,,,,,,,,,,,,,,,,,,,,,,,,,,,,,,,,,,,,,,,,,
,,6487929144e5af4f15fde1f8,22,male,2024-04-19_18h37.16.250,stockport_simplified,2022.2.4,Win32,29.41176471,661e456ee6de07e70aa9ef7b,66229da09b1138af584eafc1,,,,,,,,,,,,,,,,,,,,,,,,,,,,,,,,,,,,,,,,,,,,,,,,,,,,,,,,0,33,33,46,1,B,Y,N,o2_image,stimuli/out2.png,stimuli/out1.png,stimuli/correct_out2.png,,,,,,,,,,,,,,,,,,,,,,,,,,,,,,,,,,,,,,
,,6487929144e5af4f15fde1f8,22,male,2024-04-19_18h37.16.250,stockport_simplified,2022.2.4,Win32,29.41176471,661e456ee6de07e70aa9ef7b,66229da09b1138af584eafc1,,,,,,,,,,,,,,,,,,,,,,,,,,,,,,,,,,220.399,221.732,"[2,1,7,5,8,6,3,4]","[[0.3,0.2],[-0.3,0.2]]","[[-0.125,-0.2],[0.125,-0.2]]",0.1625,-0.177314843,1,0,0,0.8,o2_image,221.732,0,222.232,222.232,224.234,0,0,0,0,1,,,,,,,,,,,,,,,,,,,,,,,,,,,,,,,,,,,,,,,,,,,,,,,,,,
,,6487929144e5af4f15fde1f8,22,male,2024-04-19_18h37.16.250,stockport_simplified,2022.2.4,Win32,29.41176471,661e456ee6de07e70aa9ef7b,66229da09b1138af584eafc1,,,,,,,,,,,,,,,,,,,,,,,,,,,,,,,,,,,,,,,,,,,,,,,,,,,,,,,,0,34,34,53,1,N,M,C,o1_image,stimuli/out1.png,stimuli/correct_out1.png,stimuli/out2.png,,,,,,,,,,,,,,,,,,,,,,,,,,,,,,,,,,,,,,
,,6487929144e5af4f15fde1f8,22,male,2024-04-19_18h37.16.250,stockport_simplified,2022.2.4,Win32,29.41176471,661e456ee6de07e70aa9ef7b,66229da09b1138af584eafc1,,,,,,,,,,,,,,,,,,,,,,,,,,,,,,,,,,224.234,226.235,"[2,1,7,5,8,6,3,4]","[[0.3,0.2],[-0.3,0.2]]","[[0.125,-0.2],[-0.125,-0.2]]",0.140740797,-0.156944444,1,0,0,1.501,o1_image,226.235,1,226.735,226.735,228.737,0,0,0,0,1,,,,,,,,,,,,,,,,,,,,,,,,,,,,,,,,,,,,,,,,,,,,,,,,,,
,,6487929144e5af4f15fde1f8,22,male,2024-04-19_18h37.16.250,stockport_simplified,2022.2.4,Win32,29.41176471,661e456ee6de07e70aa9ef7b,66229da09b1138af584eafc1,,,,,,,,,,,,,,,,,,,,,,,,,,,,,,,,,,,,,,,,,,,,,,,,,,,,,,,,0,35,35,6,1,A,Y,N,o1_image,stimuli/out1.png,stimuli/correct_out1.png,stimuli/out2.png,,,,,,,,,,,,,,,,,,,,,,,,,,,,,,,,,,,,,,
,,6487929144e5af4f15fde1f8,22,male,2024-04-19_18h37.16.250,stockport_simplified,2022.2.4,Win32,29.41176471,661e456ee6de07e70aa9ef7b,66229da09b1138af584eafc1,,,,,,,,,,,,,,,,,,,,,,,,,,,,,,,,,,228.737,230.238,"[2,1,7,5,8,6,3,4]","[[0.3,0.2],[-0.3,0.2]]","[[-0.125,-0.2],[0.125,-0.2]]",-0.101851824,-0.168055556,1,0,0,1.001,o1_image,230.239,0,230.738,230.738,232.74,0,0,0,0,1,,,,,,,,,,,,,,,,,,,,,,,,,,,,,,,,,,,,,,,,,,,,,,,,,,
,,6487929144e5af4f15fde1f8,22,male,2024-04-19_18h37.16.250,stockport_simplified,2022.2.4,Win32,29.41176471,661e456ee6de07e70aa9ef7b,66229da09b1138af584eafc1,,,,,,,,,,,,,,,,,,,,,,,,,,,,,,,,,,,,,,,,,,,,,,,,,,,,,,,,0,36,36,47,1,B,Y,N,o2_image,stimuli/out2.png,stimuli/out1.png,stimuli/correct_out2.png,,,,,,,,,,,,,,,,,,,,,,,,,,,,,,,,,,,,,,
,,6487929144e5af4f15fde1f8,22,male,2024-04-19_18h37.16.250,stockport_simplified,2022.2.4,Win32,29.41176471,661e456ee6de07e70aa9ef7b,66229da09b1138af584eafc1,,,,,,,,,,,,,,,,,,,,,,,,,,,,,,,,,,232.74,234.941,"[2,1,7,5,8,6,3,4]","[[0.3,0.2],[-0.3,0.2]]","[[-0.125,-0.2],[0.125,-0.2]]",0.115277778,-0.177314843,1,0,0,1.668,o2_image,234.941,0,235.441,235.441,237.442,0,0,0,0,1,,,,,,,,,,,,,,,,,,,,,,,,,,,,,,,,,,,,,,,,,,,,,,,,,,
,,6487929144e5af4f15fde1f8,22,male,2024-04-19_18h37.16.250,stockport_simplified,2022.2.4,Win32,29.41176471,661e456ee6de07e70aa9ef7b,66229da09b1138af584eafc1,,,,,,,,,,,,,,,,,,,,,,,,,,,,,,,,,,,,,,,,,,,,,,,,,,,,,,,,0,37,37,35,1,A,Y,N,o1_image,stimuli/out1.png,stimuli/correct_out1.png,stimuli/out2.png,,,,,,,,,,,,,,,,,,,,,,,,,,,,,,,,,,,,,,
,,6487929144e5af4f15fde1f8,22,male,2024-04-19_18h37.16.250,stockport_simplified,2022.2.4,Win32,29.41176471,661e456ee6de07e70aa9ef7b,66229da09b1138af584eafc1,,,,,,,,,,,,,,,,,,,,,,,,,,,,,,,,,,237.442,238.576,"[2,1,7,5,8,6,3,4]","[[-0.3,0.2],[0.3,0.2]]","[[-0.125,-0.2],[0.125,-0.2]]",-0.10601849,-0.160185199,1,0,0,0.633,o1_image,238.576,1,239.077,239.077,241.077,0,0,0,0,1,,,,,,,,,,,,,,,,,,,,,,,,,,,,,,,,,,,,,,,,,,,,,,,,,,
,,6487929144e5af4f15fde1f8,22,male,2024-04-19_18h37.16.250,stockport_simplified,2022.2.4,Win32,29.41176471,661e456ee6de07e70aa9ef7b,66229da09b1138af584eafc1,,,,,,,,,,,,,,,,,,,,,,,,,,,,,,,,,,,,,,,,,,,,,,,,,,,,,,,,0,38,38,31,1,A,X,N,o1_image,stimuli/out1.png,stimuli/correct_out1.png,stimuli/out2.png,,,,,,,,,,,,,,,,,,,,,,,,,,,,,,,,,,,,,,
,,6487929144e5af4f15fde1f8,22,male,2024-04-19_18h37.16.250,stockport_simplified,2022.2.4,Win32,29.41176471,661e456ee6de07e70aa9ef7b,66229da09b1138af584eafc1,,,,,,,,,,,,,,,,,,,,,,,,,,,,,,,,,,241.078,242.412,"[2,1,7,5,8,6,3,4]","[[-0.3,0.2],[0.3,0.2]]","[[-0.125,-0.2],[0.125,-0.2]]",-0.112962935,-0.165740755,1,0,0,0.833,o1_image,242.412,0,242.913,242.913,244.913,0,0,0,0,1,,,,,,,,,,,,,,,,,,,,,,,,,,,,,,,,,,,,,,,,,,,,,,,,,,
,,6487929144e5af4f15fde1f8,22,male,2024-04-19_18h37.16.250,stockport_simplified,2022.2.4,Win32,29.41176471,661e456ee6de07e70aa9ef7b,66229da09b1138af584eafc1,,,,,,,,,,,,,,,,,,,,,,,,,,,,,,,,,,,,,,,,,,,,,,,,,,,,,,,,0,39,39,55,1,N,M,D,o2_image,stimuli/out2.png,stimuli/out1.png,stimuli/correct_out2.png,,,,,,,,,,,,,,,,,,,,,,,,,,,,,,,,,,,,,,
,,6487929144e5af4f15fde1f8,22,male,2024-04-19_18h37.16.250,stockport_simplified,2022.2.4,Win32,29.41176471,661e456ee6de07e70aa9ef7b,66229da09b1138af584eafc1,,,,,,,,,,,,,,,,,,,,,,,,,,,,,,,,,,244.913,246.982,"[2,1,7,5,8,6,3,4]","[[0.3,0.2],[-0.3,0.2]]","[[0.125,-0.2],[-0.125,-0.2]]",-0.140740712,-0.166666667,1,0,0,1.567,o2_image,246.982,1,247.482,247.482,249.484,0,0,0,0,1,,,,,,,,,,,,,,,,,,,,,,,,,,,,,,,,,,,,,,,,,,,,,,,,,,
,,6487929144e5af4f15fde1f8,22,male,2024-04-19_18h37.16.250,stockport_simplified,2022.2.4,Win32,29.41176471,661e456ee6de07e70aa9ef7b,66229da09b1138af584eafc1,,,,,,,,,,,,,,,,,,,,,,,,,,,,,,,,,,,,,,,,,,,,,,,,,,,,,,,,0,40,40,56,1,N,M,D,o2_image,stimuli/out2.png,stimuli/out1.png,stimuli/correct_out2.png,,,,,,,,,,,,,,,,,,,,,,,,,,,,,,,,,,,,,,
,,6487929144e5af4f15fde1f8,22,male,2024-04-19_18h37.16.250,stockport_simplified,2022.2.4,Win32,29.41176471,661e456ee6de07e70aa9ef7b,66229da09b1138af584eafc1,,,,,,,,,,,,,,,,,,,,,,,,,,,,,,,,,,249.484,251.084,"[2,1,7,5,8,6,3,4]","[[0.3,0.2],[-0.3,0.2]]","[[0.125,-0.2],[-0.125,-0.2]]",-0.100925869,-0.160648176,1,0,0,1.067,o2_image,251.085,0,251.585,251.585,253.586,0,0,0,0,1,,,,,,,,,,,,,,,,,,,,,,,,,,,,,,,,,,,,,,,,,,,,,,,,,,
,,6487929144e5af4f15fde1f8,22,male,2024-04-19_18h37.16.250,stockport_simplified,2022.2.4,Win32,29.41176471,661e456ee6de07e70aa9ef7b,66229da09b1138af584eafc1,,,,,,,,,,,,,,,,,,,,,,,,,,,,,,,,,,,,,,,,,,,,,,,,,,,,,,,,0,41,41,7,1,A,Y,N,o1_image,stimuli/out1.png,stimuli/correct_out1.png,stimuli/out2.png,,,,,,,,,,,,,,,,,,,,,,,,,,,,,,,,,,,,,,
,,6487929144e5af4f15fde1f8,22,male,2024-04-19_18h37.16.250,stockport_simplified,2022.2.4,Win32,29.41176471,661e456ee6de07e70aa9ef7b,66229da09b1138af584eafc1,,,,,,,,,,,,,,,,,,,,,,,,,,,,,,,,,,253.586,255.154,"[2,1,7,5,8,6,3,4]","[[0.3,0.2],[-0.3,0.2]]","[[0.125,-0.2],[-0.125,-0.2]]",0.135648176,-0.179629644,1,0,0,1.067,o1_image,255.154,0,255.654,255.654,257.655,0,0,0,0,1,,,,,,,,,,,,,,,,,,,,,,,,,,,,,,,,,,,,,,,,,,,,,,,,,,
,,6487929144e5af4f15fde1f8,22,male,2024-04-19_18h37.16.250,stockport_simplified,2022.2.4,Win32,29.41176471,661e456ee6de07e70aa9ef7b,66229da09b1138af584eafc1,,,,,,,,,,,,,,,,,,,,,,,,,,,,,,,,,,,,,,,,,,,,,,,,,,,,,,,,0,42,42,10,1,B,X,N,o2_image,stimuli/out2.png,stimuli/out1.png,stimuli/correct_out2.png,,,,,,,,,,,,,,,,,,,,,,,,,,,,,,,,,,,,,,
,,6487929144e5af4f15fde1f8,22,male,2024-04-19_18h37.16.250,stockport_simplified,2022.2.4,Win32,29.41176471,661e456ee6de07e70aa9ef7b,66229da09b1138af584eafc1,,,,,,,,,,,,,,,,,,,,,,,,,,,,,,,,,,257.655,259.49,"[2,1,7,5,8,6,3,4]","[[-0.3,0.2],[0.3,0.2]]","[[-0.125,-0.2],[0.125,-0.2]]",-0.114351824,-0.175462977,1,0,0,1.334,o1_image,259.49,1,259.991,259.991,261.992,0,0,0,0,1,,,,,,,,,,,,,,,,,,,,,,,,,,,,,,,,,,,,,,,,,,,,,,,,,,
,,6487929144e5af4f15fde1f8,22,male,2024-04-19_18h37.16.250,stockport_simplified,2022.2.4,Win32,29.41176471,661e456ee6de07e70aa9ef7b,66229da09b1138af584eafc1,,,,,,,,,,,,,,,,,,,,,,,,,,,,,,,,,,,,,,,,,,,,,,,,,,,,,,,,0,43,43,20,1,N,M,C,o1_image,stimuli/out1.png,stimuli/correct_out1.png,stimuli/out2.png,,,,,,,,,,,,,,,,,,,,,,,,,,,,,,,,,,,,,,
,,6487929144e5af4f15fde1f8,22,male,2024-04-19_18h37.16.250,stockport_simplified,2022.2.4,Win32,29.41176471,661e456ee6de07e70aa9ef7b,66229da09b1138af584eafc1,,,,,,,,,,,,,,,,,,,,,,,,,,,,,,,,,,261.992,263.726,"[2,1,7,5,8,6,3,4]","[[0.3,0.2],[-0.3,0.2]]","[[-0.125,-0.2],[0.125,-0.2]]",-0.117592536,-0.176851866,1,0,0,1.201,o1_image,263.726,1,264.226,264.226,266.228,0,0,0,0,1,,,,,,,,,,,,,,,,,,,,,,,,,,,,,,,,,,,,,,,,,,,,,,,,,,
,,6487929144e5af4f15fde1f8,22,male,2024-04-19_18h37.16.250,stockport_simplified,2022.2.4,Win32,29.41176471,661e456ee6de07e70aa9ef7b,66229da09b1138af584eafc1,,,,,,,,,,,,,,,,,,,,,,,,,,,,,,,,,,,,,,,,,,,,,,,,,,,,,,,,0,44,44,9,1,A,Y,N,o1_image,stimuli/out1.png,stimuli/correct_out1.png,stimuli/out2.png,,,,,,,,,,,,,,,,,,,,,,,,,,,,,,,,,,,,,,
,,6487929144e5af4f15fde1f8,22,male,2024-04-19_18h37.16.250,stockport_simplified,2022.2.4,Win32,29.41176471,661e456ee6de07e70aa9ef7b,66229da09b1138af584eafc1,,,,,,,,,,,,,,,,,,,,,,,,,,,,,,,,,,266.229,267.329,"[2,1,7,5,8,6,3,4]","[[0.3,0.2],[-0.3,0.2]]","[[-0.125,-0.2],[0.125,-0.2]]",-0.133333333,-0.174537065,1,0,0,0.568,o1_image,267.329,1,267.828,267.828,269.829,0,0,0,0,1,,,,,,,,,,,,,,,,,,,,,,,,,,,,,,,,,,,,,,,,,,,,,,,,,,
,,6487929144e5af4f15fde1f8,22,male,2024-04-19_18h37.16.250,stockport_simplified,2022.2.4,Win32,29.41176471,661e456ee6de07e70aa9ef7b,66229da09b1138af584eafc1,,,,,,,,,,,,,,,,,,,,,,,,,,,,,,,,,,,,,,,,,,,,,,,,,,,,,,,,0,45,45,3,1,A,X,N,o1_image,stimuli/out1.png,stimuli/correct_out1.png,stimuli/out2.png,,,,,,,,,,,,,,,,,,,,,,,,,,,,,,,,,,,,,,
,,6487929144e5af4f15fde1f8,22,male,2024-04-19_18h37.16.250,stockport_simplified,2022.2.4,Win32,29.41176471,661e456ee6de07e70aa9ef7b,66229da09b1138af584eafc1,,,,,,,,,,,,,,,,,,,,,,,,,,,,,,,,,,269.83,272.331,"[2,1,7,5,8,6,3,4]","[[-0.3,0.2],[0.3,0.2]]","[[0.125,-0.2],[-0.125,-0.2]]",-0.1125,-0.178703732,1,0,0,2.001,o2_image,272.331,1,272.832,272.832,274.833,0,0,0,0,1,,,,,,,,,,,,,,,,,,,,,,,,,,,,,,,,,,,,,,,,,,,,,,,,,,
,,6487929144e5af4f15fde1f8,22,male,2024-04-19_18h37.16.250,stockport_simplified,2022.2.4,Win32,29.41176471,661e456ee6de07e70aa9ef7b,66229da09b1138af584eafc1,,,,,,,,,,,,,,,,,,,,,,,,,,,,,,,,,,,,,,,,,,,,,,,,,,,,,,,,0,46,46,40,1,B,X,N,o2_image,stimuli/out2.png,stimuli/out1.png,stimuli/correct_out2.png,,,,,,,,,,,,,,,,,,,,,,,,,,,,,,,,,,,,,,
,,6487929144e5af4f15fde1f8,22,male,2024-04-19_18h37.16.250,stockport_simplified,2022.2.4,Win32,29.41176471,661e456ee6de07e70aa9ef7b,66229da09b1138af584eafc1,,,,,,,,,,,,,,,,,,,,,,,,,,,,,,,,,,274.833,276.534,"[2,1,7,5,8,6,3,4]","[[-0.3,0.2],[0.3,0.2]]","[[-0.125,-0.2],[0.125,-0.2]]",0.093518575,-0.191666667,1,0,0,1.2,o2_image,276.536,1,277.034,277.034,279.036,0,0,0,0,1,,,,,,,,,,,,,,,,,,,,,,,,,,,,,,,,,,,,,,,,,,,,,,,,,,
,,6487929144e5af4f15fde1f8,22,male,2024-04-19_18h37.16.250,stockport_simplified,2022.2.4,Win32,29.41176471,661e456ee6de07e70aa9ef7b,66229da09b1138af584eafc1,,,,,,,,,,,,,,,,,,,,,,,,,,,,,,,,,,,,,,,,,,,,,,,,,,,,,,,,0,47,47,26,1,N,M,D,o2_image,stimuli/out2.png,stimuli/out1.png,stimuli/correct_out2.png,,,,,,,,,,,,,,,,,,,,,,,,,,,,,,,,,,,,,,
,,6487929144e5af4f15fde1f8,22,male,2024-04-19_18h37.16.250,stockport_simplified,2022.2.4,Win32,29.41176471,661e456ee6de07e70aa9ef7b,66229da09b1138af584eafc1,,,,,,,,,,,,,,,,,,,,,,,,,,,,,,,,,,279.036,280.603,"[2,1,7,5,8,6,3,4]","[[-0.3,0.2],[0.3,0.2]]","[[0.125,-0.2],[-0.125,-0.2]]",-0.128240712,-0.178703732,1,0,0,1.067,o2_image,280.603,1,281.104,281.104,283.105,0,0,0,0,1,,,,,,,,,,,,,,,,,,,,,,,,,,,,,,,,,,,,,,,,,,,,,,,,,,
,,6487929144e5af4f15fde1f8,22,male,2024-04-19_18h37.16.250,stockport_simplified,2022.2.4,Win32,29.41176471,661e456ee6de07e70aa9ef7b,66229da09b1138af584eafc1,,,,,,,,,,,,,,,,,,,,,,,,,,,,,,,,,,,,,,,,,,,,,,,,,,,,,,,,0,48,48,14,1,B,X,N,o2_image,stimuli/out2.png,stimuli/out1.png,stimuli/correct_out2.png,,,,,,,,,,,,,,,,,,,,,,,,,,,,,,,,,,,,,,
,,6487929144e5af4f15fde1f8,22,male,2024-04-19_18h37.16.250,stockport_simplified,2022.2.4,Win32,29.41176471,661e456ee6de07e70aa9ef7b,66229da09b1138af584eafc1,,,,,,,,,,,,,,,,,,,,,,,,,,,,,,,,,,283.105,284.372,"[2,1,7,5,8,6,3,4]","[[0.3,0.2],[-0.3,0.2]]","[[-0.125,-0.2],[0.125,-0.2]]",0.09398151,-0.187962977,1,0,0,0.767,o2_image,284.373,1,284.873,284.873,286.874,0,0,0,0,1,,,,,,,,,,,,,,,,,,,,,,,,,,,,,,,,,,,,,,,,,,,,,,,,,,
,,6487929144e5af4f15fde1f8,22,male,2024-04-19_18h37.16.250,stockport_simplified,2022.2.4,Win32,29.41176471,661e456ee6de07e70aa9ef7b,66229da09b1138af584eafc1,,,,,,,,,,,,,,,,,,,,,,,,,,,,,,,,,,,,,,,,,,,,,,,,,,,,,,,,0,49,49,16,1,B,Y,N,o2_image,stimuli/out2.png,stimuli/out1.png,stimuli/correct_out2.png,,,,,,,,,,,,,,,,,,,,,,,,,,,,,,,,,,,,,,
,,6487929144e5af4f15fde1f8,22,male,2024-04-19_18h37.16.250,stockport_simplified,2022.2.4,Win32,29.41176471,661e456ee6de07e70aa9ef7b,66229da09b1138af584eafc1,,,,,,,,,,,,,,,,,,,,,,,,,,,,,,,,,,286.875,288.341,"[2,1,7,5,8,6,3,4]","[[0.3,0.2],[-0.3,0.2]]","[[-0.125,-0.2],[0.125,-0.2]]",0.090740797,-0.172222222,1,0,0,0.966,o2_image,288.342,1,288.842,288.842,290.843,0,0,0,0,1,,,,,,,,,,,,,,,,,,,,,,,,,,,,,,,,,,,,,,,,,,,,,,,,,,
,,6487929144e5af4f15fde1f8,22,male,2024-04-19_18h37.16.250,stockport_simplified,2022.2.4,Win32,29.41176471,661e456ee6de07e70aa9ef7b,66229da09b1138af584eafc1,,,,,,,,,,,,,,,,,,,,,,,,,,,,,,,,,,,,,,,,,,,,,,,,,,,,,,,,0,50,50,49,1,B,Y,N,o2_image,stimuli/out2.png,stimuli/out1.png,stimuli/correct_out2.png,,,,,,,,,,,,,,,,,,,,,,,,,,,,,,,,,,,,,,
,,6487929144e5af4f15fde1f8,22,male,2024-04-19_18h37.16.250,stockport_simplified,2022.2.4,Win32,29.41176471,661e456ee6de07e70aa9ef7b,66229da09b1138af584eafc1,,,,,,,,,,,,,,,,,,,,,,,,,,,,,,,,,,290.843,292.879,"[2,1,7,5,8,6,3,4]","[[-0.3,0.2],[0.3,0.2]]","[[-0.125,-0.2],[0.125,-0.2]]",-0.125462935,-0.17129631,1,0,0,1.534,o1_image,292.879,0,293.379,293.379,295.38,0,0,0,0,1,,,,,,,,,,,,,,,,,,,,,,,,,,,,,,,,,,,,,,,,,,,,,,,,,,
,,6487929144e5af4f15fde1f8,22,male,2024-04-19_18h37.16.250,stockport_simplified,2022.2.4,Win32,29.41176471,661e456ee6de07e70aa9ef7b,66229da09b1138af584eafc1,,,,,,,,,,,,,,,,,,,,,,,,,,,,,,,,,,,,,,,,,,,,,,,,,,,,,,,,0,51,51,28,1,N,M,D,o2_image,stimuli/out2.png,stimuli/out1.png,stimuli/correct_out2.png,,,,,,,,,,,,,,,,,,,,,,,,,,,,,,,,,,,,,,
,,6487929144e5af4f15fde1f8,22,male,2024-04-19_18h37.16.250,stockport_simplified,2022.2.4,Win32,29.41176471,661e456ee6de07e70aa9ef7b,66229da09b1138af584eafc1,,,,,,,,,,,,,,,,,,,,,,,,,,,,,,,,,,295.38,296.58,"[2,1,7,5,8,6,3,4]","[[0.3,0.2],[-0.3,0.2]]","[[-0.125,-0.2],[0.125,-0.2]]",0.139351908,-0.206944444,1,0,0,0.7,o2_image,296.58,0,297.081,297.081,299.081,0,0,0,0,1,,,,,,,,,,,,,,,,,,,,,,,,,,,,,,,,,,,,,,,,,,,,,,,,,,
,,6487929144e5af4f15fde1f8,22,male,2024-04-19_18h37.16.250,stockport_simplified,2022.2.4,Win32,29.41176471,661e456ee6de07e70aa9ef7b,66229da09b1138af584eafc1,,,,,,,,,,,,,,,,,,,,,,,,,,,,,,,,,,,,,,,,,,,,,,,,,,,,,,,,0,52,52,34,1,A,X,N,o1_image,stimuli/out1.png,stimuli/correct_out1.png,stimuli/out2.png,,,,,,,,,,,,,,,,,,,,,,,,,,,,,,,,,,,,,,
,,6487929144e5af4f15fde1f8,22,male,2024-04-19_18h37.16.250,stockport_simplified,2022.2.4,Win32,29.41176471,661e456ee6de07e70aa9ef7b,66229da09b1138af584eafc1,,,,,,,,,,,,,,,,,,,,,,,,,,,,,,,,,,299.082,300.049,"[2,1,7,5,8,6,3,4]","[[-0.3,0.2],[0.3,0.2]]","[[0.125,-0.2],[-0.125,-0.2]]",0.111111111,-0.201851866,1,0,0,0.467,o1_image,300.049,1,300.549,300.55,302.551,0,0,0,0,1,,,,,,,,,,,,,,,,,,,,,,,,,,,,,,,,,,,,,,,,,,,,,,,,,,
,,6487929144e5af4f15fde1f8,22,male,2024-04-19_18h37.16.250,stockport_simplified,2022.2.4,Win32,29.41176471,661e456ee6de07e70aa9ef7b,66229da09b1138af584eafc1,,,,,,,,,,,,,,,,,,,,,,,,,,,,,,,,,,,,,,,,,,,,,,,,,,,,,,,,0,53,53,52,1,N,M,C,o1_image,stimuli/out1.png,stimuli/correct_out1.png,stimuli/out2.png,,,,,,,,,,,,,,,,,,,,,,,,,,,,,,,,,,,,,,
,,6487929144e5af4f15fde1f8,22,male,2024-04-19_18h37.16.250,stockport_simplified,2022.2.4,Win32,29.41176471,661e456ee6de07e70aa9ef7b,66229da09b1138af584eafc1,,,,,,,,,,,,,,,,,,,,,,,,,,,,,,,,,,302.551,304.052,"[2,1,7,5,8,6,3,4]","[[0.3,0.2],[-0.3,0.2]]","[[-0.125,-0.2],[0.125,-0.2]]",-0.125462935,-0.176851866,1,0,0,1.001,o1_image,304.053,1,304.552,304.552,306.554,0,0,0,0,1,,,,,,,,,,,,,,,,,,,,,,,,,,,,,,,,,,,,,,,,,,,,,,,,,,
,,6487929144e5af4f15fde1f8,22,male,2024-04-19_18h37.16.250,stockport_simplified,2022.2.4,Win32,29.41176471,661e456ee6de07e70aa9ef7b,66229da09b1138af584eafc1,,,,,,,,,,,,,,,,,,,,,,,,,,,,,,,,,,,,,,,,,,,,,,,,,,,,,,,,0,54,54,50,1,N,M,C,o1_image,stimuli/out1.png,stimuli/correct_out1.png,stimuli/out2.png,,,,,,,,,,,,,,,,,,,,,,,,,,,,,,,,,,,,,,
,,6487929144e5af4f15fde1f8,22,male,2024-04-19_18h37.16.250,stockport_simplified,2022.2.4,Win32,29.41176471,661e456ee6de07e70aa9ef7b,66229da09b1138af584eafc1,,,,,,,,,,,,,,,,,,,,,,,,,,,,,,,,,,306.554,308.188,"[2,1,7,5,8,6,3,4]","[[-0.3,0.2],[0.3,0.2]]","[[0.125,-0.2],[-0.125,-0.2]]",0.122685242,-0.175925954,1,0,0,1.101,o1_image,308.188,0,308.688,308.688,310.689,0,0,0,0,1,,,,,,,,,,,,,,,,,,,,,,,,,,,,,,,,,,,,,,,,,,,,,,,,,,
,,6487929144e5af4f15fde1f8,22,male,2024-04-19_18h37.16.250,stockport_simplified,2022.2.4,Win32,29.41176471,661e456ee6de07e70aa9ef7b,66229da09b1138af584eafc1,,,,,,,,,,,,,,,,,,,,,,,,,,,,,,,,,,,,,,,,,,,,,,,,,,,,,,,,0,55,55,44,1,B,X,N,o2_image,stimuli/out2.png,stimuli/out1.png,stimuli/correct_out2.png,,,,,,,,,,,,,,,,,,,,,,,,,,,,,,,,,,,,,,
,,6487929144e5af4f15fde1f8,22,male,2024-04-19_18h37.16.250,stockport_simplified,2022.2.4,Win32,29.41176471,661e456ee6de07e70aa9ef7b,66229da09b1138af584eafc1,,,,,,,,,,,,,,,,,,,,,,,,,,,,,,,,,,310.689,312.757,"[2,1,7,5,8,6,3,4]","[[-0.3,0.2],[0.3,0.2]]","[[-0.125,-0.2],[0.125,-0.2]]",-0.095370314,-0.171759288,1,0,0,1.566,o1_image,312.757,0,313.257,313.257,315.262,0,0,0,0,1,,,,,,,,,,,,,,,,,,,,,,,,,,,,,,,,,,,,,,,,,,,,,,,,,,
,,6487929144e5af4f15fde1f8,22,male,2024-04-19_18h37.16.250,stockport_simplified,2022.2.4,Win32,29.41176471,661e456ee6de07e70aa9ef7b,66229da09b1138af584eafc1,,,,,,,,,,,,,,,,,,,,,,,,,,,,,,,,,,,,,,,,,,,,,,,,,,,,,,,,0,56,56,15,1,B,Y,N,o2_image,stimuli/out2.png,stimuli/out1.png,stimuli/correct_out2.png,,,,,,,,,,,,,,,,,,,,,,,,,,,,,,,,,,,,,,
,,6487929144e5af4f15fde1f8,22,male,2024-04-19_18h37.16.250,stockport_simplified,2022.2.4,Win32,29.41176471,661e456ee6de07e70aa9ef7b,66229da09b1138af584eafc1,,,,,,,,,,,,,,,,,,,,,,,,,,,,,,,,,,315.262,316.793,"[2,1,7,5,8,6,3,4]","[[0.3,0.2],[-0.3,0.2]]","[[-0.125,-0.2],[0.125,-0.2]]",0.130555556,-0.2125,1,0,0,1.001,o2_image,316.793,1,317.294,317.294,319.294,0,0,0,0,1,,,,,,,,,,,,,,,,,,,,,,,,,,,,,,,,,,,,,,,,,,,,,,,,,,
,,6487929144e5af4f15fde1f8,22,male,2024-04-19_18h37.16.250,stockport_simplified,2022.2.4,Win32,29.41176471,661e456ee6de07e70aa9ef7b,66229da09b1138af584eafc1,,,,,,,,,,,,,,,,,,,,,,,,,,,,,,,,,,,,,,,,,,,,,,,,,,,,,,,,0,57,57,59,1,N,M,D,o2_image,stimuli/out2.png,stimuli/out1.png,stimuli/correct_out2.png,,,,,,,,,,,,,,,,,,,,,,,,,,,,,,,,,,,,,,
,,6487929144e5af4f15fde1f8,22,male,2024-04-19_18h37.16.250,stockport_simplified,2022.2.4,Win32,29.41176471,661e456ee6de07e70aa9ef7b,66229da09b1138af584eafc1,,,,,,,,,,,,,,,,,,,,,,,,,,,,,,,,,,319.295,321.33,"[2,1,7,5,8,6,3,4]","[[-0.3,0.2],[0.3,0.2]]","[[0.125,-0.2],[-0.125,-0.2]]",-0.090277778,-0.186111111,1,0,0,1.535,o2_image,321.331,1,321.829,321.829,323.831,0,0,0,0,1,,,,,,,,,,,,,,,,,,,,,,,,,,,,,,,,,,,,,,,,,,,,,,,,,,
,,6487929144e5af4f15fde1f8,22,male,2024-04-19_18h37.16.250,stockport_simplified,2022.2.4,Win32,29.41176471,661e456ee6de07e70aa9ef7b,66229da09b1138af584eafc1,,,,,,,,,,,,,,,,,,,,,,,,,,,,,,,,,,,,,,,,,,,,,,,,,,,,,,,,0,58,58,42,1,B,X,N,o2_image,stimuli/out2.png,stimuli/out1.png,stimuli/correct_out2.png,,,,,,,,,,,,,,,,,,,,,,,,,,,,,,,,,,,,,,
,,6487929144e5af4f15fde1f8,22,male,2024-04-19_18h37.16.250,stockport_simplified,2022.2.4,Win32,29.41176471,661e456ee6de07e70aa9ef7b,66229da09b1138af584eafc1,,,,,,,,,,,,,,,,,,,,,,,,,,,,,,,,,,323.831,325.632,"[2,1,7,5,8,6,3,4]","[[0.3,0.2],[-0.3,0.2]]","[[-0.125,-0.2],[0.125,-0.2]]",-0.105555556,-0.176851866,1,0,0,1.301,o1_image,325.632,1,326.133,326.133,328.134,0,0,0,0,1,,,,,,,,,,,,,,,,,,,,,,,,,,,,,,,,,,,,,,,,,,,,,,,,,,
,,6487929144e5af4f15fde1f8,22,male,2024-04-19_18h37.16.250,stockport_simplified,2022.2.4,Win32,29.41176471,661e456ee6de07e70aa9ef7b,66229da09b1138af584eafc1,,,,,,,,,,,,,,,,,,,,,,,,,,,,,,,,,,,,,,,,,,,,,,,,,,,,,,,,0,59,59,8,1,A,Y,N,o1_image,stimuli/out1.png,stimuli/correct_out1.png,stimuli/out2.png,,,,,,,,,,,,,,,,,,,,,,,,,,,,,,,,,,,,,,
,,6487929144e5af4f15fde1f8,22,male,2024-04-19_18h37.16.250,stockport_simplified,2022.2.4,Win32,29.41176471,661e456ee6de07e70aa9ef7b,66229da09b1138af584eafc1,,,,,,,,,,,,,,,,,,,,,,,,,,,,,,,,,,328.134,329.335,"[2,1,7,5,8,6,3,4]","[[-0.3,0.2],[0.3,0.2]]","[[0.125,-0.2],[-0.125,-0.2]]",-0.092129601,-0.189351866,1,0,0,0.701,o2_image,329.335,0,329.834,329.834,331.836,0,0,0,0,1,,,,,,,,,,,,,,,,,,,,,,,,,,,,,,,,,,,,,,,,,,,,,,,,,,
,,6487929144e5af4f15fde1f8,22,male,2024-04-19_18h37.16.250,stockport_simplified,2022.2.4,Win32,29.41176471,661e456ee6de07e70aa9ef7b,66229da09b1138af584eafc1,,,,,,,,,,,,,,,,,,,,,,,,,,,,,,,,,,,,,,,,,,,,,,,,,,,,,,,,1,0,60,0,1,A,X,N,o1_image,stimuli/out1.png,stimuli/correct_out1.png,stimuli/out2.png,,,,,,,,,,,,,,,,,,,,,,,,,,,,,,,,,,,,,,
,,6487929144e5af4f15fde1f8,22,male,2024-04-19_18h37.16.250,stockport_simplified,2022.2.4,Win32,29.41176471,661e456ee6de07e70aa9ef7b,66229da09b1138af584eafc1,,,,,,,,,,,,,,,,,,,,,,,,,,,,,,,,,,331.836,333.371,"[2,1,7,5,8,6,3,4]","[[0.3,0.2],[-0.3,0.2]]","[[0.125,-0.2],[-0.125,-0.2]]",0.130092621,-0.190277778,1,0,0,1.033,o1_image,333.371,0,333.871,333.871,335.872,0,0,0,0,1,,,,,,,,,,,,,,,,,,,,,,,,,,,,,,,,,,,,,,,,,,,,,,,,,,
,,6487929144e5af4f15fde1f8,22,male,2024-04-19_18h37.16.250,stockport_simplified,2022.2.4,Win32,29.41176471,661e456ee6de07e70aa9ef7b,66229da09b1138af584eafc1,,,,,,,,,,,,,,,,,,,,,,,,,,,,,,,,,,,,,,,,,,,,,,,,,,,,,,,,1,1,61,19,1,B,Y,N,o2_image,stimuli/out2.png,stimuli/out1.png,stimuli/correct_out2.png,,,,,,,,,,,,,,,,,,,,,,,,,,,,,,,,,,,,,,
,,6487929144e5af4f15fde1f8,22,male,2024-04-19_18h37.16.250,stockport_simplified,2022.2.4,Win32,29.41176471,661e456ee6de07e70aa9ef7b,66229da09b1138af584eafc1,,,,,,,,,,,,,,,,,,,,,,,,,,,,,,,,,,335.872,336.839,"[2,1,7,5,8,6,3,4]","[[-0.3,0.2],[0.3,0.2]]","[[0.125,-0.2],[-0.125,-0.2]]",-0.126388889,-0.177777778,1,0,0,0.466,o2_image,336.839,0,337.34,337.34,339.34,0,0,0,0,1,,,,,,,,,,,,,,,,,,,,,,,,,,,,,,,,,,,,,,,,,,,,,,,,,,
,,6487929144e5af4f15fde1f8,22,male,2024-04-19_18h37.16.250,stockport_simplified,2022.2.4,Win32,29.41176471,661e456ee6de07e70aa9ef7b,66229da09b1138af584eafc1,,,,,,,,,,,,,,,,,,,,,,,,,,,,,,,,,,,,,,,,,,,,,,,,,,,,,,,,1,2,62,20,1,N,M,C,o1_image,stimuli/out1.png,stimuli/correct_out1.png,stimuli/out2.png,,,,,,,,,,,,,,,,,,,,,,,,,,,,,,,,,,,,,,
,,6487929144e5af4f15fde1f8,22,male,2024-04-19_18h37.16.250,stockport_simplified,2022.2.4,Win32,29.41176471,661e456ee6de07e70aa9ef7b,66229da09b1138af584eafc1,,,,,,,,,,,,,,,,,,,,,,,,,,,,,,,,,,339.341,340.442,"[2,1,7,5,8,6,3,4]","[[0.3,0.2],[-0.3,0.2]]","[[0.125,-0.2],[-0.125,-0.2]]",0.104166667,-0.178703732,1,0,0,0.597,o1_image,340.442,0,340.941,340.941,342.944,0,0,0,0,1,,,,,,,,,,,,,,,,,,,,,,,,,,,,,,,,,,,,,,,,,,,,,,,,,,
,,6487929144e5af4f15fde1f8,22,male,2024-04-19_18h37.16.250,stockport_simplified,2022.2.4,Win32,29.41176471,661e456ee6de07e70aa9ef7b,66229da09b1138af584eafc1,,,,,,,,,,,,,,,,,,,,,,,,,,,,,,,,,,,,,,,,,,,,,,,,,,,,,,,,1,3,63,47,1,B,Y,N,o2_image,stimuli/out2.png,stimuli/out1.png,stimuli/correct_out2.png,,,,,,,,,,,,,,,,,,,,,,,,,,,,,,,,,,,,,,
,,6487929144e5af4f15fde1f8,22,male,2024-04-19_18h37.16.250,stockport_simplified,2022.2.4,Win32,29.41176471,661e456ee6de07e70aa9ef7b,66229da09b1138af584eafc1,,,,,,,,,,,,,,,,,,,,,,,,,,,,,,,,,,342.944,343.877,"[2,1,7,5,8,6,3,4]","[[0.3,0.2],[-0.3,0.2]]","[[0.125,-0.2],[-0.125,-0.2]]",-0.091203647,-0.177777778,1,0,0,0.4,o2_image,343.877,1,344.377,344.377,346.379,0,0,0,0,1,,,,,,,,,,,,,,,,,,,,,,,,,,,,,,,,,,,,,,,,,,,,,,,,,,
,,6487929144e5af4f15fde1f8,22,male,2024-04-19_18h37.16.250,stockport_simplified,2022.2.4,Win32,29.41176471,661e456ee6de07e70aa9ef7b,66229da09b1138af584eafc1,,,,,,,,,,,,,,,,,,,,,,,,,,,,,,,,,,,,,,,,,,,,,,,,,,,,,,,,1,4,64,56,1,N,M,D,o2_image,stimuli/out2.png,stimuli/out1.png,stimuli/correct_out2.png,,,,,,,,,,,,,,,,,,,,,,,,,,,,,,,,,,,,,,
,,6487929144e5af4f15fde1f8,22,male,2024-04-19_18h37.16.250,stockport_simplified,2022.2.4,Win32,29.41176471,661e456ee6de07e70aa9ef7b,66229da09b1138af584eafc1,,,,,,,,,,,,,,,,,,,,,,,,,,,,,,,,,,346.379,347.679,"[2,1,7,5,8,6,3,4]","[[-0.3,0.2],[0.3,0.2]]","[[-0.125,-0.2],[0.125,-0.2]]",0.085185242,-0.1625,1,0,0,0.796,o2_image,347.679,0,348.18,348.18,350.182,0,0,0,0,1,,,,,,,,,,,,,,,,,,,,,,,,,,,,,,,,,,,,,,,,,,,,,,,,,,
,,6487929144e5af4f15fde1f8,22,male,2024-04-19_18h37.16.250,stockport_simplified,2022.2.4,Win32,29.41176471,661e456ee6de07e70aa9ef7b,66229da09b1138af584eafc1,,,,,,,,,,,,,,,,,,,,,,,,,,,,,,,,,,,,,,,,,,,,,,,,,,,,,,,,1,5,65,54,1,N,M,C,o1_image,stimuli/out1.png,stimuli/correct_out1.png,stimuli/out2.png,,,,,,,,,,,,,,,,,,,,,,,,,,,,,,,,,,,,,,
,,6487929144e5af4f15fde1f8,22,male,2024-04-19_18h37.16.250,stockport_simplified,2022.2.4,Win32,29.41176471,661e456ee6de07e70aa9ef7b,66229da09b1138af584eafc1,,,,,,,,,,,,,,,,,,,,,,,,,,,,,,,,,,350.182,351.649,"[2,1,7,5,8,6,3,4]","[[-0.3,0.2],[0.3,0.2]]","[[-0.125,-0.2],[0.125,-0.2]]",-0.101388889,-0.167129644,1,0,0,0.967,o1_image,351.649,1,352.149,352.149,354.151,0,0,0,0,1,,,,,,,,,,,,,,,,,,,,,,,,,,,,,,,,,,,,,,,,,,,,,,,,,,
,,6487929144e5af4f15fde1f8,22,male,2024-04-19_18h37.16.250,stockport_simplified,2022.2.4,Win32,29.41176471,661e456ee6de07e70aa9ef7b,66229da09b1138af584eafc1,,,,,,,,,,,,,,,,,,,,,,,,,,,,,,,,,,,,,,,,,,,,,,,,,,,,,,,,1,6,66,24,1,N,M,C,o1_image,stimuli/out1.png,stimuli/correct_out1.png,stimuli/out2.png,,,,,,,,,,,,,,,,,,,,,,,,,,,,,,,,,,,,,,
,,6487929144e5af4f15fde1f8,22,male,2024-04-19_18h37.16.250,stockport_simplified,2022.2.4,Win32,29.41176471,661e456ee6de07e70aa9ef7b,66229da09b1138af584eafc1,,,,,,,,,,,,,,,,,,,,,,,,,,,,,,,,,,354.151,355.718,"[2,1,7,5,8,6,3,4]","[[-0.3,0.2],[0.3,0.2]]","[[0.125,-0.2],[-0.125,-0.2]]",0.131944444,-0.162962977,1,0,0,1.034,o1_image,355.719,1,356.218,356.218,358.22,0,0,0,0,1,,,,,,,,,,,,,,,,,,,,,,,,,,,,,,,,,,,,,,,,,,,,,,,,,,
,,6487929144e5af4f15fde1f8,22,male,2024-04-19_18h37.16.250,stockport_simplified,2022.2.4,Win32,29.41176471,661e456ee6de07e70aa9ef7b,66229da09b1138af584eafc1,,,,,,,,,,,,,,,,,,,,,,,,,,,,,,,,,,,,,,,,,,,,,,,,,,,,,,,,1,7,67,1,1,A,X,N,o1_image,stimuli/out1.png,stimuli/correct_out1.png,stimuli/out2.png,,,,,,,,,,,,,,,,,,,,,,,,,,,,,,,,,,,,,,
,,6487929144e5af4f15fde1f8,22,male,2024-04-19_18h37.16.250,stockport_simplified,2022.2.4,Win32,29.41176471,661e456ee6de07e70aa9ef7b,66229da09b1138af584eafc1,,,,,,,,,,,,,,,,,,,,,,,,,,,,,,,,,,358.22,359.354,"[2,1,7,5,8,6,3,4]","[[0.3,0.2],[-0.3,0.2]]","[[-0.125,-0.2],[0.125,-0.2]]",-0.134722222,-0.179629644,1,0,0,0.633,o1_image,359.354,1,359.854,359.854,361.856,0,0,0,0,1,,,,,,,,,,,,,,,,,,,,,,,,,,,,,,,,,,,,,,,,,,,,,,,,,,
,,6487929144e5af4f15fde1f8,22,male,2024-04-19_18h37.16.250,stockport_simplified,2022.2.4,Win32,29.41176471,661e456ee6de07e70aa9ef7b,66229da09b1138af584eafc1,,,,,,,,,,,,,,,,,,,,,,,,,,,,,,,,,,,,,,,,,,,,,,,,,,,,,,,,1,8,68,38,1,A,Y,N,o1_image,stimuli/out1.png,stimuli/correct_out1.png,stimuli/out2.png,,,,,,,,,,,,,,,,,,,,,,,,,,,,,,,,,,,,,,
,,6487929144e5af4f15fde1f8,22,male,2024-04-19_18h37.16.250,stockport_simplified,2022.2.4,Win32,29.41176471,661e456ee6de07e70aa9ef7b,66229da09b1138af584eafc1,,,,,,,,,,,,,,,,,,,,,,,,,,,,,,,,,,361.856,362.99,"[2,1,7,5,8,6,3,4]","[[0.3,0.2],[-0.3,0.2]]","[[-0.125,-0.2],[0.125,-0.2]]",-0.110648092,-0.200925954,1,0,0,0.633,o1_image,362.99,1,363.489,363.489,365.491,0,0,0,0,1,,,,,,,,,,,,,,,,,,,,,,,,,,,,,,,,,,,,,,,,,,,,,,,,,,
,,6487929144e5af4f15fde1f8,22,male,2024-04-19_18h37.16.250,stockport_simplified,2022.2.4,Win32,29.41176471,661e456ee6de07e70aa9ef7b,66229da09b1138af584eafc1,,,,,,,,,,,,,,,,,,,,,,,,,,,,,,,,,,,,,,,,,,,,,,,,,,,,,,,,1,9,69,34,1,A,X,N,o1_image,stimuli/out1.png,stimuli/correct_out1.png,stimuli/out2.png,,,,,,,,,,,,,,,,,,,,,,,,,,,,,,,,,,,,,,
,,6487929144e5af4f15fde1f8,22,male,2024-04-19_18h37.16.250,stockport_simplified,2022.2.4,Win32,29.41176471,661e456ee6de07e70aa9ef7b,66229da09b1138af584eafc1,,,,,,,,,,,,,,,,,,,,,,,,,,,,,,,,,,365.491,366.658,"[2,1,7,5,8,6,3,4]","[[0.3,0.2],[-0.3,0.2]]","[[0.125,-0.2],[-0.125,-0.2]]",0.151388889,-0.173148176,1,0,0,0.666,o1_image,366.659,1,367.159,367.159,369.16,0,0,0,0,1,,,,,,,,,,,,,,,,,,,,,,,,,,,,,,,,,,,,,,,,,,,,,,,,,,
,,6487929144e5af4f15fde1f8,22,male,2024-04-19_18h37.16.250,stockport_simplified,2022.2.4,Win32,29.41176471,661e456ee6de07e70aa9ef7b,66229da09b1138af584eafc1,,,,,,,,,,,,,,,,,,,,,,,,,,,,,,,,,,,,,,,,,,,,,,,,,,,,,,,,1,10,70,7,1,A,Y,N,o1_image,stimuli/out1.png,stimuli/correct_out1.png,stimuli/out2.png,,,,,,,,,,,,,,,,,,,,,,,,,,,,,,,,,,,,,,
,,6487929144e5af4f15fde1f8,22,male,2024-04-19_18h37.16.250,stockport_simplified,2022.2.4,Win32,29.41176471,661e456ee6de07e70aa9ef7b,66229da09b1138af584eafc1,,,,,,,,,,,,,,,,,,,,,,,,,,,,,,,,,,369.16,370.194,"[2,1,7,5,8,6,3,4]","[[0.3,0.2],[-0.3,0.2]]","[[-0.125,-0.2],[0.125,-0.2]]",-0.109259203,-0.167592621,1,0,0,0.533,o1_image,370.195,0,370.694,370.694,372.696,0,0,0,0,1,,,,,,,,,,,,,,,,,,,,,,,,,,,,,,,,,,,,,,,,,,,,,,,,,,
,,6487929144e5af4f15fde1f8,22,male,2024-04-19_18h37.16.250,stockport_simplified,2022.2.4,Win32,29.41176471,661e456ee6de07e70aa9ef7b,66229da09b1138af584eafc1,,,,,,,,,,,,,,,,,,,,,,,,,,,,,,,,,,,,,,,,,,,,,,,,,,,,,,,,1,11,71,15,1,B,Y,N,o2_image,stimuli/out2.png,stimuli/out1.png,stimuli/correct_out2.png,,,,,,,,,,,,,,,,,,,,,,,,,,,,,,,,,,,,,,
,,6487929144e5af4f15fde1f8,22,male,2024-04-19_18h37.16.250,stockport_simplified,2022.2.4,Win32,29.41176471,661e456ee6de07e70aa9ef7b,66229da09b1138af584eafc1,,,,,,,,,,,,,,,,,,,,,,,,,,,,,,,,,,372.696,373.863,"[2,1,7,5,8,6,3,4]","[[-0.3,0.2],[0.3,0.2]]","[[0.125,-0.2],[-0.125,-0.2]]",-0.098611111,-0.17129631,1,0,0,0.633,o2_image,373.864,1,374.363,374.363,376.365,0,0,0,0,1,,,,,,,,,,,,,,,,,,,,,,,,,,,,,,,,,,,,,,,,,,,,,,,,,,
,,6487929144e5af4f15fde1f8,22,male,2024-04-19_18h37.16.250,stockport_simplified,2022.2.4,Win32,29.41176471,661e456ee6de07e70aa9ef7b,66229da09b1138af584eafc1,,,,,,,,,,,,,,,,,,,,,,,,,,,,,,,,,,,,,,,,,,,,,,,,,,,,,,,,1,12,72,26,1,N,M,D,o2_image,stimuli/out2.png,stimuli/out1.png,stimuli/correct_out2.png,,,,,,,,,,,,,,,,,,,,,,,,,,,,,,,,,,,,,,
,,6487929144e5af4f15fde1f8,22,male,2024-04-19_18h37.16.250,stockport_simplified,2022.2.4,Win32,29.41176471,661e456ee6de07e70aa9ef7b,66229da09b1138af584eafc1,,,,,,,,,,,,,,,,,,,,,,,,,,,,,,,,,,376.365,377.631,"[2,1,7,5,8,6,3,4]","[[0.3,0.2],[-0.3,0.2]]","[[-0.125,-0.2],[0.125,-0.2]]",-0.115740712,-0.179629644,1,0,0,0.765,o1_image,377.632,1,378.133,378.133,380.135,0,0,0,0,1,,,,,,,,,,,,,,,,,,,,,,,,,,,,,,,,,,,,,,,,,,,,,,,,,,
,,6487929144e5af4f15fde1f8,22,male,2024-04-19_18h37.16.250,stockport_simplified,2022.2.4,Win32,29.41176471,661e456ee6de07e70aa9ef7b,66229da09b1138af584eafc1,,,,,,,,,,,,,,,,,,,,,,,,,,,,,,,,,,,,,,,,,,,,,,,,,,,,,,,,1,13,73,8,1,A,Y,N,o1_image,stimuli/out1.png,stimuli/correct_out1.png,stimuli/out2.png,,,,,,,,,,,,,,,,,,,,,,,,,,,,,,,,,,,,,,
,,6487929144e5af4f15fde1f8,22,male,2024-04-19_18h37.16.250,stockport_simplified,2022.2.4,Win32,29.41176471,661e456ee6de07e70aa9ef7b,66229da09b1138af584eafc1,,,,,,,,,,,,,,,,,,,,,,,,,,,,,,,,,,380.135,381.901,"[2,1,7,5,8,6,3,4]","[[0.3,0.2],[-0.3,0.2]]","[[-0.125,-0.2],[0.125,-0.2]]",-0.119907379,-0.191666667,1,0,0,1.233,o1_image,381.903,1,382.402,382.402,384.403,0,0,0,0,1,,,,,,,,,,,,,,,,,,,,,,,,,,,,,,,,,,,,,,,,,,,,,,,,,,
,,6487929144e5af4f15fde1f8,22,male,2024-04-19_18h37.16.250,stockport_simplified,2022.2.4,Win32,29.41176471,661e456ee6de07e70aa9ef7b,66229da09b1138af584eafc1,,,,,,,,,,,,,,,,,,,,,,,,,,,,,,,,,,,,,,,,,,,,,,,,,,,,,,,,1,14,74,23,1,N,M,C,o1_image,stimuli/out1.png,stimuli/correct_out1.png,stimuli/out2.png,,,,,,,,,,,,,,,,,,,,,,,,,,,,,,,,,,,,,,
,,6487929144e5af4f15fde1f8,22,male,2024-04-19_18h37.16.250,stockport_simplified,2022.2.4,Win32,29.41176471,661e456ee6de07e70aa9ef7b,66229da09b1138af584eafc1,,,,,,,,,,,,,,,,,,,,,,,,,,,,,,,,,,384.403,386.104,"[2,1,7,5,8,6,3,4]","[[0.3,0.2],[-0.3,0.2]]","[[-0.125,-0.2],[0.125,-0.2]]",-0.114351824,-0.153240755,1,0,0,1.201,o1_image,386.105,0,386.604,386.604,388.606,0,0,0,0,1,,,,,,,,,,,,,,,,,,,,,,,,,,,,,,,,,,,,,,,,,,,,,,,,,,
,,6487929144e5af4f15fde1f8,22,male,2024-04-19_18h37.16.250,stockport_simplified,2022.2.4,Win32,29.41176471,661e456ee6de07e70aa9ef7b,66229da09b1138af584eafc1,,,,,,,,,,,,,,,,,,,,,,,,,,,,,,,,,,,,,,,,,,,,,,,,,,,,,,,,1,15,75,11,1,B,X,N,o2_image,stimuli/out2.png,stimuli/out1.png,stimuli/correct_out2.png,,,,,,,,,,,,,,,,,,,,,,,,,,,,,,,,,,,,,,
,,6487929144e5af4f15fde1f8,22,male,2024-04-19_18h37.16.250,stockport_simplified,2022.2.4,Win32,29.41176471,661e456ee6de07e70aa9ef7b,66229da09b1138af584eafc1,,,,,,,,,,,,,,,,,,,,,,,,,,,,,,,,,,388.606,389.94,"[2,1,7,5,8,6,3,4]","[[0.3,0.2],[-0.3,0.2]]","[[-0.125,-0.2],[0.125,-0.2]]",0.128703732,-0.194907422,1,0,0,0.834,o2_image,389.94,1,390.441,390.441,392.442,0,0,0,0,1,,,,,,,,,,,,,,,,,,,,,,,,,,,,,,,,,,,,,,,,,,,,,,,,,,
,,6487929144e5af4f15fde1f8,22,male,2024-04-19_18h37.16.250,stockport_simplified,2022.2.4,Win32,29.41176471,661e456ee6de07e70aa9ef7b,66229da09b1138af584eafc1,,,,,,,,,,,,,,,,,,,,,,,,,,,,,,,,,,,,,,,,,,,,,,,,,,,,,,,,1,16,76,49,1,B,Y,N,o2_image,stimuli/out2.png,stimuli/out1.png,stimuli/correct_out2.png,,,,,,,,,,,,,,,,,,,,,,,,,,,,,,,,,,,,,,
,,6487929144e5af4f15fde1f8,22,male,2024-04-19_18h37.16.250,stockport_simplified,2022.2.4,Win32,29.41176471,661e456ee6de07e70aa9ef7b,66229da09b1138af584eafc1,,,,,,,,,,,,,,,,,,,,,,,,,,,,,,,,,,392.442,394.209,"[2,1,7,5,8,6,3,4]","[[-0.3,0.2],[0.3,0.2]]","[[0.125,-0.2],[-0.125,-0.2]]",-0.101851824,-0.157407422,1,0,0,1.267,o2_image,394.21,1,394.71,394.71,396.711,0,0,0,0,1,,,,,,,,,,,,,,,,,,,,,,,,,,,,,,,,,,,,,,,,,,,,,,,,,,
,,6487929144e5af4f15fde1f8,22,male,2024-04-19_18h37.16.250,stockport_simplified,2022.2.4,Win32,29.41176471,661e456ee6de07e70aa9ef7b,66229da09b1138af584eafc1,,,,,,,,,,,,,,,,,,,,,,,,,,,,,,,,,,,,,,,,,,,,,,,,,,,,,,,,1,17,77,16,1,B,Y,N,o2_image,stimuli/out2.png,stimuli/out1.png,stimuli/correct_out2.png,,,,,,,,,,,,,,,,,,,,,,,,,,,,,,,,,,,,,,
,,6487929144e5af4f15fde1f8,22,male,2024-04-19_18h37.16.250,stockport_simplified,2022.2.4,Win32,29.41176471,661e456ee6de07e70aa9ef7b,66229da09b1138af584eafc1,,,,,,,,,,,,,,,,,,,,,,,,,,,,,,,,,,396.712,397.846,"[2,1,7,5,8,6,3,4]","[[-0.3,0.2],[0.3,0.2]]","[[0.125,-0.2],[-0.125,-0.2]]",-0.124074046,-0.151388889,1,0,0,0.6,o2_image,397.846,0,398.346,398.346,400.347,0,0,0,0,1,,,,,,,,,,,,,,,,,,,,,,,,,,,,,,,,,,,,,,,,,,,,,,,,,,
,,6487929144e5af4f15fde1f8,22,male,2024-04-19_18h37.16.250,stockport_simplified,2022.2.4,Win32,29.41176471,661e456ee6de07e70aa9ef7b,66229da09b1138af584eafc1,,,,,,,,,,,,,,,,,,,,,,,,,,,,,,,,,,,,,,,,,,,,,,,,,,,,,,,,1,18,78,36,1,A,Y,N,o1_image,stimuli/out1.png,stimuli/correct_out1.png,stimuli/out2.png,,,,,,,,,,,,,,,,,,,,,,,,,,,,,,,,,,,,,,
,,6487929144e5af4f15fde1f8,22,male,2024-04-19_18h37.16.250,stockport_simplified,2022.2.4,Win32,29.41176471,661e456ee6de07e70aa9ef7b,66229da09b1138af584eafc1,,,,,,,,,,,,,,,,,,,,,,,,,,,,,,,,,,400.347,401.38,"[2,1,7,5,8,6,3,4]","[[-0.3,0.2],[0.3,0.2]]","[[-0.125,-0.2],[0.125,-0.2]]",-0.086574046,-0.167592621,1,0,0,0.533,o1_image,401.381,0,401.882,401.882,403.882,0,0,0,0,1,,,,,,,,,,,,,,,,,,,,,,,,,,,,,,,,,,,,,,,,,,,,,,,,,,
,,6487929144e5af4f15fde1f8,22,male,2024-04-19_18h37.16.250,stockport_simplified,2022.2.4,Win32,29.41176471,661e456ee6de07e70aa9ef7b,66229da09b1138af584eafc1,,,,,,,,,,,,,,,,,,,,,,,,,,,,,,,,,,,,,,,,,,,,,,,,,,,,,,,,1,19,79,58,1,N,M,D,o2_image,stimuli/out2.png,stimuli/out1.png,stimuli/correct_out2.png,,,,,,,,,,,,,,,,,,,,,,,,,,,,,,,,,,,,,,
,,6487929144e5af4f15fde1f8,22,male,2024-04-19_18h37.16.250,stockport_simplified,2022.2.4,Win32,29.41176471,661e456ee6de07e70aa9ef7b,66229da09b1138af584eafc1,,,,,,,,,,,,,,,,,,,,,,,,,,,,,,,,,,403.883,405.317,"[2,1,7,5,8,6,3,4]","[[0.3,0.2],[-0.3,0.2]]","[[0.125,-0.2],[-0.125,-0.2]]",0.113888889,-0.166203732,1,0,0,0.9,o1_image,405.317,0,405.817,405.817,407.818,0,0,0,0,1,,,,,,,,,,,,,,,,,,,,,,,,,,,,,,,,,,,,,,,,,,,,,,,,,,
,,6487929144e5af4f15fde1f8,22,male,2024-04-19_18h37.16.250,stockport_simplified,2022.2.4,Win32,29.41176471,661e456ee6de07e70aa9ef7b,66229da09b1138af584eafc1,,,,,,,,,,,,,,,,,,,,,,,,,,,,,,,,,,,,,,,,,,,,,,,,,,,,,,,,1,20,80,28,1,N,M,D,o2_image,stimuli/out2.png,stimuli/out1.png,stimuli/correct_out2.png,,,,,,,,,,,,,,,,,,,,,,,,,,,,,,,,,,,,,,
,,6487929144e5af4f15fde1f8,22,male,2024-04-19_18h37.16.250,stockport_simplified,2022.2.4,Win32,29.41176471,661e456ee6de07e70aa9ef7b,66229da09b1138af584eafc1,,,,,,,,,,,,,,,,,,,,,,,,,,,,,,,,,,407.819,409.252,"[2,1,7,5,8,6,3,4]","[[0.3,0.2],[-0.3,0.2]]","[[-0.125,-0.2],[0.125,-0.2]]",-0.096296268,-0.184259288,1,0,0,0.933,o1_image,409.253,1,409.753,409.753,411.754,0,0,0,0,1,,,,,,,,,,,,,,,,,,,,,,,,,,,,,,,,,,,,,,,,,,,,,,,,,,
,,6487929144e5af4f15fde1f8,22,male,2024-04-19_18h37.16.250,stockport_simplified,2022.2.4,Win32,29.41176471,661e456ee6de07e70aa9ef7b,66229da09b1138af584eafc1,,,,,,,,,,,,,,,,,,,,,,,,,,,,,,,,,,,,,,,,,,,,,,,,,,,,,,,,1,21,81,51,1,N,M,C,o1_image,stimuli/out1.png,stimuli/correct_out1.png,stimuli/out2.png,,,,,,,,,,,,,,,,,,,,,,,,,,,,,,,,,,,,,,
,,6487929144e5af4f15fde1f8,22,male,2024-04-19_18h37.16.250,stockport_simplified,2022.2.4,Win32,29.41176471,661e456ee6de07e70aa9ef7b,66229da09b1138af584eafc1,,,,,,,,,,,,,,,,,,,,,,,,,,,,,,,,,,411.754,412.955,"[2,1,7,5,8,6,3,4]","[[-0.3,0.2],[0.3,0.2]]","[[0.125,-0.2],[-0.125,-0.2]]",-0.125,-0.171759288,1,0,0,0.701,o2_image,412.955,1,413.465,413.465,415.456,0,0,0,0,1,,,,,,,,,,,,,,,,,,,,,,,,,,,,,,,,,,,,,,,,,,,,,,,,,,
,,6487929144e5af4f15fde1f8,22,male,2024-04-19_18h37.16.250,stockport_simplified,2022.2.4,Win32,29.41176471,661e456ee6de07e70aa9ef7b,66229da09b1138af584eafc1,,,,,,,,,,,,,,,,,,,,,,,,,,,,,,,,,,,,,,,,,,,,,,,,,,,,,,,,1,22,82,41,1,B,X,N,o2_image,stimuli/out2.png,stimuli/out1.png,stimuli/correct_out2.png,,,,,,,,,,,,,,,,,,,,,,,,,,,,,,,,,,,,,,
,,6487929144e5af4f15fde1f8,22,male,2024-04-19_18h37.16.250,stockport_simplified,2022.2.4,Win32,29.41176471,661e456ee6de07e70aa9ef7b,66229da09b1138af584eafc1,,,,,,,,,,,,,,,,,,,,,,,,,,,,,,,,,,415.457,416.491,"[2,1,7,5,8,6,3,4]","[[0.3,0.2],[-0.3,0.2]]","[[0.125,-0.2],[-0.125,-0.2]]",-0.110185157,-0.180092621,1,0,0,0.534,o2_image,416.491,0,416.99,416.99,418.992,0,0,0,0,1,,,,,,,,,,,,,,,,,,,,,,,,,,,,,,,,,,,,,,,,,,,,,,,,,,
,,6487929144e5af4f15fde1f8,22,male,2024-04-19_18h37.16.250,stockport_simplified,2022.2.4,Win32,29.41176471,661e456ee6de07e70aa9ef7b,66229da09b1138af584eafc1,,,,,,,,,,,,,,,,,,,,,,,,,,,,,,,,,,,,,,,,,,,,,,,,,,,,,,,,1,23,83,50,1,N,M,C,o1_image,stimuli/out1.png,stimuli/correct_out1.png,stimuli/out2.png,,,,,,,,,,,,,,,,,,,,,,,,,,,,,,,,,,,,,,
,,6487929144e5af4f15fde1f8,22,male,2024-04-19_18h37.16.250,stockport_simplified,2022.2.4,Win32,29.41176471,661e456ee6de07e70aa9ef7b,66229da09b1138af584eafc1,,,,,,,,,,,,,,,,,,,,,,,,,,,,,,,,,,418.992,420.56,"[2,1,7,5,8,6,3,4]","[[0.3,0.2],[-0.3,0.2]]","[[-0.125,-0.2],[0.125,-0.2]]",-0.099074046,-0.179166667,1,0,0,1.068,o1_image,420.56,1,421.061,421.061,423.062,0,0,0,0,1,,,,,,,,,,,,,,,,,,,,,,,,,,,,,,,,,,,,,,,,,,,,,,,,,,
,,6487929144e5af4f15fde1f8,22,male,2024-04-19_18h37.16.250,stockport_simplified,2022.2.4,Win32,29.41176471,661e456ee6de07e70aa9ef7b,66229da09b1138af584eafc1,,,,,,,,,,,,,,,,,,,,,,,,,,,,,,,,,,,,,,,,,,,,,,,,,,,,,,,,1,24,84,53,1,N,M,C,o1_image,stimuli/out1.png,stimuli/correct_out1.png,stimuli/out2.png,,,,,,,,,,,,,,,,,,,,,,,,,,,,,,,,,,,,,,
,,6487929144e5af4f15fde1f8,22,male,2024-04-19_18h37.16.250,stockport_simplified,2022.2.4,Win32,29.41176471,661e456ee6de07e70aa9ef7b,66229da09b1138af584eafc1,,,,,,,,,,,,,,,,,,,,,,,,,,,,,,,,,,423.062,424.763,"[2,1,7,5,8,6,3,4]","[[0.3,0.2],[-0.3,0.2]]","[[-0.125,-0.2],[0.125,-0.2]]",0.246759288,-0.192129644,1,0,0,0.867,o2_image,424.763,0,425.263,425.263,427.264,0,0,0,0,1,,,,,,,,,,,,,,,,,,,,,,,,,,,,,,,,,,,,,,,,,,,,,,,,,,
,,6487929144e5af4f15fde1f8,22,male,2024-04-19_18h37.16.250,stockport_simplified,2022.2.4,Win32,29.41176471,661e456ee6de07e70aa9ef7b,66229da09b1138af584eafc1,,,,,,,,,,,,,,,,,,,,,,,,,,,,,,,,,,,,,,,,,,,,,,,,,,,,,,,,1,25,85,5,1,A,Y,N,o1_image,stimuli/out1.png,stimuli/correct_out1.png,stimuli/out2.png,,,,,,,,,,,,,,,,,,,,,,,,,,,,,,,,,,,,,,
,,6487929144e5af4f15fde1f8,22,male,2024-04-19_18h37.16.250,stockport_simplified,2022.2.4,Win32,29.41176471,661e456ee6de07e70aa9ef7b,66229da09b1138af584eafc1,,,,,,,,,,,,,,,,,,,,,,,,,,,,,,,,,,427.264,428.364,"[2,1,7,5,8,6,3,4]","[[0.3,0.2],[-0.3,0.2]]","[[-0.125,-0.2],[0.125,-0.2]]",-0.100925869,-0.180092621,1,0,0,0.6,o1_image,428.364,0,428.865,428.865,430.866,0,0,0,0,1,,,,,,,,,,,,,,,,,,,,,,,,,,,,,,,,,,,,,,,,,,,,,,,,,,
,,6487929144e5af4f15fde1f8,22,male,2024-04-19_18h37.16.250,stockport_simplified,2022.2.4,Win32,29.41176471,661e456ee6de07e70aa9ef7b,66229da09b1138af584eafc1,,,,,,,,,,,,,,,,,,,,,,,,,,,,,,,,,,,,,,,,,,,,,,,,,,,,,,,,1,26,86,25,1,N,M,D,o2_image,stimuli/out2.png,stimuli/out1.png,stimuli/correct_out2.png,,,,,,,,,,,,,,,,,,,,,,,,,,,,,,,,,,,,,,
,,6487929144e5af4f15fde1f8,22,male,2024-04-19_18h37.16.250,stockport_simplified,2022.2.4,Win32,29.41176471,661e456ee6de07e70aa9ef7b,66229da09b1138af584eafc1,,,,,,,,,,,,,,,,,,,,,,,,,,,,,,,,,,430.866,431.834,"[2,1,7,5,8,6,3,4]","[[-0.3,0.2],[0.3,0.2]]","[[0.125,-0.2],[-0.125,-0.2]]",0.129629686,-0.166666667,1,0,0,0.467,o1_image,431.834,0,432.333,432.333,434.335,0,0,0,0,1,,,,,,,,,,,,,,,,,,,,,,,,,,,,,,,,,,,,,,,,,,,,,,,,,,
,,6487929144e5af4f15fde1f8,22,male,2024-04-19_18h37.16.250,stockport_simplified,2022.2.4,Win32,29.41176471,661e456ee6de07e70aa9ef7b,66229da09b1138af584eafc1,,,,,,,,,,,,,,,,,,,,,,,,,,,,,,,,,,,,,,,,,,,,,,,,,,,,,,,,1,27,87,57,1,N,M,D,o2_image,stimuli/out2.png,stimuli/out1.png,stimuli/correct_out2.png,,,,,,,,,,,,,,,,,,,,,,,,,,,,,,,,,,,,,,
,,6487929144e5af4f15fde1f8,22,male,2024-04-19_18h37.16.250,stockport_simplified,2022.2.4,Win32,29.41176471,661e456ee6de07e70aa9ef7b,66229da09b1138af584eafc1,,,,,,,,,,,,,,,,,,,,,,,,,,,,,,,,,,434.335,436.236,"[2,1,7,5,8,6,3,4]","[[0.3,0.2],[-0.3,0.2]]","[[-0.125,-0.2],[0.125,-0.2]]",0.118518575,-0.18148151,1,0,0,1.401,o2_image,436.237,0,436.737,436.737,438.737,0,0,0,0,1,,,,,,,,,,,,,,,,,,,,,,,,,,,,,,,,,,,,,,,,,,,,,,,,,,
,,6487929144e5af4f15fde1f8,22,male,2024-04-19_18h37.16.250,stockport_simplified,2022.2.4,Win32,29.41176471,661e456ee6de07e70aa9ef7b,66229da09b1138af584eafc1,,,,,,,,,,,,,,,,,,,,,,,,,,,,,,,,,,,,,,,,,,,,,,,,,,,,,,,,1,28,88,4,1,A,X,N,o1_image,stimuli/out1.png,stimuli/correct_out1.png,stimuli/out2.png,,,,,,,,,,,,,,,,,,,,,,,,,,,,,,,,,,,,,,
,,6487929144e5af4f15fde1f8,22,male,2024-04-19_18h37.16.250,stockport_simplified,2022.2.4,Win32,29.41176471,661e456ee6de07e70aa9ef7b,66229da09b1138af584eafc1,,,,,,,,,,,,,,,,,,,,,,,,,,,,,,,,,,438.739,439.872,"[2,1,7,5,8,6,3,4]","[[0.3,0.2],[-0.3,0.2]]","[[-0.125,-0.2],[0.125,-0.2]]",-0.0875,-0.170833333,1,0,0,0.601,o1_image,439.872,1,440.372,440.372,442.374,0,0,0,0,1,,,,,,,,,,,,,,,,,,,,,,,,,,,,,,,,,,,,,,,,,,,,,,,,,,
,,6487929144e5af4f15fde1f8,22,male,2024-04-19_18h37.16.250,stockport_simplified,2022.2.4,Win32,29.41176471,661e456ee6de07e70aa9ef7b,66229da09b1138af584eafc1,,,,,,,,,,,,,,,,,,,,,,,,,,,,,,,,,,,,,,,,,,,,,,,,,,,,,,,,1,29,89,35,1,A,Y,N,o1_image,stimuli/out1.png,stimuli/correct_out1.png,stimuli/out2.png,,,,,,,,,,,,,,,,,,,,,,,,,,,,,,,,,,,,,,
,,6487929144e5af4f15fde1f8,22,male,2024-04-19_18h37.16.250,stockport_simplified,2022.2.4,Win32,29.41176471,661e456ee6de07e70aa9ef7b,66229da09b1138af584eafc1,,,,,,,,,,,,,,,,,,,,,,,,,,,,,,,,,,442.374,443.575,"[2,1,7,5,8,6,3,4]","[[-0.3,0.2],[0.3,0.2]]","[[0.125,-0.2],[-0.125,-0.2]]",-0.077777778,-0.172685199,1,0,0,0.701,o2_image,443.575,1,444.074,444.074,446.075,0,0,0,0,1,,,,,,,,,,,,,,,,,,,,,,,,,,,,,,,,,,,,,,,,,,,,,,,,,,
,,6487929144e5af4f15fde1f8,22,male,2024-04-19_18h37.16.250,stockport_simplified,2022.2.4,Win32,29.41176471,661e456ee6de07e70aa9ef7b,66229da09b1138af584eafc1,,,,,,,,,,,,,,,,,,,,,,,,,,,,,,,,,,,,,,,,,,,,,,,,,,,,,,,,1,30,90,59,1,N,M,D,o2_image,stimuli/out2.png,stimuli/out1.png,stimuli/correct_out2.png,,,,,,,,,,,,,,,,,,,,,,,,,,,,,,,,,,,,,,
,,6487929144e5af4f15fde1f8,22,male,2024-04-19_18h37.16.250,stockport_simplified,2022.2.4,Win32,29.41176471,661e456ee6de07e70aa9ef7b,66229da09b1138af584eafc1,,,,,,,,,,,,,,,,,,,,,,,,,,,,,,,,,,446.075,447.109,"[2,1,7,5,8,6,3,4]","[[0.3,0.2],[-0.3,0.2]]","[[-0.125,-0.2],[0.125,-0.2]]",-0.086574046,-0.153703732,1,0,0,0.533,o1_image,447.11,1,447.61,447.61,449.611,0,0,0,0,1,,,,,,,,,,,,,,,,,,,,,,,,,,,,,,,,,,,,,,,,,,,,,,,,,,
,,6487929144e5af4f15fde1f8,22,male,2024-04-19_18h37.16.250,stockport_simplified,2022.2.4,Win32,29.41176471,661e456ee6de07e70aa9ef7b,66229da09b1138af584eafc1,,,,,,,,,,,,,,,,,,,,,,,,,,,,,,,,,,,,,,,,,,,,,,,,,,,,,,,,1,31,91,37,1,A,Y,N,o1_image,stimuli/out1.png,stimuli/correct_out1.png,stimuli/out2.png,,,,,,,,,,,,,,,,,,,,,,,,,,,,,,,,,,,,,,
,,6487929144e5af4f15fde1f8,22,male,2024-04-19_18h37.16.250,stockport_simplified,2022.2.4,Win32,29.41176471,661e456ee6de07e70aa9ef7b,66229da09b1138af584eafc1,,,,,,,,,,,,,,,,,,,,,,,,,,,,,,,,,,449.611,450.512,"[2,1,7,5,8,6,3,4]","[[0.3,0.2],[-0.3,0.2]]","[[-0.125,-0.2],[0.125,-0.2]]",-0.089351824,-0.154166667,1,0,0,0.4,o1_image,450.513,0,451.013,451.013,453.013,0,0,0,0,1,,,,,,,,,,,,,,,,,,,,,,,,,,,,,,,,,,,,,,,,,,,,,,,,,,
,,6487929144e5af4f15fde1f8,22,male,2024-04-19_18h37.16.250,stockport_simplified,2022.2.4,Win32,29.41176471,661e456ee6de07e70aa9ef7b,66229da09b1138af584eafc1,,,,,,,,,,,,,,,,,,,,,,,,,,,,,,,,,,,,,,,,,,,,,,,,,,,,,,,,1,32,92,10,1,B,X,N,o2_image,stimuli/out2.png,stimuli/out1.png,stimuli/correct_out2.png,,,,,,,,,,,,,,,,,,,,,,,,,,,,,,,,,,,,,,
,,6487929144e5af4f15fde1f8,22,male,2024-04-19_18h37.16.250,stockport_simplified,2022.2.4,Win32,29.41176471,661e456ee6de07e70aa9ef7b,66229da09b1138af584eafc1,,,,,,,,,,,,,,,,,,,,,,,,,,,,,,,,,,453.013,454.948,"[2,1,7,5,8,6,3,4]","[[0.3,0.2],[-0.3,0.2]]","[[0.125,-0.2],[-0.125,-0.2]]",-0.080555556,-0.163425954,1,0,0,1.433,o2_image,454.949,0,455.449,455.449,457.451,0,0,0,0,1,,,,,,,,,,,,,,,,,,,,,,,,,,,,,,,,,,,,,,,,,,,,,,,,,,
,,6487929144e5af4f15fde1f8,22,male,2024-04-19_18h37.16.250,stockport_simplified,2022.2.4,Win32,29.41176471,661e456ee6de07e70aa9ef7b,66229da09b1138af584eafc1,,,,,,,,,,,,,,,,,,,,,,,,,,,,,,,,,,,,,,,,,,,,,,,,,,,,,,,,1,33,93,9,1,A,Y,N,o1_image,stimuli/out1.png,stimuli/correct_out1.png,stimuli/out2.png,,,,,,,,,,,,,,,,,,,,,,,,,,,,,,,,,,,,,,
,,6487929144e5af4f15fde1f8,22,male,2024-04-19_18h37.16.250,stockport_simplified,2022.2.4,Win32,29.41176471,661e456ee6de07e70aa9ef7b,66229da09b1138af584eafc1,,,,,,,,,,,,,,,,,,,,,,,,,,,,,,,,,,457.451,458.651,"[2,1,7,5,8,6,3,4]","[[-0.3,0.2],[0.3,0.2]]","[[0.125,-0.2],[-0.125,-0.2]]",0.084259288,-0.177777778,1,0,0,0.667,o1_image,458.652,1,459.151,459.151,461.152,0,0,0,0,1,,,,,,,,,,,,,,,,,,,,,,,,,,,,,,,,,,,,,,,,,,,,,,,,,,
,,6487929144e5af4f15fde1f8,22,male,2024-04-19_18h37.16.250,stockport_simplified,2022.2.4,Win32,29.41176471,661e456ee6de07e70aa9ef7b,66229da09b1138af584eafc1,,,,,,,,,,,,,,,,,,,,,,,,,,,,,,,,,,,,,,,,,,,,,,,,,,,,,,,,1,34,94,31,1,A,X,N,o1_image,stimuli/out1.png,stimuli/correct_out1.png,stimuli/out2.png,,,,,,,,,,,,,,,,,,,,,,,,,,,,,,,,,,,,,,
,,6487929144e5af4f15fde1f8,22,male,2024-04-19_18h37.16.250,stockport_simplified,2022.2.4,Win32,29.41176471,661e456ee6de07e70aa9ef7b,66229da09b1138af584eafc1,,,,,,,,,,,,,,,,,,,,,,,,,,,,,,,,,,461.152,462.219,"[2,1,7,5,8,6,3,4]","[[-0.3,0.2],[0.3,0.2]]","[[0.125,-0.2],[-0.125,-0.2]]",0.121759288,-0.192592621,1,0,0,0.566,o1_image,462.22,0,462.72,462.72,464.721,0,0,0,0,1,,,,,,,,,,,,,,,,,,,,,,,,,,,,,,,,,,,,,,,,,,,,,,,,,,
,,6487929144e5af4f15fde1f8,22,male,2024-04-19_18h37.16.250,stockport_simplified,2022.2.4,Win32,29.41176471,661e456ee6de07e70aa9ef7b,66229da09b1138af584eafc1,,,,,,,,,,,,,,,,,,,,,,,,,,,,,,,,,,,,,,,,,,,,,,,,,,,,,,,,1,35,95,44,1,B,X,N,o2_image,stimuli/out2.png,stimuli/out1.png,stimuli/correct_out2.png,,,,,,,,,,,,,,,,,,,,,,,,,,,,,,,,,,,,,,
,,6487929144e5af4f15fde1f8,22,male,2024-04-19_18h37.16.250,stockport_simplified,2022.2.4,Win32,29.41176471,661e456ee6de07e70aa9ef7b,66229da09b1138af584eafc1,,,,,,,,,,,,,,,,,,,,,,,,,,,,,,,,,,464.721,466.088,"[2,1,7,5,8,6,3,4]","[[-0.3,0.2],[0.3,0.2]]","[[0.125,-0.2],[-0.125,-0.2]]",0.120370399,-0.174074088,1,0,0,0.866,o1_image,466.089,0,466.589,466.589,468.59,0,0,0,0,1,,,,,,,,,,,,,,,,,,,,,,,,,,,,,,,,,,,,,,,,,,,,,,,,,,
,,6487929144e5af4f15fde1f8,22,male,2024-04-19_18h37.16.250,stockport_simplified,2022.2.4,Win32,29.41176471,661e456ee6de07e70aa9ef7b,66229da09b1138af584eafc1,,,,,,,,,,,,,,,,,,,,,,,,,,,,,,,,,,,,,,,,,,,,,,,,,,,,,,,,1,36,96,48,1,B,Y,N,o2_image,stimuli/out2.png,stimuli/out1.png,stimuli/correct_out2.png,,,,,,,,,,,,,,,,,,,,,,,,,,,,,,,,,,,,,,
,,6487929144e5af4f15fde1f8,22,male,2024-04-19_18h37.16.250,stockport_simplified,2022.2.4,Win32,29.41176471,661e456ee6de07e70aa9ef7b,66229da09b1138af584eafc1,,,,,,,,,,,,,,,,,,,,,,,,,,,,,,,,,,468.59,469.824,"[2,1,7,5,8,6,3,4]","[[-0.3,0.2],[0.3,0.2]]","[[-0.125,-0.2],[0.125,-0.2]]",-0.092129601,-0.164814843,1,0,0,0.733,o1_image,469.825,0,470.325,470.325,472.326,0,0,0,0,1,,,,,,,,,,,,,,,,,,,,,,,,,,,,,,,,,,,,,,,,,,,,,,,,,,
,,6487929144e5af4f15fde1f8,22,male,2024-04-19_18h37.16.250,stockport_simplified,2022.2.4,Win32,29.41176471,661e456ee6de07e70aa9ef7b,66229da09b1138af584eafc1,,,,,,,,,,,,,,,,,,,,,,,,,,,,,,,,,,,,,,,,,,,,,,,,,,,,,,,,1,37,97,13,1,B,X,N,o2_image,stimuli/out2.png,stimuli/out1.png,stimuli/correct_out2.png,,,,,,,,,,,,,,,,,,,,,,,,,,,,,,,,,,,,,,
,,6487929144e5af4f15fde1f8,22,male,2024-04-19_18h37.16.250,stockport_simplified,2022.2.4,Win32,29.41176471,661e456ee6de07e70aa9ef7b,66229da09b1138af584eafc1,,,,,,,,,,,,,,,,,,,,,,,,,,,,,,,,,,472.326,473.594,"[2,1,7,5,8,6,3,4]","[[-0.3,0.2],[0.3,0.2]]","[[0.125,-0.2],[-0.125,-0.2]]",0.095833333,-0.175,1,0,0,0.766,o1_image,473.594,1,474.094,474.094,476.095,0,0,0,0,1,,,,,,,,,,,,,,,,,,,,,,,,,,,,,,,,,,,,,,,,,,,,,,,,,,
,,6487929144e5af4f15fde1f8,22,male,2024-04-19_18h37.16.250,stockport_simplified,2022.2.4,Win32,29.41176471,661e456ee6de07e70aa9ef7b,66229da09b1138af584eafc1,,,,,,,,,,,,,,,,,,,,,,,,,,,,,,,,,,,,,,,,,,,,,,,,,,,,,,,,1,38,98,30,1,A,X,N,o1_image,stimuli/out1.png,stimuli/correct_out1.png,stimuli/out2.png,,,,,,,,,,,,,,,,,,,,,,,,,,,,,,,,,,,,,,
,,6487929144e5af4f15fde1f8,22,male,2024-04-19_18h37.16.250,stockport_simplified,2022.2.4,Win32,29.41176471,661e456ee6de07e70aa9ef7b,66229da09b1138af584eafc1,,,,,,,,,,,,,,,,,,,,,,,,,,,,,,,,,,476.095,477.664,"[2,1,7,5,8,6,3,4]","[[-0.3,0.2],[0.3,0.2]]","[[0.125,-0.2],[-0.125,-0.2]]",-0.103703647,-0.165740755,1,0,0,1.068,o2_image,477.664,0,478.163,478.163,480.165,0,0,0,0,1,,,,,,,,,,,,,,,,,,,,,,,,,,,,,,,,,,,,,,,,,,,,,,,,,,
,,6487929144e5af4f15fde1f8,22,male,2024-04-19_18h37.16.250,stockport_simplified,2022.2.4,Win32,29.41176471,661e456ee6de07e70aa9ef7b,66229da09b1138af584eafc1,,,,,,,,,,,,,,,,,,,,,,,,,,,,,,,,,,,,,,,,,,,,,,,,,,,,,,,,1,39,99,52,1,N,M,C,o1_image,stimuli/out1.png,stimuli/correct_out1.png,stimuli/out2.png,,,,,,,,,,,,,,,,,,,,,,,,,,,,,,,,,,,,,,
,,6487929144e5af4f15fde1f8,22,male,2024-04-19_18h37.16.250,stockport_simplified,2022.2.4,Win32,29.41176471,661e456ee6de07e70aa9ef7b,66229da09b1138af584eafc1,,,,,,,,,,,,,,,,,,,,,,,,,,,,,,,,,,480.166,481.232,"[2,1,7,5,8,6,3,4]","[[-0.3,0.2],[0.3,0.2]]","[[0.125,-0.2],[-0.125,-0.2]]",0.098611111,-0.143055556,1,0,0,0.534,o1_image,481.232,1,481.732,481.732,483.734,0,0,0,0,1,,,,,,,,,,,,,,,,,,,,,,,,,,,,,,,,,,,,,,,,,,,,,,,,,,
,,6487929144e5af4f15fde1f8,22,male,2024-04-19_18h37.16.250,stockport_simplified,2022.2.4,Win32,29.41176471,661e456ee6de07e70aa9ef7b,66229da09b1138af584eafc1,,,,,,,,,,,,,,,,,,,,,,,,,,,,,,,,,,,,,,,,,,,,,,,,,,,,,,,,1,40,100,33,1,A,X,N,o1_image,stimuli/out1.png,stimuli/correct_out1.png,stimuli/out2.png,,,,,,,,,,,,,,,,,,,,,,,,,,,,,,,,,,,,,,
,,6487929144e5af4f15fde1f8,22,male,2024-04-19_18h37.16.250,stockport_simplified,2022.2.4,Win32,29.41176471,661e456ee6de07e70aa9ef7b,66229da09b1138af584eafc1,,,,,,,,,,,,,,,,,,,,,,,,,,,,,,,,,,483.734,487.069,"[2,1,7,5,8,6,3,4]","[[0.3,0.2],[-0.3,0.2]]","[[0.125,-0.2],[-0.125,-0.2]]",-0.123611111,-0.206944444,1,0,0,2.835,o2_image,487.069,0,487.569,487.569,489.571,0,0,0,0,1,,,,,,,,,,,,,,,,,,,,,,,,,,,,,,,,,,,,,,,,,,,,,,,,,,
,,6487929144e5af4f15fde1f8,22,male,2024-04-19_18h37.16.250,stockport_simplified,2022.2.4,Win32,29.41176471,661e456ee6de07e70aa9ef7b,66229da09b1138af584eafc1,,,,,,,,,,,,,,,,,,,,,,,,,,,,,,,,,,,,,,,,,,,,,,,,,,,,,,,,1,41,101,32,1,A,X,N,o1_image,stimuli/out1.png,stimuli/correct_out1.png,stimuli/out2.png,,,,,,,,,,,,,,,,,,,,,,,,,,,,,,,,,,,,,,
,,6487929144e5af4f15fde1f8,22,male,2024-04-19_18h37.16.250,stockport_simplified,2022.2.4,Win32,29.41176471,661e456ee6de07e70aa9ef7b,66229da09b1138af584eafc1,,,,,,,,,,,,,,,,,,,,,,,,,,,,,,,,,,489.571,490.938,"[2,1,7,5,8,6,3,4]","[[-0.3,0.2],[0.3,0.2]]","[[0.125,-0.2],[-0.125,-0.2]]",0.182870399,-0.178240755,1,0,0,0.867,o1_image,490.939,0,491.439,491.439,493.44,0,0,0,0,1,,,,,,,,,,,,,,,,,,,,,,,,,,,,,,,,,,,,,,,,,,,,,,,,,,
,,6487929144e5af4f15fde1f8,22,male,2024-04-19_18h37.16.250,stockport_simplified,2022.2.4,Win32,29.41176471,661e456ee6de07e70aa9ef7b,66229da09b1138af584eafc1,,,,,,,,,,,,,,,,,,,,,,,,,,,,,,,,,,,,,,,,,,,,,,,,,,,,,,,,1,42,102,43,1,B,X,N,o2_image,stimuli/out2.png,stimuli/out1.png,stimuli/correct_out2.png,,,,,,,,,,,,,,,,,,,,,,,,,,,,,,,,,,,,,,
,,6487929144e5af4f15fde1f8,22,male,2024-04-19_18h37.16.250,stockport_simplified,2022.2.4,Win32,29.41176471,661e456ee6de07e70aa9ef7b,66229da09b1138af584eafc1,,,,,,,,,,,,,,,,,,,,,,,,,,,,,,,,,,493.44,494.541,"[2,1,7,5,8,6,3,4]","[[0.3,0.2],[-0.3,0.2]]","[[0.125,-0.2],[-0.125,-0.2]]",-0.085648092,-0.183333333,1,0,0,0.6,o2_image,494.541,0,495.04,495.04,497.042,0,0,0,0,1,,,,,,,,,,,,,,,,,,,,,,,,,,,,,,,,,,,,,,,,,,,,,,,,,,
,,6487929144e5af4f15fde1f8,22,male,2024-04-19_18h37.16.250,stockport_simplified,2022.2.4,Win32,29.41176471,661e456ee6de07e70aa9ef7b,66229da09b1138af584eafc1,,,,,,,,,,,,,,,,,,,,,,,,,,,,,,,,,,,,,,,,,,,,,,,,,,,,,,,,1,43,103,3,1,A,X,N,o1_image,stimuli/out1.png,stimuli/correct_out1.png,stimuli/out2.png,,,,,,,,,,,,,,,,,,,,,,,,,,,,,,,,,,,,,,
,,6487929144e5af4f15fde1f8,22,male,2024-04-19_18h37.16.250,stockport_simplified,2022.2.4,Win32,29.41176471,661e456ee6de07e70aa9ef7b,66229da09b1138af584eafc1,,,,,,,,,,,,,,,,,,,,,,,,,,,,,,,,,,497.042,498.143,"[2,1,7,5,8,6,3,4]","[[-0.3,0.2],[0.3,0.2]]","[[0.125,-0.2],[-0.125,-0.2]]",0.118055556,-0.176388889,1,0,0,0.601,o1_image,498.143,1,498.643,498.643,500.644,0,0,0,0,1,,,,,,,,,,,,,,,,,,,,,,,,,,,,,,,,,,,,,,,,,,,,,,,,,,
,,6487929144e5af4f15fde1f8,22,male,2024-04-19_18h37.16.250,stockport_simplified,2022.2.4,Win32,29.41176471,661e456ee6de07e70aa9ef7b,66229da09b1138af584eafc1,,,,,,,,,,,,,,,,,,,,,,,,,,,,,,,,,,,,,,,,,,,,,,,,,,,,,,,,1,44,104,39,1,A,Y,N,o1_image,stimuli/out1.png,stimuli/correct_out1.png,stimuli/out2.png,,,,,,,,,,,,,,,,,,,,,,,,,,,,,,,,,,,,,,
,,6487929144e5af4f15fde1f8,22,male,2024-04-19_18h37.16.250,stockport_simplified,2022.2.4,Win32,29.41176471,661e456ee6de07e70aa9ef7b,66229da09b1138af584eafc1,,,,,,,,,,,,,,,,,,,,,,,,,,,,,,,,,,500.644,501.645,"[2,1,7,5,8,6,3,4]","[[-0.3,0.2],[0.3,0.2]]","[[0.125,-0.2],[-0.125,-0.2]]",-0.124074046,-0.197222222,1,0,0,0.5,o2_image,501.645,1,502.145,502.145,504.146,0,0,0,0,1,,,,,,,,,,,,,,,,,,,,,,,,,,,,,,,,,,,,,,,,,,,,,,,,,,
,,6487929144e5af4f15fde1f8,22,male,2024-04-19_18h37.16.250,stockport_simplified,2022.2.4,Win32,29.41176471,661e456ee6de07e70aa9ef7b,66229da09b1138af584eafc1,,,,,,,,,,,,,,,,,,,,,,,,,,,,,,,,,,,,,,,,,,,,,,,,,,,,,,,,1,45,105,40,1,B,X,N,o2_image,stimuli/out2.png,stimuli/out1.png,stimuli/correct_out2.png,,,,,,,,,,,,,,,,,,,,,,,,,,,,,,,,,,,,,,
,,6487929144e5af4f15fde1f8,22,male,2024-04-19_18h37.16.250,stockport_simplified,2022.2.4,Win32,29.41176471,661e456ee6de07e70aa9ef7b,66229da09b1138af584eafc1,,,,,,,,,,,,,,,,,,,,,,,,,,,,,,,,,,504.147,505.381,"[2,1,7,5,8,6,3,4]","[[0.3,0.2],[-0.3,0.2]]","[[0.125,-0.2],[-0.125,-0.2]]",0.089351908,-0.153703732,1,0,0,0.734,o1_image,505.381,1,505.881,505.881,507.883,0,0,0,0,1,,,,,,,,,,,,,,,,,,,,,,,,,,,,,,,,,,,,,,,,,,,,,,,,,,
,,6487929144e5af4f15fde1f8,22,male,2024-04-19_18h37.16.250,stockport_simplified,2022.2.4,Win32,29.41176471,661e456ee6de07e70aa9ef7b,66229da09b1138af584eafc1,,,,,,,,,,,,,,,,,,,,,,,,,,,,,,,,,,,,,,,,,,,,,,,,,,,,,,,,1,46,106,6,1,A,Y,N,o1_image,stimuli/out1.png,stimuli/correct_out1.png,stimuli/out2.png,,,,,,,,,,,,,,,,,,,,,,,,,,,,,,,,,,,,,,
,,6487929144e5af4f15fde1f8,22,male,2024-04-19_18h37.16.250,stockport_simplified,2022.2.4,Win32,29.41176471,661e456ee6de07e70aa9ef7b,66229da09b1138af584eafc1,,,,,,,,,,,,,,,,,,,,,,,,,,,,,,,,,,507.883,509.283,"[2,1,7,5,8,6,3,4]","[[0.3,0.2],[-0.3,0.2]]","[[-0.125,-0.2],[0.125,-0.2]]",0.078703732,-0.172222222,1,0,0,0.866,o2_image,509.284,1,509.784,509.784,511.785,0,0,0,0,1,,,,,,,,,,,,,,,,,,,,,,,,,,,,,,,,,,,,,,,,,,,,,,,,,,
,,6487929144e5af4f15fde1f8,22,male,2024-04-19_18h37.16.250,stockport_simplified,2022.2.4,Win32,29.41176471,661e456ee6de07e70aa9ef7b,66229da09b1138af584eafc1,,,,,,,,,,,,,,,,,,,,,,,,,,,,,,,,,,,,,,,,,,,,,,,,,,,,,,,,1,47,107,12,1,B,X,N,o2_image,stimuli/out2.png,stimuli/out1.png,stimuli/correct_out2.png,,,,,,,,,,,,,,,,,,,,,,,,,,,,,,,,,,,,,,
,,6487929144e5af4f15fde1f8,22,male,2024-04-19_18h37.16.250,stockport_simplified,2022.2.4,Win32,29.41176471,661e456ee6de07e70aa9ef7b,66229da09b1138af584eafc1,,,,,,,,,,,,,,,,,,,,,,,,,,,,,,,,,,511.785,513.253,"[2,1,7,5,8,6,3,4]","[[-0.3,0.2],[0.3,0.2]]","[[-0.125,-0.2],[0.125,-0.2]]",-0.117592536,-0.157870399,1,0,0,0.968,o1_image,513.253,0,513.753,513.753,515.754,0,0,0,0,1,,,,,,,,,,,,,,,,,,,,,,,,,,,,,,,,,,,,,,,,,,,,,,,,,,
,,6487929144e5af4f15fde1f8,22,male,2024-04-19_18h37.16.250,stockport_simplified,2022.2.4,Win32,29.41176471,661e456ee6de07e70aa9ef7b,66229da09b1138af584eafc1,,,,,,,,,,,,,,,,,,,,,,,,,,,,,,,,,,,,,,,,,,,,,,,,,,,,,,,,1,48,108,27,1,N,M,D,o2_image,stimuli/out2.png,stimuli/out1.png,stimuli/correct_out2.png,,,,,,,,,,,,,,,,,,,,,,,,,,,,,,,,,,,,,,
,,6487929144e5af4f15fde1f8,22,male,2024-04-19_18h37.16.250,stockport_simplified,2022.2.4,Win32,29.41176471,661e456ee6de07e70aa9ef7b,66229da09b1138af584eafc1,,,,,,,,,,,,,,,,,,,,,,,,,,,,,,,,,,515.755,516.954,"[2,1,7,5,8,6,3,4]","[[0.3,0.2],[-0.3,0.2]]","[[-0.125,-0.2],[0.125,-0.2]]",-0.084259203,-0.136574088,1,0,0,0.666,o1_image,516.955,0,517.455,517.455,519.457,0,0,0,0,1,,,,,,,,,,,,,,,,,,,,,,,,,,,,,,,,,,,,,,,,,,,,,,,,,,
,,6487929144e5af4f15fde1f8,22,male,2024-04-19_18h37.16.250,stockport_simplified,2022.2.4,Win32,29.41176471,661e456ee6de07e70aa9ef7b,66229da09b1138af584eafc1,,,,,,,,,,,,,,,,,,,,,,,,,,,,,,,,,,,,,,,,,,,,,,,,,,,,,,,,1,49,109,45,1,B,Y,N,o2_image,stimuli/out2.png,stimuli/out1.png,stimuli/correct_out2.png,,,,,,,,,,,,,,,,,,,,,,,,,,,,,,,,,,,,,,
,,6487929144e5af4f15fde1f8,22,male,2024-04-19_18h37.16.250,stockport_simplified,2022.2.4,Win32,29.41176471,661e456ee6de07e70aa9ef7b,66229da09b1138af584eafc1,,,,,,,,,,,,,,,,,,,,,,,,,,,,,,,,,,519.457,520.657,"[2,1,7,5,8,6,3,4]","[[0.3,0.2],[-0.3,0.2]]","[[-0.125,-0.2],[0.125,-0.2]]",0.117129686,-0.179166667,1,0,0,0.7,o2_image,520.657,1,521.157,521.157,523.158,0,0,0,0,1,,,,,,,,,,,,,,,,,,,,,,,,,,,,,,,,,,,,,,,,,,,,,,,,,,
,,6487929144e5af4f15fde1f8,22,male,2024-04-19_18h37.16.250,stockport_simplified,2022.2.4,Win32,29.41176471,661e456ee6de07e70aa9ef7b,66229da09b1138af584eafc1,,,,,,,,,,,,,,,,,,,,,,,,,,,,,,,,,,,,,,,,,,,,,,,,,,,,,,,,1,50,110,18,1,B,Y,N,o2_image,stimuli/out2.png,stimuli/out1.png,stimuli/correct_out2.png,,,,,,,,,,,,,,,,,,,,,,,,,,,,,,,,,,,,,,
,,6487929144e5af4f15fde1f8,22,male,2024-04-19_18h37.16.250,stockport_simplified,2022.2.4,Win32,29.41176471,661e456ee6de07e70aa9ef7b,66229da09b1138af584eafc1,,,,,,,,,,,,,,,,,,,,,,,,,,,,,,,,,,523.158,524.66,"[2,1,7,5,8,6,3,4]","[[0.3,0.2],[-0.3,0.2]]","[[0.125,-0.2],[-0.125,-0.2]]",0.125,-0.198611111,1,0,0,1.001,o1_image,524.66,0,525.159,525.159,527.162,0,0,0,0,1,,,,,,,,,,,,,,,,,,,,,,,,,,,,,,,,,,,,,,,,,,,,,,,,,,
,,6487929144e5af4f15fde1f8,22,male,2024-04-19_18h37.16.250,stockport_simplified,2022.2.4,Win32,29.41176471,661e456ee6de07e70aa9ef7b,66229da09b1138af584eafc1,,,,,,,,,,,,,,,,,,,,,,,,,,,,,,,,,,,,,,,,,,,,,,,,,,,,,,,,1,51,111,46,1,B,Y,N,o2_image,stimuli/out2.png,stimuli/out1.png,stimuli/correct_out2.png,,,,,,,,,,,,,,,,,,,,,,,,,,,,,,,,,,,,,,
,,6487929144e5af4f15fde1f8,22,male,2024-04-19_18h37.16.250,stockport_simplified,2022.2.4,Win32,29.41176471,661e456ee6de07e70aa9ef7b,66229da09b1138af584eafc1,,,,,,,,,,,,,,,,,,,,,,,,,,,,,,,,,,527.162,528.095,"[2,1,7,5,8,6,3,4]","[[0.3,0.2],[-0.3,0.2]]","[[0.125,-0.2],[-0.125,-0.2]]",-0.077314758,-0.177777778,1,0,0,0.433,o2_image,528.096,1,528.596,528.596,530.597,0,0,0,0,1,,,,,,,,,,,,,,,,,,,,,,,,,,,,,,,,,,,,,,,,,,,,,,,,,,
,,6487929144e5af4f15fde1f8,22,male,2024-04-19_18h37.16.250,stockport_simplified,2022.2.4,Win32,29.41176471,661e456ee6de07e70aa9ef7b,66229da09b1138af584eafc1,,,,,,,,,,,,,,,,,,,,,,,,,,,,,,,,,,,,,,,,,,,,,,,,,,,,,,,,1,52,112,17,1,B,Y,N,o2_image,stimuli/out2.png,stimuli/out1.png,stimuli/correct_out2.png,,,,,,,,,,,,,,,,,,,,,,,,,,,,,,,,,,,,,,
,,6487929144e5af4f15fde1f8,22,male,2024-04-19_18h37.16.250,stockport_simplified,2022.2.4,Win32,29.41176471,661e456ee6de07e70aa9ef7b,66229da09b1138af584eafc1,,,,,,,,,,,,,,,,,,,,,,,,,,,,,,,,,,530.597,531.631,"[2,1,7,5,8,6,3,4]","[[-0.3,0.2],[0.3,0.2]]","[[0.125,-0.2],[-0.125,-0.2]]",-0.11851849,-0.153240755,1,0,0,0.534,o2_image,531.632,1,532.131,532.131,534.133,0,0,0,0,1,,,,,,,,,,,,,,,,,,,,,,,,,,,,,,,,,,,,,,,,,,,,,,,,,,
,,6487929144e5af4f15fde1f8,22,male,2024-04-19_18h37.16.250,stockport_simplified,2022.2.4,Win32,29.41176471,661e456ee6de07e70aa9ef7b,66229da09b1138af584eafc1,,,,,,,,,,,,,,,,,,,,,,,,,,,,,,,,,,,,,,,,,,,,,,,,,,,,,,,,1,53,113,42,1,B,X,N,o2_image,stimuli/out2.png,stimuli/out1.png,stimuli/correct_out2.png,,,,,,,,,,,,,,,,,,,,,,,,,,,,,,,,,,,,,,
,,6487929144e5af4f15fde1f8,22,male,2024-04-19_18h37.16.250,stockport_simplified,2022.2.4,Win32,29.41176471,661e456ee6de07e70aa9ef7b,66229da09b1138af584eafc1,,,,,,,,,,,,,,,,,,,,,,,,,,,,,,,,,,534.133,535.667,"[2,1,7,5,8,6,3,4]","[[-0.3,0.2],[0.3,0.2]]","[[0.125,-0.2],[-0.125,-0.2]]",0.095833333,-0.228240797,1,0,0,1.033,o1_image,535.667,0,536.167,536.167,538.168,0,0,0,0,1,,,,,,,,,,,,,,,,,,,,,,,,,,,,,,,,,,,,,,,,,,,,,,,,,,
,,6487929144e5af4f15fde1f8,22,male,2024-04-19_18h37.16.250,stockport_simplified,2022.2.4,Win32,29.41176471,661e456ee6de07e70aa9ef7b,66229da09b1138af584eafc1,,,,,,,,,,,,,,,,,,,,,,,,,,,,,,,,,,,,,,,,,,,,,,,,,,,,,,,,1,54,114,14,1,B,X,N,o2_image,stimuli/out2.png,stimuli/out1.png,stimuli/correct_out2.png,,,,,,,,,,,,,,,,,,,,,,,,,,,,,,,,,,,,,,
,,6487929144e5af4f15fde1f8,22,male,2024-04-19_18h37.16.250,stockport_simplified,2022.2.4,Win32,29.41176471,661e456ee6de07e70aa9ef7b,66229da09b1138af584eafc1,,,,,,,,,,,,,,,,,,,,,,,,,,,,,,,,,,538.168,539.036,"[2,1,7,5,8,6,3,4]","[[-0.3,0.2],[0.3,0.2]]","[[0.125,-0.2],[-0.125,-0.2]]",-0.13101849,-0.166203732,1,0,0,0.367,o2_image,539.036,0,539.535,539.535,541.538,0,0,0,0,1,,,,,,,,,,,,,,,,,,,,,,,,,,,,,,,,,,,,,,,,,,,,,,,,,,
,,6487929144e5af4f15fde1f8,22,male,2024-04-19_18h37.16.250,stockport_simplified,2022.2.4,Win32,29.41176471,661e456ee6de07e70aa9ef7b,66229da09b1138af584eafc1,,,,,,,,,,,,,,,,,,,,,,,,,,,,,,,,,,,,,,,,,,,,,,,,,,,,,,,,1,55,115,21,1,N,M,C,o1_image,stimuli/out1.png,stimuli/correct_out1.png,stimuli/out2.png,,,,,,,,,,,,,,,,,,,,,,,,,,,,,,,,,,,,,,
,,6487929144e5af4f15fde1f8,22,male,2024-04-19_18h37.16.250,stockport_simplified,2022.2.4,Win32,29.41176471,661e456ee6de07e70aa9ef7b,66229da09b1138af584eafc1,,,,,,,,,,,,,,,,,,,,,,,,,,,,,,,,,,541.538,542.671,"[2,1,7,5,8,6,3,4]","[[0.3,0.2],[-0.3,0.2]]","[[-0.125,-0.2],[0.125,-0.2]]",-0.123611111,-0.181944444,1,0,0,0.633,o1_image,542.671,1,543.172,543.172,545.173,0,0,0,0,1,,,,,,,,,,,,,,,,,,,,,,,,,,,,,,,,,,,,,,,,,,,,,,,,,,
,,6487929144e5af4f15fde1f8,22,male,2024-04-19_18h37.16.250,stockport_simplified,2022.2.4,Win32,29.41176471,661e456ee6de07e70aa9ef7b,66229da09b1138af584eafc1,,,,,,,,,,,,,,,,,,,,,,,,,,,,,,,,,,,,,,,,,,,,,,,,,,,,,,,,1,56,116,22,1,N,M,C,o1_image,stimuli/out1.png,stimuli/correct_out1.png,stimuli/out2.png,,,,,,,,,,,,,,,,,,,,,,,,,,,,,,,,,,,,,,
,,6487929144e5af4f15fde1f8,22,male,2024-04-19_18h37.16.250,stockport_simplified,2022.2.4,Win32,29.41176471,661e456ee6de07e70aa9ef7b,66229da09b1138af584eafc1,,,,,,,,,,,,,,,,,,,,,,,,,,,,,,,,,,545.173,546.14,"[2,1,7,5,8,6,3,4]","[[-0.3,0.2],[0.3,0.2]]","[[0.125,-0.2],[-0.125,-0.2]]",-0.098148092,-0.157407422,1,0,0,0.466,o2_image,546.14,1,546.64,546.64,548.642,0,0,0,0,1,,,,,,,,,,,,,,,,,,,,,,,,,,,,,,,,,,,,,,,,,,,,,,,,,,
,,6487929144e5af4f15fde1f8,22,male,2024-04-19_18h37.16.250,stockport_simplified,2022.2.4,Win32,29.41176471,661e456ee6de07e70aa9ef7b,66229da09b1138af584eafc1,,,,,,,,,,,,,,,,,,,,,,,,,,,,,,,,,,,,,,,,,,,,,,,,,,,,,,,,1,57,117,55,1,N,M,D,o2_image,stimuli/out2.png,stimuli/out1.png,stimuli/correct_out2.png,,,,,,,,,,,,,,,,,,,,,,,,,,,,,,,,,,,,,,
,,6487929144e5af4f15fde1f8,22,male,2024-04-19_18h37.16.250,stockport_simplified,2022.2.4,Win32,29.41176471,661e456ee6de07e70aa9ef7b,66229da09b1138af584eafc1,,,,,,,,,,,,,,,,,,,,,,,,,,,,,,,,,,548.642,550.409,"[2,1,7,5,8,6,3,4]","[[0.3,0.2],[-0.3,0.2]]","[[-0.125,-0.2],[0.125,-0.2]]",0.113425954,-0.142129644,1,0,0,1.267,o2_image,550.41,1,550.91,550.91,552.912,0,0,0,0,1,,,,,,,,,,,,,,,,,,,,,,,,,,,,,,,,,,,,,,,,,,,,,,,,,,
,,6487929144e5af4f15fde1f8,22,male,2024-04-19_18h37.16.250,stockport_simplified,2022.2.4,Win32,29.41176471,661e456ee6de07e70aa9ef7b,66229da09b1138af584eafc1,,,,,,,,,,,,,,,,,,,,,,,,,,,,,,,,,,,,,,,,,,,,,,,,,,,,,,,,1,58,118,29,1,N,M,D,o2_image,stimuli/out2.png,stimuli/out1.png,stimuli/correct_out2.png,,,,,,,,,,,,,,,,,,,,,,,,,,,,,,,,,,,,,,
,,6487929144e5af4f15fde1f8,22,male,2024-04-19_18h37.16.250,stockport_simplified,2022.2.4,Win32,29.41176471,661e456ee6de07e70aa9ef7b,66229da09b1138af584eafc1,,,,,,,,,,,,,,,,,,,,,,,,,,,,,,,,,,552.912,555.18,"[2,1,7,5,8,6,3,4]","[[-0.3,0.2],[0.3,0.2]]","[[-0.125,-0.2],[0.125,-0.2]]",-0.182407379,-0.217592621,1,0,0,1.734,o1_image,555.18,1,555.68,555.68,557.681,0,0,0,0,1,,,,,,,,,,,,,,,,,,,,,,,,,,,,,,,,,,,,,,,,,,,,,,,,,,
,,6487929144e5af4f15fde1f8,22,male,2024-04-19_18h37.16.250,stockport_simplified,2022.2.4,Win32,29.41176471,661e456ee6de07e70aa9ef7b,66229da09b1138af584eafc1,,,,,,,,,,,,,,,,,,,,,,,,,,,,,,,,,,,,,,,,,,,,,,,,,,,,,,,,1,59,119,2,1,A,X,N,o1_image,stimuli/out1.png,stimuli/correct_out1.png,stimuli/out2.png,,,,,,,,,,,,,,,,,,,,,,,,,,,,,,,,,,,,,,
,,6487929144e5af4f15fde1f8,22,male,2024-04-19_18h37.16.250,stockport_simplified,2022.2.4,Win32,29.41176471,661e456ee6de07e70aa9ef7b,66229da09b1138af584eafc1,,,,,,,,,,,,,,,,,,,,,,,,,,,,,,,,,,557.689,558.848,"[2,1,7,5,8,6,3,4]","[[-0.3,0.2],[0.3,0.2]]","[[0.125,-0.2],[-0.125,-0.2]]",0.127777778,-0.168055556,1,0,0,0.633,o1_image,558.849,0,559.349,559.349,561.35,,,,,,,,,,,,,,,,,,0,0,0,0,1,,,,,,,,,,,,,,,,,,,,,,,,,,,,,,,,,
,,6487929144e5af4f15fde1f8,22,male,2024-04-19_18h37.16.250,stockport_simplified,2022.2.4,Win32,29.41176471,661e456ee6de07e70aa9ef7b,66229da09b1138af584eafc1,,,,,,,,,,,,,,,,,,,,,,,,,,,,,,,,,,,,,,,,,,,,,,,,,,,,,,,,,,,,,B,Y,N,o2_image,stimuli/out2.png,stimuli/out1.png,stimuli/correct_out2.png,,,,,,0,0,0,35,1,,,,,,,,,,,,,,,,,,,,,,,,,,,,
,,6487929144e5af4f15fde1f8,22,male,2024-04-19_18h37.16.250,stockport_simplified,2022.2.4,Win32,29.41176471,661e456ee6de07e70aa9ef7b,66229da09b1138af584eafc1,,,,,,,,,,,,,,,,,,,,,,,,,,,,,,,,,,561.35,563.184,"[2,1,7,5,8,6,3,4]","[[0.3,0.2],[-0.3,0.2]]","[[0.125,-0.2],[-0.125,-0.2]]",0.115740797,-0.153703732,1,0,0,1.333,o1_image,563.185,0,563.685,563.685,565.686,,,,,,,,,,,,,,,,,,0,0,0,0,1,,,,,,,,,,,,,,,,,,,,,,,,,,,,,,,,,
,,6487929144e5af4f15fde1f8,22,male,2024-04-19_18h37.16.250,stockport_simplified,2022.2.4,Win32,29.41176471,661e456ee6de07e70aa9ef7b,66229da09b1138af584eafc1,,,,,,,,,,,,,,,,,,,,,,,,,,,,,,,,,,,,,,,,,,,,,,,,,,,,,,,,,,,,,A,X,N,o2_image,stimuli/out2.png,stimuli/out1.png,stimuli/correct_out2.png,,,,,,0,1,1,7,1,,,,,,,,,,,,,,,,,,,,,,,,,,,,
,,6487929144e5af4f15fde1f8,22,male,2024-04-19_18h37.16.250,stockport_simplified,2022.2.4,Win32,29.41176471,661e456ee6de07e70aa9ef7b,66229da09b1138af584eafc1,,,,,,,,,,,,,,,,,,,,,,,,,,,,,,,,,,565.686,567.354,"[2,1,7,5,8,6,3,4]","[[0.3,0.2],[-0.3,0.2]]","[[-0.125,-0.2],[0.125,-0.2]]",-0.123611111,-0.18379631,1,0,0,1.168,o1_image,567.354,1,567.854,567.854,569.855,,,,,,,,,,,,,,,,,,0,0,0,0,1,,,,,,,,,,,,,,,,,,,,,,,,,,,,,,,,,
,,6487929144e5af4f15fde1f8,22,male,2024-04-19_18h37.16.250,stockport_simplified,2022.2.4,Win32,29.41176471,661e456ee6de07e70aa9ef7b,66229da09b1138af584eafc1,,,,,,,,,,,,,,,,,,,,,,,,,,,,,,,,,,,,,,,,,,,,,,,,,,,,,,,,,,,,,N,M,C,o1_image,stimuli/out1.png,stimuli/correct_out1.png,stimuli/out2.png,,,,,,0,2,2,40,1,,,,,,,,,,,,,,,,,,,,,,,,,,,,
,,6487929144e5af4f15fde1f8,22,male,2024-04-19_18h37.16.250,stockport_simplified,2022.2.4,Win32,29.41176471,661e456ee6de07e70aa9ef7b,66229da09b1138af584eafc1,,,,,,,,,,,,,,,,,,,,,,,,,,,,,,,,,,569.855,571.856,"[2,1,7,5,8,6,3,4]","[[-0.3,0.2],[0.3,0.2]]","[[-0.125,-0.2],[0.125,-0.2]]",-0.132407379,-0.174537065,1,0,0,1.5,o1_image,571.856,0,572.357,572.357,574.359,,,,,,,,,,,,,,,,,,0,0,0,0,1,,,,,,,,,,,,,,,,,,,,,,,,,,,,,,,,,
,,6487929144e5af4f15fde1f8,22,male,2024-04-19_18h37.16.250,stockport_simplified,2022.2.4,Win32,29.41176471,661e456ee6de07e70aa9ef7b,66229da09b1138af584eafc1,,,,,,,,,,,,,,,,,,,,,,,,,,,,,,,,,,,,,,,,,,,,,,,,,,,,,,,,,,,,,A,X,N,o2_image,stimuli/out2.png,stimuli/out1.png,stimuli/correct_out2.png,,,,,,0,3,3,6,1,,,,,,,,,,,,,,,,,,,,,,,,,,,,
,,6487929144e5af4f15fde1f8,22,male,2024-04-19_18h37.16.250,stockport_simplified,2022.2.4,Win32,29.41176471,661e456ee6de07e70aa9ef7b,66229da09b1138af584eafc1,,,,,,,,,,,,,,,,,,,,,,,,,,,,,,,,,,574.359,575.526,"[2,1,7,5,8,6,3,4]","[[-0.3,0.2],[0.3,0.2]]","[[0.125,-0.2],[-0.125,-0.2]]",-0.131944444,-0.172685199,1,0,0,0.634,o2_image,575.526,1,576.026,576.026,578.028,,,,,,,,,,,,,,,,,,0,0,0,0,1,,,,,,,,,,,,,,,,,,,,,,,,,,,,,,,,,
,,6487929144e5af4f15fde1f8,22,male,2024-04-19_18h37.16.250,stockport_simplified,2022.2.4,Win32,29.41176471,661e456ee6de07e70aa9ef7b,66229da09b1138af584eafc1,,,,,,,,,,,,,,,,,,,,,,,,,,,,,,,,,,,,,,,,,,,,,,,,,,,,,,,,,,,,,N,M,D,o2_image,stimuli/out2.png,stimuli/out1.png,stimuli/correct_out2.png,,,,,,0,4,4,53,1,,,,,,,,,,,,,,,,,,,,,,,,,,,,
,,6487929144e5af4f15fde1f8,22,male,2024-04-19_18h37.16.250,stockport_simplified,2022.2.4,Win32,29.41176471,661e456ee6de07e70aa9ef7b,66229da09b1138af584eafc1,,,,,,,,,,,,,,,,,,,,,,,,,,,,,,,,,,578.028,579.362,"[2,1,7,5,8,6,3,4]","[[0.3,0.2],[-0.3,0.2]]","[[-0.125,-0.2],[0.125,-0.2]]",0.158333333,-0.174537065,1,0,0,0.833,o2_image,579.362,1,579.862,579.862,581.863,,,,,,,,,,,,,,,,,,0,0,0,0,1,,,,,,,,,,,,,,,,,,,,,,,,,,,,,,,,,
