counterbalance_2.started,counterbalance_2.stopped,participant,age,gender,date,expName,psychopyVersion,OS,frameRate,STUDY_ID,SESSION_ID,information_2.started,information_2.stopped,information_loop.thisRepN,information_loop.thisTrialN,information_loop.thisN,information_loop.thisIndex,information_loop.ran,information,consent_2.started,consent_2.stopped,slider_1.response,slider_2.response,slider_3.response,slider_4.response,slider_5.response,slider_6.response,instructions.started,instructions.stopped,task1_instr.thisRepN,task1_instr.thisTrialN,task1_instr.thisN,task1_instr.thisIndex,task1_instr.ran,task1,comprehension1_2.started,comprehension1_2.stopped,comp1_mouse.x,comp1_mouse.y,comp1_mouse.leftButton,comp1_mouse.midButton,comp1_mouse.rightButton,comp1_mouse.time,comp1_mouse.clicked_name,cue_o__trial_2.started,cue_o__trial_2.stopped,order,cue_order,out_order,cue_o_mouse.x,cue_o_mouse.y,cue_o_mouse.leftButton,cue_o_mouse.midButton,cue_o_mouse.rightButton,cue_o_mouse.time,cue_o_mouse.clicked_name,cue_selection_2.started,correct_answer,cue_selection_2.stopped,feedback_2.started,feedback_2.stopped,feedback_loop.thisRepN,feedback_loop.thisTrialN,feedback_loop.thisN,feedback_loop.thisIndex,feedback_loop.ran,stage1_trials.thisRepN,stage1_trials.thisTrialN,stage1_trials.thisN,stage1_trials.thisIndex,stage1_trials.ran,cue1,cue2,cue3,outcome,correct_out,o1_feedback,o2_feedback,stage2_feedback_loop.thisRepN,stage2_feedback_loop.thisTrialN,stage2_feedback_loop.thisN,stage2_feedback_loop.thisIndex,stage2_feedback_loop.ran,stage2_trials.thisRepN,stage2_trials.thisTrialN,stage2_trials.thisN,stage2_trials.thisIndex,stage2_trials.ran,stage3_feedback_loop.thisRepN,stage3_feedback_loop.thisTrialN,stage3_feedback_loop.thisN,stage3_feedback_loop.thisIndex,stage3_feedback_loop.ran,stage3_trials.thisRepN,stage3_trials.thisTrialN,stage3_trials.thisN,stage3_trials.thisIndex,stage3_trials.ran,debrief_2.started,debrief_2.stopped,debrief_loop.thisRepN,debrief_loop.thisTrialN,debrief_loop.thisN,debrief_loop.thisIndex,debrief_loop.ran,debrief_img,compr1_completed.thisRepN,compr1_completed.thisTrialN,compr1_completed.thisN,compr1_completed.thisIndex,compr1_completed.ran,consent_loop.thisRepN,consent_loop.thisTrialN,consent_loop.thisN,consent_loop.thisIndex,consent_loop.ran
0.0006,0.0012,60fb1cab39fd626cb9dc093b,30,female,2024-04-24_12h37.08.198,stockport_simplified,2022.2.4,Win32,30.08061605,661e456ee6de07e70aa9ef7b,6628df8c1af31ad1f5ae13b2,,,,,,,,,,,,,,,,,,,,,,,,,,,,,,,,,,,,,,,,,,,,,,,,,,,,,,,,,,,,,,,,,,,,,,,,,,,,,,,,,,,,,,,,,,,,,,,,,,,,,,,,,
,,60fb1cab39fd626cb9dc093b,30,female,2024-04-24_12h37.08.198,stockport_simplified,2022.2.4,Win32,30.08061605,661e456ee6de07e70aa9ef7b,6628df8c1af31ad1f5ae13b2,0.045,19.3893,0,0,0,0,1,instructions/info1.png,,,,,,,,,,,,,,,,,,,,,,,,,,,,,,,,,,,,,,,,,,,,,,,,,,,,,,,,,,,,,,,,,,,,,,,,,,,,,,,,,,,,,,,,,,,,,,,,,
,,60fb1cab39fd626cb9dc093b,30,female,2024-04-24_12h37.08.198,stockport_simplified,2022.2.4,Win32,30.08061605,661e456ee6de07e70aa9ef7b,6628df8c1af31ad1f5ae13b2,19.3904,29.4337,0,1,1,1,1,instructions/info2.png,,,,,,,,,,,,,,,,,,,,,,,,,,,,,,,,,,,,,,,,,,,,,,,,,,,,,,,,,,,,,,,,,,,,,,,,,,,,,,,,,,,,,,,,,,,,,,,,,
,,60fb1cab39fd626cb9dc093b,30,female,2024-04-24_12h37.08.198,stockport_simplified,2022.2.4,Win32,30.08061605,661e456ee6de07e70aa9ef7b,6628df8c1af31ad1f5ae13b2,29.4527,33.5119,0,2,2,2,1,instructions/info3.png,,,,,,,,,,,,,,,,,,,,,,,,,,,,,,,,,,,,,,,,,,,,,,,,,,,,,,,,,,,,,,,,,,,,,,,,,,,,,,,,,,,,,,,,,,,,,,,,,
,,60fb1cab39fd626cb9dc093b,30,female,2024-04-24_12h37.08.198,stockport_simplified,2022.2.4,Win32,30.08061605,661e456ee6de07e70aa9ef7b,6628df8c1af31ad1f5ae13b2,,,,,,,,,33.5808,50.8282,1,1,1,1,1,1,,,,,,,,,,,,,,,,,,,,,,,,,,,,,,,,,,,,,,,,,,,,,,,,,,,,,,,,,,,,,,,,,,,,,,,,,,,,,,,,,,,,,,,,,
,,60fb1cab39fd626cb9dc093b,30,female,2024-04-24_12h37.08.198,stockport_simplified,2022.2.4,Win32,30.08061605,661e456ee6de07e70aa9ef7b,6628df8c1af31ad1f5ae13b2,,,,,,,,,,,,,,,,,50.8468,103.7428,0,0,0,0,1,instructions/task1_1.png,,,,,,,,,,,,,,,,,,,,,,,,,,,,,,,,,,,,,,,,,,,,,,,,,,,,,,,,,,,,,,,,,,,,,,,,,,,,,,,,,
,,60fb1cab39fd626cb9dc093b,30,female,2024-04-24_12h37.08.198,stockport_simplified,2022.2.4,Win32,30.08061605,661e456ee6de07e70aa9ef7b,6628df8c1af31ad1f5ae13b2,,,,,,,,,,,,,,,,,103.7688,144.0498,0,1,1,1,1,instructions/task1_2.png,,,,,,,,,,,,,,,,,,,,,,,,,,,,,,,,,,,,,,,,,,,,,,,,,,,,,,,,,,,,,,,,,,,,,,,,,,,,,,,,,
,,60fb1cab39fd626cb9dc093b,30,female,2024-04-24_12h37.08.198,stockport_simplified,2022.2.4,Win32,30.08061605,661e456ee6de07e70aa9ef7b,6628df8c1af31ad1f5ae13b2,,,,,,,,,,,,,,,,,144.074,161.0174,0,2,2,2,1,instructions/task1_3.png,,,,,,,,,,,,,,,,,,,,,,,,,,,,,,,,,,,,,,,,,,,,,,,,,,,,,,,,,,,,,,,,,,,,,,,,,,,,,,,,,
,,60fb1cab39fd626cb9dc093b,30,female,2024-04-24_12h37.08.198,stockport_simplified,2022.2.4,Win32,30.08061605,661e456ee6de07e70aa9ef7b,6628df8c1af31ad1f5ae13b2,,,,,,,,,,,,,,,,,,,,,,,,,161.0195,191.153,-0.037760417,-0.317708333,1,0,0,30.1307,comp1_resp1,191.2063,198.1112,"[8,4,2,5,7,3,6,1]","[[-0.3,0.2],[0.3,0.2]]","[[0.125,-0.2],[-0.125,-0.2]]",0.203125,0.092447917,1,0,0,4.349,o1_image,198.1331,0,198.6152,198.6159,200.5989,0,0,0,0,1,,,,,,,,,,,,,,,,,,,,,,,,,,,,,,,,,,,,,,,,,,,,,,,,,,
,,60fb1cab39fd626cb9dc093b,30,female,2024-04-24_12h37.08.198,stockport_simplified,2022.2.4,Win32,30.08061605,661e456ee6de07e70aa9ef7b,6628df8c1af31ad1f5ae13b2,,,,,,,,,,,,,,,,,,,,,,,,,,,,,,,,,,,,,,,,,,,,,,,,,,,,,,,,0,0,0,47,1,B,Y,N,o2_image,stimuli/out2.png,stimuli/out1.png,stimuli/correct_out2.png,,,,,,,,,,,,,,,,,,,,,,,,,,,,,,,,,,,,,,
,,60fb1cab39fd626cb9dc093b,30,female,2024-04-24_12h37.08.198,stockport_simplified,2022.2.4,Win32,30.08061605,661e456ee6de07e70aa9ef7b,6628df8c1af31ad1f5ae13b2,,,,,,,,,,,,,,,,,,,,,,,,,,,,,,,,,,200.6017,203.7748,"[8,4,2,5,7,3,6,1]","[[0.3,0.2],[-0.3,0.2]]","[[0.125,-0.2],[-0.125,-0.2]]",0.141927083,-0.180989583,1,0,0,2.6518,o1_image,203.7934,0,204.2811,204.2812,206.2748,0,0,0,0,1,,,,,,,,,,,,,,,,,,,,,,,,,,,,,,,,,,,,,,,,,,,,,,,,,,
,,60fb1cab39fd626cb9dc093b,30,female,2024-04-24_12h37.08.198,stockport_simplified,2022.2.4,Win32,30.08061605,661e456ee6de07e70aa9ef7b,6628df8c1af31ad1f5ae13b2,,,,,,,,,,,,,,,,,,,,,,,,,,,,,,,,,,,,,,,,,,,,,,,,,,,,,,,,0,1,1,13,1,B,X,N,o2_image,stimuli/out2.png,stimuli/out1.png,stimuli/correct_out2.png,,,,,,,,,,,,,,,,,,,,,,,,,,,,,,,,,,,,,,
,,60fb1cab39fd626cb9dc093b,30,female,2024-04-24_12h37.08.198,stockport_simplified,2022.2.4,Win32,30.08061605,661e456ee6de07e70aa9ef7b,6628df8c1af31ad1f5ae13b2,,,,,,,,,,,,,,,,,,,,,,,,,,,,,,,,,,206.2763,208.3209,"[8,4,2,5,7,3,6,1]","[[-0.3,0.2],[0.3,0.2]]","[[0.125,-0.2],[-0.125,-0.2]]",0.141927083,-0.180989583,1,0,0,1.5233,o1_image,208.323,0,208.7975,208.7976,210.7798,0,0,0,0,1,,,,,,,,,,,,,,,,,,,,,,,,,,,,,,,,,,,,,,,,,,,,,,,,,,
,,60fb1cab39fd626cb9dc093b,30,female,2024-04-24_12h37.08.198,stockport_simplified,2022.2.4,Win32,30.08061605,661e456ee6de07e70aa9ef7b,6628df8c1af31ad1f5ae13b2,,,,,,,,,,,,,,,,,,,,,,,,,,,,,,,,,,,,,,,,,,,,,,,,,,,,,,,,0,2,2,58,1,N,M,D,o2_image,stimuli/out2.png,stimuli/out1.png,stimuli/correct_out2.png,,,,,,,,,,,,,,,,,,,,,,,,,,,,,,,,,,,,,,
,,60fb1cab39fd626cb9dc093b,30,female,2024-04-24_12h37.08.198,stockport_simplified,2022.2.4,Win32,30.08061605,661e456ee6de07e70aa9ef7b,6628df8c1af31ad1f5ae13b2,,,,,,,,,,,,,,,,,,,,,,,,,,,,,,,,,,210.7815,213.0677,"[8,4,2,5,7,3,6,1]","[[0.3,0.2],[-0.3,0.2]]","[[0.125,-0.2],[-0.125,-0.2]]",-0.08984375,-0.182291667,1,0,0,1.7628,o2_image,213.0701,1,213.5367,213.5367,215.5434,0,0,0,0,1,,,,,,,,,,,,,,,,,,,,,,,,,,,,,,,,,,,,,,,,,,,,,,,,,,
,,60fb1cab39fd626cb9dc093b,30,female,2024-04-24_12h37.08.198,stockport_simplified,2022.2.4,Win32,30.08061605,661e456ee6de07e70aa9ef7b,6628df8c1af31ad1f5ae13b2,,,,,,,,,,,,,,,,,,,,,,,,,,,,,,,,,,,,,,,,,,,,,,,,,,,,,,,,0,3,3,14,1,B,X,N,o2_image,stimuli/out2.png,stimuli/out1.png,stimuli/correct_out2.png,,,,,,,,,,,,,,,,,,,,,,,,,,,,,,,,,,,,,,
,,60fb1cab39fd626cb9dc093b,30,female,2024-04-24_12h37.08.198,stockport_simplified,2022.2.4,Win32,30.08061605,661e456ee6de07e70aa9ef7b,6628df8c1af31ad1f5ae13b2,,,,,,,,,,,,,,,,,,,,,,,,,,,,,,,,,,215.5457,218.9203,"[8,4,2,5,7,3,6,1]","[[-0.3,0.2],[0.3,0.2]]","[[-0.125,-0.2],[0.125,-0.2]]",-0.106770833,-0.19140625,1,0,0,2.851,o1_image,218.9385,1,219.4354,219.4355,221.4294,0,0,0,0,1,,,,,,,,,,,,,,,,,,,,,,,,,,,,,,,,,,,,,,,,,,,,,,,,,,
,,60fb1cab39fd626cb9dc093b,30,female,2024-04-24_12h37.08.198,stockport_simplified,2022.2.4,Win32,30.08061605,661e456ee6de07e70aa9ef7b,6628df8c1af31ad1f5ae13b2,,,,,,,,,,,,,,,,,,,,,,,,,,,,,,,,,,,,,,,,,,,,,,,,,,,,,,,,0,4,4,36,1,A,Y,N,o1_image,stimuli/out1.png,stimuli/correct_out1.png,stimuli/out2.png,,,,,,,,,,,,,,,,,,,,,,,,,,,,,,,,,,,,,,
,,60fb1cab39fd626cb9dc093b,30,female,2024-04-24_12h37.08.198,stockport_simplified,2022.2.4,Win32,30.08061605,661e456ee6de07e70aa9ef7b,6628df8c1af31ad1f5ae13b2,,,,,,,,,,,,,,,,,,,,,,,,,,,,,,,,,,221.4311,224.9793,"[8,4,2,5,7,3,6,1]","[[-0.3,0.2],[0.3,0.2]]","[[-0.125,-0.2],[0.125,-0.2]]",0.096354167,-0.200520833,1,0,0,3.0282,o2_image,225.0054,0,225.5062,225.5062,227.4977,0,0,0,0,1,,,,,,,,,,,,,,,,,,,,,,,,,,,,,,,,,,,,,,,,,,,,,,,,,,
,,60fb1cab39fd626cb9dc093b,30,female,2024-04-24_12h37.08.198,stockport_simplified,2022.2.4,Win32,30.08061605,661e456ee6de07e70aa9ef7b,6628df8c1af31ad1f5ae13b2,,,,,,,,,,,,,,,,,,,,,,,,,,,,,,,,,,,,,,,,,,,,,,,,,,,,,,,,0,5,5,22,1,N,M,C,o1_image,stimuli/out1.png,stimuli/correct_out1.png,stimuli/out2.png,,,,,,,,,,,,,,,,,,,,,,,,,,,,,,,,,,,,,,
,,60fb1cab39fd626cb9dc093b,30,female,2024-04-24_12h37.08.198,stockport_simplified,2022.2.4,Win32,30.08061605,661e456ee6de07e70aa9ef7b,6628df8c1af31ad1f5ae13b2,,,,,,,,,,,,,,,,,,,,,,,,,,,,,,,,,,227.4998,229.9122,"[8,4,2,5,7,3,6,1]","[[-0.3,0.2],[0.3,0.2]]","[[0.125,-0.2],[-0.125,-0.2]]",-0.114583333,-0.213541667,1,0,0,1.904,o2_image,229.9138,1,230.4064,230.4066,232.3875,0,0,0,0,1,,,,,,,,,,,,,,,,,,,,,,,,,,,,,,,,,,,,,,,,,,,,,,,,,,
,,60fb1cab39fd626cb9dc093b,30,female,2024-04-24_12h37.08.198,stockport_simplified,2022.2.4,Win32,30.08061605,661e456ee6de07e70aa9ef7b,6628df8c1af31ad1f5ae13b2,,,,,,,,,,,,,,,,,,,,,,,,,,,,,,,,,,,,,,,,,,,,,,,,,,,,,,,,0,6,6,49,1,B,Y,N,o2_image,stimuli/out2.png,stimuli/out1.png,stimuli/correct_out2.png,,,,,,,,,,,,,,,,,,,,,,,,,,,,,,,,,,,,,,
,,60fb1cab39fd626cb9dc093b,30,female,2024-04-24_12h37.08.198,stockport_simplified,2022.2.4,Win32,30.08061605,661e456ee6de07e70aa9ef7b,6628df8c1af31ad1f5ae13b2,,,,,,,,,,,,,,,,,,,,,,,,,,,,,,,,,,232.3894,236.3855,"[8,4,2,5,7,3,6,1]","[[0.3,0.2],[-0.3,0.2]]","[[0.125,-0.2],[-0.125,-0.2]]",0.110677083,-0.169270833,1,0,0,3.4495,o1_image,236.4049,1,236.8839,236.8839,238.8516,0,0,0,0,1,,,,,,,,,,,,,,,,,,,,,,,,,,,,,,,,,,,,,,,,,,,,,,,,,,
,,60fb1cab39fd626cb9dc093b,30,female,2024-04-24_12h37.08.198,stockport_simplified,2022.2.4,Win32,30.08061605,661e456ee6de07e70aa9ef7b,6628df8c1af31ad1f5ae13b2,,,,,,,,,,,,,,,,,,,,,,,,,,,,,,,,,,,,,,,,,,,,,,,,,,,,,,,,0,7,7,51,1,N,M,C,o1_image,stimuli/out1.png,stimuli/correct_out1.png,stimuli/out2.png,,,,,,,,,,,,,,,,,,,,,,,,,,,,,,,,,,,,,,
,,60fb1cab39fd626cb9dc093b,30,female,2024-04-24_12h37.08.198,stockport_simplified,2022.2.4,Win32,30.08061605,661e456ee6de07e70aa9ef7b,6628df8c1af31ad1f5ae13b2,,,,,,,,,,,,,,,,,,,,,,,,,,,,,,,,,,238.8529,243.0542,"[8,4,2,5,7,3,6,1]","[[0.3,0.2],[-0.3,0.2]]","[[0.125,-0.2],[-0.125,-0.2]]",0.106770833,-0.182291667,1,0,0,3.6703,o1_image,243.0725,1,243.5745,243.5745,245.5571,0,0,0,0,1,,,,,,,,,,,,,,,,,,,,,,,,,,,,,,,,,,,,,,,,,,,,,,,,,,
,,60fb1cab39fd626cb9dc093b,30,female,2024-04-24_12h37.08.198,stockport_simplified,2022.2.4,Win32,30.08061605,661e456ee6de07e70aa9ef7b,6628df8c1af31ad1f5ae13b2,,,,,,,,,,,,,,,,,,,,,,,,,,,,,,,,,,,,,,,,,,,,,,,,,,,,,,,,0,8,8,54,1,N,M,C,o1_image,stimuli/out1.png,stimuli/correct_out1.png,stimuli/out2.png,,,,,,,,,,,,,,,,,,,,,,,,,,,,,,,,,,,,,,
,,60fb1cab39fd626cb9dc093b,30,female,2024-04-24_12h37.08.198,stockport_simplified,2022.2.4,Win32,30.08061605,661e456ee6de07e70aa9ef7b,6628df8c1af31ad1f5ae13b2,,,,,,,,,,,,,,,,,,,,,,,,,,,,,,,,,,245.5581,247.9004,"[8,4,2,5,7,3,6,1]","[[0.3,0.2],[-0.3,0.2]]","[[0.125,-0.2],[-0.125,-0.2]]",-0.14453125,-0.173177083,1,0,0,1.8197,o2_image,247.9022,0,248.3847,248.3847,250.3685,0,0,0,0,1,,,,,,,,,,,,,,,,,,,,,,,,,,,,,,,,,,,,,,,,,,,,,,,,,,
,,60fb1cab39fd626cb9dc093b,30,female,2024-04-24_12h37.08.198,stockport_simplified,2022.2.4,Win32,30.08061605,661e456ee6de07e70aa9ef7b,6628df8c1af31ad1f5ae13b2,,,,,,,,,,,,,,,,,,,,,,,,,,,,,,,,,,,,,,,,,,,,,,,,,,,,,,,,0,9,9,0,1,A,X,N,o1_image,stimuli/out1.png,stimuli/correct_out1.png,stimuli/out2.png,,,,,,,,,,,,,,,,,,,,,,,,,,,,,,,,,,,,,,
,,60fb1cab39fd626cb9dc093b,30,female,2024-04-24_12h37.08.198,stockport_simplified,2022.2.4,Win32,30.08061605,661e456ee6de07e70aa9ef7b,6628df8c1af31ad1f5ae13b2,,,,,,,,,,,,,,,,,,,,,,,,,,,,,,,,,,250.3694,254.0147,"[8,4,2,5,7,3,6,1]","[[0.3,0.2],[-0.3,0.2]]","[[0.125,-0.2],[-0.125,-0.2]]",0.125,-0.204427083,1,0,0,3.1235,o1_image,254.0324,1,254.5367,254.5368,256.5306,0,0,0,0,1,,,,,,,,,,,,,,,,,,,,,,,,,,,,,,,,,,,,,,,,,,,,,,,,,,
,,60fb1cab39fd626cb9dc093b,30,female,2024-04-24_12h37.08.198,stockport_simplified,2022.2.4,Win32,30.08061605,661e456ee6de07e70aa9ef7b,6628df8c1af31ad1f5ae13b2,,,,,,,,,,,,,,,,,,,,,,,,,,,,,,,,,,,,,,,,,,,,,,,,,,,,,,,,0,10,10,30,1,A,X,N,o1_image,stimuli/out1.png,stimuli/correct_out1.png,stimuli/out2.png,,,,,,,,,,,,,,,,,,,,,,,,,,,,,,,,,,,,,,
,,60fb1cab39fd626cb9dc093b,30,female,2024-04-24_12h37.08.198,stockport_simplified,2022.2.4,Win32,30.08061605,661e456ee6de07e70aa9ef7b,6628df8c1af31ad1f5ae13b2,,,,,,,,,,,,,,,,,,,,,,,,,,,,,,,,,,256.5331,259.3539,"[8,4,2,5,7,3,6,1]","[[-0.3,0.2],[0.3,0.2]]","[[0.125,-0.2],[-0.125,-0.2]]",-0.119791667,-0.177083333,1,0,0,2.2834,o2_image,259.3711,0,259.8566,259.8566,261.8438,0,0,0,0,1,,,,,,,,,,,,,,,,,,,,,,,,,,,,,,,,,,,,,,,,,,,,,,,,,,
,,60fb1cab39fd626cb9dc093b,30,female,2024-04-24_12h37.08.198,stockport_simplified,2022.2.4,Win32,30.08061605,661e456ee6de07e70aa9ef7b,6628df8c1af31ad1f5ae13b2,,,,,,,,,,,,,,,,,,,,,,,,,,,,,,,,,,,,,,,,,,,,,,,,,,,,,,,,0,11,11,1,1,A,X,N,o1_image,stimuli/out1.png,stimuli/correct_out1.png,stimuli/out2.png,,,,,,,,,,,,,,,,,,,,,,,,,,,,,,,,,,,,,,
,,60fb1cab39fd626cb9dc093b,30,female,2024-04-24_12h37.08.198,stockport_simplified,2022.2.4,Win32,30.08061605,661e456ee6de07e70aa9ef7b,6628df8c1af31ad1f5ae13b2,,,,,,,,,,,,,,,,,,,,,,,,,,,,,,,,,,261.8459,264.9517,"[8,4,2,5,7,3,6,1]","[[-0.3,0.2],[0.3,0.2]]","[[0.125,-0.2],[-0.125,-0.2]]",-0.095052083,-0.196614583,1,0,0,2.5705,o2_image,264.9541,0,265.4522,265.4522,267.4461,0,0,0,0,1,,,,,,,,,,,,,,,,,,,,,,,,,,,,,,,,,,,,,,,,,,,,,,,,,,
,,60fb1cab39fd626cb9dc093b,30,female,2024-04-24_12h37.08.198,stockport_simplified,2022.2.4,Win32,30.08061605,661e456ee6de07e70aa9ef7b,6628df8c1af31ad1f5ae13b2,,,,,,,,,,,,,,,,,,,,,,,,,,,,,,,,,,,,,,,,,,,,,,,,,,,,,,,,0,12,12,39,1,A,Y,N,o1_image,stimuli/out1.png,stimuli/correct_out1.png,stimuli/out2.png,,,,,,,,,,,,,,,,,,,,,,,,,,,,,,,,,,,,,,
,,60fb1cab39fd626cb9dc093b,30,female,2024-04-24_12h37.08.198,stockport_simplified,2022.2.4,Win32,30.08061605,661e456ee6de07e70aa9ef7b,6628df8c1af31ad1f5ae13b2,,,,,,,,,,,,,,,,,,,,,,,,,,,,,,,,,,267.4471,269.3493,"[8,4,2,5,7,3,6,1]","[[0.3,0.2],[-0.3,0.2]]","[[-0.125,-0.2],[0.125,-0.2]]",-0.098958333,-0.194010417,1,0,0,1.3675,o1_image,269.3515,0,269.848,269.8481,271.84,0,0,0,0,1,,,,,,,,,,,,,,,,,,,,,,,,,,,,,,,,,,,,,,,,,,,,,,,,,,
,,60fb1cab39fd626cb9dc093b,30,female,2024-04-24_12h37.08.198,stockport_simplified,2022.2.4,Win32,30.08061605,661e456ee6de07e70aa9ef7b,6628df8c1af31ad1f5ae13b2,,,,,,,,,,,,,,,,,,,,,,,,,,,,,,,,,,,,,,,,,,,,,,,,,,,,,,,,0,13,13,17,1,B,Y,N,o2_image,stimuli/out2.png,stimuli/out1.png,stimuli/correct_out2.png,,,,,,,,,,,,,,,,,,,,,,,,,,,,,,,,,,,,,,
,,60fb1cab39fd626cb9dc093b,30,female,2024-04-24_12h37.08.198,stockport_simplified,2022.2.4,Win32,30.08061605,661e456ee6de07e70aa9ef7b,6628df8c1af31ad1f5ae13b2,,,,,,,,,,,,,,,,,,,,,,,,,,,,,,,,,,271.8413,275.0416,"[8,4,2,5,7,3,6,1]","[[-0.3,0.2],[0.3,0.2]]","[[0.125,-0.2],[-0.125,-0.2]]",0.140625,-0.2109375,1,0,0,2.6658,o1_image,275.044,0,275.5318,275.5318,277.5194,0,0,0,0,1,,,,,,,,,,,,,,,,,,,,,,,,,,,,,,,,,,,,,,,,,,,,,,,,,,
,,60fb1cab39fd626cb9dc093b,30,female,2024-04-24_12h37.08.198,stockport_simplified,2022.2.4,Win32,30.08061605,661e456ee6de07e70aa9ef7b,6628df8c1af31ad1f5ae13b2,,,,,,,,,,,,,,,,,,,,,,,,,,,,,,,,,,,,,,,,,,,,,,,,,,,,,,,,0,14,14,26,1,N,M,D,o2_image,stimuli/out2.png,stimuli/out1.png,stimuli/correct_out2.png,,,,,,,,,,,,,,,,,,,,,,,,,,,,,,,,,,,,,,
,,60fb1cab39fd626cb9dc093b,30,female,2024-04-24_12h37.08.198,stockport_simplified,2022.2.4,Win32,30.08061605,661e456ee6de07e70aa9ef7b,6628df8c1af31ad1f5ae13b2,,,,,,,,,,,,,,,,,,,,,,,,,,,,,,,,,,277.5208,280.5024,"[8,4,2,5,7,3,6,1]","[[0.3,0.2],[-0.3,0.2]]","[[0.125,-0.2],[-0.125,-0.2]]",-0.118489583,-0.194010417,1,0,0,2.4795,o2_image,280.5182,0,281.0089,281.009,282.9964,0,0,0,0,1,,,,,,,,,,,,,,,,,,,,,,,,,,,,,,,,,,,,,,,,,,,,,,,,,,
,,60fb1cab39fd626cb9dc093b,30,female,2024-04-24_12h37.08.198,stockport_simplified,2022.2.4,Win32,30.08061605,661e456ee6de07e70aa9ef7b,6628df8c1af31ad1f5ae13b2,,,,,,,,,,,,,,,,,,,,,,,,,,,,,,,,,,,,,,,,,,,,,,,,,,,,,,,,0,15,15,8,1,A,Y,N,o1_image,stimuli/out1.png,stimuli/correct_out1.png,stimuli/out2.png,,,,,,,,,,,,,,,,,,,,,,,,,,,,,,,,,,,,,,
,,60fb1cab39fd626cb9dc093b,30,female,2024-04-24_12h37.08.198,stockport_simplified,2022.2.4,Win32,30.08061605,661e456ee6de07e70aa9ef7b,6628df8c1af31ad1f5ae13b2,,,,,,,,,,,,,,,,,,,,,,,,,,,,,,,,,,282.9977,284.9566,"[8,4,2,5,7,3,6,1]","[[0.3,0.2],[-0.3,0.2]]","[[-0.125,-0.2],[0.125,-0.2]]",-0.118489583,-0.194010417,1,0,0,1.4224,o1_image,284.9588,1,285.4434,285.4435,287.4249,0,0,0,0,1,,,,,,,,,,,,,,,,,,,,,,,,,,,,,,,,,,,,,,,,,,,,,,,,,,
,,60fb1cab39fd626cb9dc093b,30,female,2024-04-24_12h37.08.198,stockport_simplified,2022.2.4,Win32,30.08061605,661e456ee6de07e70aa9ef7b,6628df8c1af31ad1f5ae13b2,,,,,,,,,,,,,,,,,,,,,,,,,,,,,,,,,,,,,,,,,,,,,,,,,,,,,,,,0,16,16,24,1,N,M,C,o1_image,stimuli/out1.png,stimuli/correct_out1.png,stimuli/out2.png,,,,,,,,,,,,,,,,,,,,,,,,,,,,,,,,,,,,,,
,,60fb1cab39fd626cb9dc093b,30,female,2024-04-24_12h37.08.198,stockport_simplified,2022.2.4,Win32,30.08061605,661e456ee6de07e70aa9ef7b,6628df8c1af31ad1f5ae13b2,,,,,,,,,,,,,,,,,,,,,,,,,,,,,,,,,,287.4265,290.2344,"[8,4,2,5,7,3,6,1]","[[0.3,0.2],[-0.3,0.2]]","[[0.125,-0.2],[-0.125,-0.2]]",0.149739583,-0.225260417,1,0,0,2.2729,o1_image,290.2501,0,290.7385,290.7385,292.749,0,0,0,0,1,,,,,,,,,,,,,,,,,,,,,,,,,,,,,,,,,,,,,,,,,,,,,,,,,,
,,60fb1cab39fd626cb9dc093b,30,female,2024-04-24_12h37.08.198,stockport_simplified,2022.2.4,Win32,30.08061605,661e456ee6de07e70aa9ef7b,6628df8c1af31ad1f5ae13b2,,,,,,,,,,,,,,,,,,,,,,,,,,,,,,,,,,,,,,,,,,,,,,,,,,,,,,,,0,17,17,57,1,N,M,D,o2_image,stimuli/out2.png,stimuli/out1.png,stimuli/correct_out2.png,,,,,,,,,,,,,,,,,,,,,,,,,,,,,,,,,,,,,,
,,60fb1cab39fd626cb9dc093b,30,female,2024-04-24_12h37.08.198,stockport_simplified,2022.2.4,Win32,30.08061605,661e456ee6de07e70aa9ef7b,6628df8c1af31ad1f5ae13b2,,,,,,,,,,,,,,,,,,,,,,,,,,,,,,,,,,292.7504,296.2033,"[8,4,2,5,7,3,6,1]","[[0.3,0.2],[-0.3,0.2]]","[[0.125,-0.2],[-0.125,-0.2]]",0.161458333,-0.177083333,1,0,0,2.9256,o1_image,296.2053,1,296.6872,296.6873,298.6823,0,0,0,0,1,,,,,,,,,,,,,,,,,,,,,,,,,,,,,,,,,,,,,,,,,,,,,,,,,,
,,60fb1cab39fd626cb9dc093b,30,female,2024-04-24_12h37.08.198,stockport_simplified,2022.2.4,Win32,30.08061605,661e456ee6de07e70aa9ef7b,6628df8c1af31ad1f5ae13b2,,,,,,,,,,,,,,,,,,,,,,,,,,,,,,,,,,,,,,,,,,,,,,,,,,,,,,,,0,18,18,34,1,A,X,N,o1_image,stimuli/out1.png,stimuli/correct_out1.png,stimuli/out2.png,,,,,,,,,,,,,,,,,,,,,,,,,,,,,,,,,,,,,,
,,60fb1cab39fd626cb9dc093b,30,female,2024-04-24_12h37.08.198,stockport_simplified,2022.2.4,Win32,30.08061605,661e456ee6de07e70aa9ef7b,6628df8c1af31ad1f5ae13b2,,,,,,,,,,,,,,,,,,,,,,,,,,,,,,,,,,298.6835,302.2679,"[8,4,2,5,7,3,6,1]","[[-0.3,0.2],[0.3,0.2]]","[[0.125,-0.2],[-0.125,-0.2]]",0.13671875,-0.18359375,1,0,0,3.0546,o1_image,302.2705,0,302.7793,302.7794,304.7706,0,0,0,0,1,,,,,,,,,,,,,,,,,,,,,,,,,,,,,,,,,,,,,,,,,,,,,,,,,,
,,60fb1cab39fd626cb9dc093b,30,female,2024-04-24_12h37.08.198,stockport_simplified,2022.2.4,Win32,30.08061605,661e456ee6de07e70aa9ef7b,6628df8c1af31ad1f5ae13b2,,,,,,,,,,,,,,,,,,,,,,,,,,,,,,,,,,,,,,,,,,,,,,,,,,,,,,,,0,19,19,56,1,N,M,D,o2_image,stimuli/out2.png,stimuli/out1.png,stimuli/correct_out2.png,,,,,,,,,,,,,,,,,,,,,,,,,,,,,,,,,,,,,,
,,60fb1cab39fd626cb9dc093b,30,female,2024-04-24_12h37.08.198,stockport_simplified,2022.2.4,Win32,30.08061605,661e456ee6de07e70aa9ef7b,6628df8c1af31ad1f5ae13b2,,,,,,,,,,,,,,,,,,,,,,,,,,,,,,,,,,304.7721,308.0579,"[8,4,2,5,7,3,6,1]","[[0.3,0.2],[-0.3,0.2]]","[[-0.125,-0.2],[0.125,-0.2]]",0.14453125,-0.188802083,1,0,0,2.7616,o2_image,308.0603,1,308.5284,308.5284,310.5347,0,0,0,0,1,,,,,,,,,,,,,,,,,,,,,,,,,,,,,,,,,,,,,,,,,,,,,,,,,,
,,60fb1cab39fd626cb9dc093b,30,female,2024-04-24_12h37.08.198,stockport_simplified,2022.2.4,Win32,30.08061605,661e456ee6de07e70aa9ef7b,6628df8c1af31ad1f5ae13b2,,,,,,,,,,,,,,,,,,,,,,,,,,,,,,,,,,,,,,,,,,,,,,,,,,,,,,,,0,20,20,18,1,B,Y,N,o2_image,stimuli/out2.png,stimuli/out1.png,stimuli/correct_out2.png,,,,,,,,,,,,,,,,,,,,,,,,,,,,,,,,,,,,,,
,,60fb1cab39fd626cb9dc093b,30,female,2024-04-24_12h37.08.198,stockport_simplified,2022.2.4,Win32,30.08061605,661e456ee6de07e70aa9ef7b,6628df8c1af31ad1f5ae13b2,,,,,,,,,,,,,,,,,,,,,,,,,,,,,,,,,,310.5359,313.0591,"[8,4,2,5,7,3,6,1]","[[0.3,0.2],[-0.3,0.2]]","[[-0.125,-0.2],[0.125,-0.2]]",-0.1171875,-0.196614583,1,0,0,1.9896,o1_image,313.0785,0,313.5696,313.5696,315.5769,0,0,0,0,1,,,,,,,,,,,,,,,,,,,,,,,,,,,,,,,,,,,,,,,,,,,,,,,,,,
,,60fb1cab39fd626cb9dc093b,30,female,2024-04-24_12h37.08.198,stockport_simplified,2022.2.4,Win32,30.08061605,661e456ee6de07e70aa9ef7b,6628df8c1af31ad1f5ae13b2,,,,,,,,,,,,,,,,,,,,,,,,,,,,,,,,,,,,,,,,,,,,,,,,,,,,,,,,0,21,21,43,1,B,X,N,o2_image,stimuli/out2.png,stimuli/out1.png,stimuli/correct_out2.png,,,,,,,,,,,,,,,,,,,,,,,,,,,,,,,,,,,,,,
,,60fb1cab39fd626cb9dc093b,30,female,2024-04-24_12h37.08.198,stockport_simplified,2022.2.4,Win32,30.08061605,661e456ee6de07e70aa9ef7b,6628df8c1af31ad1f5ae13b2,,,,,,,,,,,,,,,,,,,,,,,,,,,,,,,,,,315.5783,318.7192,"[8,4,2,5,7,3,6,1]","[[0.3,0.2],[-0.3,0.2]]","[[-0.125,-0.2],[0.125,-0.2]]",0.1171875,-0.208333333,1,0,0,2.61,o2_image,318.721,1,319.1992,319.1992,321.1662,0,0,0,0,1,,,,,,,,,,,,,,,,,,,,,,,,,,,,,,,,,,,,,,,,,,,,,,,,,,
,,60fb1cab39fd626cb9dc093b,30,female,2024-04-24_12h37.08.198,stockport_simplified,2022.2.4,Win32,30.08061605,661e456ee6de07e70aa9ef7b,6628df8c1af31ad1f5ae13b2,,,,,,,,,,,,,,,,,,,,,,,,,,,,,,,,,,,,,,,,,,,,,,,,,,,,,,,,0,22,22,41,1,B,X,N,o2_image,stimuli/out2.png,stimuli/out1.png,stimuli/correct_out2.png,,,,,,,,,,,,,,,,,,,,,,,,,,,,,,,,,,,,,,
,,60fb1cab39fd626cb9dc093b,30,female,2024-04-24_12h37.08.198,stockport_simplified,2022.2.4,Win32,30.08061605,661e456ee6de07e70aa9ef7b,6628df8c1af31ad1f5ae13b2,,,,,,,,,,,,,,,,,,,,,,,,,,,,,,,,,,321.1673,324.429,"[8,4,2,5,7,3,6,1]","[[-0.3,0.2],[0.3,0.2]]","[[-0.125,-0.2],[0.125,-0.2]]",0.115885417,-0.182291667,1,0,0,2.7321,o2_image,324.4481,1,324.9478,324.9478,326.9453,0,0,0,0,1,,,,,,,,,,,,,,,,,,,,,,,,,,,,,,,,,,,,,,,,,,,,,,,,,,
,,60fb1cab39fd626cb9dc093b,30,female,2024-04-24_12h37.08.198,stockport_simplified,2022.2.4,Win32,30.08061605,661e456ee6de07e70aa9ef7b,6628df8c1af31ad1f5ae13b2,,,,,,,,,,,,,,,,,,,,,,,,,,,,,,,,,,,,,,,,,,,,,,,,,,,,,,,,0,23,23,19,1,B,Y,N,o2_image,stimuli/out2.png,stimuli/out1.png,stimuli/correct_out2.png,,,,,,,,,,,,,,,,,,,,,,,,,,,,,,,,,,,,,,
,,60fb1cab39fd626cb9dc093b,30,female,2024-04-24_12h37.08.198,stockport_simplified,2022.2.4,Win32,30.08061605,661e456ee6de07e70aa9ef7b,6628df8c1af31ad1f5ae13b2,,,,,,,,,,,,,,,,,,,,,,,,,,,,,,,,,,326.947,329.3504,"[8,4,2,5,7,3,6,1]","[[0.3,0.2],[-0.3,0.2]]","[[-0.125,-0.2],[0.125,-0.2]]",0.115885417,-0.182291667,1,0,0,1.8736,o2_image,329.3525,1,329.8675,329.8675,331.8511,0,0,0,0,1,,,,,,,,,,,,,,,,,,,,,,,,,,,,,,,,,,,,,,,,,,,,,,,,,,
,,60fb1cab39fd626cb9dc093b,30,female,2024-04-24_12h37.08.198,stockport_simplified,2022.2.4,Win32,30.08061605,661e456ee6de07e70aa9ef7b,6628df8c1af31ad1f5ae13b2,,,,,,,,,,,,,,,,,,,,,,,,,,,,,,,,,,,,,,,,,,,,,,,,,,,,,,,,0,24,24,48,1,B,Y,N,o2_image,stimuli/out2.png,stimuli/out1.png,stimuli/correct_out2.png,,,,,,,,,,,,,,,,,,,,,,,,,,,,,,,,,,,,,,
,,60fb1cab39fd626cb9dc093b,30,female,2024-04-24_12h37.08.198,stockport_simplified,2022.2.4,Win32,30.08061605,661e456ee6de07e70aa9ef7b,6628df8c1af31ad1f5ae13b2,,,,,,,,,,,,,,,,,,,,,,,,,,,,,,,,,,331.8523,334.9511,"[8,4,2,5,7,3,6,1]","[[-0.3,0.2],[0.3,0.2]]","[[-0.125,-0.2],[0.125,-0.2]]",0.115885417,-0.182291667,1,0,0,2.5631,o2_image,334.952,1,335.4446,335.4447,337.4417,0,0,0,0,1,,,,,,,,,,,,,,,,,,,,,,,,,,,,,,,,,,,,,,,,,,,,,,,,,,
,,60fb1cab39fd626cb9dc093b,30,female,2024-04-24_12h37.08.198,stockport_simplified,2022.2.4,Win32,30.08061605,661e456ee6de07e70aa9ef7b,6628df8c1af31ad1f5ae13b2,,,,,,,,,,,,,,,,,,,,,,,,,,,,,,,,,,,,,,,,,,,,,,,,,,,,,,,,0,25,25,12,1,B,X,N,o2_image,stimuli/out2.png,stimuli/out1.png,stimuli/correct_out2.png,,,,,,,,,,,,,,,,,,,,,,,,,,,,,,,,,,,,,,
,,60fb1cab39fd626cb9dc093b,30,female,2024-04-24_12h37.08.198,stockport_simplified,2022.2.4,Win32,30.08061605,661e456ee6de07e70aa9ef7b,6628df8c1af31ad1f5ae13b2,,,,,,,,,,,,,,,,,,,,,,,,,,,,,,,,,,337.4436,340.6582,"[8,4,2,5,7,3,6,1]","[[-0.3,0.2],[0.3,0.2]]","[[0.125,-0.2],[-0.125,-0.2]]",-0.118489583,-0.197916667,1,0,0,2.7113,o2_image,340.6783,0,341.1419,341.1419,343.1276,0,0,0,0,1,,,,,,,,,,,,,,,,,,,,,,,,,,,,,,,,,,,,,,,,,,,,,,,,,,
,,60fb1cab39fd626cb9dc093b,30,female,2024-04-24_12h37.08.198,stockport_simplified,2022.2.4,Win32,30.08061605,661e456ee6de07e70aa9ef7b,6628df8c1af31ad1f5ae13b2,,,,,,,,,,,,,,,,,,,,,,,,,,,,,,,,,,,,,,,,,,,,,,,,,,,,,,,,0,26,26,6,1,A,Y,N,o1_image,stimuli/out1.png,stimuli/correct_out1.png,stimuli/out2.png,,,,,,,,,,,,,,,,,,,,,,,,,,,,,,,,,,,,,,
,,60fb1cab39fd626cb9dc093b,30,female,2024-04-24_12h37.08.198,stockport_simplified,2022.2.4,Win32,30.08061605,661e456ee6de07e70aa9ef7b,6628df8c1af31ad1f5ae13b2,,,,,,,,,,,,,,,,,,,,,,,,,,,,,,,,,,343.1289,345.4978,"[8,4,2,5,7,3,6,1]","[[0.3,0.2],[-0.3,0.2]]","[[-0.125,-0.2],[0.125,-0.2]]",-0.119791667,-0.197916667,1,0,0,1.8356,o1_image,345.4997,0,345.9664,345.9664,347.9451,0,0,0,0,1,,,,,,,,,,,,,,,,,,,,,,,,,,,,,,,,,,,,,,,,,,,,,,,,,,
,,60fb1cab39fd626cb9dc093b,30,female,2024-04-24_12h37.08.198,stockport_simplified,2022.2.4,Win32,30.08061605,661e456ee6de07e70aa9ef7b,6628df8c1af31ad1f5ae13b2,,,,,,,,,,,,,,,,,,,,,,,,,,,,,,,,,,,,,,,,,,,,,,,,,,,,,,,,0,27,27,11,1,B,X,N,o2_image,stimuli/out2.png,stimuli/out1.png,stimuli/correct_out2.png,,,,,,,,,,,,,,,,,,,,,,,,,,,,,,,,,,,,,,
,,60fb1cab39fd626cb9dc093b,30,female,2024-04-24_12h37.08.198,stockport_simplified,2022.2.4,Win32,30.08061605,661e456ee6de07e70aa9ef7b,6628df8c1af31ad1f5ae13b2,,,,,,,,,,,,,,,,,,,,,,,,,,,,,,,,,,347.9461,350.9486,"[8,4,2,5,7,3,6,1]","[[0.3,0.2],[-0.3,0.2]]","[[-0.125,-0.2],[0.125,-0.2]]",-0.125,-0.192708333,1,0,0,2.4698,o1_image,350.968,0,351.4566,351.4566,353.4471,0,0,0,0,1,,,,,,,,,,,,,,,,,,,,,,,,,,,,,,,,,,,,,,,,,,,,,,,,,,
,,60fb1cab39fd626cb9dc093b,30,female,2024-04-24_12h37.08.198,stockport_simplified,2022.2.4,Win32,30.08061605,661e456ee6de07e70aa9ef7b,6628df8c1af31ad1f5ae13b2,,,,,,,,,,,,,,,,,,,,,,,,,,,,,,,,,,,,,,,,,,,,,,,,,,,,,,,,0,28,28,46,1,B,Y,N,o2_image,stimuli/out2.png,stimuli/out1.png,stimuli/correct_out2.png,,,,,,,,,,,,,,,,,,,,,,,,,,,,,,,,,,,,,,
,,60fb1cab39fd626cb9dc093b,30,female,2024-04-24_12h37.08.198,stockport_simplified,2022.2.4,Win32,30.08061605,661e456ee6de07e70aa9ef7b,6628df8c1af31ad1f5ae13b2,,,,,,,,,,,,,,,,,,,,,,,,,,,,,,,,,,353.4495,355.5477,"[8,4,2,5,7,3,6,1]","[[0.3,0.2],[-0.3,0.2]]","[[-0.125,-0.2],[0.125,-0.2]]",0.095052083,-0.216145833,1,0,0,1.5771,o2_image,355.5494,0,356.0198,356.0199,358.0183,0,0,0,0,1,,,,,,,,,,,,,,,,,,,,,,,,,,,,,,,,,,,,,,,,,,,,,,,,,,
,,60fb1cab39fd626cb9dc093b,30,female,2024-04-24_12h37.08.198,stockport_simplified,2022.2.4,Win32,30.08061605,661e456ee6de07e70aa9ef7b,6628df8c1af31ad1f5ae13b2,,,,,,,,,,,,,,,,,,,,,,,,,,,,,,,,,,,,,,,,,,,,,,,,,,,,,,,,0,29,29,4,1,A,X,N,o1_image,stimuli/out1.png,stimuli/correct_out1.png,stimuli/out2.png,,,,,,,,,,,,,,,,,,,,,,,,,,,,,,,,,,,,,,
,,60fb1cab39fd626cb9dc093b,30,female,2024-04-24_12h37.08.198,stockport_simplified,2022.2.4,Win32,30.08061605,661e456ee6de07e70aa9ef7b,6628df8c1af31ad1f5ae13b2,,,,,,,,,,,,,,,,,,,,,,,,,,,,,,,,,,358.0205,361.1733,"[8,4,2,5,7,3,6,1]","[[-0.3,0.2],[0.3,0.2]]","[[0.125,-0.2],[-0.125,-0.2]]",0.138020833,-0.201822917,1,0,0,2.6465,o1_image,361.1946,1,361.6832,361.6833,363.6861,0,0,0,0,1,,,,,,,,,,,,,,,,,,,,,,,,,,,,,,,,,,,,,,,,,,,,,,,,,,
,,60fb1cab39fd626cb9dc093b,30,female,2024-04-24_12h37.08.198,stockport_simplified,2022.2.4,Win32,30.08061605,661e456ee6de07e70aa9ef7b,6628df8c1af31ad1f5ae13b2,,,,,,,,,,,,,,,,,,,,,,,,,,,,,,,,,,,,,,,,,,,,,,,,,,,,,,,,0,30,30,32,1,A,X,N,o1_image,stimuli/out1.png,stimuli/correct_out1.png,stimuli/out2.png,,,,,,,,,,,,,,,,,,,,,,,,,,,,,,,,,,,,,,
,,60fb1cab39fd626cb9dc093b,30,female,2024-04-24_12h37.08.198,stockport_simplified,2022.2.4,Win32,30.08061605,661e456ee6de07e70aa9ef7b,6628df8c1af31ad1f5ae13b2,,,,,,,,,,,,,,,,,,,,,,,,,,,,,,,,,,363.6881,366.8154,"[8,4,2,5,7,3,6,1]","[[-0.3,0.2],[0.3,0.2]]","[[0.125,-0.2],[-0.125,-0.2]]",0.138020833,-0.201822917,1,0,0,2.6212,o1_image,366.8357,1,367.327,367.3271,369.3231,0,0,0,0,1,,,,,,,,,,,,,,,,,,,,,,,,,,,,,,,,,,,,,,,,,,,,,,,,,,
,,60fb1cab39fd626cb9dc093b,30,female,2024-04-24_12h37.08.198,stockport_simplified,2022.2.4,Win32,30.08061605,661e456ee6de07e70aa9ef7b,6628df8c1af31ad1f5ae13b2,,,,,,,,,,,,,,,,,,,,,,,,,,,,,,,,,,,,,,,,,,,,,,,,,,,,,,,,0,31,31,50,1,N,M,C,o1_image,stimuli/out1.png,stimuli/correct_out1.png,stimuli/out2.png,,,,,,,,,,,,,,,,,,,,,,,,,,,,,,,,,,,,,,
,,60fb1cab39fd626cb9dc093b,30,female,2024-04-24_12h37.08.198,stockport_simplified,2022.2.4,Win32,30.08061605,661e456ee6de07e70aa9ef7b,6628df8c1af31ad1f5ae13b2,,,,,,,,,,,,,,,,,,,,,,,,,,,,,,,,,,369.3246,373.0324,"[8,4,2,5,7,3,6,1]","[[0.3,0.2],[-0.3,0.2]]","[[0.125,-0.2],[-0.125,-0.2]]",-0.151041667,-0.212239583,1,0,0,3.198,o2_image,373.0525,0,373.5439,373.5439,375.5481,0,0,0,0,1,,,,,,,,,,,,,,,,,,,,,,,,,,,,,,,,,,,,,,,,,,,,,,,,,,
,,60fb1cab39fd626cb9dc093b,30,female,2024-04-24_12h37.08.198,stockport_simplified,2022.2.4,Win32,30.08061605,661e456ee6de07e70aa9ef7b,6628df8c1af31ad1f5ae13b2,,,,,,,,,,,,,,,,,,,,,,,,,,,,,,,,,,,,,,,,,,,,,,,,,,,,,,,,0,32,32,2,1,A,X,N,o1_image,stimuli/out1.png,stimuli/correct_out1.png,stimuli/out2.png,,,,,,,,,,,,,,,,,,,,,,,,,,,,,,,,,,,,,,
,,60fb1cab39fd626cb9dc093b,30,female,2024-04-24_12h37.08.198,stockport_simplified,2022.2.4,Win32,30.08061605,661e456ee6de07e70aa9ef7b,6628df8c1af31ad1f5ae13b2,,,,,,,,,,,,,,,,,,,,,,,,,,,,,,,,,,375.5496,379.0885,"[8,4,2,5,7,3,6,1]","[[-0.3,0.2],[0.3,0.2]]","[[-0.125,-0.2],[0.125,-0.2]]",0.091145833,-0.217447917,1,0,0,3.0288,o2_image,379.1089,1,379.5849,379.5851,381.5739,0,0,0,0,1,,,,,,,,,,,,,,,,,,,,,,,,,,,,,,,,,,,,,,,,,,,,,,,,,,
,,60fb1cab39fd626cb9dc093b,30,female,2024-04-24_12h37.08.198,stockport_simplified,2022.2.4,Win32,30.08061605,661e456ee6de07e70aa9ef7b,6628df8c1af31ad1f5ae13b2,,,,,,,,,,,,,,,,,,,,,,,,,,,,,,,,,,,,,,,,,,,,,,,,,,,,,,,,0,33,33,15,1,B,Y,N,o2_image,stimuli/out2.png,stimuli/out1.png,stimuli/correct_out2.png,,,,,,,,,,,,,,,,,,,,,,,,,,,,,,,,,,,,,,
,,60fb1cab39fd626cb9dc093b,30,female,2024-04-24_12h37.08.198,stockport_simplified,2022.2.4,Win32,30.08061605,661e456ee6de07e70aa9ef7b,6628df8c1af31ad1f5ae13b2,,,,,,,,,,,,,,,,,,,,,,,,,,,,,,,,,,381.5752,385.5681,"[8,4,2,5,7,3,6,1]","[[0.3,0.2],[-0.3,0.2]]","[[0.125,-0.2],[-0.125,-0.2]]",0.125,-0.220052083,1,0,0,3.4842,o1_image,385.5885,1,386.0895,386.0896,388.1012,0,0,0,0,1,,,,,,,,,,,,,,,,,,,,,,,,,,,,,,,,,,,,,,,,,,,,,,,,,,
,,60fb1cab39fd626cb9dc093b,30,female,2024-04-24_12h37.08.198,stockport_simplified,2022.2.4,Win32,30.08061605,661e456ee6de07e70aa9ef7b,6628df8c1af31ad1f5ae13b2,,,,,,,,,,,,,,,,,,,,,,,,,,,,,,,,,,,,,,,,,,,,,,,,,,,,,,,,0,34,34,38,1,A,Y,N,o1_image,stimuli/out1.png,stimuli/correct_out1.png,stimuli/out2.png,,,,,,,,,,,,,,,,,,,,,,,,,,,,,,,,,,,,,,
,,60fb1cab39fd626cb9dc093b,30,female,2024-04-24_12h37.08.198,stockport_simplified,2022.2.4,Win32,30.08061605,661e456ee6de07e70aa9ef7b,6628df8c1af31ad1f5ae13b2,,,,,,,,,,,,,,,,,,,,,,,,,,,,,,,,,,388.1027,391.7572,"[8,4,2,5,7,3,6,1]","[[0.3,0.2],[-0.3,0.2]]","[[0.125,-0.2],[-0.125,-0.2]]",0.11328125,-0.235677083,1,0,0,3.1471,o1_image,391.7772,0,392.2789,392.2789,394.2565,0,0,0,0,1,,,,,,,,,,,,,,,,,,,,,,,,,,,,,,,,,,,,,,,,,,,,,,,,,,
,,60fb1cab39fd626cb9dc093b,30,female,2024-04-24_12h37.08.198,stockport_simplified,2022.2.4,Win32,30.08061605,661e456ee6de07e70aa9ef7b,6628df8c1af31ad1f5ae13b2,,,,,,,,,,,,,,,,,,,,,,,,,,,,,,,,,,,,,,,,,,,,,,,,,,,,,,,,0,35,35,45,1,B,Y,N,o2_image,stimuli/out2.png,stimuli/out1.png,stimuli/correct_out2.png,,,,,,,,,,,,,,,,,,,,,,,,,,,,,,,,,,,,,,
,,60fb1cab39fd626cb9dc093b,30,female,2024-04-24_12h37.08.198,stockport_simplified,2022.2.4,Win32,30.08061605,661e456ee6de07e70aa9ef7b,6628df8c1af31ad1f5ae13b2,,,,,,,,,,,,,,,,,,,,,,,,,,,,,,,,,,394.2574,396.1748,"[8,4,2,5,7,3,6,1]","[[-0.3,0.2],[0.3,0.2]]","[[-0.125,-0.2],[0.125,-0.2]]",0.111979167,-0.236979167,1,0,0,1.4086,o2_image,396.177,0,396.6801,396.6802,398.6585,0,0,0,0,1,,,,,,,,,,,,,,,,,,,,,,,,,,,,,,,,,,,,,,,,,,,,,,,,,,
,,60fb1cab39fd626cb9dc093b,30,female,2024-04-24_12h37.08.198,stockport_simplified,2022.2.4,Win32,30.08061605,661e456ee6de07e70aa9ef7b,6628df8c1af31ad1f5ae13b2,,,,,,,,,,,,,,,,,,,,,,,,,,,,,,,,,,,,,,,,,,,,,,,,,,,,,,,,0,36,36,35,1,A,Y,N,o1_image,stimuli/out1.png,stimuli/correct_out1.png,stimuli/out2.png,,,,,,,,,,,,,,,,,,,,,,,,,,,,,,,,,,,,,,
,,60fb1cab39fd626cb9dc093b,30,female,2024-04-24_12h37.08.198,stockport_simplified,2022.2.4,Win32,30.08061605,661e456ee6de07e70aa9ef7b,6628df8c1af31ad1f5ae13b2,,,,,,,,,,,,,,,,,,,,,,,,,,,,,,,,,,398.6598,400.9159,"[8,4,2,5,7,3,6,1]","[[0.3,0.2],[-0.3,0.2]]","[[0.125,-0.2],[-0.125,-0.2]]",0.111979167,-0.236979167,1,0,0,1.7488,o1_image,400.9179,1,401.4047,401.4048,403.388,0,0,0,0,1,,,,,,,,,,,,,,,,,,,,,,,,,,,,,,,,,,,,,,,,,,,,,,,,,,
,,60fb1cab39fd626cb9dc093b,30,female,2024-04-24_12h37.08.198,stockport_simplified,2022.2.4,Win32,30.08061605,661e456ee6de07e70aa9ef7b,6628df8c1af31ad1f5ae13b2,,,,,,,,,,,,,,,,,,,,,,,,,,,,,,,,,,,,,,,,,,,,,,,,,,,,,,,,0,37,37,23,1,N,M,C,o1_image,stimuli/out1.png,stimuli/correct_out1.png,stimuli/out2.png,,,,,,,,,,,,,,,,,,,,,,,,,,,,,,,,,,,,,,
,,60fb1cab39fd626cb9dc093b,30,female,2024-04-24_12h37.08.198,stockport_simplified,2022.2.4,Win32,30.08061605,661e456ee6de07e70aa9ef7b,6628df8c1af31ad1f5ae13b2,,,,,,,,,,,,,,,,,,,,,,,,,,,,,,,,,,403.3893,405.9552,"[8,4,2,5,7,3,6,1]","[[-0.3,0.2],[0.3,0.2]]","[[-0.125,-0.2],[0.125,-0.2]]",0.109375,-0.21484375,1,0,0,2.0577,o2_image,405.976,1,406.4763,406.4764,408.4521,0,0,0,0,1,,,,,,,,,,,,,,,,,,,,,,,,,,,,,,,,,,,,,,,,,,,,,,,,,,
,,60fb1cab39fd626cb9dc093b,30,female,2024-04-24_12h37.08.198,stockport_simplified,2022.2.4,Win32,30.08061605,661e456ee6de07e70aa9ef7b,6628df8c1af31ad1f5ae13b2,,,,,,,,,,,,,,,,,,,,,,,,,,,,,,,,,,,,,,,,,,,,,,,,,,,,,,,,0,38,38,25,1,N,M,D,o2_image,stimuli/out2.png,stimuli/out1.png,stimuli/correct_out2.png,,,,,,,,,,,,,,,,,,,,,,,,,,,,,,,,,,,,,,
,,60fb1cab39fd626cb9dc093b,30,female,2024-04-24_12h37.08.198,stockport_simplified,2022.2.4,Win32,30.08061605,661e456ee6de07e70aa9ef7b,6628df8c1af31ad1f5ae13b2,,,,,,,,,,,,,,,,,,,,,,,,,,,,,,,,,,408.453,410.7777,"[8,4,2,5,7,3,6,1]","[[-0.3,0.2],[0.3,0.2]]","[[-0.125,-0.2],[0.125,-0.2]]",-0.102864583,-0.221354167,1,0,0,1.8177,o1_image,410.78,1,411.2843,411.2844,413.2973,0,0,0,0,1,,,,,,,,,,,,,,,,,,,,,,,,,,,,,,,,,,,,,,,,,,,,,,,,,,
,,60fb1cab39fd626cb9dc093b,30,female,2024-04-24_12h37.08.198,stockport_simplified,2022.2.4,Win32,30.08061605,661e456ee6de07e70aa9ef7b,6628df8c1af31ad1f5ae13b2,,,,,,,,,,,,,,,,,,,,,,,,,,,,,,,,,,,,,,,,,,,,,,,,,,,,,,,,0,39,39,52,1,N,M,C,o1_image,stimuli/out1.png,stimuli/correct_out1.png,stimuli/out2.png,,,,,,,,,,,,,,,,,,,,,,,,,,,,,,,,,,,,,,
,,60fb1cab39fd626cb9dc093b,30,female,2024-04-24_12h37.08.198,stockport_simplified,2022.2.4,Win32,30.08061605,661e456ee6de07e70aa9ef7b,6628df8c1af31ad1f5ae13b2,,,,,,,,,,,,,,,,,,,,,,,,,,,,,,,,,,413.2988,415.7229,"[8,4,2,5,7,3,6,1]","[[-0.3,0.2],[0.3,0.2]]","[[0.125,-0.2],[-0.125,-0.2]]",0.118489583,-0.21484375,1,0,0,1.9185,o1_image,415.7249,1,416.2166,416.2166,418.2079,0,0,0,0,1,,,,,,,,,,,,,,,,,,,,,,,,,,,,,,,,,,,,,,,,,,,,,,,,,,
,,60fb1cab39fd626cb9dc093b,30,female,2024-04-24_12h37.08.198,stockport_simplified,2022.2.4,Win32,30.08061605,661e456ee6de07e70aa9ef7b,6628df8c1af31ad1f5ae13b2,,,,,,,,,,,,,,,,,,,,,,,,,,,,,,,,,,,,,,,,,,,,,,,,,,,,,,,,0,40,40,21,1,N,M,C,o1_image,stimuli/out1.png,stimuli/correct_out1.png,stimuli/out2.png,,,,,,,,,,,,,,,,,,,,,,,,,,,,,,,,,,,,,,
,,60fb1cab39fd626cb9dc093b,30,female,2024-04-24_12h37.08.198,stockport_simplified,2022.2.4,Win32,30.08061605,661e456ee6de07e70aa9ef7b,6628df8c1af31ad1f5ae13b2,,,,,,,,,,,,,,,,,,,,,,,,,,,,,,,,,,418.2093,421.0765,"[8,4,2,5,7,3,6,1]","[[0.3,0.2],[-0.3,0.2]]","[[0.125,-0.2],[-0.125,-0.2]]",-0.151041667,-0.194010417,1,0,0,2.3593,o2_image,421.0963,1,421.5879,421.5879,423.5999,0,0,0,0,1,,,,,,,,,,,,,,,,,,,,,,,,,,,,,,,,,,,,,,,,,,,,,,,,,,
,,60fb1cab39fd626cb9dc093b,30,female,2024-04-24_12h37.08.198,stockport_simplified,2022.2.4,Win32,30.08061605,661e456ee6de07e70aa9ef7b,6628df8c1af31ad1f5ae13b2,,,,,,,,,,,,,,,,,,,,,,,,,,,,,,,,,,,,,,,,,,,,,,,,,,,,,,,,0,41,41,10,1,B,X,N,o2_image,stimuli/out2.png,stimuli/out1.png,stimuli/correct_out2.png,,,,,,,,,,,,,,,,,,,,,,,,,,,,,,,,,,,,,,
,,60fb1cab39fd626cb9dc093b,30,female,2024-04-24_12h37.08.198,stockport_simplified,2022.2.4,Win32,30.08061605,661e456ee6de07e70aa9ef7b,6628df8c1af31ad1f5ae13b2,,,,,,,,,,,,,,,,,,,,,,,,,,,,,,,,,,423.6013,426.655,"[8,4,2,5,7,3,6,1]","[[-0.3,0.2],[0.3,0.2]]","[[-0.125,-0.2],[0.125,-0.2]]",0.16015625,-0.190104167,1,0,0,2.5414,o2_image,426.674,1,427.1539,427.154,429.1428,0,0,0,0,1,,,,,,,,,,,,,,,,,,,,,,,,,,,,,,,,,,,,,,,,,,,,,,,,,,
,,60fb1cab39fd626cb9dc093b,30,female,2024-04-24_12h37.08.198,stockport_simplified,2022.2.4,Win32,30.08061605,661e456ee6de07e70aa9ef7b,6628df8c1af31ad1f5ae13b2,,,,,,,,,,,,,,,,,,,,,,,,,,,,,,,,,,,,,,,,,,,,,,,,,,,,,,,,0,42,42,28,1,N,M,D,o2_image,stimuli/out2.png,stimuli/out1.png,stimuli/correct_out2.png,,,,,,,,,,,,,,,,,,,,,,,,,,,,,,,,,,,,,,
,,60fb1cab39fd626cb9dc093b,30,female,2024-04-24_12h37.08.198,stockport_simplified,2022.2.4,Win32,30.08061605,661e456ee6de07e70aa9ef7b,6628df8c1af31ad1f5ae13b2,,,,,,,,,,,,,,,,,,,,,,,,,,,,,,,,,,429.1446,430.9722,"[8,4,2,5,7,3,6,1]","[[0.3,0.2],[-0.3,0.2]]","[[-0.125,-0.2],[0.125,-0.2]]",0.16015625,-0.190104167,1,0,0,1.2961,o2_image,430.9747,1,431.4543,431.4544,433.4263,0,0,0,0,1,,,,,,,,,,,,,,,,,,,,,,,,,,,,,,,,,,,,,,,,,,,,,,,,,,
,,60fb1cab39fd626cb9dc093b,30,female,2024-04-24_12h37.08.198,stockport_simplified,2022.2.4,Win32,30.08061605,661e456ee6de07e70aa9ef7b,6628df8c1af31ad1f5ae13b2,,,,,,,,,,,,,,,,,,,,,,,,,,,,,,,,,,,,,,,,,,,,,,,,,,,,,,,,0,43,43,27,1,N,M,D,o2_image,stimuli/out2.png,stimuli/out1.png,stimuli/correct_out2.png,,,,,,,,,,,,,,,,,,,,,,,,,,,,,,,,,,,,,,
,,60fb1cab39fd626cb9dc093b,30,female,2024-04-24_12h37.08.198,stockport_simplified,2022.2.4,Win32,30.08061605,661e456ee6de07e70aa9ef7b,6628df8c1af31ad1f5ae13b2,,,,,,,,,,,,,,,,,,,,,,,,,,,,,,,,,,433.4276,436.983,"[8,4,2,5,7,3,6,1]","[[-0.3,0.2],[0.3,0.2]]","[[0.125,-0.2],[-0.125,-0.2]]",-0.1015625,-0.20703125,1,0,0,3.0237,o2_image,437.0012,1,437.4659,437.4659,439.4476,0,0,0,0,1,,,,,,,,,,,,,,,,,,,,,,,,,,,,,,,,,,,,,,,,,,,,,,,,,,
,,60fb1cab39fd626cb9dc093b,30,female,2024-04-24_12h37.08.198,stockport_simplified,2022.2.4,Win32,30.08061605,661e456ee6de07e70aa9ef7b,6628df8c1af31ad1f5ae13b2,,,,,,,,,,,,,,,,,,,,,,,,,,,,,,,,,,,,,,,,,,,,,,,,,,,,,,,,0,44,44,16,1,B,Y,N,o2_image,stimuli/out2.png,stimuli/out1.png,stimuli/correct_out2.png,,,,,,,,,,,,,,,,,,,,,,,,,,,,,,,,,,,,,,
,,60fb1cab39fd626cb9dc093b,30,female,2024-04-24_12h37.08.198,stockport_simplified,2022.2.4,Win32,30.08061605,661e456ee6de07e70aa9ef7b,6628df8c1af31ad1f5ae13b2,,,,,,,,,,,,,,,,,,,,,,,,,,,,,,,,,,439.4489,441.4499,"[8,4,2,5,7,3,6,1]","[[-0.3,0.2],[0.3,0.2]]","[[0.125,-0.2],[-0.125,-0.2]]",-0.1015625,-0.20703125,1,0,0,1.4804,o2_image,441.4522,1,441.9208,441.9209,443.8948,0,0,0,0,1,,,,,,,,,,,,,,,,,,,,,,,,,,,,,,,,,,,,,,,,,,,,,,,,,,
,,60fb1cab39fd626cb9dc093b,30,female,2024-04-24_12h37.08.198,stockport_simplified,2022.2.4,Win32,30.08061605,661e456ee6de07e70aa9ef7b,6628df8c1af31ad1f5ae13b2,,,,,,,,,,,,,,,,,,,,,,,,,,,,,,,,,,,,,,,,,,,,,,,,,,,,,,,,0,45,45,59,1,N,M,D,o2_image,stimuli/out2.png,stimuli/out1.png,stimuli/correct_out2.png,,,,,,,,,,,,,,,,,,,,,,,,,,,,,,,,,,,,,,
,,60fb1cab39fd626cb9dc093b,30,female,2024-04-24_12h37.08.198,stockport_simplified,2022.2.4,Win32,30.08061605,661e456ee6de07e70aa9ef7b,6628df8c1af31ad1f5ae13b2,,,,,,,,,,,,,,,,,,,,,,,,,,,,,,,,,,443.896,448.0082,"[8,4,2,5,7,3,6,1]","[[-0.3,0.2],[0.3,0.2]]","[[0.125,-0.2],[-0.125,-0.2]]",0.141927083,-0.173177083,1,0,0,3.5939,o1_image,448.0436,0,448.5357,448.5358,450.5425,0,0,0,0,1,,,,,,,,,,,,,,,,,,,,,,,,,,,,,,,,,,,,,,,,,,,,,,,,,,
,,60fb1cab39fd626cb9dc093b,30,female,2024-04-24_12h37.08.198,stockport_simplified,2022.2.4,Win32,30.08061605,661e456ee6de07e70aa9ef7b,6628df8c1af31ad1f5ae13b2,,,,,,,,,,,,,,,,,,,,,,,,,,,,,,,,,,,,,,,,,,,,,,,,,,,,,,,,0,46,46,40,1,B,X,N,o2_image,stimuli/out2.png,stimuli/out1.png,stimuli/correct_out2.png,,,,,,,,,,,,,,,,,,,,,,,,,,,,,,,,,,,,,,
,,60fb1cab39fd626cb9dc093b,30,female,2024-04-24_12h37.08.198,stockport_simplified,2022.2.4,Win32,30.08061605,661e456ee6de07e70aa9ef7b,6628df8c1af31ad1f5ae13b2,,,,,,,,,,,,,,,,,,,,,,,,,,,,,,,,,,450.5443,452.7187,"[8,4,2,5,7,3,6,1]","[[0.3,0.2],[-0.3,0.2]]","[[-0.125,-0.2],[0.125,-0.2]]",0.125,-0.180989583,1,0,0,1.6647,o2_image,452.7217,1,453.2357,453.2357,455.2212,0,0,0,0,1,,,,,,,,,,,,,,,,,,,,,,,,,,,,,,,,,,,,,,,,,,,,,,,,,,
,,60fb1cab39fd626cb9dc093b,30,female,2024-04-24_12h37.08.198,stockport_simplified,2022.2.4,Win32,30.08061605,661e456ee6de07e70aa9ef7b,6628df8c1af31ad1f5ae13b2,,,,,,,,,,,,,,,,,,,,,,,,,,,,,,,,,,,,,,,,,,,,,,,,,,,,,,,,0,47,47,55,1,N,M,D,o2_image,stimuli/out2.png,stimuli/out1.png,stimuli/correct_out2.png,,,,,,,,,,,,,,,,,,,,,,,,,,,,,,,,,,,,,,
,,60fb1cab39fd626cb9dc093b,30,female,2024-04-24_12h37.08.198,stockport_simplified,2022.2.4,Win32,30.08061605,661e456ee6de07e70aa9ef7b,6628df8c1af31ad1f5ae13b2,,,,,,,,,,,,,,,,,,,,,,,,,,,,,,,,,,455.2243,457.1798,"[8,4,2,5,7,3,6,1]","[[-0.3,0.2],[0.3,0.2]]","[[-0.125,-0.2],[0.125,-0.2]]",0.125,-0.180989583,1,0,0,1.4517,o2_image,457.1819,1,457.6397,457.6397,459.6057,0,0,0,0,1,,,,,,,,,,,,,,,,,,,,,,,,,,,,,,,,,,,,,,,,,,,,,,,,,,
,,60fb1cab39fd626cb9dc093b,30,female,2024-04-24_12h37.08.198,stockport_simplified,2022.2.4,Win32,30.08061605,661e456ee6de07e70aa9ef7b,6628df8c1af31ad1f5ae13b2,,,,,,,,,,,,,,,,,,,,,,,,,,,,,,,,,,,,,,,,,,,,,,,,,,,,,,,,0,48,48,29,1,N,M,D,o2_image,stimuli/out2.png,stimuli/out1.png,stimuli/correct_out2.png,,,,,,,,,,,,,,,,,,,,,,,,,,,,,,,,,,,,,,
,,60fb1cab39fd626cb9dc093b,30,female,2024-04-24_12h37.08.198,stockport_simplified,2022.2.4,Win32,30.08061605,661e456ee6de07e70aa9ef7b,6628df8c1af31ad1f5ae13b2,,,,,,,,,,,,,,,,,,,,,,,,,,,,,,,,,,459.6078,463.8342,"[8,4,2,5,7,3,6,1]","[[0.3,0.2],[-0.3,0.2]]","[[-0.125,-0.2],[0.125,-0.2]]",-0.109375,-0.21875,1,0,0,3.7061,o1_image,463.8619,1,464.3409,464.3409,466.3128,0,0,0,0,1,,,,,,,,,,,,,,,,,,,,,,,,,,,,,,,,,,,,,,,,,,,,,,,,,,
,,60fb1cab39fd626cb9dc093b,30,female,2024-04-24_12h37.08.198,stockport_simplified,2022.2.4,Win32,30.08061605,661e456ee6de07e70aa9ef7b,6628df8c1af31ad1f5ae13b2,,,,,,,,,,,,,,,,,,,,,,,,,,,,,,,,,,,,,,,,,,,,,,,,,,,,,,,,0,49,49,9,1,A,Y,N,o1_image,stimuli/out1.png,stimuli/correct_out1.png,stimuli/out2.png,,,,,,,,,,,,,,,,,,,,,,,,,,,,,,,,,,,,,,
,,60fb1cab39fd626cb9dc093b,30,female,2024-04-24_12h37.08.198,stockport_simplified,2022.2.4,Win32,30.08061605,661e456ee6de07e70aa9ef7b,6628df8c1af31ad1f5ae13b2,,,,,,,,,,,,,,,,,,,,,,,,,,,,,,,,,,466.3146,469.9198,"[8,4,2,5,7,3,6,1]","[[0.3,0.2],[-0.3,0.2]]","[[0.125,-0.2],[-0.125,-0.2]]",0.106770833,-0.2109375,1,0,0,3.0977,o1_image,469.944,1,470.4183,470.4185,472.4066,0,0,0,0,1,,,,,,,,,,,,,,,,,,,,,,,,,,,,,,,,,,,,,,,,,,,,,,,,,,
,,60fb1cab39fd626cb9dc093b,30,female,2024-04-24_12h37.08.198,stockport_simplified,2022.2.4,Win32,30.08061605,661e456ee6de07e70aa9ef7b,6628df8c1af31ad1f5ae13b2,,,,,,,,,,,,,,,,,,,,,,,,,,,,,,,,,,,,,,,,,,,,,,,,,,,,,,,,0,50,50,3,1,A,X,N,o1_image,stimuli/out1.png,stimuli/correct_out1.png,stimuli/out2.png,,,,,,,,,,,,,,,,,,,,,,,,,,,,,,,,,,,,,,
,,60fb1cab39fd626cb9dc093b,30,female,2024-04-24_12h37.08.198,stockport_simplified,2022.2.4,Win32,30.08061605,661e456ee6de07e70aa9ef7b,6628df8c1af31ad1f5ae13b2,,,,,,,,,,,,,,,,,,,,,,,,,,,,,,,,,,472.4088,474.8895,"[8,4,2,5,7,3,6,1]","[[0.3,0.2],[-0.3,0.2]]","[[0.125,-0.2],[-0.125,-0.2]]",0.1328125,-0.213541667,1,0,0,1.9518,o1_image,474.8912,1,475.4114,475.4116,477.3981,0,0,0,0,1,,,,,,,,,,,,,,,,,,,,,,,,,,,,,,,,,,,,,,,,,,,,,,,,,,
,,60fb1cab39fd626cb9dc093b,30,female,2024-04-24_12h37.08.198,stockport_simplified,2022.2.4,Win32,30.08061605,661e456ee6de07e70aa9ef7b,6628df8c1af31ad1f5ae13b2,,,,,,,,,,,,,,,,,,,,,,,,,,,,,,,,,,,,,,,,,,,,,,,,,,,,,,,,0,51,51,5,1,A,Y,N,o1_image,stimuli/out1.png,stimuli/correct_out1.png,stimuli/out2.png,,,,,,,,,,,,,,,,,,,,,,,,,,,,,,,,,,,,,,
,,60fb1cab39fd626cb9dc093b,30,female,2024-04-24_12h37.08.198,stockport_simplified,2022.2.4,Win32,30.08061605,661e456ee6de07e70aa9ef7b,6628df8c1af31ad1f5ae13b2,,,,,,,,,,,,,,,,,,,,,,,,,,,,,,,,,,477.3996,481.6462,"[8,4,2,5,7,3,6,1]","[[0.3,0.2],[-0.3,0.2]]","[[0.125,-0.2],[-0.125,-0.2]]",0.1328125,-0.213541667,1,0,0,3.7265,o1_image,481.6679,0,482.1485,482.1486,484.1593,0,0,0,0,1,,,,,,,,,,,,,,,,,,,,,,,,,,,,,,,,,,,,,,,,,,,,,,,,,,
,,60fb1cab39fd626cb9dc093b,30,female,2024-04-24_12h37.08.198,stockport_simplified,2022.2.4,Win32,30.08061605,661e456ee6de07e70aa9ef7b,6628df8c1af31ad1f5ae13b2,,,,,,,,,,,,,,,,,,,,,,,,,,,,,,,,,,,,,,,,,,,,,,,,,,,,,,,,0,52,52,44,1,B,X,N,o2_image,stimuli/out2.png,stimuli/out1.png,stimuli/correct_out2.png,,,,,,,,,,,,,,,,,,,,,,,,,,,,,,,,,,,,,,
,,60fb1cab39fd626cb9dc093b,30,female,2024-04-24_12h37.08.198,stockport_simplified,2022.2.4,Win32,30.08061605,661e456ee6de07e70aa9ef7b,6628df8c1af31ad1f5ae13b2,,,,,,,,,,,,,,,,,,,,,,,,,,,,,,,,,,484.1606,486.2863,"[8,4,2,5,7,3,6,1]","[[0.3,0.2],[-0.3,0.2]]","[[0.125,-0.2],[-0.125,-0.2]]",0.1328125,-0.213541667,1,0,0,1.616,o1_image,486.2883,1,486.8018,486.8019,488.8112,0,0,0,0,1,,,,,,,,,,,,,,,,,,,,,,,,,,,,,,,,,,,,,,,,,,,,,,,,,,
,,60fb1cab39fd626cb9dc093b,30,female,2024-04-24_12h37.08.198,stockport_simplified,2022.2.4,Win32,30.08061605,661e456ee6de07e70aa9ef7b,6628df8c1af31ad1f5ae13b2,,,,,,,,,,,,,,,,,,,,,,,,,,,,,,,,,,,,,,,,,,,,,,,,,,,,,,,,0,53,53,37,1,A,Y,N,o1_image,stimuli/out1.png,stimuli/correct_out1.png,stimuli/out2.png,,,,,,,,,,,,,,,,,,,,,,,,,,,,,,,,,,,,,,
,,60fb1cab39fd626cb9dc093b,30,female,2024-04-24_12h37.08.198,stockport_simplified,2022.2.4,Win32,30.08061605,661e456ee6de07e70aa9ef7b,6628df8c1af31ad1f5ae13b2,,,,,,,,,,,,,,,,,,,,,,,,,,,,,,,,,,488.8122,491.4975,"[8,4,2,5,7,3,6,1]","[[-0.3,0.2],[0.3,0.2]]","[[0.125,-0.2],[-0.125,-0.2]]",0.1328125,-0.213541667,1,0,0,2.1595,o1_image,491.4998,1,491.999,491.9992,493.9748,0,0,0,0,1,,,,,,,,,,,,,,,,,,,,,,,,,,,,,,,,,,,,,,,,,,,,,,,,,,
,,60fb1cab39fd626cb9dc093b,30,female,2024-04-24_12h37.08.198,stockport_simplified,2022.2.4,Win32,30.08061605,661e456ee6de07e70aa9ef7b,6628df8c1af31ad1f5ae13b2,,,,,,,,,,,,,,,,,,,,,,,,,,,,,,,,,,,,,,,,,,,,,,,,,,,,,,,,0,54,54,33,1,A,X,N,o1_image,stimuli/out1.png,stimuli/correct_out1.png,stimuli/out2.png,,,,,,,,,,,,,,,,,,,,,,,,,,,,,,,,,,,,,,
,,60fb1cab39fd626cb9dc093b,30,female,2024-04-24_12h37.08.198,stockport_simplified,2022.2.4,Win32,30.08061605,661e456ee6de07e70aa9ef7b,6628df8c1af31ad1f5ae13b2,,,,,,,,,,,,,,,,,,,,,,,,,,,,,,,,,,493.9753,496.7999,"[8,4,2,5,7,3,6,1]","[[-0.3,0.2],[0.3,0.2]]","[[0.125,-0.2],[-0.125,-0.2]]",-0.108072917,-0.21875,1,0,0,2.2931,o2_image,496.8347,0,497.3362,497.3363,499.2953,0,0,0,0,1,,,,,,,,,,,,,,,,,,,,,,,,,,,,,,,,,,,,,,,,,,,,,,,,,,
,,60fb1cab39fd626cb9dc093b,30,female,2024-04-24_12h37.08.198,stockport_simplified,2022.2.4,Win32,30.08061605,661e456ee6de07e70aa9ef7b,6628df8c1af31ad1f5ae13b2,,,,,,,,,,,,,,,,,,,,,,,,,,,,,,,,,,,,,,,,,,,,,,,,,,,,,,,,0,55,55,53,1,N,M,C,o1_image,stimuli/out1.png,stimuli/correct_out1.png,stimuli/out2.png,,,,,,,,,,,,,,,,,,,,,,,,,,,,,,,,,,,,,,
,,60fb1cab39fd626cb9dc093b,30,female,2024-04-24_12h37.08.198,stockport_simplified,2022.2.4,Win32,30.08061605,661e456ee6de07e70aa9ef7b,6628df8c1af31ad1f5ae13b2,,,,,,,,,,,,,,,,,,,,,,,,,,,,,,,,,,499.2963,502.4501,"[8,4,2,5,7,3,6,1]","[[0.3,0.2],[-0.3,0.2]]","[[-0.125,-0.2],[0.125,-0.2]]",-0.095052083,-0.19140625,1,0,0,2.6338,o1_image,502.4514,1,502.9163,502.9164,504.9223,0,0,0,0,1,,,,,,,,,,,,,,,,,,,,,,,,,,,,,,,,,,,,,,,,,,,,,,,,,,
,,60fb1cab39fd626cb9dc093b,30,female,2024-04-24_12h37.08.198,stockport_simplified,2022.2.4,Win32,30.08061605,661e456ee6de07e70aa9ef7b,6628df8c1af31ad1f5ae13b2,,,,,,,,,,,,,,,,,,,,,,,,,,,,,,,,,,,,,,,,,,,,,,,,,,,,,,,,0,56,56,31,1,A,X,N,o1_image,stimuli/out1.png,stimuli/correct_out1.png,stimuli/out2.png,,,,,,,,,,,,,,,,,,,,,,,,,,,,,,,,,,,,,,
,,60fb1cab39fd626cb9dc093b,30,female,2024-04-24_12h37.08.198,stockport_simplified,2022.2.4,Win32,30.08061605,661e456ee6de07e70aa9ef7b,6628df8c1af31ad1f5ae13b2,,,,,,,,,,,,,,,,,,,,,,,,,,,,,,,,,,504.9231,507.515,"[8,4,2,5,7,3,6,1]","[[0.3,0.2],[-0.3,0.2]]","[[0.125,-0.2],[-0.125,-0.2]]",0.108072917,-0.188802083,1,0,0,2.0707,o1_image,507.5181,1,508.0422,508.0423,510.0212,0,0,0,0,1,,,,,,,,,,,,,,,,,,,,,,,,,,,,,,,,,,,,,,,,,,,,,,,,,,
,,60fb1cab39fd626cb9dc093b,30,female,2024-04-24_12h37.08.198,stockport_simplified,2022.2.4,Win32,30.08061605,661e456ee6de07e70aa9ef7b,6628df8c1af31ad1f5ae13b2,,,,,,,,,,,,,,,,,,,,,,,,,,,,,,,,,,,,,,,,,,,,,,,,,,,,,,,,0,57,57,7,1,A,Y,N,o1_image,stimuli/out1.png,stimuli/correct_out1.png,stimuli/out2.png,,,,,,,,,,,,,,,,,,,,,,,,,,,,,,,,,,,,,,
,,60fb1cab39fd626cb9dc093b,30,female,2024-04-24_12h37.08.198,stockport_simplified,2022.2.4,Win32,30.08061605,661e456ee6de07e70aa9ef7b,6628df8c1af31ad1f5ae13b2,,,,,,,,,,,,,,,,,,,,,,,,,,,,,,,,,,510.0221,513.0322,"[8,4,2,5,7,3,6,1]","[[0.3,0.2],[-0.3,0.2]]","[[0.125,-0.2],[-0.125,-0.2]]",0.127604167,-0.192708333,1,0,0,2.4592,o1_image,513.0344,1,513.5454,513.5454,515.5359,0,0,0,0,1,,,,,,,,,,,,,,,,,,,,,,,,,,,,,,,,,,,,,,,,,,,,,,,,,,
,,60fb1cab39fd626cb9dc093b,30,female,2024-04-24_12h37.08.198,stockport_simplified,2022.2.4,Win32,30.08061605,661e456ee6de07e70aa9ef7b,6628df8c1af31ad1f5ae13b2,,,,,,,,,,,,,,,,,,,,,,,,,,,,,,,,,,,,,,,,,,,,,,,,,,,,,,,,0,58,58,20,1,N,M,C,o1_image,stimuli/out1.png,stimuli/correct_out1.png,stimuli/out2.png,,,,,,,,,,,,,,,,,,,,,,,,,,,,,,,,,,,,,,
,,60fb1cab39fd626cb9dc093b,30,female,2024-04-24_12h37.08.198,stockport_simplified,2022.2.4,Win32,30.08061605,661e456ee6de07e70aa9ef7b,6628df8c1af31ad1f5ae13b2,,,,,,,,,,,,,,,,,,,,,,,,,,,,,,,,,,515.5368,519.8838,"[8,4,2,5,7,3,6,1]","[[0.3,0.2],[-0.3,0.2]]","[[0.125,-0.2],[-0.125,-0.2]]",-0.11328125,-0.196614583,1,0,0,3.8048,o2_image,519.9138,1,520.386,520.386,522.3602,0,0,0,0,1,,,,,,,,,,,,,,,,,,,,,,,,,,,,,,,,,,,,,,,,,,,,,,,,,,
,,60fb1cab39fd626cb9dc093b,30,female,2024-04-24_12h37.08.198,stockport_simplified,2022.2.4,Win32,30.08061605,661e456ee6de07e70aa9ef7b,6628df8c1af31ad1f5ae13b2,,,,,,,,,,,,,,,,,,,,,,,,,,,,,,,,,,,,,,,,,,,,,,,,,,,,,,,,0,59,59,42,1,B,X,N,o2_image,stimuli/out2.png,stimuli/out1.png,stimuli/correct_out2.png,,,,,,,,,,,,,,,,,,,,,,,,,,,,,,,,,,,,,,
,,60fb1cab39fd626cb9dc093b,30,female,2024-04-24_12h37.08.198,stockport_simplified,2022.2.4,Win32,30.08061605,661e456ee6de07e70aa9ef7b,6628df8c1af31ad1f5ae13b2,,,,,,,,,,,,,,,,,,,,,,,,,,,,,,,,,,522.3617,525.6222,"[8,4,2,5,7,3,6,1]","[[0.3,0.2],[-0.3,0.2]]","[[-0.125,-0.2],[0.125,-0.2]]",0.125,-0.188802083,1,0,0,2.747,o2_image,525.6242,1,526.1132,526.1134,528.0892,0,0,0,0,1,,,,,,,,,,,,,,,,,,,,,,,,,,,,,,,,,,,,,,,,,,,,,,,,,,
,,60fb1cab39fd626cb9dc093b,30,female,2024-04-24_12h37.08.198,stockport_simplified,2022.2.4,Win32,30.08061605,661e456ee6de07e70aa9ef7b,6628df8c1af31ad1f5ae13b2,,,,,,,,,,,,,,,,,,,,,,,,,,,,,,,,,,,,,,,,,,,,,,,,,,,,,,,,1,0,60,46,1,B,Y,N,o2_image,stimuli/out2.png,stimuli/out1.png,stimuli/correct_out2.png,,,,,,,,,,,,,,,,,,,,,,,,,,,,,,,,,,,,,,
,,60fb1cab39fd626cb9dc093b,30,female,2024-04-24_12h37.08.198,stockport_simplified,2022.2.4,Win32,30.08061605,661e456ee6de07e70aa9ef7b,6628df8c1af31ad1f5ae13b2,,,,,,,,,,,,,,,,,,,,,,,,,,,,,,,,,,528.0899,530.2746,"[8,4,2,5,7,3,6,1]","[[-0.3,0.2],[0.3,0.2]]","[[0.125,-0.2],[-0.125,-0.2]]",0.125,-0.188802083,1,0,0,1.6819,o1_image,530.2775,1,530.7538,530.7539,532.7539,0,0,0,0,1,,,,,,,,,,,,,,,,,,,,,,,,,,,,,,,,,,,,,,,,,,,,,,,,,,
,,60fb1cab39fd626cb9dc093b,30,female,2024-04-24_12h37.08.198,stockport_simplified,2022.2.4,Win32,30.08061605,661e456ee6de07e70aa9ef7b,6628df8c1af31ad1f5ae13b2,,,,,,,,,,,,,,,,,,,,,,,,,,,,,,,,,,,,,,,,,,,,,,,,,,,,,,,,1,1,61,51,1,N,M,C,o1_image,stimuli/out1.png,stimuli/correct_out1.png,stimuli/out2.png,,,,,,,,,,,,,,,,,,,,,,,,,,,,,,,,,,,,,,
,,60fb1cab39fd626cb9dc093b,30,female,2024-04-24_12h37.08.198,stockport_simplified,2022.2.4,Win32,30.08061605,661e456ee6de07e70aa9ef7b,6628df8c1af31ad1f5ae13b2,,,,,,,,,,,,,,,,,,,,,,,,,,,,,,,,,,532.7546,535.5411,"[8,4,2,5,7,3,6,1]","[[0.3,0.2],[-0.3,0.2]]","[[-0.125,-0.2],[0.125,-0.2]]",0.125,-0.188802083,1,0,0,2.2761,o2_image,535.5432,1,536.0423,536.0423,537.9904,0,0,0,0,1,,,,,,,,,,,,,,,,,,,,,,,,,,,,,,,,,,,,,,,,,,,,,,,,,,
,,60fb1cab39fd626cb9dc093b,30,female,2024-04-24_12h37.08.198,stockport_simplified,2022.2.4,Win32,30.08061605,661e456ee6de07e70aa9ef7b,6628df8c1af31ad1f5ae13b2,,,,,,,,,,,,,,,,,,,,,,,,,,,,,,,,,,,,,,,,,,,,,,,,,,,,,,,,1,2,62,17,1,B,Y,N,o2_image,stimuli/out2.png,stimuli/out1.png,stimuli/correct_out2.png,,,,,,,,,,,,,,,,,,,,,,,,,,,,,,,,,,,,,,
,,60fb1cab39fd626cb9dc093b,30,female,2024-04-24_12h37.08.198,stockport_simplified,2022.2.4,Win32,30.08061605,661e456ee6de07e70aa9ef7b,6628df8c1af31ad1f5ae13b2,,,,,,,,,,,,,,,,,,,,,,,,,,,,,,,,,,537.9913,540.5198,"[8,4,2,5,7,3,6,1]","[[-0.3,0.2],[0.3,0.2]]","[[-0.125,-0.2],[0.125,-0.2]]",-0.095052083,-0.190104167,1,0,0,2.0259,o1_image,540.5541,1,541.0433,541.0433,543.0218,0,0,0,0,1,,,,,,,,,,,,,,,,,,,,,,,,,,,,,,,,,,,,,,,,,,,,,,,,,,
,,60fb1cab39fd626cb9dc093b,30,female,2024-04-24_12h37.08.198,stockport_simplified,2022.2.4,Win32,30.08061605,661e456ee6de07e70aa9ef7b,6628df8c1af31ad1f5ae13b2,,,,,,,,,,,,,,,,,,,,,,,,,,,,,,,,,,,,,,,,,,,,,,,,,,,,,,,,1,3,63,22,1,N,M,C,o1_image,stimuli/out1.png,stimuli/correct_out1.png,stimuli/out2.png,,,,,,,,,,,,,,,,,,,,,,,,,,,,,,,,,,,,,,
,,60fb1cab39fd626cb9dc093b,30,female,2024-04-24_12h37.08.198,stockport_simplified,2022.2.4,Win32,30.08061605,661e456ee6de07e70aa9ef7b,6628df8c1af31ad1f5ae13b2,,,,,,,,,,,,,,,,,,,,,,,,,,,,,,,,,,543.0232,546.1992,"[8,4,2,5,7,3,6,1]","[[-0.3,0.2],[0.3,0.2]]","[[0.125,-0.2],[-0.125,-0.2]]",0.111979167,-0.197916667,1,0,0,2.6666,o1_image,546.2011,1,546.678,546.6781,548.6765,0,0,0,0,1,,,,,,,,,,,,,,,,,,,,,,,,,,,,,,,,,,,,,,,,,,,,,,,,,,
,,60fb1cab39fd626cb9dc093b,30,female,2024-04-24_12h37.08.198,stockport_simplified,2022.2.4,Win32,30.08061605,661e456ee6de07e70aa9ef7b,6628df8c1af31ad1f5ae13b2,,,,,,,,,,,,,,,,,,,,,,,,,,,,,,,,,,,,,,,,,,,,,,,,,,,,,,,,1,4,64,33,1,A,X,N,o1_image,stimuli/out1.png,stimuli/correct_out1.png,stimuli/out2.png,,,,,,,,,,,,,,,,,,,,,,,,,,,,,,,,,,,,,,
,,60fb1cab39fd626cb9dc093b,30,female,2024-04-24_12h37.08.198,stockport_simplified,2022.2.4,Win32,30.08061605,661e456ee6de07e70aa9ef7b,6628df8c1af31ad1f5ae13b2,,,,,,,,,,,,,,,,,,,,,,,,,,,,,,,,,,548.6773,551.7045,"[8,4,2,5,7,3,6,1]","[[0.3,0.2],[-0.3,0.2]]","[[-0.125,-0.2],[0.125,-0.2]]",0.1015625,-0.203125,1,0,0,2.5168,o2_image,551.739,1,552.2287,552.2289,554.2274,0,0,0,0,1,,,,,,,,,,,,,,,,,,,,,,,,,,,,,,,,,,,,,,,,,,,,,,,,,,
,,60fb1cab39fd626cb9dc093b,30,female,2024-04-24_12h37.08.198,stockport_simplified,2022.2.4,Win32,30.08061605,661e456ee6de07e70aa9ef7b,6628df8c1af31ad1f5ae13b2,,,,,,,,,,,,,,,,,,,,,,,,,,,,,,,,,,,,,,,,,,,,,,,,,,,,,,,,1,5,65,45,1,B,Y,N,o2_image,stimuli/out2.png,stimuli/out1.png,stimuli/correct_out2.png,,,,,,,,,,,,,,,,,,,,,,,,,,,,,,,,,,,,,,
,,60fb1cab39fd626cb9dc093b,30,female,2024-04-24_12h37.08.198,stockport_simplified,2022.2.4,Win32,30.08061605,661e456ee6de07e70aa9ef7b,6628df8c1af31ad1f5ae13b2,,,,,,,,,,,,,,,,,,,,,,,,,,,,,,,,,,554.2281,556.8291,"[8,4,2,5,7,3,6,1]","[[-0.3,0.2],[0.3,0.2]]","[[0.125,-0.2],[-0.125,-0.2]]",0.12890625,-0.20703125,1,0,0,2.0894,o1_image,556.8319,1,557.3034,557.304,559.3068,0,0,0,0,1,,,,,,,,,,,,,,,,,,,,,,,,,,,,,,,,,,,,,,,,,,,,,,,,,,
,,60fb1cab39fd626cb9dc093b,30,female,2024-04-24_12h37.08.198,stockport_simplified,2022.2.4,Win32,30.08061605,661e456ee6de07e70aa9ef7b,6628df8c1af31ad1f5ae13b2,,,,,,,,,,,,,,,,,,,,,,,,,,,,,,,,,,,,,,,,,,,,,,,,,,,,,,,,1,6,66,9,1,A,Y,N,o1_image,stimuli/out1.png,stimuli/correct_out1.png,stimuli/out2.png,,,,,,,,,,,,,,,,,,,,,,,,,,,,,,,,,,,,,,
,,60fb1cab39fd626cb9dc093b,30,female,2024-04-24_12h37.08.198,stockport_simplified,2022.2.4,Win32,30.08061605,661e456ee6de07e70aa9ef7b,6628df8c1af31ad1f5ae13b2,,,,,,,,,,,,,,,,,,,,,,,,,,,,,,,,,,559.3081,561.7492,"[8,4,2,5,7,3,6,1]","[[0.3,0.2],[-0.3,0.2]]","[[-0.125,-0.2],[0.125,-0.2]]",0.12890625,-0.208333333,1,0,0,1.9071,o2_image,561.7521,1,562.2553,562.2554,564.2227,0,0,0,0,1,,,,,,,,,,,,,,,,,,,,,,,,,,,,,,,,,,,,,,,,,,,,,,,,,,
,,60fb1cab39fd626cb9dc093b,30,female,2024-04-24_12h37.08.198,stockport_simplified,2022.2.4,Win32,30.08061605,661e456ee6de07e70aa9ef7b,6628df8c1af31ad1f5ae13b2,,,,,,,,,,,,,,,,,,,,,,,,,,,,,,,,,,,,,,,,,,,,,,,,,,,,,,,,1,7,67,47,1,B,Y,N,o2_image,stimuli/out2.png,stimuli/out1.png,stimuli/correct_out2.png,,,,,,,,,,,,,,,,,,,,,,,,,,,,,,,,,,,,,,
,,60fb1cab39fd626cb9dc093b,30,female,2024-04-24_12h37.08.198,stockport_simplified,2022.2.4,Win32,30.08061605,661e456ee6de07e70aa9ef7b,6628df8c1af31ad1f5ae13b2,,,,,,,,,,,,,,,,,,,,,,,,,,,,,,,,,,564.225,566.7993,"[8,4,2,5,7,3,6,1]","[[-0.3,0.2],[0.3,0.2]]","[[-0.125,-0.2],[0.125,-0.2]]",-0.119791667,-0.22265625,1,0,0,2.0532,o1_image,566.8012,1,567.3195,567.3195,569.304,0,0,0,0,1,,,,,,,,,,,,,,,,,,,,,,,,,,,,,,,,,,,,,,,,,,,,,,,,,,
,,60fb1cab39fd626cb9dc093b,30,female,2024-04-24_12h37.08.198,stockport_simplified,2022.2.4,Win32,30.08061605,661e456ee6de07e70aa9ef7b,6628df8c1af31ad1f5ae13b2,,,,,,,,,,,,,,,,,,,,,,,,,,,,,,,,,,,,,,,,,,,,,,,,,,,,,,,,1,8,68,6,1,A,Y,N,o1_image,stimuli/out1.png,stimuli/correct_out1.png,stimuli/out2.png,,,,,,,,,,,,,,,,,,,,,,,,,,,,,,,,,,,,,,
,,60fb1cab39fd626cb9dc093b,30,female,2024-04-24_12h37.08.198,stockport_simplified,2022.2.4,Win32,30.08061605,661e456ee6de07e70aa9ef7b,6628df8c1af31ad1f5ae13b2,,,,,,,,,,,,,,,,,,,,,,,,,,,,,,,,,,569.3047,572.7063,"[8,4,2,5,7,3,6,1]","[[0.3,0.2],[-0.3,0.2]]","[[-0.125,-0.2],[0.125,-0.2]]",0.083333333,-0.194010417,1,0,0,2.8927,o2_image,572.7275,1,573.2178,573.2178,575.2171,0,0,0,0,1,,,,,,,,,,,,,,,,,,,,,,,,,,,,,,,,,,,,,,,,,,,,,,,,,,
,,60fb1cab39fd626cb9dc093b,30,female,2024-04-24_12h37.08.198,stockport_simplified,2022.2.4,Win32,30.08061605,661e456ee6de07e70aa9ef7b,6628df8c1af31ad1f5ae13b2,,,,,,,,,,,,,,,,,,,,,,,,,,,,,,,,,,,,,,,,,,,,,,,,,,,,,,,,1,9,69,14,1,B,X,N,o2_image,stimuli/out2.png,stimuli/out1.png,stimuli/correct_out2.png,,,,,,,,,,,,,,,,,,,,,,,,,,,,,,,,,,,,,,
,,60fb1cab39fd626cb9dc093b,30,female,2024-04-24_12h37.08.198,stockport_simplified,2022.2.4,Win32,30.08061605,661e456ee6de07e70aa9ef7b,6628df8c1af31ad1f5ae13b2,,,,,,,,,,,,,,,,,,,,,,,,,,,,,,,,,,575.2177,577.9905,"[8,4,2,5,7,3,6,1]","[[0.3,0.2],[-0.3,0.2]]","[[0.125,-0.2],[-0.125,-0.2]]",-0.111979167,-0.1953125,1,0,0,2.2367,o2_image,578.0042,1,578.5065,578.5067,580.5154,0,0,0,0,1,,,,,,,,,,,,,,,,,,,,,,,,,,,,,,,,,,,,,,,,,,,,,,,,,,
,,60fb1cab39fd626cb9dc093b,30,female,2024-04-24_12h37.08.198,stockport_simplified,2022.2.4,Win32,30.08061605,661e456ee6de07e70aa9ef7b,6628df8c1af31ad1f5ae13b2,,,,,,,,,,,,,,,,,,,,,,,,,,,,,,,,,,,,,,,,,,,,,,,,,,,,,,,,1,10,70,27,1,N,M,D,o2_image,stimuli/out2.png,stimuli/out1.png,stimuli/correct_out2.png,,,,,,,,,,,,,,,,,,,,,,,,,,,,,,,,,,,,,,
,,60fb1cab39fd626cb9dc093b,30,female,2024-04-24_12h37.08.198,stockport_simplified,2022.2.4,Win32,30.08061605,661e456ee6de07e70aa9ef7b,6628df8c1af31ad1f5ae13b2,,,,,,,,,,,,,,,,,,,,,,,,,,,,,,,,,,580.5166,583.8037,"[8,4,2,5,7,3,6,1]","[[0.3,0.2],[-0.3,0.2]]","[[-0.125,-0.2],[0.125,-0.2]]",0.147135417,-0.1953125,1,0,0,2.7727,o2_image,583.8058,1,584.3081,584.3082,586.2861,0,0,0,0,1,,,,,,,,,,,,,,,,,,,,,,,,,,,,,,,,,,,,,,,,,,,,,,,,,,
,,60fb1cab39fd626cb9dc093b,30,female,2024-04-24_12h37.08.198,stockport_simplified,2022.2.4,Win32,30.08061605,661e456ee6de07e70aa9ef7b,6628df8c1af31ad1f5ae13b2,,,,,,,,,,,,,,,,,,,,,,,,,,,,,,,,,,,,,,,,,,,,,,,,,,,,,,,,1,11,71,15,1,B,Y,N,o2_image,stimuli/out2.png,stimuli/out1.png,stimuli/correct_out2.png,,,,,,,,,,,,,,,,,,,,,,,,,,,,,,,,,,,,,,
,,60fb1cab39fd626cb9dc093b,30,female,2024-04-24_12h37.08.198,stockport_simplified,2022.2.4,Win32,30.08061605,661e456ee6de07e70aa9ef7b,6628df8c1af31ad1f5ae13b2,,,,,,,,,,,,,,,,,,,,,,,,,,,,,,,,,,586.2873,589.2014,"[8,4,2,5,7,3,6,1]","[[-0.3,0.2],[0.3,0.2]]","[[-0.125,-0.2],[0.125,-0.2]]",0.145833333,-0.194010417,1,0,0,2.4025,o2_image,589.2035,1,589.7071,589.7071,591.7067,0,0,0,0,1,,,,,,,,,,,,,,,,,,,,,,,,,,,,,,,,,,,,,,,,,,,,,,,,,,
,,60fb1cab39fd626cb9dc093b,30,female,2024-04-24_12h37.08.198,stockport_simplified,2022.2.4,Win32,30.08061605,661e456ee6de07e70aa9ef7b,6628df8c1af31ad1f5ae13b2,,,,,,,,,,,,,,,,,,,,,,,,,,,,,,,,,,,,,,,,,,,,,,,,,,,,,,,,1,12,72,26,1,N,M,D,o2_image,stimuli/out2.png,stimuli/out1.png,stimuli/correct_out2.png,,,,,,,,,,,,,,,,,,,,,,,,,,,,,,,,,,,,,,
,,60fb1cab39fd626cb9dc093b,30,female,2024-04-24_12h37.08.198,stockport_simplified,2022.2.4,Win32,30.08061605,661e456ee6de07e70aa9ef7b,6628df8c1af31ad1f5ae13b2,,,,,,,,,,,,,,,,,,,,,,,,,,,,,,,,,,591.7075,594.5925,"[8,4,2,5,7,3,6,1]","[[0.3,0.2],[-0.3,0.2]]","[[-0.125,-0.2],[0.125,-0.2]]",0.145833333,-0.194010417,1,0,0,2.3772,o2_image,594.6292,1,595.1394,595.1395,597.1384,0,0,0,0,1,,,,,,,,,,,,,,,,,,,,,,,,,,,,,,,,,,,,,,,,,,,,,,,,,,
,,60fb1cab39fd626cb9dc093b,30,female,2024-04-24_12h37.08.198,stockport_simplified,2022.2.4,Win32,30.08061605,661e456ee6de07e70aa9ef7b,6628df8c1af31ad1f5ae13b2,,,,,,,,,,,,,,,,,,,,,,,,,,,,,,,,,,,,,,,,,,,,,,,,,,,,,,,,1,13,73,19,1,B,Y,N,o2_image,stimuli/out2.png,stimuli/out1.png,stimuli/correct_out2.png,,,,,,,,,,,,,,,,,,,,,,,,,,,,,,,,,,,,,,
,,60fb1cab39fd626cb9dc093b,30,female,2024-04-24_12h37.08.198,stockport_simplified,2022.2.4,Win32,30.08061605,661e456ee6de07e70aa9ef7b,6628df8c1af31ad1f5ae13b2,,,,,,,,,,,,,,,,,,,,,,,,,,,,,,,,,,597.1418,599.9557,"[8,4,2,5,7,3,6,1]","[[0.3,0.2],[-0.3,0.2]]","[[-0.125,-0.2],[0.125,-0.2]]",0.145833333,-0.194010417,1,0,0,2.3042,o2_image,599.9582,1,600.438,600.4381,602.4037,0,0,0,0,1,,,,,,,,,,,,,,,,,,,,,,,,,,,,,,,,,,,,,,,,,,,,,,,,,,
,,60fb1cab39fd626cb9dc093b,30,female,2024-04-24_12h37.08.198,stockport_simplified,2022.2.4,Win32,30.08061605,661e456ee6de07e70aa9ef7b,6628df8c1af31ad1f5ae13b2,,,,,,,,,,,,,,,,,,,,,,,,,,,,,,,,,,,,,,,,,,,,,,,,,,,,,,,,1,14,74,18,1,B,Y,N,o2_image,stimuli/out2.png,stimuli/out1.png,stimuli/correct_out2.png,,,,,,,,,,,,,,,,,,,,,,,,,,,,,,,,,,,,,,
,,60fb1cab39fd626cb9dc093b,30,female,2024-04-24_12h37.08.198,stockport_simplified,2022.2.4,Win32,30.08061605,661e456ee6de07e70aa9ef7b,6628df8c1af31ad1f5ae13b2,,,,,,,,,,,,,,,,,,,,,,,,,,,,,,,,,,602.4054,605.2458,"[8,4,2,5,7,3,6,1]","[[-0.3,0.2],[0.3,0.2]]","[[0.125,-0.2],[-0.125,-0.2]]",0.12890625,-0.17578125,1,0,0,2.3291,o1_image,605.2714,1,605.7369,605.737,607.739,0,0,0,0,1,,,,,,,,,,,,,,,,,,,,,,,,,,,,,,,,,,,,,,,,,,,,,,,,,,
,,60fb1cab39fd626cb9dc093b,30,female,2024-04-24_12h37.08.198,stockport_simplified,2022.2.4,Win32,30.08061605,661e456ee6de07e70aa9ef7b,6628df8c1af31ad1f5ae13b2,,,,,,,,,,,,,,,,,,,,,,,,,,,,,,,,,,,,,,,,,,,,,,,,,,,,,,,,1,15,75,34,1,A,X,N,o1_image,stimuli/out1.png,stimuli/correct_out1.png,stimuli/out2.png,,,,,,,,,,,,,,,,,,,,,,,,,,,,,,,,,,,,,,
,,60fb1cab39fd626cb9dc093b,30,female,2024-04-24_12h37.08.198,stockport_simplified,2022.2.4,Win32,30.08061605,661e456ee6de07e70aa9ef7b,6628df8c1af31ad1f5ae13b2,,,,,,,,,,,,,,,,,,,,,,,,,,,,,,,,,,607.7407,610.7261,"[8,4,2,5,7,3,6,1]","[[-0.3,0.2],[0.3,0.2]]","[[-0.125,-0.2],[0.125,-0.2]]",-0.110677083,-0.194010417,1,0,0,2.4794,o1_image,610.7283,1,611.2359,611.2361,613.2416,0,0,0,0,1,,,,,,,,,,,,,,,,,,,,,,,,,,,,,,,,,,,,,,,,,,,,,,,,,,
,,60fb1cab39fd626cb9dc093b,30,female,2024-04-24_12h37.08.198,stockport_simplified,2022.2.4,Win32,30.08061605,661e456ee6de07e70aa9ef7b,6628df8c1af31ad1f5ae13b2,,,,,,,,,,,,,,,,,,,,,,,,,,,,,,,,,,,,,,,,,,,,,,,,,,,,,,,,1,16,76,36,1,A,Y,N,o1_image,stimuli/out1.png,stimuli/correct_out1.png,stimuli/out2.png,,,,,,,,,,,,,,,,,,,,,,,,,,,,,,,,,,,,,,
,,60fb1cab39fd626cb9dc093b,30,female,2024-04-24_12h37.08.198,stockport_simplified,2022.2.4,Win32,30.08061605,661e456ee6de07e70aa9ef7b,6628df8c1af31ad1f5ae13b2,,,,,,,,,,,,,,,,,,,,,,,,,,,,,,,,,,613.2436,616.218,"[8,4,2,5,7,3,6,1]","[[0.3,0.2],[-0.3,0.2]]","[[-0.125,-0.2],[0.125,-0.2]]",0.100260417,-0.194010417,1,0,0,2.4526,o2_image,616.2196,1,616.7091,616.7091,618.7008,0,0,0,0,1,,,,,,,,,,,,,,,,,,,,,,,,,,,,,,,,,,,,,,,,,,,,,,,,,,
,,60fb1cab39fd626cb9dc093b,30,female,2024-04-24_12h37.08.198,stockport_simplified,2022.2.4,Win32,30.08061605,661e456ee6de07e70aa9ef7b,6628df8c1af31ad1f5ae13b2,,,,,,,,,,,,,,,,,,,,,,,,,,,,,,,,,,,,,,,,,,,,,,,,,,,,,,,,1,17,77,56,1,N,M,D,o2_image,stimuli/out2.png,stimuli/out1.png,stimuli/correct_out2.png,,,,,,,,,,,,,,,,,,,,,,,,,,,,,,,,,,,,,,
,,60fb1cab39fd626cb9dc093b,30,female,2024-04-24_12h37.08.198,stockport_simplified,2022.2.4,Win32,30.08061605,661e456ee6de07e70aa9ef7b,6628df8c1af31ad1f5ae13b2,,,,,,,,,,,,,,,,,,,,,,,,,,,,,,,,,,618.7028,621.5813,"[8,4,2,5,7,3,6,1]","[[-0.3,0.2],[0.3,0.2]]","[[-0.125,-0.2],[0.125,-0.2]]",-0.125,-0.19140625,1,0,0,2.3671,o1_image,621.6022,1,622.1086,622.1087,624.0779,0,0,0,0,1,,,,,,,,,,,,,,,,,,,,,,,,,,,,,,,,,,,,,,,,,,,,,,,,,,
,,60fb1cab39fd626cb9dc093b,30,female,2024-04-24_12h37.08.198,stockport_simplified,2022.2.4,Win32,30.08061605,661e456ee6de07e70aa9ef7b,6628df8c1af31ad1f5ae13b2,,,,,,,,,,,,,,,,,,,,,,,,,,,,,,,,,,,,,,,,,,,,,,,,,,,,,,,,1,18,78,20,1,N,M,C,o1_image,stimuli/out1.png,stimuli/correct_out1.png,stimuli/out2.png,,,,,,,,,,,,,,,,,,,,,,,,,,,,,,,,,,,,,,
,,60fb1cab39fd626cb9dc093b,30,female,2024-04-24_12h37.08.198,stockport_simplified,2022.2.4,Win32,30.08061605,661e456ee6de07e70aa9ef7b,6628df8c1af31ad1f5ae13b2,,,,,,,,,,,,,,,,,,,,,,,,,,,,,,,,,,624.0787,627.0476,"[8,4,2,5,7,3,6,1]","[[0.3,0.2],[-0.3,0.2]]","[[-0.125,-0.2],[0.125,-0.2]]",-0.125,-0.19140625,1,0,0,2.4358,o1_image,627.0495,1,627.5268,627.527,629.5212,0,0,0,0,1,,,,,,,,,,,,,,,,,,,,,,,,,,,,,,,,,,,,,,,,,,,,,,,,,,
,,60fb1cab39fd626cb9dc093b,30,female,2024-04-24_12h37.08.198,stockport_simplified,2022.2.4,Win32,30.08061605,661e456ee6de07e70aa9ef7b,6628df8c1af31ad1f5ae13b2,,,,,,,,,,,,,,,,,,,,,,,,,,,,,,,,,,,,,,,,,,,,,,,,,,,,,,,,1,19,79,35,1,A,Y,N,o1_image,stimuli/out1.png,stimuli/correct_out1.png,stimuli/out2.png,,,,,,,,,,,,,,,,,,,,,,,,,,,,,,,,,,,,,,
,,60fb1cab39fd626cb9dc093b,30,female,2024-04-24_12h37.08.198,stockport_simplified,2022.2.4,Win32,30.08061605,661e456ee6de07e70aa9ef7b,6628df8c1af31ad1f5ae13b2,,,,,,,,,,,,,,,,,,,,,,,,,,,,,,,,,,629.5223,632.4069,"[8,4,2,5,7,3,6,1]","[[-0.3,0.2],[0.3,0.2]]","[[0.125,-0.2],[-0.125,-0.2]]",0.108072917,-0.20703125,1,0,0,2.3478,o1_image,632.4088,1,632.8761,632.8763,634.8623,0,0,0,0,1,,,,,,,,,,,,,,,,,,,,,,,,,,,,,,,,,,,,,,,,,,,,,,,,,,
,,60fb1cab39fd626cb9dc093b,30,female,2024-04-24_12h37.08.198,stockport_simplified,2022.2.4,Win32,30.08061605,661e456ee6de07e70aa9ef7b,6628df8c1af31ad1f5ae13b2,,,,,,,,,,,,,,,,,,,,,,,,,,,,,,,,,,,,,,,,,,,,,,,,,,,,,,,,1,20,80,8,1,A,Y,N,o1_image,stimuli/out1.png,stimuli/correct_out1.png,stimuli/out2.png,,,,,,,,,,,,,,,,,,,,,,,,,,,,,,,,,,,,,,
,,60fb1cab39fd626cb9dc093b,30,female,2024-04-24_12h37.08.198,stockport_simplified,2022.2.4,Win32,30.08061605,661e456ee6de07e70aa9ef7b,6628df8c1af31ad1f5ae13b2,,,,,,,,,,,,,,,,,,,,,,,,,,,,,,,,,,634.8638,637.997,"[8,4,2,5,7,3,6,1]","[[-0.3,0.2],[0.3,0.2]]","[[-0.125,-0.2],[0.125,-0.2]]",0.108072917,-0.20703125,1,0,0,2.6143,o2_image,638.0146,1,638.5089,638.5089,640.5006,0,0,0,0,1,,,,,,,,,,,,,,,,,,,,,,,,,,,,,,,,,,,,,,,,,,,,,,,,,,
,,60fb1cab39fd626cb9dc093b,30,female,2024-04-24_12h37.08.198,stockport_simplified,2022.2.4,Win32,30.08061605,661e456ee6de07e70aa9ef7b,6628df8c1af31ad1f5ae13b2,,,,,,,,,,,,,,,,,,,,,,,,,,,,,,,,,,,,,,,,,,,,,,,,,,,,,,,,1,21,81,42,1,B,X,N,o2_image,stimuli/out2.png,stimuli/out1.png,stimuli/correct_out2.png,,,,,,,,,,,,,,,,,,,,,,,,,,,,,,,,,,,,,,
,,60fb1cab39fd626cb9dc093b,30,female,2024-04-24_12h37.08.198,stockport_simplified,2022.2.4,Win32,30.08061605,661e456ee6de07e70aa9ef7b,6628df8c1af31ad1f5ae13b2,,,,,,,,,,,,,,,,,,,,,,,,,,,,,,,,,,640.502,642.91,"[8,4,2,5,7,3,6,1]","[[-0.3,0.2],[0.3,0.2]]","[[-0.125,-0.2],[0.125,-0.2]]",-0.0859375,-0.2109375,1,0,0,1.8872,o1_image,642.9108,1,643.4034,643.4035,645.3688,0,0,0,0,1,,,,,,,,,,,,,,,,,,,,,,,,,,,,,,,,,,,,,,,,,,,,,,,,,,
,,60fb1cab39fd626cb9dc093b,30,female,2024-04-24_12h37.08.198,stockport_simplified,2022.2.4,Win32,30.08061605,661e456ee6de07e70aa9ef7b,6628df8c1af31ad1f5ae13b2,,,,,,,,,,,,,,,,,,,,,,,,,,,,,,,,,,,,,,,,,,,,,,,,,,,,,,,,1,22,82,3,1,A,X,N,o1_image,stimuli/out1.png,stimuli/correct_out1.png,stimuli/out2.png,,,,,,,,,,,,,,,,,,,,,,,,,,,,,,,,,,,,,,
,,60fb1cab39fd626cb9dc093b,30,female,2024-04-24_12h37.08.198,stockport_simplified,2022.2.4,Win32,30.08061605,661e456ee6de07e70aa9ef7b,6628df8c1af31ad1f5ae13b2,,,,,,,,,,,,,,,,,,,,,,,,,,,,,,,,,,645.3707,648.4929,"[8,4,2,5,7,3,6,1]","[[0.3,0.2],[-0.3,0.2]]","[[-0.125,-0.2],[0.125,-0.2]]",-0.127604167,-0.1953125,1,0,0,2.5845,o1_image,648.5102,1,648.9962,648.9963,650.9817,0,0,0,0,1,,,,,,,,,,,,,,,,,,,,,,,,,,,,,,,,,,,,,,,,,,,,,,,,,,
,,60fb1cab39fd626cb9dc093b,30,female,2024-04-24_12h37.08.198,stockport_simplified,2022.2.4,Win32,30.08061605,661e456ee6de07e70aa9ef7b,6628df8c1af31ad1f5ae13b2,,,,,,,,,,,,,,,,,,,,,,,,,,,,,,,,,,,,,,,,,,,,,,,,,,,,,,,,1,23,83,24,1,N,M,C,o1_image,stimuli/out1.png,stimuli/correct_out1.png,stimuli/out2.png,,,,,,,,,,,,,,,,,,,,,,,,,,,,,,,,,,,,,,
,,60fb1cab39fd626cb9dc093b,30,female,2024-04-24_12h37.08.198,stockport_simplified,2022.2.4,Win32,30.08061605,661e456ee6de07e70aa9ef7b,6628df8c1af31ad1f5ae13b2,,,,,,,,,,,,,,,,,,,,,,,,,,,,,,,,,,650.9833,653.6945,"[8,4,2,5,7,3,6,1]","[[0.3,0.2],[-0.3,0.2]]","[[0.125,-0.2],[-0.125,-0.2]]",-0.127604167,-0.1953125,1,0,0,2.1769,o2_image,653.6971,1,654.1973,654.1973,656.1902,0,0,0,0,1,,,,,,,,,,,,,,,,,,,,,,,,,,,,,,,,,,,,,,,,,,,,,,,,,,
,,60fb1cab39fd626cb9dc093b,30,female,2024-04-24_12h37.08.198,stockport_simplified,2022.2.4,Win32,30.08061605,661e456ee6de07e70aa9ef7b,6628df8c1af31ad1f5ae13b2,,,,,,,,,,,,,,,,,,,,,,,,,,,,,,,,,,,,,,,,,,,,,,,,,,,,,,,,1,24,84,29,1,N,M,D,o2_image,stimuli/out2.png,stimuli/out1.png,stimuli/correct_out2.png,,,,,,,,,,,,,,,,,,,,,,,,,,,,,,,,,,,,,,
,,60fb1cab39fd626cb9dc093b,30,female,2024-04-24_12h37.08.198,stockport_simplified,2022.2.4,Win32,30.08061605,661e456ee6de07e70aa9ef7b,6628df8c1af31ad1f5ae13b2,,,,,,,,,,,,,,,,,,,,,,,,,,,,,,,,,,656.192,659.1813,"[8,4,2,5,7,3,6,1]","[[0.3,0.2],[-0.3,0.2]]","[[0.125,-0.2],[-0.125,-0.2]]",0.1015625,-0.21875,1,0,0,2.4583,o1_image,659.1978,1,659.6951,659.6951,661.6929,0,0,0,0,1,,,,,,,,,,,,,,,,,,,,,,,,,,,,,,,,,,,,,,,,,,,,,,,,,,
,,60fb1cab39fd626cb9dc093b,30,female,2024-04-24_12h37.08.198,stockport_simplified,2022.2.4,Win32,30.08061605,661e456ee6de07e70aa9ef7b,6628df8c1af31ad1f5ae13b2,,,,,,,,,,,,,,,,,,,,,,,,,,,,,,,,,,,,,,,,,,,,,,,,,,,,,,,,1,25,85,23,1,N,M,C,o1_image,stimuli/out1.png,stimuli/correct_out1.png,stimuli/out2.png,,,,,,,,,,,,,,,,,,,,,,,,,,,,,,,,,,,,,,
,,60fb1cab39fd626cb9dc093b,30,female,2024-04-24_12h37.08.198,stockport_simplified,2022.2.4,Win32,30.08061605,661e456ee6de07e70aa9ef7b,6628df8c1af31ad1f5ae13b2,,,,,,,,,,,,,,,,,,,,,,,,,,,,,,,,,,661.6938,663.8946,"[8,4,2,5,7,3,6,1]","[[0.3,0.2],[-0.3,0.2]]","[[0.125,-0.2],[-0.125,-0.2]]",-0.130208333,-0.205729167,1,0,0,1.6996,o2_image,663.8971,1,664.3951,664.3952,666.4059,0,0,0,0,1,,,,,,,,,,,,,,,,,,,,,,,,,,,,,,,,,,,,,,,,,,,,,,,,,,
,,60fb1cab39fd626cb9dc093b,30,female,2024-04-24_12h37.08.198,stockport_simplified,2022.2.4,Win32,30.08061605,661e456ee6de07e70aa9ef7b,6628df8c1af31ad1f5ae13b2,,,,,,,,,,,,,,,,,,,,,,,,,,,,,,,,,,,,,,,,,,,,,,,,,,,,,,,,1,26,86,57,1,N,M,D,o2_image,stimuli/out2.png,stimuli/out1.png,stimuli/correct_out2.png,,,,,,,,,,,,,,,,,,,,,,,,,,,,,,,,,,,,,,
,,60fb1cab39fd626cb9dc093b,30,female,2024-04-24_12h37.08.198,stockport_simplified,2022.2.4,Win32,30.08061605,661e456ee6de07e70aa9ef7b,6628df8c1af31ad1f5ae13b2,,,,,,,,,,,,,,,,,,,,,,,,,,,,,,,,,,666.4083,668.397,"[8,4,2,5,7,3,6,1]","[[-0.3,0.2],[0.3,0.2]]","[[-0.125,-0.2],[0.125,-0.2]]",-0.130208333,-0.205729167,1,0,0,1.4644,o1_image,668.3989,1,668.8933,668.8934,670.8784,0,0,0,0,1,,,,,,,,,,,,,,,,,,,,,,,,,,,,,,,,,,,,,,,,,,,,,,,,,,
,,60fb1cab39fd626cb9dc093b,30,female,2024-04-24_12h37.08.198,stockport_simplified,2022.2.4,Win32,30.08061605,661e456ee6de07e70aa9ef7b,6628df8c1af31ad1f5ae13b2,,,,,,,,,,,,,,,,,,,,,,,,,,,,,,,,,,,,,,,,,,,,,,,,,,,,,,,,1,27,87,4,1,A,X,N,o1_image,stimuli/out1.png,stimuli/correct_out1.png,stimuli/out2.png,,,,,,,,,,,,,,,,,,,,,,,,,,,,,,,,,,,,,,
,,60fb1cab39fd626cb9dc093b,30,female,2024-04-24_12h37.08.198,stockport_simplified,2022.2.4,Win32,30.08061605,661e456ee6de07e70aa9ef7b,6628df8c1af31ad1f5ae13b2,,,,,,,,,,,,,,,,,,,,,,,,,,,,,,,,,,670.8799,674.978,"[8,4,2,5,7,3,6,1]","[[0.3,0.2],[-0.3,0.2]]","[[-0.125,-0.2],[0.125,-0.2]]",-0.10546875,-0.205729167,1,0,0,3.5856,o1_image,675.0037,1,675.5065,675.5066,677.4993,0,0,0,0,1,,,,,,,,,,,,,,,,,,,,,,,,,,,,,,,,,,,,,,,,,,,,,,,,,,
,,60fb1cab39fd626cb9dc093b,30,female,2024-04-24_12h37.08.198,stockport_simplified,2022.2.4,Win32,30.08061605,661e456ee6de07e70aa9ef7b,6628df8c1af31ad1f5ae13b2,,,,,,,,,,,,,,,,,,,,,,,,,,,,,,,,,,,,,,,,,,,,,,,,,,,,,,,,1,28,88,5,1,A,Y,N,o1_image,stimuli/out1.png,stimuli/correct_out1.png,stimuli/out2.png,,,,,,,,,,,,,,,,,,,,,,,,,,,,,,,,,,,,,,
,,60fb1cab39fd626cb9dc093b,30,female,2024-04-24_12h37.08.198,stockport_simplified,2022.2.4,Win32,30.08061605,661e456ee6de07e70aa9ef7b,6628df8c1af31ad1f5ae13b2,,,,,,,,,,,,,,,,,,,,,,,,,,,,,,,,,,677.5008,680.3391,"[8,4,2,5,7,3,6,1]","[[-0.3,0.2],[0.3,0.2]]","[[0.125,-0.2],[-0.125,-0.2]]",0.130208333,-0.21484375,1,0,0,2.3263,o1_image,680.341,1,680.8436,680.8437,682.8478,0,0,0,0,1,,,,,,,,,,,,,,,,,,,,,,,,,,,,,,,,,,,,,,,,,,,,,,,,,,
,,60fb1cab39fd626cb9dc093b,30,female,2024-04-24_12h37.08.198,stockport_simplified,2022.2.4,Win32,30.08061605,661e456ee6de07e70aa9ef7b,6628df8c1af31ad1f5ae13b2,,,,,,,,,,,,,,,,,,,,,,,,,,,,,,,,,,,,,,,,,,,,,,,,,,,,,,,,1,29,89,37,1,A,Y,N,o1_image,stimuli/out1.png,stimuli/correct_out1.png,stimuli/out2.png,,,,,,,,,,,,,,,,,,,,,,,,,,,,,,,,,,,,,,
,,60fb1cab39fd626cb9dc093b,30,female,2024-04-24_12h37.08.198,stockport_simplified,2022.2.4,Win32,30.08061605,661e456ee6de07e70aa9ef7b,6628df8c1af31ad1f5ae13b2,,,,,,,,,,,,,,,,,,,,,,,,,,,,,,,,,,682.8492,684.7386,"[8,4,2,5,7,3,6,1]","[[-0.3,0.2],[0.3,0.2]]","[[0.125,-0.2],[-0.125,-0.2]]",0.130208333,-0.21484375,1,0,0,1.3555,o1_image,684.7411,1,685.2181,685.2182,687.2108,0,0,0,0,1,,,,,,,,,,,,,,,,,,,,,,,,,,,,,,,,,,,,,,,,,,,,,,,,,,
,,60fb1cab39fd626cb9dc093b,30,female,2024-04-24_12h37.08.198,stockport_simplified,2022.2.4,Win32,30.08061605,661e456ee6de07e70aa9ef7b,6628df8c1af31ad1f5ae13b2,,,,,,,,,,,,,,,,,,,,,,,,,,,,,,,,,,,,,,,,,,,,,,,,,,,,,,,,1,30,90,38,1,A,Y,N,o1_image,stimuli/out1.png,stimuli/correct_out1.png,stimuli/out2.png,,,,,,,,,,,,,,,,,,,,,,,,,,,,,,,,,,,,,,
,,60fb1cab39fd626cb9dc093b,30,female,2024-04-24_12h37.08.198,stockport_simplified,2022.2.4,Win32,30.08061605,661e456ee6de07e70aa9ef7b,6628df8c1af31ad1f5ae13b2,,,,,,,,,,,,,,,,,,,,,,,,,,,,,,,,,,687.2122,690.2791,"[8,4,2,5,7,3,6,1]","[[0.3,0.2],[-0.3,0.2]]","[[0.125,-0.2],[-0.125,-0.2]]",-0.127604167,-0.192708333,1,0,0,2.5345,o2_image,690.2973,1,690.7939,690.794,692.7626,0,0,0,0,1,,,,,,,,,,,,,,,,,,,,,,,,,,,,,,,,,,,,,,,,,,,,,,,,,,
,,60fb1cab39fd626cb9dc093b,30,female,2024-04-24_12h37.08.198,stockport_simplified,2022.2.4,Win32,30.08061605,661e456ee6de07e70aa9ef7b,6628df8c1af31ad1f5ae13b2,,,,,,,,,,,,,,,,,,,,,,,,,,,,,,,,,,,,,,,,,,,,,,,,,,,,,,,,1,31,91,44,1,B,X,N,o2_image,stimuli/out2.png,stimuli/out1.png,stimuli/correct_out2.png,,,,,,,,,,,,,,,,,,,,,,,,,,,,,,,,,,,,,,
,,60fb1cab39fd626cb9dc093b,30,female,2024-04-24_12h37.08.198,stockport_simplified,2022.2.4,Win32,30.08061605,661e456ee6de07e70aa9ef7b,6628df8c1af31ad1f5ae13b2,,,,,,,,,,,,,,,,,,,,,,,,,,,,,,,,,,692.764,694.8064,"[8,4,2,5,7,3,6,1]","[[0.3,0.2],[-0.3,0.2]]","[[-0.125,-0.2],[0.125,-0.2]]",-0.127604167,-0.192708333,1,0,0,1.5211,o1_image,694.8088,1,695.319,695.319,697.3127,0,0,0,0,1,,,,,,,,,,,,,,,,,,,,,,,,,,,,,,,,,,,,,,,,,,,,,,,,,,
,,60fb1cab39fd626cb9dc093b,30,female,2024-04-24_12h37.08.198,stockport_simplified,2022.2.4,Win32,30.08061605,661e456ee6de07e70aa9ef7b,6628df8c1af31ad1f5ae13b2,,,,,,,,,,,,,,,,,,,,,,,,,,,,,,,,,,,,,,,,,,,,,,,,,,,,,,,,1,32,92,52,1,N,M,C,o1_image,stimuli/out1.png,stimuli/correct_out1.png,stimuli/out2.png,,,,,,,,,,,,,,,,,,,,,,,,,,,,,,,,,,,,,,
,,60fb1cab39fd626cb9dc093b,30,female,2024-04-24_12h37.08.198,stockport_simplified,2022.2.4,Win32,30.08061605,661e456ee6de07e70aa9ef7b,6628df8c1af31ad1f5ae13b2,,,,,,,,,,,,,,,,,,,,,,,,,,,,,,,,,,697.3142,699.7307,"[8,4,2,5,7,3,6,1]","[[-0.3,0.2],[0.3,0.2]]","[[0.125,-0.2],[-0.125,-0.2]]",0.141927083,-0.194010417,1,0,0,1.8975,o1_image,699.7691,1,700.228,700.2281,702.2342,0,0,0,0,1,,,,,,,,,,,,,,,,,,,,,,,,,,,,,,,,,,,,,,,,,,,,,,,,,,
,,60fb1cab39fd626cb9dc093b,30,female,2024-04-24_12h37.08.198,stockport_simplified,2022.2.4,Win32,30.08061605,661e456ee6de07e70aa9ef7b,6628df8c1af31ad1f5ae13b2,,,,,,,,,,,,,,,,,,,,,,,,,,,,,,,,,,,,,,,,,,,,,,,,,,,,,,,,1,33,93,2,1,A,X,N,o1_image,stimuli/out1.png,stimuli/correct_out1.png,stimuli/out2.png,,,,,,,,,,,,,,,,,,,,,,,,,,,,,,,,,,,,,,
,,60fb1cab39fd626cb9dc093b,30,female,2024-04-24_12h37.08.198,stockport_simplified,2022.2.4,Win32,30.08061605,661e456ee6de07e70aa9ef7b,6628df8c1af31ad1f5ae13b2,,,,,,,,,,,,,,,,,,,,,,,,,,,,,,,,,,702.2351,705.4369,"[8,4,2,5,7,3,6,1]","[[0.3,0.2],[-0.3,0.2]]","[[-0.125,-0.2],[0.125,-0.2]]",-0.123697917,-0.21484375,1,0,0,2.6936,o1_image,705.4386,1,705.9227,705.9227,707.9396,0,0,0,0,1,,,,,,,,,,,,,,,,,,,,,,,,,,,,,,,,,,,,,,,,,,,,,,,,,,
,,60fb1cab39fd626cb9dc093b,30,female,2024-04-24_12h37.08.198,stockport_simplified,2022.2.4,Win32,30.08061605,661e456ee6de07e70aa9ef7b,6628df8c1af31ad1f5ae13b2,,,,,,,,,,,,,,,,,,,,,,,,,,,,,,,,,,,,,,,,,,,,,,,,,,,,,,,,1,34,94,32,1,A,X,N,o1_image,stimuli/out1.png,stimuli/correct_out1.png,stimuli/out2.png,,,,,,,,,,,,,,,,,,,,,,,,,,,,,,,,,,,,,,
,,60fb1cab39fd626cb9dc093b,30,female,2024-04-24_12h37.08.198,stockport_simplified,2022.2.4,Win32,30.08061605,661e456ee6de07e70aa9ef7b,6628df8c1af31ad1f5ae13b2,,,,,,,,,,,,,,,,,,,,,,,,,,,,,,,,,,707.9412,711.4464,"[8,4,2,5,7,3,6,1]","[[-0.3,0.2],[0.3,0.2]]","[[-0.125,-0.2],[0.125,-0.2]]",0.114583333,-0.220052083,1,0,0,2.9863,o2_image,711.4483,1,711.9406,711.9408,713.9158,0,0,0,0,1,,,,,,,,,,,,,,,,,,,,,,,,,,,,,,,,,,,,,,,,,,,,,,,,,,
,,60fb1cab39fd626cb9dc093b,30,female,2024-04-24_12h37.08.198,stockport_simplified,2022.2.4,Win32,30.08061605,661e456ee6de07e70aa9ef7b,6628df8c1af31ad1f5ae13b2,,,,,,,,,,,,,,,,,,,,,,,,,,,,,,,,,,,,,,,,,,,,,,,,,,,,,,,,1,35,95,49,1,B,Y,N,o2_image,stimuli/out2.png,stimuli/out1.png,stimuli/correct_out2.png,,,,,,,,,,,,,,,,,,,,,,,,,,,,,,,,,,,,,,
,,60fb1cab39fd626cb9dc093b,30,female,2024-04-24_12h37.08.198,stockport_simplified,2022.2.4,Win32,30.08061605,661e456ee6de07e70aa9ef7b,6628df8c1af31ad1f5ae13b2,,,,,,,,,,,,,,,,,,,,,,,,,,,,,,,,,,713.917,716.2326,"[8,4,2,5,7,3,6,1]","[[0.3,0.2],[-0.3,0.2]]","[[0.125,-0.2],[-0.125,-0.2]]",0.131510417,-0.212239583,1,0,0,1.7922,o1_image,716.2539,1,716.7699,716.7701,718.7412,0,0,0,0,1,,,,,,,,,,,,,,,,,,,,,,,,,,,,,,,,,,,,,,,,,,,,,,,,,,
,,60fb1cab39fd626cb9dc093b,30,female,2024-04-24_12h37.08.198,stockport_simplified,2022.2.4,Win32,30.08061605,661e456ee6de07e70aa9ef7b,6628df8c1af31ad1f5ae13b2,,,,,,,,,,,,,,,,,,,,,,,,,,,,,,,,,,,,,,,,,,,,,,,,,,,,,,,,1,36,96,30,1,A,X,N,o1_image,stimuli/out1.png,stimuli/correct_out1.png,stimuli/out2.png,,,,,,,,,,,,,,,,,,,,,,,,,,,,,,,,,,,,,,
,,60fb1cab39fd626cb9dc093b,30,female,2024-04-24_12h37.08.198,stockport_simplified,2022.2.4,Win32,30.08061605,661e456ee6de07e70aa9ef7b,6628df8c1af31ad1f5ae13b2,,,,,,,,,,,,,,,,,,,,,,,,,,,,,,,,,,718.7434,721.0755,"[8,4,2,5,7,3,6,1]","[[-0.3,0.2],[0.3,0.2]]","[[0.125,-0.2],[-0.125,-0.2]]",-0.104166667,-0.234375,1,0,0,1.7815,o2_image,721.0781,1,721.587,721.5871,723.5411,0,0,0,0,1,,,,,,,,,,,,,,,,,,,,,,,,,,,,,,,,,,,,,,,,,,,,,,,,,,
,,60fb1cab39fd626cb9dc093b,30,female,2024-04-24_12h37.08.198,stockport_simplified,2022.2.4,Win32,30.08061605,661e456ee6de07e70aa9ef7b,6628df8c1af31ad1f5ae13b2,,,,,,,,,,,,,,,,,,,,,,,,,,,,,,,,,,,,,,,,,,,,,,,,,,,,,,,,1,37,97,28,1,N,M,D,o2_image,stimuli/out2.png,stimuli/out1.png,stimuli/correct_out2.png,,,,,,,,,,,,,,,,,,,,,,,,,,,,,,,,,,,,,,
,,60fb1cab39fd626cb9dc093b,30,female,2024-04-24_12h37.08.198,stockport_simplified,2022.2.4,Win32,30.08061605,661e456ee6de07e70aa9ef7b,6628df8c1af31ad1f5ae13b2,,,,,,,,,,,,,,,,,,,,,,,,,,,,,,,,,,723.5427,727.191,"[8,4,2,5,7,3,6,1]","[[0.3,0.2],[-0.3,0.2]]","[[0.125,-0.2],[-0.125,-0.2]]",-0.104166667,-0.234375,1,0,0,3.131,o2_image,727.2163,1,727.6988,727.6989,729.6705,0,0,0,0,1,,,,,,,,,,,,,,,,,,,,,,,,,,,,,,,,,,,,,,,,,,,,,,,,,,
,,60fb1cab39fd626cb9dc093b,30,female,2024-04-24_12h37.08.198,stockport_simplified,2022.2.4,Win32,30.08061605,661e456ee6de07e70aa9ef7b,6628df8c1af31ad1f5ae13b2,,,,,,,,,,,,,,,,,,,,,,,,,,,,,,,,,,,,,,,,,,,,,,,,,,,,,,,,1,38,98,12,1,B,X,N,o2_image,stimuli/out2.png,stimuli/out1.png,stimuli/correct_out2.png,,,,,,,,,,,,,,,,,,,,,,,,,,,,,,,,,,,,,,
,,60fb1cab39fd626cb9dc093b,30,female,2024-04-24_12h37.08.198,stockport_simplified,2022.2.4,Win32,30.08061605,661e456ee6de07e70aa9ef7b,6628df8c1af31ad1f5ae13b2,,,,,,,,,,,,,,,,,,,,,,,,,,,,,,,,,,729.6723,732.2899,"[8,4,2,5,7,3,6,1]","[[0.3,0.2],[-0.3,0.2]]","[[0.125,-0.2],[-0.125,-0.2]]",0.104166667,-0.184895833,1,0,0,2.0984,o1_image,732.2915,1,732.7861,732.7862,734.7844,0,0,0,0,1,,,,,,,,,,,,,,,,,,,,,,,,,,,,,,,,,,,,,,,,,,,,,,,,,,
,,60fb1cab39fd626cb9dc093b,30,female,2024-04-24_12h37.08.198,stockport_simplified,2022.2.4,Win32,30.08061605,661e456ee6de07e70aa9ef7b,6628df8c1af31ad1f5ae13b2,,,,,,,,,,,,,,,,,,,,,,,,,,,,,,,,,,,,,,,,,,,,,,,,,,,,,,,,1,39,99,7,1,A,Y,N,o1_image,stimuli/out1.png,stimuli/correct_out1.png,stimuli/out2.png,,,,,,,,,,,,,,,,,,,,,,,,,,,,,,,,,,,,,,
,,60fb1cab39fd626cb9dc093b,30,female,2024-04-24_12h37.08.198,stockport_simplified,2022.2.4,Win32,30.08061605,661e456ee6de07e70aa9ef7b,6628df8c1af31ad1f5ae13b2,,,,,,,,,,,,,,,,,,,,,,,,,,,,,,,,,,734.7854,738.3454,"[8,4,2,5,7,3,6,1]","[[0.3,0.2],[-0.3,0.2]]","[[-0.125,-0.2],[0.125,-0.2]]",0.100260417,-0.170572917,1,0,0,3.0514,o2_image,738.3669,1,738.8687,738.8688,740.8461,0,0,0,0,1,,,,,,,,,,,,,,,,,,,,,,,,,,,,,,,,,,,,,,,,,,,,,,,,,,
,,60fb1cab39fd626cb9dc093b,30,female,2024-04-24_12h37.08.198,stockport_simplified,2022.2.4,Win32,30.08061605,661e456ee6de07e70aa9ef7b,6628df8c1af31ad1f5ae13b2,,,,,,,,,,,,,,,,,,,,,,,,,,,,,,,,,,,,,,,,,,,,,,,,,,,,,,,,1,40,100,48,1,B,Y,N,o2_image,stimuli/out2.png,stimuli/out1.png,stimuli/correct_out2.png,,,,,,,,,,,,,,,,,,,,,,,,,,,,,,,,,,,,,,
,,60fb1cab39fd626cb9dc093b,30,female,2024-04-24_12h37.08.198,stockport_simplified,2022.2.4,Win32,30.08061605,661e456ee6de07e70aa9ef7b,6628df8c1af31ad1f5ae13b2,,,,,,,,,,,,,,,,,,,,,,,,,,,,,,,,,,740.8466,743.2124,"[8,4,2,5,7,3,6,1]","[[-0.3,0.2],[0.3,0.2]]","[[-0.125,-0.2],[0.125,-0.2]]",0.100260417,-0.170572917,1,0,0,1.8551,o2_image,743.2144,1,743.7198,743.72,745.6969,0,0,0,0,1,,,,,,,,,,,,,,,,,,,,,,,,,,,,,,,,,,,,,,,,,,,,,,,,,,
,,60fb1cab39fd626cb9dc093b,30,female,2024-04-24_12h37.08.198,stockport_simplified,2022.2.4,Win32,30.08061605,661e456ee6de07e70aa9ef7b,6628df8c1af31ad1f5ae13b2,,,,,,,,,,,,,,,,,,,,,,,,,,,,,,,,,,,,,,,,,,,,,,,,,,,,,,,,1,41,101,11,1,B,X,N,o2_image,stimuli/out2.png,stimuli/out1.png,stimuli/correct_out2.png,,,,,,,,,,,,,,,,,,,,,,,,,,,,,,,,,,,,,,
,,60fb1cab39fd626cb9dc093b,30,female,2024-04-24_12h37.08.198,stockport_simplified,2022.2.4,Win32,30.08061605,661e456ee6de07e70aa9ef7b,6628df8c1af31ad1f5ae13b2,,,,,,,,,,,,,,,,,,,,,,,,,,,,,,,,,,745.6982,748.3291,"[8,4,2,5,7,3,6,1]","[[0.3,0.2],[-0.3,0.2]]","[[0.125,-0.2],[-0.125,-0.2]]",0.106770833,-0.165364583,1,0,0,2.1223,o1_image,748.331,1,748.8101,748.8103,750.7968,0,0,0,0,1,,,,,,,,,,,,,,,,,,,,,,,,,,,,,,,,,,,,,,,,,,,,,,,,,,
,,60fb1cab39fd626cb9dc093b,30,female,2024-04-24_12h37.08.198,stockport_simplified,2022.2.4,Win32,30.08061605,661e456ee6de07e70aa9ef7b,6628df8c1af31ad1f5ae13b2,,,,,,,,,,,,,,,,,,,,,,,,,,,,,,,,,,,,,,,,,,,,,,,,,,,,,,,,1,42,102,50,1,N,M,C,o1_image,stimuli/out1.png,stimuli/correct_out1.png,stimuli/out2.png,,,,,,,,,,,,,,,,,,,,,,,,,,,,,,,,,,,,,,
,,60fb1cab39fd626cb9dc093b,30,female,2024-04-24_12h37.08.198,stockport_simplified,2022.2.4,Win32,30.08061605,661e456ee6de07e70aa9ef7b,6628df8c1af31ad1f5ae13b2,,,,,,,,,,,,,,,,,,,,,,,,,,,,,,,,,,750.7984,754.4477,"[8,4,2,5,7,3,6,1]","[[0.3,0.2],[-0.3,0.2]]","[[-0.125,-0.2],[0.125,-0.2]]",-0.10546875,-0.208333333,1,0,0,3.1177,o1_image,754.4669,1,754.9523,754.9523,756.9424,0,0,0,0,1,,,,,,,,,,,,,,,,,,,,,,,,,,,,,,,,,,,,,,,,,,,,,,,,,,
,,60fb1cab39fd626cb9dc093b,30,female,2024-04-24_12h37.08.198,stockport_simplified,2022.2.4,Win32,30.08061605,661e456ee6de07e70aa9ef7b,6628df8c1af31ad1f5ae13b2,,,,,,,,,,,,,,,,,,,,,,,,,,,,,,,,,,,,,,,,,,,,,,,,,,,,,,,,1,43,103,39,1,A,Y,N,o1_image,stimuli/out1.png,stimuli/correct_out1.png,stimuli/out2.png,,,,,,,,,,,,,,,,,,,,,,,,,,,,,,,,,,,,,,
,,60fb1cab39fd626cb9dc093b,30,female,2024-04-24_12h37.08.198,stockport_simplified,2022.2.4,Win32,30.08061605,661e456ee6de07e70aa9ef7b,6628df8c1af31ad1f5ae13b2,,,,,,,,,,,,,,,,,,,,,,,,,,,,,,,,,,756.9438,760.5262,"[8,4,2,5,7,3,6,1]","[[0.3,0.2],[-0.3,0.2]]","[[0.125,-0.2],[-0.125,-0.2]]",0.100260417,-0.18359375,1,0,0,3.0539,o1_image,760.5455,1,761.0238,761.0238,763.0236,0,0,0,0,1,,,,,,,,,,,,,,,,,,,,,,,,,,,,,,,,,,,,,,,,,,,,,,,,,,
,,60fb1cab39fd626cb9dc093b,30,female,2024-04-24_12h37.08.198,stockport_simplified,2022.2.4,Win32,30.08061605,661e456ee6de07e70aa9ef7b,6628df8c1af31ad1f5ae13b2,,,,,,,,,,,,,,,,,,,,,,,,,,,,,,,,,,,,,,,,,,,,,,,,,,,,,,,,1,44,104,53,1,N,M,C,o1_image,stimuli/out1.png,stimuli/correct_out1.png,stimuli/out2.png,,,,,,,,,,,,,,,,,,,,,,,,,,,,,,,,,,,,,,
,,60fb1cab39fd626cb9dc093b,30,female,2024-04-24_12h37.08.198,stockport_simplified,2022.2.4,Win32,30.08061605,661e456ee6de07e70aa9ef7b,6628df8c1af31ad1f5ae13b2,,,,,,,,,,,,,,,,,,,,,,,,,,,,,,,,,,763.0249,765.947,"[8,4,2,5,7,3,6,1]","[[-0.3,0.2],[0.3,0.2]]","[[0.125,-0.2],[-0.125,-0.2]]",-0.119791667,-0.180989583,1,0,0,2.391,o2_image,765.9493,1,766.4259,766.4259,768.4177,0,0,0,0,1,,,,,,,,,,,,,,,,,,,,,,,,,,,,,,,,,,,,,,,,,,,,,,,,,,
,,60fb1cab39fd626cb9dc093b,30,female,2024-04-24_12h37.08.198,stockport_simplified,2022.2.4,Win32,30.08061605,661e456ee6de07e70aa9ef7b,6628df8c1af31ad1f5ae13b2,,,,,,,,,,,,,,,,,,,,,,,,,,,,,,,,,,,,,,,,,,,,,,,,,,,,,,,,1,45,105,13,1,B,X,N,o2_image,stimuli/out2.png,stimuli/out1.png,stimuli/correct_out2.png,,,,,,,,,,,,,,,,,,,,,,,,,,,,,,,,,,,,,,
,,60fb1cab39fd626cb9dc093b,30,female,2024-04-24_12h37.08.198,stockport_simplified,2022.2.4,Win32,30.08061605,661e456ee6de07e70aa9ef7b,6628df8c1af31ad1f5ae13b2,,,,,,,,,,,,,,,,,,,,,,,,,,,,,,,,,,768.4196,770.7528,"[8,4,2,5,7,3,6,1]","[[0.3,0.2],[-0.3,0.2]]","[[0.125,-0.2],[-0.125,-0.2]]",0.109375,-0.178385417,1,0,0,1.8018,o1_image,770.7551,1,771.2348,771.2348,773.224,0,0,0,0,1,,,,,,,,,,,,,,,,,,,,,,,,,,,,,,,,,,,,,,,,,,,,,,,,,,
,,60fb1cab39fd626cb9dc093b,30,female,2024-04-24_12h37.08.198,stockport_simplified,2022.2.4,Win32,30.08061605,661e456ee6de07e70aa9ef7b,6628df8c1af31ad1f5ae13b2,,,,,,,,,,,,,,,,,,,,,,,,,,,,,,,,,,,,,,,,,,,,,,,,,,,,,,,,1,46,106,21,1,N,M,C,o1_image,stimuli/out1.png,stimuli/correct_out1.png,stimuli/out2.png,,,,,,,,,,,,,,,,,,,,,,,,,,,,,,,,,,,,,,
,,60fb1cab39fd626cb9dc093b,30,female,2024-04-24_12h37.08.198,stockport_simplified,2022.2.4,Win32,30.08061605,661e456ee6de07e70aa9ef7b,6628df8c1af31ad1f5ae13b2,,,,,,,,,,,,,,,,,,,,,,,,,,,,,,,,,,773.2252,775.9505,"[8,4,2,5,7,3,6,1]","[[-0.3,0.2],[0.3,0.2]]","[[-0.125,-0.2],[0.125,-0.2]]",0.109375,-0.1796875,1,0,0,2.1939,o2_image,775.9524,1,776.4449,776.4449,778.4463,0,0,0,0,1,,,,,,,,,,,,,,,,,,,,,,,,,,,,,,,,,,,,,,,,,,,,,,,,,,
,,60fb1cab39fd626cb9dc093b,30,female,2024-04-24_12h37.08.198,stockport_simplified,2022.2.4,Win32,30.08061605,661e456ee6de07e70aa9ef7b,6628df8c1af31ad1f5ae13b2,,,,,,,,,,,,,,,,,,,,,,,,,,,,,,,,,,,,,,,,,,,,,,,,,,,,,,,,1,47,107,58,1,N,M,D,o2_image,stimuli/out2.png,stimuli/out1.png,stimuli/correct_out2.png,,,,,,,,,,,,,,,,,,,,,,,,,,,,,,,,,,,,,,
,,60fb1cab39fd626cb9dc093b,30,female,2024-04-24_12h37.08.198,stockport_simplified,2022.2.4,Win32,30.08061605,661e456ee6de07e70aa9ef7b,6628df8c1af31ad1f5ae13b2,,,,,,,,,,,,,,,,,,,,,,,,,,,,,,,,,,778.4471,780.2889,"[8,4,2,5,7,3,6,1]","[[0.3,0.2],[-0.3,0.2]]","[[-0.125,-0.2],[0.125,-0.2]]",0.109375,-0.1796875,1,0,0,1.3118,o2_image,780.2909,1,780.7665,780.7669,782.7512,0,0,0,0,1,,,,,,,,,,,,,,,,,,,,,,,,,,,,,,,,,,,,,,,,,,,,,,,,,,
,,60fb1cab39fd626cb9dc093b,30,female,2024-04-24_12h37.08.198,stockport_simplified,2022.2.4,Win32,30.08061605,661e456ee6de07e70aa9ef7b,6628df8c1af31ad1f5ae13b2,,,,,,,,,,,,,,,,,,,,,,,,,,,,,,,,,,,,,,,,,,,,,,,,,,,,,,,,1,48,108,59,1,N,M,D,o2_image,stimuli/out2.png,stimuli/out1.png,stimuli/correct_out2.png,,,,,,,,,,,,,,,,,,,,,,,,,,,,,,,,,,,,,,
,,60fb1cab39fd626cb9dc093b,30,female,2024-04-24_12h37.08.198,stockport_simplified,2022.2.4,Win32,30.08061605,661e456ee6de07e70aa9ef7b,6628df8c1af31ad1f5ae13b2,,,,,,,,,,,,,,,,,,,,,,,,,,,,,,,,,,782.7526,785.6373,"[8,4,2,5,7,3,6,1]","[[0.3,0.2],[-0.3,0.2]]","[[-0.125,-0.2],[0.125,-0.2]]",-0.119791667,-0.182291667,1,0,0,2.3525,o1_image,785.6395,1,786.1166,786.1166,788.1083,0,0,0,0,1,,,,,,,,,,,,,,,,,,,,,,,,,,,,,,,,,,,,,,,,,,,,,,,,,,
,,60fb1cab39fd626cb9dc093b,30,female,2024-04-24_12h37.08.198,stockport_simplified,2022.2.4,Win32,30.08061605,661e456ee6de07e70aa9ef7b,6628df8c1af31ad1f5ae13b2,,,,,,,,,,,,,,,,,,,,,,,,,,,,,,,,,,,,,,,,,,,,,,,,,,,,,,,,1,49,109,31,1,A,X,N,o1_image,stimuli/out1.png,stimuli/correct_out1.png,stimuli/out2.png,,,,,,,,,,,,,,,,,,,,,,,,,,,,,,,,,,,,,,
,,60fb1cab39fd626cb9dc093b,30,female,2024-04-24_12h37.08.198,stockport_simplified,2022.2.4,Win32,30.08061605,661e456ee6de07e70aa9ef7b,6628df8c1af31ad1f5ae13b2,,,,,,,,,,,,,,,,,,,,,,,,,,,,,,,,,,788.109,791.8819,"[8,4,2,5,7,3,6,1]","[[0.3,0.2],[-0.3,0.2]]","[[0.125,-0.2],[-0.125,-0.2]]",-0.131510417,-0.174479167,1,0,0,3.242,o2_image,791.9083,1,792.4271,792.4273,794.4187,0,0,0,0,1,,,,,,,,,,,,,,,,,,,,,,,,,,,,,,,,,,,,,,,,,,,,,,,,,,
,,60fb1cab39fd626cb9dc093b,30,female,2024-04-24_12h37.08.198,stockport_simplified,2022.2.4,Win32,30.08061605,661e456ee6de07e70aa9ef7b,6628df8c1af31ad1f5ae13b2,,,,,,,,,,,,,,,,,,,,,,,,,,,,,,,,,,,,,,,,,,,,,,,,,,,,,,,,1,50,110,41,1,B,X,N,o2_image,stimuli/out2.png,stimuli/out1.png,stimuli/correct_out2.png,,,,,,,,,,,,,,,,,,,,,,,,,,,,,,,,,,,,,,
,,60fb1cab39fd626cb9dc093b,30,female,2024-04-24_12h37.08.198,stockport_simplified,2022.2.4,Win32,30.08061605,661e456ee6de07e70aa9ef7b,6628df8c1af31ad1f5ae13b2,,,,,,,,,,,,,,,,,,,,,,,,,,,,,,,,,,794.4206,796.8285,"[8,4,2,5,7,3,6,1]","[[-0.3,0.2],[0.3,0.2]]","[[0.125,-0.2],[-0.125,-0.2]]",0.1015625,-0.17578125,1,0,0,1.8755,o1_image,796.8296,1,797.3049,797.305,799.2904,0,0,0,0,1,,,,,,,,,,,,,,,,,,,,,,,,,,,,,,,,,,,,,,,,,,,,,,,,,,
,,60fb1cab39fd626cb9dc093b,30,female,2024-04-24_12h37.08.198,stockport_simplified,2022.2.4,Win32,30.08061605,661e456ee6de07e70aa9ef7b,6628df8c1af31ad1f5ae13b2,,,,,,,,,,,,,,,,,,,,,,,,,,,,,,,,,,,,,,,,,,,,,,,,,,,,,,,,1,51,111,1,1,A,X,N,o1_image,stimuli/out1.png,stimuli/correct_out1.png,stimuli/out2.png,,,,,,,,,,,,,,,,,,,,,,,,,,,,,,,,,,,,,,
,,60fb1cab39fd626cb9dc093b,30,female,2024-04-24_12h37.08.198,stockport_simplified,2022.2.4,Win32,30.08061605,661e456ee6de07e70aa9ef7b,6628df8c1af31ad1f5ae13b2,,,,,,,,,,,,,,,,,,,,,,,,,,,,,,,,,,799.2918,801.3406,"[8,4,2,5,7,3,6,1]","[[-0.3,0.2],[0.3,0.2]]","[[0.125,-0.2],[-0.125,-0.2]]",0.1015625,-0.178385417,1,0,0,1.5178,o1_image,801.3425,1,801.8498,801.8498,803.8266,0,0,0,0,1,,,,,,,,,,,,,,,,,,,,,,,,,,,,,,,,,,,,,,,,,,,,,,,,,,
,,60fb1cab39fd626cb9dc093b,30,female,2024-04-24_12h37.08.198,stockport_simplified,2022.2.4,Win32,30.08061605,661e456ee6de07e70aa9ef7b,6628df8c1af31ad1f5ae13b2,,,,,,,,,,,,,,,,,,,,,,,,,,,,,,,,,,,,,,,,,,,,,,,,,,,,,,,,1,52,112,0,1,A,X,N,o1_image,stimuli/out1.png,stimuli/correct_out1.png,stimuli/out2.png,,,,,,,,,,,,,,,,,,,,,,,,,,,,,,,,,,,,,,
,,60fb1cab39fd626cb9dc093b,30,female,2024-04-24_12h37.08.198,stockport_simplified,2022.2.4,Win32,30.08061605,661e456ee6de07e70aa9ef7b,6628df8c1af31ad1f5ae13b2,,,,,,,,,,,,,,,,,,,,,,,,,,,,,,,,,,803.8282,807.2388,"[8,4,2,5,7,3,6,1]","[[-0.3,0.2],[0.3,0.2]]","[[-0.125,-0.2],[0.125,-0.2]]",0.12109375,-0.192708333,1,0,0,2.878,o2_image,807.2408,1,807.7162,807.7163,809.7061,0,0,0,0,1,,,,,,,,,,,,,,,,,,,,,,,,,,,,,,,,,,,,,,,,,,,,,,,,,,
,,60fb1cab39fd626cb9dc093b,30,female,2024-04-24_12h37.08.198,stockport_simplified,2022.2.4,Win32,30.08061605,661e456ee6de07e70aa9ef7b,6628df8c1af31ad1f5ae13b2,,,,,,,,,,,,,,,,,,,,,,,,,,,,,,,,,,,,,,,,,,,,,,,,,,,,,,,,1,53,113,43,1,B,X,N,o2_image,stimuli/out2.png,stimuli/out1.png,stimuli/correct_out2.png,,,,,,,,,,,,,,,,,,,,,,,,,,,,,,,,,,,,,,
,,60fb1cab39fd626cb9dc093b,30,female,2024-04-24_12h37.08.198,stockport_simplified,2022.2.4,Win32,30.08061605,661e456ee6de07e70aa9ef7b,6628df8c1af31ad1f5ae13b2,,,,,,,,,,,,,,,,,,,,,,,,,,,,,,,,,,809.7075,812.3657,"[8,4,2,5,7,3,6,1]","[[0.3,0.2],[-0.3,0.2]]","[[-0.125,-0.2],[0.125,-0.2]]",0.12109375,-0.192708333,1,0,0,2.1288,o2_image,812.3669,1,812.888,812.888,814.8794,0,0,0,0,1,,,,,,,,,,,,,,,,,,,,,,,,,,,,,,,,,,,,,,,,,,,,,,,,,,
,,60fb1cab39fd626cb9dc093b,30,female,2024-04-24_12h37.08.198,stockport_simplified,2022.2.4,Win32,30.08061605,661e456ee6de07e70aa9ef7b,6628df8c1af31ad1f5ae13b2,,,,,,,,,,,,,,,,,,,,,,,,,,,,,,,,,,,,,,,,,,,,,,,,,,,,,,,,1,54,114,16,1,B,Y,N,o2_image,stimuli/out2.png,stimuli/out1.png,stimuli/correct_out2.png,,,,,,,,,,,,,,,,,,,,,,,,,,,,,,,,,,,,,,
,,60fb1cab39fd626cb9dc093b,30,female,2024-04-24_12h37.08.198,stockport_simplified,2022.2.4,Win32,30.08061605,661e456ee6de07e70aa9ef7b,6628df8c1af31ad1f5ae13b2,,,,,,,,,,,,,,,,,,,,,,,,,,,,,,,,,,814.8812,817.3409,"[8,4,2,5,7,3,6,1]","[[0.3,0.2],[-0.3,0.2]]","[[-0.125,-0.2],[0.125,-0.2]]",0.12109375,-0.192708333,1,0,0,1.9282,o2_image,817.343,1,817.8451,817.8451,819.8182,0,0,0,0,1,,,,,,,,,,,,,,,,,,,,,,,,,,,,,,,,,,,,,,,,,,,,,,,,,,
,,60fb1cab39fd626cb9dc093b,30,female,2024-04-24_12h37.08.198,stockport_simplified,2022.2.4,Win32,30.08061605,661e456ee6de07e70aa9ef7b,6628df8c1af31ad1f5ae13b2,,,,,,,,,,,,,,,,,,,,,,,,,,,,,,,,,,,,,,,,,,,,,,,,,,,,,,,,1,55,115,55,1,N,M,D,o2_image,stimuli/out2.png,stimuli/out1.png,stimuli/correct_out2.png,,,,,,,,,,,,,,,,,,,,,,,,,,,,,,,,,,,,,,
,,60fb1cab39fd626cb9dc093b,30,female,2024-04-24_12h37.08.198,stockport_simplified,2022.2.4,Win32,30.08061605,661e456ee6de07e70aa9ef7b,6628df8c1af31ad1f5ae13b2,,,,,,,,,,,,,,,,,,,,,,,,,,,,,,,,,,819.8196,823.3618,"[8,4,2,5,7,3,6,1]","[[0.3,0.2],[-0.3,0.2]]","[[0.125,-0.2],[-0.125,-0.2]]",-0.09765625,-0.213541667,1,0,0,3.007,o2_image,823.3638,1,823.8694,823.8695,825.8426,0,0,0,0,1,,,,,,,,,,,,,,,,,,,,,,,,,,,,,,,,,,,,,,,,,,,,,,,,,,
,,60fb1cab39fd626cb9dc093b,30,female,2024-04-24_12h37.08.198,stockport_simplified,2022.2.4,Win32,30.08061605,661e456ee6de07e70aa9ef7b,6628df8c1af31ad1f5ae13b2,,,,,,,,,,,,,,,,,,,,,,,,,,,,,,,,,,,,,,,,,,,,,,,,,,,,,,,,1,56,116,40,1,B,X,N,o2_image,stimuli/out2.png,stimuli/out1.png,stimuli/correct_out2.png,,,,,,,,,,,,,,,,,,,,,,,,,,,,,,,,,,,,,,
,,60fb1cab39fd626cb9dc093b,30,female,2024-04-24_12h37.08.198,stockport_simplified,2022.2.4,Win32,30.08061605,661e456ee6de07e70aa9ef7b,6628df8c1af31ad1f5ae13b2,,,,,,,,,,,,,,,,,,,,,,,,,,,,,,,,,,825.8468,829.7729,"[8,4,2,5,7,3,6,1]","[[0.3,0.2],[-0.3,0.2]]","[[-0.125,-0.2],[0.125,-0.2]]",0.109375,-0.19140625,1,0,0,3.3958,o2_image,829.7965,1,830.3029,830.303,832.2777,0,0,0,0,1,,,,,,,,,,,,,,,,,,,,,,,,,,,,,,,,,,,,,,,,,,,,,,,,,,
,,60fb1cab39fd626cb9dc093b,30,female,2024-04-24_12h37.08.198,stockport_simplified,2022.2.4,Win32,30.08061605,661e456ee6de07e70aa9ef7b,6628df8c1af31ad1f5ae13b2,,,,,,,,,,,,,,,,,,,,,,,,,,,,,,,,,,,,,,,,,,,,,,,,,,,,,,,,1,57,117,25,1,N,M,D,o2_image,stimuli/out2.png,stimuli/out1.png,stimuli/correct_out2.png,,,,,,,,,,,,,,,,,,,,,,,,,,,,,,,,,,,,,,
,,60fb1cab39fd626cb9dc093b,30,female,2024-04-24_12h37.08.198,stockport_simplified,2022.2.4,Win32,30.08061605,661e456ee6de07e70aa9ef7b,6628df8c1af31ad1f5ae13b2,,,,,,,,,,,,,,,,,,,,,,,,,,,,,,,,,,832.2797,834.3404,"[8,4,2,5,7,3,6,1]","[[-0.3,0.2],[0.3,0.2]]","[[0.125,-0.2],[-0.125,-0.2]]",0.109375,-0.19140625,1,0,0,1.5325,o1_image,834.3421,1,834.8176,834.8176,836.8049,0,0,0,0,1,,,,,,,,,,,,,,,,,,,,,,,,,,,,,,,,,,,,,,,,,,,,,,,,,,
,,60fb1cab39fd626cb9dc093b,30,female,2024-04-24_12h37.08.198,stockport_simplified,2022.2.4,Win32,30.08061605,661e456ee6de07e70aa9ef7b,6628df8c1af31ad1f5ae13b2,,,,,,,,,,,,,,,,,,,,,,,,,,,,,,,,,,,,,,,,,,,,,,,,,,,,,,,,1,58,118,54,1,N,M,C,o1_image,stimuli/out1.png,stimuli/correct_out1.png,stimuli/out2.png,,,,,,,,,,,,,,,,,,,,,,,,,,,,,,,,,,,,,,
,,60fb1cab39fd626cb9dc093b,30,female,2024-04-24_12h37.08.198,stockport_simplified,2022.2.4,Win32,30.08061605,661e456ee6de07e70aa9ef7b,6628df8c1af31ad1f5ae13b2,,,,,,,,,,,,,,,,,,,,,,,,,,,,,,,,,,836.8061,840.0575,"[8,4,2,5,7,3,6,1]","[[0.3,0.2],[-0.3,0.2]]","[[0.125,-0.2],[-0.125,-0.2]]",-0.106770833,-0.204427083,1,0,0,2.7178,o2_image,840.0594,1,840.5228,840.5229,842.4996,0,0,0,0,1,,,,,,,,,,,,,,,,,,,,,,,,,,,,,,,,,,,,,,,,,,,,,,,,,,
,,60fb1cab39fd626cb9dc093b,30,female,2024-04-24_12h37.08.198,stockport_simplified,2022.2.4,Win32,30.08061605,661e456ee6de07e70aa9ef7b,6628df8c1af31ad1f5ae13b2,,,,,,,,,,,,,,,,,,,,,,,,,,,,,,,,,,,,,,,,,,,,,,,,,,,,,,,,1,59,119,10,1,B,X,N,o2_image,stimuli/out2.png,stimuli/out1.png,stimuli/correct_out2.png,,,,,,,,,,,,,,,,,,,,,,,,,,,,,,,,,,,,,,
,,60fb1cab39fd626cb9dc093b,30,female,2024-04-24_12h37.08.198,stockport_simplified,2022.2.4,Win32,30.08061605,661e456ee6de07e70aa9ef7b,6628df8c1af31ad1f5ae13b2,,,,,,,,,,,,,,,,,,,,,,,,,,,,,,,,,,842.5501,845.5795,"[8,4,2,5,7,3,6,1]","[[0.3,0.2],[-0.3,0.2]]","[[0.125,-0.2],[-0.125,-0.2]]",-0.106770833,-0.204427083,1,0,0,2.4976,o2_image,845.582,1,846.0612,846.0612,848.0527,,,,,,,,,,,,,,,,,,0,0,0,0,1,,,,,,,,,,,,,,,,,,,,,,,,,,,,,,,,,
,,60fb1cab39fd626cb9dc093b,30,female,2024-04-24_12h37.08.198,stockport_simplified,2022.2.4,Win32,30.08061605,661e456ee6de07e70aa9ef7b,6628df8c1af31ad1f5ae13b2,,,,,,,,,,,,,,,,,,,,,,,,,,,,,,,,,,,,,,,,,,,,,,,,,,,,,,,,,,,,,B,Y,N,o2_image,stimuli/out2.png,stimuli/out1.png,stimuli/correct_out2.png,,,,,,0,0,0,38,1,,,,,,,,,,,,,,,,,,,,,,,,,,,,
,,60fb1cab39fd626cb9dc093b,30,female,2024-04-24_12h37.08.198,stockport_simplified,2022.2.4,Win32,30.08061605,661e456ee6de07e70aa9ef7b,6628df8c1af31ad1f5ae13b2,,,,,,,,,,,,,,,,,,,,,,,,,,,,,,,,,,848.0553,850.5239,"[8,4,2,5,7,3,6,1]","[[0.3,0.2],[-0.3,0.2]]","[[-0.125,-0.2],[0.125,-0.2]]",-0.11328125,-0.201822917,1,0,0,1.9372,o1_image,850.5262,1,851.0355,851.0356,853.0118,,,,,,,,,,,,,,,,,,0,0,0,0,1,,,,,,,,,,,,,,,,,,,,,,,,,,,,,,,,,
,,60fb1cab39fd626cb9dc093b,30,female,2024-04-24_12h37.08.198,stockport_simplified,2022.2.4,Win32,30.08061605,661e456ee6de07e70aa9ef7b,6628df8c1af31ad1f5ae13b2,,,,,,,,,,,,,,,,,,,,,,,,,,,,,,,,,,,,,,,,,,,,,,,,,,,,,,,,,,,,,N,M,C,o1_image,stimuli/out1.png,stimuli/correct_out1.png,stimuli/out2.png,,,,,,0,1,1,44,1,,,,,,,,,,,,,,,,,,,,,,,,,,,,
,,60fb1cab39fd626cb9dc093b,30,female,2024-04-24_12h37.08.198,stockport_simplified,2022.2.4,Win32,30.08061605,661e456ee6de07e70aa9ef7b,6628df8c1af31ad1f5ae13b2,,,,,,,,,,,,,,,,,,,,,,,,,,,,,,,,,,853.0132,855.5784,"[8,4,2,5,7,3,6,1]","[[-0.3,0.2],[0.3,0.2]]","[[0.125,-0.2],[-0.125,-0.2]]",0.125,-0.18359375,1,0,0,2.0312,o1_image,855.58,1,856.0712,856.0712,858.0344,,,,,,,,,,,,,,,,,,0,0,0,0,1,,,,,,,,,,,,,,,,,,,,,,,,,,,,,,,,,
,,60fb1cab39fd626cb9dc093b,30,female,2024-04-24_12h37.08.198,stockport_simplified,2022.2.4,Win32,30.08061605,661e456ee6de07e70aa9ef7b,6628df8c1af31ad1f5ae13b2,,,,,,,,,,,,,,,,,,,,,,,,,,,,,,,,,,,,,,,,,,,,,,,,,,,,,,,,,,,,,A,X,N,o1_image,stimuli/out1.png,stimuli/correct_out1.png,stimuli/out2.png,,,,,,0,2,2,1,1,,,,,,,,,,,,,,,,,,,,,,,,,,,,
,,60fb1cab39fd626cb9dc093b,30,female,2024-04-24_12h37.08.198,stockport_simplified,2022.2.4,Win32,30.08061605,661e456ee6de07e70aa9ef7b,6628df8c1af31ad1f5ae13b2,,,,,,,,,,,,,,,,,,,,,,,,,,,,,,,,,,858.036,860.5797,"[8,4,2,5,7,3,6,1]","[[0.3,0.2],[-0.3,0.2]]","[[0.125,-0.2],[-0.125,-0.2]]",-0.108072917,-0.19140625,1,0,0,2.0371,o2_image,860.5818,1,861.0599,861.0599,863.0477,,,,,,,,,,,,,,,,,,0,0,0,0,1,,,,,,,,,,,,,,,,,,,,,,,,,,,,,,,,,
,,60fb1cab39fd626cb9dc093b,30,female,2024-04-24_12h37.08.198,stockport_simplified,2022.2.4,Win32,30.08061605,661e456ee6de07e70aa9ef7b,6628df8c1af31ad1f5ae13b2,,,,,,,,,,,,,,,,,,,,,,,,,,,,,,,,,,,,,,,,,,,,,,,,,,,,,,,,,,,,,B,Y,N,o2_image,stimuli/out2.png,stimuli/out1.png,stimuli/correct_out2.png,,,,,,0,3,3,35,1,,,,,,,,,,,,,,,,,,,,,,,,,,,,
