counterbalance_2.started,counterbalance_2.stopped,participant,age,gender,date,expName,psychopyVersion,OS,frameRate,STUDY_ID,SESSION_ID,information_2.started,information_2.stopped,information_loop.thisRepN,information_loop.thisTrialN,information_loop.thisN,information_loop.thisIndex,information_loop.ran,information,consent_2.started,consent_2.stopped,slider_1.response,slider_2.response,slider_3.response,slider_4.response,slider_5.response,slider_6.response,instructions.started,instructions.stopped,task1_instr.thisRepN,task1_instr.thisTrialN,task1_instr.thisN,task1_instr.thisIndex,task1_instr.ran,task1,comprehension1_2.started,comprehension1_2.stopped,comp1_mouse.x,comp1_mouse.y,comp1_mouse.leftButton,comp1_mouse.midButton,comp1_mouse.rightButton,comp1_mouse.time,comp1_mouse.clicked_name,cue_o__trial_2.started,cue_o__trial_2.stopped,order,cue_order,out_order,cue_o_mouse.x,cue_o_mouse.y,cue_o_mouse.leftButton,cue_o_mouse.midButton,cue_o_mouse.rightButton,cue_o_mouse.time,cue_o_mouse.clicked_name,cue_selection_2.started,correct_answer,cue_selection_2.stopped,feedback_2.started,feedback_2.stopped,feedback_loop.thisRepN,feedback_loop.thisTrialN,feedback_loop.thisN,feedback_loop.thisIndex,feedback_loop.ran,stage1_trials.thisRepN,stage1_trials.thisTrialN,stage1_trials.thisN,stage1_trials.thisIndex,stage1_trials.ran,cue1,cue2,cue3,outcome,correct_out,o1_feedback,o2_feedback,stage2_feedback_loop.thisRepN,stage2_feedback_loop.thisTrialN,stage2_feedback_loop.thisN,stage2_feedback_loop.thisIndex,stage2_feedback_loop.ran,stage2_trials.thisRepN,stage2_trials.thisTrialN,stage2_trials.thisN,stage2_trials.thisIndex,stage2_trials.ran,stage3_feedback_loop.thisRepN,stage3_feedback_loop.thisTrialN,stage3_feedback_loop.thisN,stage3_feedback_loop.thisIndex,stage3_feedback_loop.ran,stage3_trials.thisRepN,stage3_trials.thisTrialN,stage3_trials.thisN,stage3_trials.thisIndex,stage3_trials.ran,debrief_2.started,debrief_2.stopped,debrief_loop.thisRepN,debrief_loop.thisTrialN,debrief_loop.thisN,debrief_loop.thisIndex,debrief_loop.ran,debrief_img,compr1_completed.thisRepN,compr1_completed.thisTrialN,compr1_completed.thisN,compr1_completed.thisIndex,compr1_completed.ran,consent_loop.thisRepN,consent_loop.thisTrialN,consent_loop.thisN,consent_loop.thisIndex,consent_loop.ran
0.002,0.002,5cf38317ada72300016a4ae0,33,male,2024-04-24_11h31.57.068,stockport_simplified,2022.2.4,MacIntel,62.5,661e456ee6de07e70aa9ef7b,6628df849d28c14230bdad21,,,,,,,,,,,,,,,,,,,,,,,,,,,,,,,,,,,,,,,,,,,,,,,,,,,,,,,,,,,,,,,,,,,,,,,,,,,,,,,,,,,,,,,,,,,,,,,,,,,,,,,,,
,,5cf38317ada72300016a4ae0,33,male,2024-04-24_11h31.57.068,stockport_simplified,2022.2.4,MacIntel,62.5,661e456ee6de07e70aa9ef7b,6628df849d28c14230bdad21,0.018,11.755,0,0,0,0,1,instructions/info1.png,,,,,,,,,,,,,,,,,,,,,,,,,,,,,,,,,,,,,,,,,,,,,,,,,,,,,,,,,,,,,,,,,,,,,,,,,,,,,,,,,,,,,,,,,,,,,,,,,
,,5cf38317ada72300016a4ae0,33,male,2024-04-24_11h31.57.068,stockport_simplified,2022.2.4,MacIntel,62.5,661e456ee6de07e70aa9ef7b,6628df849d28c14230bdad21,11.755,16.721,0,1,1,1,1,instructions/info2.png,,,,,,,,,,,,,,,,,,,,,,,,,,,,,,,,,,,,,,,,,,,,,,,,,,,,,,,,,,,,,,,,,,,,,,,,,,,,,,,,,,,,,,,,,,,,,,,,,
,,5cf38317ada72300016a4ae0,33,male,2024-04-24_11h31.57.068,stockport_simplified,2022.2.4,MacIntel,62.5,661e456ee6de07e70aa9ef7b,6628df849d28c14230bdad21,16.721,19.32,0,2,2,2,1,instructions/info3.png,,,,,,,,,,,,,,,,,,,,,,,,,,,,,,,,,,,,,,,,,,,,,,,,,,,,,,,,,,,,,,,,,,,,,,,,,,,,,,,,,,,,,,,,,,,,,,,,,
,,5cf38317ada72300016a4ae0,33,male,2024-04-24_11h31.57.068,stockport_simplified,2022.2.4,MacIntel,62.5,661e456ee6de07e70aa9ef7b,6628df849d28c14230bdad21,,,,,,,,,19.322,31.638,1,1,1,1,1,1,,,,,,,,,,,,,,,,,,,,,,,,,,,,,,,,,,,,,,,,,,,,,,,,,,,,,,,,,,,,,,,,,,,,,,,,,,,,,,,,,,,,,,,,,
,,5cf38317ada72300016a4ae0,33,male,2024-04-24_11h31.57.068,stockport_simplified,2022.2.4,MacIntel,62.5,661e456ee6de07e70aa9ef7b,6628df849d28c14230bdad21,,,,,,,,,,,,,,,,,31.647,50.771,0,0,0,0,1,instructions/task1_1.png,,,,,,,,,,,,,,,,,,,,,,,,,,,,,,,,,,,,,,,,,,,,,,,,,,,,,,,,,,,,,,,,,,,,,,,,,,,,,,,,,
,,5cf38317ada72300016a4ae0,33,male,2024-04-24_11h31.57.068,stockport_simplified,2022.2.4,MacIntel,62.5,661e456ee6de07e70aa9ef7b,6628df849d28c14230bdad21,,,,,,,,,,,,,,,,,50.772,59.638,0,1,1,1,1,instructions/task1_2.png,,,,,,,,,,,,,,,,,,,,,,,,,,,,,,,,,,,,,,,,,,,,,,,,,,,,,,,,,,,,,,,,,,,,,,,,,,,,,,,,,
,,5cf38317ada72300016a4ae0,33,male,2024-04-24_11h31.57.068,stockport_simplified,2022.2.4,MacIntel,62.5,661e456ee6de07e70aa9ef7b,6628df849d28c14230bdad21,,,,,,,,,,,,,,,,,59.652,79.638,0,2,2,2,1,instructions/task1_3.png,,,,,,,,,,,,,,,,,,,,,,,,,,,,,,,,,,,,,,,,,,,,,,,,,,,,,,,,,,,,,,,,,,,,,,,,,,,,,,,,,
,,5cf38317ada72300016a4ae0,33,male,2024-04-24_11h31.57.068,stockport_simplified,2022.2.4,MacIntel,62.5,661e456ee6de07e70aa9ef7b,6628df849d28c14230bdad21,,,,,,,,,,,,,,,,,,,,,,,,,79.64,95.856,-0.010603299,-0.321671007,1,0,0,16.215,comp1_resp1,95.88,98.022,"[6,7,4,3,5,8,2,1]","[[0.3,0.2],[-0.3,0.2]]","[[0.125,-0.2],[-0.125,-0.2]]",0.120425347,-0.205260417,1,0,0,1.633,o1_image,98.024,0,98.523,98.523,100.522,0,0,0,0,1,,,,,,,,,,,,,,,,,,,,,,,,,,,,,,,,,,,,,,,,,,,,,,,,,,
,,5cf38317ada72300016a4ae0,33,male,2024-04-24_11h31.57.068,stockport_simplified,2022.2.4,MacIntel,62.5,661e456ee6de07e70aa9ef7b,6628df849d28c14230bdad21,,,,,,,,,,,,,,,,,,,,,,,,,,,,,,,,,,,,,,,,,,,,,,,,,,,,,,,,0,0,0,55,1,N,M,D,o2_image,stimuli/out2.png,stimuli/out1.png,stimuli/correct_out2.png,,,,,,,,,,,,,,,,,,,,,,,,,,,,,,,,,,,,,,
,,5cf38317ada72300016a4ae0,33,male,2024-04-24_11h31.57.068,stockport_simplified,2022.2.4,MacIntel,62.5,661e456ee6de07e70aa9ef7b,6628df849d28c14230bdad21,,,,,,,,,,,,,,,,,,,,,,,,,,,,,,,,,,100.523,103.489,"[6,7,4,3,5,8,2,1]","[[0.3,0.2],[-0.3,0.2]]","[[0.125,-0.2],[-0.125,-0.2]]",0.095143229,-0.20484375,1,0,0,2.449,o1_image,103.491,1,103.989,103.989,105.989,0,0,0,0,1,,,,,,,,,,,,,,,,,,,,,,,,,,,,,,,,,,,,,,,,,,,,,,,,,,
,,5cf38317ada72300016a4ae0,33,male,2024-04-24_11h31.57.068,stockport_simplified,2022.2.4,MacIntel,62.5,661e456ee6de07e70aa9ef7b,6628df849d28c14230bdad21,,,,,,,,,,,,,,,,,,,,,,,,,,,,,,,,,,,,,,,,,,,,,,,,,,,,,,,,0,1,1,34,1,A,X,N,o1_image,stimuli/out1.png,stimuli/correct_out1.png,stimuli/out2.png,,,,,,,,,,,,,,,,,,,,,,,,,,,,,,,,,,,,,,
,,5cf38317ada72300016a4ae0,33,male,2024-04-24_11h31.57.068,stockport_simplified,2022.2.4,MacIntel,62.5,661e456ee6de07e70aa9ef7b,6628df849d28c14230bdad21,,,,,,,,,,,,,,,,,,,,,,,,,,,,,,,,,,105.99,109.223,"[6,7,4,3,5,8,2,1]","[[-0.3,0.2],[0.3,0.2]]","[[-0.125,-0.2],[0.125,-0.2]]",-0.116453993,-0.191475694,1,0,0,2.717,o1_image,109.223,0,109.722,109.722,111.722,0,0,0,0,1,,,,,,,,,,,,,,,,,,,,,,,,,,,,,,,,,,,,,,,,,,,,,,,,,,
,,5cf38317ada72300016a4ae0,33,male,2024-04-24_11h31.57.068,stockport_simplified,2022.2.4,MacIntel,62.5,661e456ee6de07e70aa9ef7b,6628df849d28c14230bdad21,,,,,,,,,,,,,,,,,,,,,,,,,,,,,,,,,,,,,,,,,,,,,,,,,,,,,,,,0,2,2,14,1,B,X,N,o2_image,stimuli/out2.png,stimuli/out1.png,stimuli/correct_out2.png,,,,,,,,,,,,,,,,,,,,,,,,,,,,,,,,,,,,,,
,,5cf38317ada72300016a4ae0,33,male,2024-04-24_11h31.57.068,stockport_simplified,2022.2.4,MacIntel,62.5,661e456ee6de07e70aa9ef7b,6628df849d28c14230bdad21,,,,,,,,,,,,,,,,,,,,,,,,,,,,,,,,,,111.723,115.572,"[6,7,4,3,5,8,2,1]","[[0.3,0.2],[-0.3,0.2]]","[[0.125,-0.2],[-0.125,-0.2]]",-0.109301215,-0.197986111,1,0,0,3.333,o2_image,115.586,0,116.089,116.089,118.089,0,0,0,0,1,,,,,,,,,,,,,,,,,,,,,,,,,,,,,,,,,,,,,,,,,,,,,,,,,,
,,5cf38317ada72300016a4ae0,33,male,2024-04-24_11h31.57.068,stockport_simplified,2022.2.4,MacIntel,62.5,661e456ee6de07e70aa9ef7b,6628df849d28c14230bdad21,,,,,,,,,,,,,,,,,,,,,,,,,,,,,,,,,,,,,,,,,,,,,,,,,,,,,,,,0,3,3,2,1,A,X,N,o1_image,stimuli/out1.png,stimuli/correct_out1.png,stimuli/out2.png,,,,,,,,,,,,,,,,,,,,,,,,,,,,,,,,,,,,,,
,,5cf38317ada72300016a4ae0,33,male,2024-04-24_11h31.57.068,stockport_simplified,2022.2.4,MacIntel,62.5,661e456ee6de07e70aa9ef7b,6628df849d28c14230bdad21,,,,,,,,,,,,,,,,,,,,,,,,,,,,,,,,,,118.09,121.905,"[6,7,4,3,5,8,2,1]","[[-0.3,0.2],[0.3,0.2]]","[[0.125,-0.2],[-0.125,-0.2]]",-0.125907118,-0.177326389,1,0,0,3.299,o2_image,121.918,0,122.406,122.406,124.406,0,0,0,0,1,,,,,,,,,,,,,,,,,,,,,,,,,,,,,,,,,,,,,,,,,,,,,,,,,,
,,5cf38317ada72300016a4ae0,33,male,2024-04-24_11h31.57.068,stockport_simplified,2022.2.4,MacIntel,62.5,661e456ee6de07e70aa9ef7b,6628df849d28c14230bdad21,,,,,,,,,,,,,,,,,,,,,,,,,,,,,,,,,,,,,,,,,,,,,,,,,,,,,,,,0,4,4,31,1,A,X,N,o1_image,stimuli/out1.png,stimuli/correct_out1.png,stimuli/out2.png,,,,,,,,,,,,,,,,,,,,,,,,,,,,,,,,,,,,,,
,,5cf38317ada72300016a4ae0,33,male,2024-04-24_11h31.57.068,stockport_simplified,2022.2.4,MacIntel,62.5,661e456ee6de07e70aa9ef7b,6628df849d28c14230bdad21,,,,,,,,,,,,,,,,,,,,,,,,,,,,,,,,,,124.406,127.539,"[6,7,4,3,5,8,2,1]","[[-0.3,0.2],[0.3,0.2]]","[[0.125,-0.2],[-0.125,-0.2]]",0.070859375,-0.182456597,1,0,0,2.632,o1_image,127.54,1,128.039,128.039,130.039,0,0,0,0,1,,,,,,,,,,,,,,,,,,,,,,,,,,,,,,,,,,,,,,,,,,,,,,,,,,
,,5cf38317ada72300016a4ae0,33,male,2024-04-24_11h31.57.068,stockport_simplified,2022.2.4,MacIntel,62.5,661e456ee6de07e70aa9ef7b,6628df849d28c14230bdad21,,,,,,,,,,,,,,,,,,,,,,,,,,,,,,,,,,,,,,,,,,,,,,,,,,,,,,,,0,5,5,9,1,A,Y,N,o1_image,stimuli/out1.png,stimuli/correct_out1.png,stimuli/out2.png,,,,,,,,,,,,,,,,,,,,,,,,,,,,,,,,,,,,,,
,,5cf38317ada72300016a4ae0,33,male,2024-04-24_11h31.57.068,stockport_simplified,2022.2.4,MacIntel,62.5,661e456ee6de07e70aa9ef7b,6628df849d28c14230bdad21,,,,,,,,,,,,,,,,,,,,,,,,,,,,,,,,,,130.04,133.907,"[6,7,4,3,5,8,2,1]","[[0.3,0.2],[-0.3,0.2]]","[[0.125,-0.2],[-0.125,-0.2]]",-0.112834201,-0.190026042,1,0,0,3.349,o2_image,133.919,1,134.406,134.407,136.406,0,0,0,0,1,,,,,,,,,,,,,,,,,,,,,,,,,,,,,,,,,,,,,,,,,,,,,,,,,,
,,5cf38317ada72300016a4ae0,33,male,2024-04-24_11h31.57.068,stockport_simplified,2022.2.4,MacIntel,62.5,661e456ee6de07e70aa9ef7b,6628df849d28c14230bdad21,,,,,,,,,,,,,,,,,,,,,,,,,,,,,,,,,,,,,,,,,,,,,,,,,,,,,,,,0,6,6,49,1,B,Y,N,o2_image,stimuli/out2.png,stimuli/out1.png,stimuli/correct_out2.png,,,,,,,,,,,,,,,,,,,,,,,,,,,,,,,,,,,,,,
,,5cf38317ada72300016a4ae0,33,male,2024-04-24_11h31.57.068,stockport_simplified,2022.2.4,MacIntel,62.5,661e456ee6de07e70aa9ef7b,6628df849d28c14230bdad21,,,,,,,,,,,,,,,,,,,,,,,,,,,,,,,,,,136.407,139.772,"[6,7,4,3,5,8,2,1]","[[-0.3,0.2],[0.3,0.2]]","[[0.125,-0.2],[-0.125,-0.2]]",-0.133741319,-0.182269965,1,0,0,2.848,o2_image,139.772,1,140.273,140.273,142.273,0,0,0,0,1,,,,,,,,,,,,,,,,,,,,,,,,,,,,,,,,,,,,,,,,,,,,,,,,,,
,,5cf38317ada72300016a4ae0,33,male,2024-04-24_11h31.57.068,stockport_simplified,2022.2.4,MacIntel,62.5,661e456ee6de07e70aa9ef7b,6628df849d28c14230bdad21,,,,,,,,,,,,,,,,,,,,,,,,,,,,,,,,,,,,,,,,,,,,,,,,,,,,,,,,0,7,7,44,1,B,X,N,o2_image,stimuli/out2.png,stimuli/out1.png,stimuli/correct_out2.png,,,,,,,,,,,,,,,,,,,,,,,,,,,,,,,,,,,,,,
,,5cf38317ada72300016a4ae0,33,male,2024-04-24_11h31.57.068,stockport_simplified,2022.2.4,MacIntel,62.5,661e456ee6de07e70aa9ef7b,6628df849d28c14230bdad21,,,,,,,,,,,,,,,,,,,,,,,,,,,,,,,,,,142.274,145.373,"[6,7,4,3,5,8,2,1]","[[0.3,0.2],[-0.3,0.2]]","[[-0.125,-0.2],[0.125,-0.2]]",0.097369792,-0.206059028,1,0,0,2.583,o2_image,145.374,0,145.873,145.873,147.873,0,0,0,0,1,,,,,,,,,,,,,,,,,,,,,,,,,,,,,,,,,,,,,,,,,,,,,,,,,,
,,5cf38317ada72300016a4ae0,33,male,2024-04-24_11h31.57.068,stockport_simplified,2022.2.4,MacIntel,62.5,661e456ee6de07e70aa9ef7b,6628df849d28c14230bdad21,,,,,,,,,,,,,,,,,,,,,,,,,,,,,,,,,,,,,,,,,,,,,,,,,,,,,,,,0,8,8,20,1,N,M,C,o1_image,stimuli/out1.png,stimuli/correct_out1.png,stimuli/out2.png,,,,,,,,,,,,,,,,,,,,,,,,,,,,,,,,,,,,,,
,,5cf38317ada72300016a4ae0,33,male,2024-04-24_11h31.57.068,stockport_simplified,2022.2.4,MacIntel,62.5,661e456ee6de07e70aa9ef7b,6628df849d28c14230bdad21,,,,,,,,,,,,,,,,,,,,,,,,,,,,,,,,,,147.874,151.906,"[6,7,4,3,5,8,2,1]","[[0.3,0.2],[-0.3,0.2]]","[[0.125,-0.2],[-0.125,-0.2]]",-0.117096354,-0.168719618,1,0,0,3.516,o2_image,151.921,0,152.422,152.422,154.422,0,0,0,0,1,,,,,,,,,,,,,,,,,,,,,,,,,,,,,,,,,,,,,,,,,,,,,,,,,,
,,5cf38317ada72300016a4ae0,33,male,2024-04-24_11h31.57.068,stockport_simplified,2022.2.4,MacIntel,62.5,661e456ee6de07e70aa9ef7b,6628df849d28c14230bdad21,,,,,,,,,,,,,,,,,,,,,,,,,,,,,,,,,,,,,,,,,,,,,,,,,,,,,,,,0,9,9,36,1,A,Y,N,o1_image,stimuli/out1.png,stimuli/correct_out1.png,stimuli/out2.png,,,,,,,,,,,,,,,,,,,,,,,,,,,,,,,,,,,,,,
,,5cf38317ada72300016a4ae0,33,male,2024-04-24_11h31.57.068,stockport_simplified,2022.2.4,MacIntel,62.5,661e456ee6de07e70aa9ef7b,6628df849d28c14230bdad21,,,,,,,,,,,,,,,,,,,,,,,,,,,,,,,,,,154.423,157.606,"[6,7,4,3,5,8,2,1]","[[0.3,0.2],[-0.3,0.2]]","[[-0.125,-0.2],[0.125,-0.2]]",-0.138085938,-0.195247396,1,0,0,2.682,o1_image,157.607,1,158.107,158.107,160.105,0,0,0,0,1,,,,,,,,,,,,,,,,,,,,,,,,,,,,,,,,,,,,,,,,,,,,,,,,,,
,,5cf38317ada72300016a4ae0,33,male,2024-04-24_11h31.57.068,stockport_simplified,2022.2.4,MacIntel,62.5,661e456ee6de07e70aa9ef7b,6628df849d28c14230bdad21,,,,,,,,,,,,,,,,,,,,,,,,,,,,,,,,,,,,,,,,,,,,,,,,,,,,,,,,0,10,10,22,1,N,M,C,o1_image,stimuli/out1.png,stimuli/correct_out1.png,stimuli/out2.png,,,,,,,,,,,,,,,,,,,,,,,,,,,,,,,,,,,,,,
,,5cf38317ada72300016a4ae0,33,male,2024-04-24_11h31.57.068,stockport_simplified,2022.2.4,MacIntel,62.5,661e456ee6de07e70aa9ef7b,6628df849d28c14230bdad21,,,,,,,,,,,,,,,,,,,,,,,,,,,,,,,,,,160.106,163.889,"[6,7,4,3,5,8,2,1]","[[-0.3,0.2],[0.3,0.2]]","[[0.125,-0.2],[-0.125,-0.2]]",-0.119149306,-0.204852431,1,0,0,3.282,o2_image,163.89,0,164.39,164.391,166.389,0,0,0,0,1,,,,,,,,,,,,,,,,,,,,,,,,,,,,,,,,,,,,,,,,,,,,,,,,,,
,,5cf38317ada72300016a4ae0,33,male,2024-04-24_11h31.57.068,stockport_simplified,2022.2.4,MacIntel,62.5,661e456ee6de07e70aa9ef7b,6628df849d28c14230bdad21,,,,,,,,,,,,,,,,,,,,,,,,,,,,,,,,,,,,,,,,,,,,,,,,,,,,,,,,0,11,11,35,1,A,Y,N,o1_image,stimuli/out1.png,stimuli/correct_out1.png,stimuli/out2.png,,,,,,,,,,,,,,,,,,,,,,,,,,,,,,,,,,,,,,
,,5cf38317ada72300016a4ae0,33,male,2024-04-24_11h31.57.068,stockport_simplified,2022.2.4,MacIntel,62.5,661e456ee6de07e70aa9ef7b,6628df849d28c14230bdad21,,,,,,,,,,,,,,,,,,,,,,,,,,,,,,,,,,166.39,169.173,"[6,7,4,3,5,8,2,1]","[[-0.3,0.2],[0.3,0.2]]","[[-0.125,-0.2],[0.125,-0.2]]",-0.130407986,-0.195985243,1,0,0,2.283,o1_image,169.175,1,169.672,169.672,171.673,0,0,0,0,1,,,,,,,,,,,,,,,,,,,,,,,,,,,,,,,,,,,,,,,,,,,,,,,,,,
,,5cf38317ada72300016a4ae0,33,male,2024-04-24_11h31.57.068,stockport_simplified,2022.2.4,MacIntel,62.5,661e456ee6de07e70aa9ef7b,6628df849d28c14230bdad21,,,,,,,,,,,,,,,,,,,,,,,,,,,,,,,,,,,,,,,,,,,,,,,,,,,,,,,,0,12,12,53,1,N,M,C,o1_image,stimuli/out1.png,stimuli/correct_out1.png,stimuli/out2.png,,,,,,,,,,,,,,,,,,,,,,,,,,,,,,,,,,,,,,
,,5cf38317ada72300016a4ae0,33,male,2024-04-24_11h31.57.068,stockport_simplified,2022.2.4,MacIntel,62.5,661e456ee6de07e70aa9ef7b,6628df849d28c14230bdad21,,,,,,,,,,,,,,,,,,,,,,,,,,,,,,,,,,171.673,173.723,"[6,7,4,3,5,8,2,1]","[[-0.3,0.2],[0.3,0.2]]","[[-0.125,-0.2],[0.125,-0.2]]",0.163016493,-0.209765625,1,0,0,1.549,o2_image,173.724,1,174.222,174.222,176.223,0,0,0,0,1,,,,,,,,,,,,,,,,,,,,,,,,,,,,,,,,,,,,,,,,,,,,,,,,,,
,,5cf38317ada72300016a4ae0,33,male,2024-04-24_11h31.57.068,stockport_simplified,2022.2.4,MacIntel,62.5,661e456ee6de07e70aa9ef7b,6628df849d28c14230bdad21,,,,,,,,,,,,,,,,,,,,,,,,,,,,,,,,,,,,,,,,,,,,,,,,,,,,,,,,0,13,13,59,1,N,M,D,o2_image,stimuli/out2.png,stimuli/out1.png,stimuli/correct_out2.png,,,,,,,,,,,,,,,,,,,,,,,,,,,,,,,,,,,,,,
,,5cf38317ada72300016a4ae0,33,male,2024-04-24_11h31.57.068,stockport_simplified,2022.2.4,MacIntel,62.5,661e456ee6de07e70aa9ef7b,6628df849d28c14230bdad21,,,,,,,,,,,,,,,,,,,,,,,,,,,,,,,,,,176.223,180.407,"[6,7,4,3,5,8,2,1]","[[0.3,0.2],[-0.3,0.2]]","[[-0.125,-0.2],[0.125,-0.2]]",0.124162326,-0.21765191,1,0,0,3.683,o2_image,180.421,1,180.922,180.922,182.923,0,0,0,0,1,,,,,,,,,,,,,,,,,,,,,,,,,,,,,,,,,,,,,,,,,,,,,,,,,,
,,5cf38317ada72300016a4ae0,33,male,2024-04-24_11h31.57.068,stockport_simplified,2022.2.4,MacIntel,62.5,661e456ee6de07e70aa9ef7b,6628df849d28c14230bdad21,,,,,,,,,,,,,,,,,,,,,,,,,,,,,,,,,,,,,,,,,,,,,,,,,,,,,,,,0,14,14,13,1,B,X,N,o2_image,stimuli/out2.png,stimuli/out1.png,stimuli/correct_out2.png,,,,,,,,,,,,,,,,,,,,,,,,,,,,,,,,,,,,,,
,,5cf38317ada72300016a4ae0,33,male,2024-04-24_11h31.57.068,stockport_simplified,2022.2.4,MacIntel,62.5,661e456ee6de07e70aa9ef7b,6628df849d28c14230bdad21,,,,,,,,,,,,,,,,,,,,,,,,,,,,,,,,,,182.924,185.956,"[6,7,4,3,5,8,2,1]","[[-0.3,0.2],[0.3,0.2]]","[[0.125,-0.2],[-0.125,-0.2]]",0.145664062,-0.211193576,1,0,0,2.532,o1_image,185.967,0,186.456,186.456,188.457,0,0,0,0,1,,,,,,,,,,,,,,,,,,,,,,,,,,,,,,,,,,,,,,,,,,,,,,,,,,
,,5cf38317ada72300016a4ae0,33,male,2024-04-24_11h31.57.068,stockport_simplified,2022.2.4,MacIntel,62.5,661e456ee6de07e70aa9ef7b,6628df849d28c14230bdad21,,,,,,,,,,,,,,,,,,,,,,,,,,,,,,,,,,,,,,,,,,,,,,,,,,,,,,,,0,15,15,45,1,B,Y,N,o2_image,stimuli/out2.png,stimuli/out1.png,stimuli/correct_out2.png,,,,,,,,,,,,,,,,,,,,,,,,,,,,,,,,,,,,,,
,,5cf38317ada72300016a4ae0,33,male,2024-04-24_11h31.57.068,stockport_simplified,2022.2.4,MacIntel,62.5,661e456ee6de07e70aa9ef7b,6628df849d28c14230bdad21,,,,,,,,,,,,,,,,,,,,,,,,,,,,,,,,,,188.457,192.574,"[6,7,4,3,5,8,2,1]","[[0.3,0.2],[-0.3,0.2]]","[[-0.125,-0.2],[0.125,-0.2]]",-0.140277778,-0.180707465,1,0,0,3.616,o1_image,192.588,0,193.09,193.091,195.091,0,0,0,0,1,,,,,,,,,,,,,,,,,,,,,,,,,,,,,,,,,,,,,,,,,,,,,,,,,,
,,5cf38317ada72300016a4ae0,33,male,2024-04-24_11h31.57.068,stockport_simplified,2022.2.4,MacIntel,62.5,661e456ee6de07e70aa9ef7b,6628df849d28c14230bdad21,,,,,,,,,,,,,,,,,,,,,,,,,,,,,,,,,,,,,,,,,,,,,,,,,,,,,,,,0,16,16,41,1,B,X,N,o2_image,stimuli/out2.png,stimuli/out1.png,stimuli/correct_out2.png,,,,,,,,,,,,,,,,,,,,,,,,,,,,,,,,,,,,,,
,,5cf38317ada72300016a4ae0,33,male,2024-04-24_11h31.57.068,stockport_simplified,2022.2.4,MacIntel,62.5,661e456ee6de07e70aa9ef7b,6628df849d28c14230bdad21,,,,,,,,,,,,,,,,,,,,,,,,,,,,,,,,,,195.091,198.407,"[6,7,4,3,5,8,2,1]","[[0.3,0.2],[-0.3,0.2]]","[[-0.125,-0.2],[0.125,-0.2]]",0.091601562,-0.196527778,1,0,0,2.799,o2_image,198.42,1,198.924,198.924,200.924,0,0,0,0,1,,,,,,,,,,,,,,,,,,,,,,,,,,,,,,,,,,,,,,,,,,,,,,,,,,
,,5cf38317ada72300016a4ae0,33,male,2024-04-24_11h31.57.068,stockport_simplified,2022.2.4,MacIntel,62.5,661e456ee6de07e70aa9ef7b,6628df849d28c14230bdad21,,,,,,,,,,,,,,,,,,,,,,,,,,,,,,,,,,,,,,,,,,,,,,,,,,,,,,,,0,17,17,18,1,B,Y,N,o2_image,stimuli/out2.png,stimuli/out1.png,stimuli/correct_out2.png,,,,,,,,,,,,,,,,,,,,,,,,,,,,,,,,,,,,,,
,,5cf38317ada72300016a4ae0,33,male,2024-04-24_11h31.57.068,stockport_simplified,2022.2.4,MacIntel,62.5,661e456ee6de07e70aa9ef7b,6628df849d28c14230bdad21,,,,,,,,,,,,,,,,,,,,,,,,,,,,,,,,,,200.924,203.79,"[6,7,4,3,5,8,2,1]","[[0.3,0.2],[-0.3,0.2]]","[[-0.125,-0.2],[0.125,-0.2]]",-0.128294271,-0.177617187,1,0,0,2.365,o1_image,203.791,0,204.291,204.291,206.29,0,0,0,0,1,,,,,,,,,,,,,,,,,,,,,,,,,,,,,,,,,,,,,,,,,,,,,,,,,,
,,5cf38317ada72300016a4ae0,33,male,2024-04-24_11h31.57.068,stockport_simplified,2022.2.4,MacIntel,62.5,661e456ee6de07e70aa9ef7b,6628df849d28c14230bdad21,,,,,,,,,,,,,,,,,,,,,,,,,,,,,,,,,,,,,,,,,,,,,,,,,,,,,,,,0,18,18,57,1,N,M,D,o2_image,stimuli/out2.png,stimuli/out1.png,stimuli/correct_out2.png,,,,,,,,,,,,,,,,,,,,,,,,,,,,,,,,,,,,,,
,,5cf38317ada72300016a4ae0,33,male,2024-04-24_11h31.57.068,stockport_simplified,2022.2.4,MacIntel,62.5,661e456ee6de07e70aa9ef7b,6628df849d28c14230bdad21,,,,,,,,,,,,,,,,,,,,,,,,,,,,,,,,,,206.291,210.474,"[6,7,4,3,5,8,2,1]","[[-0.3,0.2],[0.3,0.2]]","[[-0.125,-0.2],[0.125,-0.2]]",-0.103168403,-0.198723958,1,0,0,3.665,o1_image,210.486,0,210.974,210.974,212.974,0,0,0,0,1,,,,,,,,,,,,,,,,,,,,,,,,,,,,,,,,,,,,,,,,,,,,,,,,,,
,,5cf38317ada72300016a4ae0,33,male,2024-04-24_11h31.57.068,stockport_simplified,2022.2.4,MacIntel,62.5,661e456ee6de07e70aa9ef7b,6628df849d28c14230bdad21,,,,,,,,,,,,,,,,,,,,,,,,,,,,,,,,,,,,,,,,,,,,,,,,,,,,,,,,0,19,19,10,1,B,X,N,o2_image,stimuli/out2.png,stimuli/out1.png,stimuli/correct_out2.png,,,,,,,,,,,,,,,,,,,,,,,,,,,,,,,,,,,,,,
,,5cf38317ada72300016a4ae0,33,male,2024-04-24_11h31.57.068,stockport_simplified,2022.2.4,MacIntel,62.5,661e456ee6de07e70aa9ef7b,6628df849d28c14230bdad21,,,,,,,,,,,,,,,,,,,,,,,,,,,,,,,,,,212.975,215.674,"[6,7,4,3,5,8,2,1]","[[-0.3,0.2],[0.3,0.2]]","[[0.125,-0.2],[-0.125,-0.2]]",0.074813368,-0.206549479,1,0,0,2.183,o1_image,215.674,1,216.174,216.174,218.174,0,0,0,0,1,,,,,,,,,,,,,,,,,,,,,,,,,,,,,,,,,,,,,,,,,,,,,,,,,,
,,5cf38317ada72300016a4ae0,33,male,2024-04-24_11h31.57.068,stockport_simplified,2022.2.4,MacIntel,62.5,661e456ee6de07e70aa9ef7b,6628df849d28c14230bdad21,,,,,,,,,,,,,,,,,,,,,,,,,,,,,,,,,,,,,,,,,,,,,,,,,,,,,,,,0,20,20,4,1,A,X,N,o1_image,stimuli/out1.png,stimuli/correct_out1.png,stimuli/out2.png,,,,,,,,,,,,,,,,,,,,,,,,,,,,,,,,,,,,,,
,,5cf38317ada72300016a4ae0,33,male,2024-04-24_11h31.57.068,stockport_simplified,2022.2.4,MacIntel,62.5,661e456ee6de07e70aa9ef7b,6628df849d28c14230bdad21,,,,,,,,,,,,,,,,,,,,,,,,,,,,,,,,,,218.175,220.69,"[6,7,4,3,5,8,2,1]","[[0.3,0.2],[-0.3,0.2]]","[[-0.125,-0.2],[0.125,-0.2]]",-0.118897569,-0.207673611,1,0,0,1.999,o1_image,220.691,1,221.191,221.191,223.191,0,0,0,0,1,,,,,,,,,,,,,,,,,,,,,,,,,,,,,,,,,,,,,,,,,,,,,,,,,,
,,5cf38317ada72300016a4ae0,33,male,2024-04-24_11h31.57.068,stockport_simplified,2022.2.4,MacIntel,62.5,661e456ee6de07e70aa9ef7b,6628df849d28c14230bdad21,,,,,,,,,,,,,,,,,,,,,,,,,,,,,,,,,,,,,,,,,,,,,,,,,,,,,,,,0,21,21,3,1,A,X,N,o1_image,stimuli/out1.png,stimuli/correct_out1.png,stimuli/out2.png,,,,,,,,,,,,,,,,,,,,,,,,,,,,,,,,,,,,,,
,,5cf38317ada72300016a4ae0,33,male,2024-04-24_11h31.57.068,stockport_simplified,2022.2.4,MacIntel,62.5,661e456ee6de07e70aa9ef7b,6628df849d28c14230bdad21,,,,,,,,,,,,,,,,,,,,,,,,,,,,,,,,,,223.192,225.508,"[6,7,4,3,5,8,2,1]","[[-0.3,0.2],[0.3,0.2]]","[[-0.125,-0.2],[0.125,-0.2]]",0.103042535,-0.209960938,1,0,0,1.8,o2_image,225.509,1,226.007,226.007,228.008,0,0,0,0,1,,,,,,,,,,,,,,,,,,,,,,,,,,,,,,,,,,,,,,,,,,,,,,,,,,
,,5cf38317ada72300016a4ae0,33,male,2024-04-24_11h31.57.068,stockport_simplified,2022.2.4,MacIntel,62.5,661e456ee6de07e70aa9ef7b,6628df849d28c14230bdad21,,,,,,,,,,,,,,,,,,,,,,,,,,,,,,,,,,,,,,,,,,,,,,,,,,,,,,,,0,22,22,17,1,B,Y,N,o2_image,stimuli/out2.png,stimuli/out1.png,stimuli/correct_out2.png,,,,,,,,,,,,,,,,,,,,,,,,,,,,,,,,,,,,,,
,,5cf38317ada72300016a4ae0,33,male,2024-04-24_11h31.57.068,stockport_simplified,2022.2.4,MacIntel,62.5,661e456ee6de07e70aa9ef7b,6628df849d28c14230bdad21,,,,,,,,,,,,,,,,,,,,,,,,,,,,,,,,,,228.008,230.491,"[6,7,4,3,5,8,2,1]","[[-0.3,0.2],[0.3,0.2]]","[[0.125,-0.2],[-0.125,-0.2]]",0.121141493,-0.195611979,1,0,0,1.983,o1_image,230.492,0,230.991,230.991,232.991,0,0,0,0,1,,,,,,,,,,,,,,,,,,,,,,,,,,,,,,,,,,,,,,,,,,,,,,,,,,
,,5cf38317ada72300016a4ae0,33,male,2024-04-24_11h31.57.068,stockport_simplified,2022.2.4,MacIntel,62.5,661e456ee6de07e70aa9ef7b,6628df849d28c14230bdad21,,,,,,,,,,,,,,,,,,,,,,,,,,,,,,,,,,,,,,,,,,,,,,,,,,,,,,,,0,23,23,11,1,B,X,N,o2_image,stimuli/out2.png,stimuli/out1.png,stimuli/correct_out2.png,,,,,,,,,,,,,,,,,,,,,,,,,,,,,,,,,,,,,,
,,5cf38317ada72300016a4ae0,33,male,2024-04-24_11h31.57.068,stockport_simplified,2022.2.4,MacIntel,62.5,661e456ee6de07e70aa9ef7b,6628df849d28c14230bdad21,,,,,,,,,,,,,,,,,,,,,,,,,,,,,,,,,,232.991,235.457,"[6,7,4,3,5,8,2,1]","[[-0.3,0.2],[0.3,0.2]]","[[0.125,-0.2],[-0.125,-0.2]]",0.121141493,-0.195611979,1,0,0,1.95,o1_image,235.459,1,235.958,235.958,237.958,0,0,0,0,1,,,,,,,,,,,,,,,,,,,,,,,,,,,,,,,,,,,,,,,,,,,,,,,,,,
,,5cf38317ada72300016a4ae0,33,male,2024-04-24_11h31.57.068,stockport_simplified,2022.2.4,MacIntel,62.5,661e456ee6de07e70aa9ef7b,6628df849d28c14230bdad21,,,,,,,,,,,,,,,,,,,,,,,,,,,,,,,,,,,,,,,,,,,,,,,,,,,,,,,,0,24,24,8,1,A,Y,N,o1_image,stimuli/out1.png,stimuli/correct_out1.png,stimuli/out2.png,,,,,,,,,,,,,,,,,,,,,,,,,,,,,,,,,,,,,,
,,5cf38317ada72300016a4ae0,33,male,2024-04-24_11h31.57.068,stockport_simplified,2022.2.4,MacIntel,62.5,661e456ee6de07e70aa9ef7b,6628df849d28c14230bdad21,,,,,,,,,,,,,,,,,,,,,,,,,,,,,,,,,,237.959,240.791,"[6,7,4,3,5,8,2,1]","[[0.3,0.2],[-0.3,0.2]]","[[0.125,-0.2],[-0.125,-0.2]]",-0.080039062,-0.193203125,1,0,0,2.316,o2_image,240.791,0,241.291,241.291,243.291,0,0,0,0,1,,,,,,,,,,,,,,,,,,,,,,,,,,,,,,,,,,,,,,,,,,,,,,,,,,
,,5cf38317ada72300016a4ae0,33,male,2024-04-24_11h31.57.068,stockport_simplified,2022.2.4,MacIntel,62.5,661e456ee6de07e70aa9ef7b,6628df849d28c14230bdad21,,,,,,,,,,,,,,,,,,,,,,,,,,,,,,,,,,,,,,,,,,,,,,,,,,,,,,,,0,25,25,24,1,N,M,C,o1_image,stimuli/out1.png,stimuli/correct_out1.png,stimuli/out2.png,,,,,,,,,,,,,,,,,,,,,,,,,,,,,,,,,,,,,,
,,5cf38317ada72300016a4ae0,33,male,2024-04-24_11h31.57.068,stockport_simplified,2022.2.4,MacIntel,62.5,661e456ee6de07e70aa9ef7b,6628df849d28c14230bdad21,,,,,,,,,,,,,,,,,,,,,,,,,,,,,,,,,,243.291,246.258,"[6,7,4,3,5,8,2,1]","[[-0.3,0.2],[0.3,0.2]]","[[-0.125,-0.2],[0.125,-0.2]]",-0.120091146,-0.188828125,1,0,0,2.467,o1_image,246.266,0,246.757,246.757,248.758,0,0,0,0,1,,,,,,,,,,,,,,,,,,,,,,,,,,,,,,,,,,,,,,,,,,,,,,,,,,
,,5cf38317ada72300016a4ae0,33,male,2024-04-24_11h31.57.068,stockport_simplified,2022.2.4,MacIntel,62.5,661e456ee6de07e70aa9ef7b,6628df849d28c14230bdad21,,,,,,,,,,,,,,,,,,,,,,,,,,,,,,,,,,,,,,,,,,,,,,,,,,,,,,,,0,26,26,58,1,N,M,D,o2_image,stimuli/out2.png,stimuli/out1.png,stimuli/correct_out2.png,,,,,,,,,,,,,,,,,,,,,,,,,,,,,,,,,,,,,,
,,5cf38317ada72300016a4ae0,33,male,2024-04-24_11h31.57.068,stockport_simplified,2022.2.4,MacIntel,62.5,661e456ee6de07e70aa9ef7b,6628df849d28c14230bdad21,,,,,,,,,,,,,,,,,,,,,,,,,,,,,,,,,,248.758,252.724,"[6,7,4,3,5,8,2,1]","[[0.3,0.2],[-0.3,0.2]]","[[0.125,-0.2],[-0.125,-0.2]]",-0.072361111,-0.180703125,1,0,0,3.466,o2_image,252.738,0,253.241,253.241,255.241,0,0,0,0,1,,,,,,,,,,,,,,,,,,,,,,,,,,,,,,,,,,,,,,,,,,,,,,,,,,
,,5cf38317ada72300016a4ae0,33,male,2024-04-24_11h31.57.068,stockport_simplified,2022.2.4,MacIntel,62.5,661e456ee6de07e70aa9ef7b,6628df849d28c14230bdad21,,,,,,,,,,,,,,,,,,,,,,,,,,,,,,,,,,,,,,,,,,,,,,,,,,,,,,,,0,27,27,33,1,A,X,N,o1_image,stimuli/out1.png,stimuli/correct_out1.png,stimuli/out2.png,,,,,,,,,,,,,,,,,,,,,,,,,,,,,,,,,,,,,,
,,5cf38317ada72300016a4ae0,33,male,2024-04-24_11h31.57.068,stockport_simplified,2022.2.4,MacIntel,62.5,661e456ee6de07e70aa9ef7b,6628df849d28c14230bdad21,,,,,,,,,,,,,,,,,,,,,,,,,,,,,,,,,,255.242,258.075,"[6,7,4,3,5,8,2,1]","[[-0.3,0.2],[0.3,0.2]]","[[0.125,-0.2],[-0.125,-0.2]]",0.18984375,-0.201002604,1,0,0,2.317,o1_image,258.088,1,258.591,258.591,260.592,0,0,0,0,1,,,,,,,,,,,,,,,,,,,,,,,,,,,,,,,,,,,,,,,,,,,,,,,,,,
,,5cf38317ada72300016a4ae0,33,male,2024-04-24_11h31.57.068,stockport_simplified,2022.2.4,MacIntel,62.5,661e456ee6de07e70aa9ef7b,6628df849d28c14230bdad21,,,,,,,,,,,,,,,,,,,,,,,,,,,,,,,,,,,,,,,,,,,,,,,,,,,,,,,,0,28,28,21,1,N,M,C,o1_image,stimuli/out1.png,stimuli/correct_out1.png,stimuli/out2.png,,,,,,,,,,,,,,,,,,,,,,,,,,,,,,,,,,,,,,
,,5cf38317ada72300016a4ae0,33,male,2024-04-24_11h31.57.068,stockport_simplified,2022.2.4,MacIntel,62.5,661e456ee6de07e70aa9ef7b,6628df849d28c14230bdad21,,,,,,,,,,,,,,,,,,,,,,,,,,,,,,,,,,260.592,263.325,"[6,7,4,3,5,8,2,1]","[[0.3,0.2],[-0.3,0.2]]","[[0.125,-0.2],[-0.125,-0.2]]",0.140807292,-0.201636285,1,0,0,2.217,o1_image,263.326,0,263.825,263.825,265.824,0,0,0,0,1,,,,,,,,,,,,,,,,,,,,,,,,,,,,,,,,,,,,,,,,,,,,,,,,,,
,,5cf38317ada72300016a4ae0,33,male,2024-04-24_11h31.57.068,stockport_simplified,2022.2.4,MacIntel,62.5,661e456ee6de07e70aa9ef7b,6628df849d28c14230bdad21,,,,,,,,,,,,,,,,,,,,,,,,,,,,,,,,,,,,,,,,,,,,,,,,,,,,,,,,0,29,29,15,1,B,Y,N,o2_image,stimuli/out2.png,stimuli/out1.png,stimuli/correct_out2.png,,,,,,,,,,,,,,,,,,,,,,,,,,,,,,,,,,,,,,
,,5cf38317ada72300016a4ae0,33,male,2024-04-24_11h31.57.068,stockport_simplified,2022.2.4,MacIntel,62.5,661e456ee6de07e70aa9ef7b,6628df849d28c14230bdad21,,,,,,,,,,,,,,,,,,,,,,,,,,,,,,,,,,265.825,269.208,"[6,7,4,3,5,8,2,1]","[[0.3,0.2],[-0.3,0.2]]","[[0.125,-0.2],[-0.125,-0.2]]",-0.136102431,-0.175121528,1,0,0,2.866,o2_image,269.221,1,269.725,269.725,271.725,0,0,0,0,1,,,,,,,,,,,,,,,,,,,,,,,,,,,,,,,,,,,,,,,,,,,,,,,,,,
,,5cf38317ada72300016a4ae0,33,male,2024-04-24_11h31.57.068,stockport_simplified,2022.2.4,MacIntel,62.5,661e456ee6de07e70aa9ef7b,6628df849d28c14230bdad21,,,,,,,,,,,,,,,,,,,,,,,,,,,,,,,,,,,,,,,,,,,,,,,,,,,,,,,,0,30,30,28,1,N,M,D,o2_image,stimuli/out2.png,stimuli/out1.png,stimuli/correct_out2.png,,,,,,,,,,,,,,,,,,,,,,,,,,,,,,,,,,,,,,
,,5cf38317ada72300016a4ae0,33,male,2024-04-24_11h31.57.068,stockport_simplified,2022.2.4,MacIntel,62.5,661e456ee6de07e70aa9ef7b,6628df849d28c14230bdad21,,,,,,,,,,,,,,,,,,,,,,,,,,,,,,,,,,271.725,274.308,"[6,7,4,3,5,8,2,1]","[[-0.3,0.2],[0.3,0.2]]","[[0.125,-0.2],[-0.125,-0.2]]",0.085039062,-0.175355903,1,0,0,2.083,o1_image,274.32,1,274.809,274.809,276.808,0,0,0,0,1,,,,,,,,,,,,,,,,,,,,,,,,,,,,,,,,,,,,,,,,,,,,,,,,,,
,,5cf38317ada72300016a4ae0,33,male,2024-04-24_11h31.57.068,stockport_simplified,2022.2.4,MacIntel,62.5,661e456ee6de07e70aa9ef7b,6628df849d28c14230bdad21,,,,,,,,,,,,,,,,,,,,,,,,,,,,,,,,,,,,,,,,,,,,,,,,,,,,,,,,0,31,31,38,1,A,Y,N,o1_image,stimuli/out1.png,stimuli/correct_out1.png,stimuli/out2.png,,,,,,,,,,,,,,,,,,,,,,,,,,,,,,,,,,,,,,
,,5cf38317ada72300016a4ae0,33,male,2024-04-24_11h31.57.068,stockport_simplified,2022.2.4,MacIntel,62.5,661e456ee6de07e70aa9ef7b,6628df849d28c14230bdad21,,,,,,,,,,,,,,,,,,,,,,,,,,,,,,,,,,276.81,279.958,"[6,7,4,3,5,8,2,1]","[[0.3,0.2],[-0.3,0.2]]","[[-0.125,-0.2],[0.125,-0.2]]",0.10515191,-0.198832465,1,0,0,2.632,o2_image,279.959,0,280.457,280.457,282.459,0,0,0,0,1,,,,,,,,,,,,,,,,,,,,,,,,,,,,,,,,,,,,,,,,,,,,,,,,,,
,,5cf38317ada72300016a4ae0,33,male,2024-04-24_11h31.57.068,stockport_simplified,2022.2.4,MacIntel,62.5,661e456ee6de07e70aa9ef7b,6628df849d28c14230bdad21,,,,,,,,,,,,,,,,,,,,,,,,,,,,,,,,,,,,,,,,,,,,,,,,,,,,,,,,0,32,32,54,1,N,M,C,o1_image,stimuli/out1.png,stimuli/correct_out1.png,stimuli/out2.png,,,,,,,,,,,,,,,,,,,,,,,,,,,,,,,,,,,,,,
,,5cf38317ada72300016a4ae0,33,male,2024-04-24_11h31.57.068,stockport_simplified,2022.2.4,MacIntel,62.5,661e456ee6de07e70aa9ef7b,6628df849d28c14230bdad21,,,,,,,,,,,,,,,,,,,,,,,,,,,,,,,,,,282.459,285.342,"[6,7,4,3,5,8,2,1]","[[0.3,0.2],[-0.3,0.2]]","[[-0.125,-0.2],[0.125,-0.2]]",-0.115481771,-0.169114583,1,0,0,2.367,o1_image,285.343,0,285.842,285.842,287.842,0,0,0,0,1,,,,,,,,,,,,,,,,,,,,,,,,,,,,,,,,,,,,,,,,,,,,,,,,,,
,,5cf38317ada72300016a4ae0,33,male,2024-04-24_11h31.57.068,stockport_simplified,2022.2.4,MacIntel,62.5,661e456ee6de07e70aa9ef7b,6628df849d28c14230bdad21,,,,,,,,,,,,,,,,,,,,,,,,,,,,,,,,,,,,,,,,,,,,,,,,,,,,,,,,0,33,33,47,1,B,Y,N,o2_image,stimuli/out2.png,stimuli/out1.png,stimuli/correct_out2.png,,,,,,,,,,,,,,,,,,,,,,,,,,,,,,,,,,,,,,
,,5cf38317ada72300016a4ae0,33,male,2024-04-24_11h31.57.068,stockport_simplified,2022.2.4,MacIntel,62.5,661e456ee6de07e70aa9ef7b,6628df849d28c14230bdad21,,,,,,,,,,,,,,,,,,,,,,,,,,,,,,,,,,287.843,290.759,"[6,7,4,3,5,8,2,1]","[[-0.3,0.2],[0.3,0.2]]","[[0.125,-0.2],[-0.125,-0.2]]",0.079431424,-0.140980903,1,0,0,2.4,o1_image,290.771,0,291.276,291.276,293.276,0,0,0,0,1,,,,,,,,,,,,,,,,,,,,,,,,,,,,,,,,,,,,,,,,,,,,,,,,,,
,,5cf38317ada72300016a4ae0,33,male,2024-04-24_11h31.57.068,stockport_simplified,2022.2.4,MacIntel,62.5,661e456ee6de07e70aa9ef7b,6628df849d28c14230bdad21,,,,,,,,,,,,,,,,,,,,,,,,,,,,,,,,,,,,,,,,,,,,,,,,,,,,,,,,0,34,34,48,1,B,Y,N,o2_image,stimuli/out2.png,stimuli/out1.png,stimuli/correct_out2.png,,,,,,,,,,,,,,,,,,,,,,,,,,,,,,,,,,,,,,
,,5cf38317ada72300016a4ae0,33,male,2024-04-24_11h31.57.068,stockport_simplified,2022.2.4,MacIntel,62.5,661e456ee6de07e70aa9ef7b,6628df849d28c14230bdad21,,,,,,,,,,,,,,,,,,,,,,,,,,,,,,,,,,293.276,295.091,"[6,7,4,3,5,8,2,1]","[[-0.3,0.2],[0.3,0.2]]","[[0.125,-0.2],[-0.125,-0.2]]",0.113923611,-0.167278646,1,0,0,1.299,o1_image,295.092,1,295.592,295.592,297.592,0,0,0,0,1,,,,,,,,,,,,,,,,,,,,,,,,,,,,,,,,,,,,,,,,,,,,,,,,,,
,,5cf38317ada72300016a4ae0,33,male,2024-04-24_11h31.57.068,stockport_simplified,2022.2.4,MacIntel,62.5,661e456ee6de07e70aa9ef7b,6628df849d28c14230bdad21,,,,,,,,,,,,,,,,,,,,,,,,,,,,,,,,,,,,,,,,,,,,,,,,,,,,,,,,0,35,35,51,1,N,M,C,o1_image,stimuli/out1.png,stimuli/correct_out1.png,stimuli/out2.png,,,,,,,,,,,,,,,,,,,,,,,,,,,,,,,,,,,,,,
,,5cf38317ada72300016a4ae0,33,male,2024-04-24_11h31.57.068,stockport_simplified,2022.2.4,MacIntel,62.5,661e456ee6de07e70aa9ef7b,6628df849d28c14230bdad21,,,,,,,,,,,,,,,,,,,,,,,,,,,,,,,,,,297.593,300.342,"[6,7,4,3,5,8,2,1]","[[-0.3,0.2],[0.3,0.2]]","[[0.125,-0.2],[-0.125,-0.2]]",0.119409722,-0.182139757,1,0,0,2.233,o1_image,300.357,0,300.859,300.859,302.859,0,0,0,0,1,,,,,,,,,,,,,,,,,,,,,,,,,,,,,,,,,,,,,,,,,,,,,,,,,,
,,5cf38317ada72300016a4ae0,33,male,2024-04-24_11h31.57.068,stockport_simplified,2022.2.4,MacIntel,62.5,661e456ee6de07e70aa9ef7b,6628df849d28c14230bdad21,,,,,,,,,,,,,,,,,,,,,,,,,,,,,,,,,,,,,,,,,,,,,,,,,,,,,,,,0,36,36,43,1,B,X,N,o2_image,stimuli/out2.png,stimuli/out1.png,stimuli/correct_out2.png,,,,,,,,,,,,,,,,,,,,,,,,,,,,,,,,,,,,,,
,,5cf38317ada72300016a4ae0,33,male,2024-04-24_11h31.57.068,stockport_simplified,2022.2.4,MacIntel,62.5,661e456ee6de07e70aa9ef7b,6628df849d28c14230bdad21,,,,,,,,,,,,,,,,,,,,,,,,,,,,,,,,,,302.859,305.825,"[6,7,4,3,5,8,2,1]","[[0.3,0.2],[-0.3,0.2]]","[[-0.125,-0.2],[0.125,-0.2]]",0.143962674,-0.166150174,1,0,0,2.45,o2_image,305.826,1,306.326,306.326,308.326,0,0,0,0,1,,,,,,,,,,,,,,,,,,,,,,,,,,,,,,,,,,,,,,,,,,,,,,,,,,
,,5cf38317ada72300016a4ae0,33,male,2024-04-24_11h31.57.068,stockport_simplified,2022.2.4,MacIntel,62.5,661e456ee6de07e70aa9ef7b,6628df849d28c14230bdad21,,,,,,,,,,,,,,,,,,,,,,,,,,,,,,,,,,,,,,,,,,,,,,,,,,,,,,,,0,37,37,19,1,B,Y,N,o2_image,stimuli/out2.png,stimuli/out1.png,stimuli/correct_out2.png,,,,,,,,,,,,,,,,,,,,,,,,,,,,,,,,,,,,,,
,,5cf38317ada72300016a4ae0,33,male,2024-04-24_11h31.57.068,stockport_simplified,2022.2.4,MacIntel,62.5,661e456ee6de07e70aa9ef7b,6628df849d28c14230bdad21,,,,,,,,,,,,,,,,,,,,,,,,,,,,,,,,,,308.326,311.075,"[6,7,4,3,5,8,2,1]","[[0.3,0.2],[-0.3,0.2]]","[[0.125,-0.2],[-0.125,-0.2]]",-0.117157118,-0.194162326,1,0,0,2.249,o2_image,311.076,0,311.575,311.576,313.575,0,0,0,0,1,,,,,,,,,,,,,,,,,,,,,,,,,,,,,,,,,,,,,,,,,,,,,,,,,,
,,5cf38317ada72300016a4ae0,33,male,2024-04-24_11h31.57.068,stockport_simplified,2022.2.4,MacIntel,62.5,661e456ee6de07e70aa9ef7b,6628df849d28c14230bdad21,,,,,,,,,,,,,,,,,,,,,,,,,,,,,,,,,,,,,,,,,,,,,,,,,,,,,,,,0,38,38,7,1,A,Y,N,o1_image,stimuli/out1.png,stimuli/correct_out1.png,stimuli/out2.png,,,,,,,,,,,,,,,,,,,,,,,,,,,,,,,,,,,,,,
,,5cf38317ada72300016a4ae0,33,male,2024-04-24_11h31.57.068,stockport_simplified,2022.2.4,MacIntel,62.5,661e456ee6de07e70aa9ef7b,6628df849d28c14230bdad21,,,,,,,,,,,,,,,,,,,,,,,,,,,,,,,,,,313.576,316.559,"[6,7,4,3,5,8,2,1]","[[0.3,0.2],[-0.3,0.2]]","[[-0.125,-0.2],[0.125,-0.2]]",0.124388021,-0.169231771,1,0,0,2.466,o2_image,316.574,1,317.076,317.076,319.075,0,0,0,0,1,,,,,,,,,,,,,,,,,,,,,,,,,,,,,,,,,,,,,,,,,,,,,,,,,,
,,5cf38317ada72300016a4ae0,33,male,2024-04-24_11h31.57.068,stockport_simplified,2022.2.4,MacIntel,62.5,661e456ee6de07e70aa9ef7b,6628df849d28c14230bdad21,,,,,,,,,,,,,,,,,,,,,,,,,,,,,,,,,,,,,,,,,,,,,,,,,,,,,,,,0,39,39,25,1,N,M,D,o2_image,stimuli/out2.png,stimuli/out1.png,stimuli/correct_out2.png,,,,,,,,,,,,,,,,,,,,,,,,,,,,,,,,,,,,,,
,,5cf38317ada72300016a4ae0,33,male,2024-04-24_11h31.57.068,stockport_simplified,2022.2.4,MacIntel,62.5,661e456ee6de07e70aa9ef7b,6628df849d28c14230bdad21,,,,,,,,,,,,,,,,,,,,,,,,,,,,,,,,,,319.076,320.892,"[6,7,4,3,5,8,2,1]","[[-0.3,0.2],[0.3,0.2]]","[[0.125,-0.2],[-0.125,-0.2]]",-0.133042535,-0.207990451,1,0,0,1.316,o2_image,320.892,1,321.393,321.393,323.392,0,0,0,0,1,,,,,,,,,,,,,,,,,,,,,,,,,,,,,,,,,,,,,,,,,,,,,,,,,,
,,5cf38317ada72300016a4ae0,33,male,2024-04-24_11h31.57.068,stockport_simplified,2022.2.4,MacIntel,62.5,661e456ee6de07e70aa9ef7b,6628df849d28c14230bdad21,,,,,,,,,,,,,,,,,,,,,,,,,,,,,,,,,,,,,,,,,,,,,,,,,,,,,,,,0,40,40,27,1,N,M,D,o2_image,stimuli/out2.png,stimuli/out1.png,stimuli/correct_out2.png,,,,,,,,,,,,,,,,,,,,,,,,,,,,,,,,,,,,,,
,,5cf38317ada72300016a4ae0,33,male,2024-04-24_11h31.57.068,stockport_simplified,2022.2.4,MacIntel,62.5,661e456ee6de07e70aa9ef7b,6628df849d28c14230bdad21,,,,,,,,,,,,,,,,,,,,,,,,,,,,,,,,,,323.393,327.859,"[6,7,4,3,5,8,2,1]","[[-0.3,0.2],[0.3,0.2]]","[[-0.125,-0.2],[0.125,-0.2]]",-0.136054687,-0.173671875,1,0,0,3.95,o1_image,327.872,0,328.376,328.376,330.376,0,0,0,0,1,,,,,,,,,,,,,,,,,,,,,,,,,,,,,,,,,,,,,,,,,,,,,,,,,,
,,5cf38317ada72300016a4ae0,33,male,2024-04-24_11h31.57.068,stockport_simplified,2022.2.4,MacIntel,62.5,661e456ee6de07e70aa9ef7b,6628df849d28c14230bdad21,,,,,,,,,,,,,,,,,,,,,,,,,,,,,,,,,,,,,,,,,,,,,,,,,,,,,,,,0,41,41,42,1,B,X,N,o2_image,stimuli/out2.png,stimuli/out1.png,stimuli/correct_out2.png,,,,,,,,,,,,,,,,,,,,,,,,,,,,,,,,,,,,,,
,,5cf38317ada72300016a4ae0,33,male,2024-04-24_11h31.57.068,stockport_simplified,2022.2.4,MacIntel,62.5,661e456ee6de07e70aa9ef7b,6628df849d28c14230bdad21,,,,,,,,,,,,,,,,,,,,,,,,,,,,,,,,,,330.376,333.409,"[6,7,4,3,5,8,2,1]","[[0.3,0.2],[-0.3,0.2]]","[[-0.125,-0.2],[0.125,-0.2]]",-0.126666667,-0.191345486,1,0,0,2.516,o1_image,333.41,0,333.909,333.909,335.909,0,0,0,0,1,,,,,,,,,,,,,,,,,,,,,,,,,,,,,,,,,,,,,,,,,,,,,,,,,,
,,5cf38317ada72300016a4ae0,33,male,2024-04-24_11h31.57.068,stockport_simplified,2022.2.4,MacIntel,62.5,661e456ee6de07e70aa9ef7b,6628df849d28c14230bdad21,,,,,,,,,,,,,,,,,,,,,,,,,,,,,,,,,,,,,,,,,,,,,,,,,,,,,,,,0,42,42,46,1,B,Y,N,o2_image,stimuli/out2.png,stimuli/out1.png,stimuli/correct_out2.png,,,,,,,,,,,,,,,,,,,,,,,,,,,,,,,,,,,,,,
,,5cf38317ada72300016a4ae0,33,male,2024-04-24_11h31.57.068,stockport_simplified,2022.2.4,MacIntel,62.5,661e456ee6de07e70aa9ef7b,6628df849d28c14230bdad21,,,,,,,,,,,,,,,,,,,,,,,,,,,,,,,,,,335.909,337.976,"[6,7,4,3,5,8,2,1]","[[-0.3,0.2],[0.3,0.2]]","[[-0.125,-0.2],[0.125,-0.2]]",0.102248264,-0.152921007,1,0,0,1.566,o2_image,337.976,0,338.476,338.476,340.476,0,0,0,0,1,,,,,,,,,,,,,,,,,,,,,,,,,,,,,,,,,,,,,,,,,,,,,,,,,,
,,5cf38317ada72300016a4ae0,33,male,2024-04-24_11h31.57.068,stockport_simplified,2022.2.4,MacIntel,62.5,661e456ee6de07e70aa9ef7b,6628df849d28c14230bdad21,,,,,,,,,,,,,,,,,,,,,,,,,,,,,,,,,,,,,,,,,,,,,,,,,,,,,,,,0,43,43,0,1,A,X,N,o1_image,stimuli/out1.png,stimuli/correct_out1.png,stimuli/out2.png,,,,,,,,,,,,,,,,,,,,,,,,,,,,,,,,,,,,,,
,,5cf38317ada72300016a4ae0,33,male,2024-04-24_11h31.57.068,stockport_simplified,2022.2.4,MacIntel,62.5,661e456ee6de07e70aa9ef7b,6628df849d28c14230bdad21,,,,,,,,,,,,,,,,,,,,,,,,,,,,,,,,,,340.476,343.81,"[6,7,4,3,5,8,2,1]","[[-0.3,0.2],[0.3,0.2]]","[[0.125,-0.2],[-0.125,-0.2]]",-0.067274306,-0.170490451,1,0,0,2.817,o2_image,343.81,0,344.309,344.309,346.31,0,0,0,0,1,,,,,,,,,,,,,,,,,,,,,,,,,,,,,,,,,,,,,,,,,,,,,,,,,,
,,5cf38317ada72300016a4ae0,33,male,2024-04-24_11h31.57.068,stockport_simplified,2022.2.4,MacIntel,62.5,661e456ee6de07e70aa9ef7b,6628df849d28c14230bdad21,,,,,,,,,,,,,,,,,,,,,,,,,,,,,,,,,,,,,,,,,,,,,,,,,,,,,,,,0,44,44,37,1,A,Y,N,o1_image,stimuli/out1.png,stimuli/correct_out1.png,stimuli/out2.png,,,,,,,,,,,,,,,,,,,,,,,,,,,,,,,,,,,,,,
,,5cf38317ada72300016a4ae0,33,male,2024-04-24_11h31.57.068,stockport_simplified,2022.2.4,MacIntel,62.5,661e456ee6de07e70aa9ef7b,6628df849d28c14230bdad21,,,,,,,,,,,,,,,,,,,,,,,,,,,,,,,,,,346.31,348.526,"[6,7,4,3,5,8,2,1]","[[0.3,0.2],[-0.3,0.2]]","[[-0.125,-0.2],[0.125,-0.2]]",0.145138889,-0.203268229,1,0,0,1.699,o2_image,348.527,0,349.026,349.026,351.026,0,0,0,0,1,,,,,,,,,,,,,,,,,,,,,,,,,,,,,,,,,,,,,,,,,,,,,,,,,,
,,5cf38317ada72300016a4ae0,33,male,2024-04-24_11h31.57.068,stockport_simplified,2022.2.4,MacIntel,62.5,661e456ee6de07e70aa9ef7b,6628df849d28c14230bdad21,,,,,,,,,,,,,,,,,,,,,,,,,,,,,,,,,,,,,,,,,,,,,,,,,,,,,,,,0,45,45,1,1,A,X,N,o1_image,stimuli/out1.png,stimuli/correct_out1.png,stimuli/out2.png,,,,,,,,,,,,,,,,,,,,,,,,,,,,,,,,,,,,,,
,,5cf38317ada72300016a4ae0,33,male,2024-04-24_11h31.57.068,stockport_simplified,2022.2.4,MacIntel,62.5,661e456ee6de07e70aa9ef7b,6628df849d28c14230bdad21,,,,,,,,,,,,,,,,,,,,,,,,,,,,,,,,,,351.027,353.659,"[6,7,4,3,5,8,2,1]","[[-0.3,0.2],[0.3,0.2]]","[[0.125,-0.2],[-0.125,-0.2]]",0.107890625,-0.200490451,1,0,0,2.116,o1_image,353.66,1,354.159,354.159,356.159,0,0,0,0,1,,,,,,,,,,,,,,,,,,,,,,,,,,,,,,,,,,,,,,,,,,,,,,,,,,
,,5cf38317ada72300016a4ae0,33,male,2024-04-24_11h31.57.068,stockport_simplified,2022.2.4,MacIntel,62.5,661e456ee6de07e70aa9ef7b,6628df849d28c14230bdad21,,,,,,,,,,,,,,,,,,,,,,,,,,,,,,,,,,,,,,,,,,,,,,,,,,,,,,,,0,46,46,50,1,N,M,C,o1_image,stimuli/out1.png,stimuli/correct_out1.png,stimuli/out2.png,,,,,,,,,,,,,,,,,,,,,,,,,,,,,,,,,,,,,,
,,5cf38317ada72300016a4ae0,33,male,2024-04-24_11h31.57.068,stockport_simplified,2022.2.4,MacIntel,62.5,661e456ee6de07e70aa9ef7b,6628df849d28c14230bdad21,,,,,,,,,,,,,,,,,,,,,,,,,,,,,,,,,,356.16,358.143,"[6,7,4,3,5,8,2,1]","[[-0.3,0.2],[0.3,0.2]]","[[0.125,-0.2],[-0.125,-0.2]]",-0.126297743,-0.213984375,1,0,0,1.483,o2_image,358.144,1,358.643,358.643,360.642,0,0,0,0,1,,,,,,,,,,,,,,,,,,,,,,,,,,,,,,,,,,,,,,,,,,,,,,,,,,
,,5cf38317ada72300016a4ae0,33,male,2024-04-24_11h31.57.068,stockport_simplified,2022.2.4,MacIntel,62.5,661e456ee6de07e70aa9ef7b,6628df849d28c14230bdad21,,,,,,,,,,,,,,,,,,,,,,,,,,,,,,,,,,,,,,,,,,,,,,,,,,,,,,,,0,47,47,29,1,N,M,D,o2_image,stimuli/out2.png,stimuli/out1.png,stimuli/correct_out2.png,,,,,,,,,,,,,,,,,,,,,,,,,,,,,,,,,,,,,,
,,5cf38317ada72300016a4ae0,33,male,2024-04-24_11h31.57.068,stockport_simplified,2022.2.4,MacIntel,62.5,661e456ee6de07e70aa9ef7b,6628df849d28c14230bdad21,,,,,,,,,,,,,,,,,,,,,,,,,,,,,,,,,,360.644,363.459,"[6,7,4,3,5,8,2,1]","[[-0.3,0.2],[0.3,0.2]]","[[0.125,-0.2],[-0.125,-0.2]]",-0.085507813,-0.206779514,1,0,0,2.3,o2_image,363.46,0,363.96,363.96,365.959,0,0,0,0,1,,,,,,,,,,,,,,,,,,,,,,,,,,,,,,,,,,,,,,,,,,,,,,,,,,
,,5cf38317ada72300016a4ae0,33,male,2024-04-24_11h31.57.068,stockport_simplified,2022.2.4,MacIntel,62.5,661e456ee6de07e70aa9ef7b,6628df849d28c14230bdad21,,,,,,,,,,,,,,,,,,,,,,,,,,,,,,,,,,,,,,,,,,,,,,,,,,,,,,,,0,48,48,5,1,A,Y,N,o1_image,stimuli/out1.png,stimuli/correct_out1.png,stimuli/out2.png,,,,,,,,,,,,,,,,,,,,,,,,,,,,,,,,,,,,,,
,,5cf38317ada72300016a4ae0,33,male,2024-04-24_11h31.57.068,stockport_simplified,2022.2.4,MacIntel,62.5,661e456ee6de07e70aa9ef7b,6628df849d28c14230bdad21,,,,,,,,,,,,,,,,,,,,,,,,,,,,,,,,,,365.96,368.176,"[6,7,4,3,5,8,2,1]","[[-0.3,0.2],[0.3,0.2]]","[[-0.125,-0.2],[0.125,-0.2]]",-0.153875868,-0.202747396,1,0,0,1.701,o1_image,368.189,1,368.677,368.677,370.676,0,0,0,0,1,,,,,,,,,,,,,,,,,,,,,,,,,,,,,,,,,,,,,,,,,,,,,,,,,,
,,5cf38317ada72300016a4ae0,33,male,2024-04-24_11h31.57.068,stockport_simplified,2022.2.4,MacIntel,62.5,661e456ee6de07e70aa9ef7b,6628df849d28c14230bdad21,,,,,,,,,,,,,,,,,,,,,,,,,,,,,,,,,,,,,,,,,,,,,,,,,,,,,,,,0,49,49,39,1,A,Y,N,o1_image,stimuli/out1.png,stimuli/correct_out1.png,stimuli/out2.png,,,,,,,,,,,,,,,,,,,,,,,,,,,,,,,,,,,,,,
,,5cf38317ada72300016a4ae0,33,male,2024-04-24_11h31.57.068,stockport_simplified,2022.2.4,MacIntel,62.5,661e456ee6de07e70aa9ef7b,6628df849d28c14230bdad21,,,,,,,,,,,,,,,,,,,,,,,,,,,,,,,,,,370.677,373.843,"[6,7,4,3,5,8,2,1]","[[0.3,0.2],[-0.3,0.2]]","[[0.125,-0.2],[-0.125,-0.2]]",-0.093953993,-0.182625868,1,0,0,2.65,o2_image,373.843,1,374.343,374.344,376.343,0,0,0,0,1,,,,,,,,,,,,,,,,,,,,,,,,,,,,,,,,,,,,,,,,,,,,,,,,,,
,,5cf38317ada72300016a4ae0,33,male,2024-04-24_11h31.57.068,stockport_simplified,2022.2.4,MacIntel,62.5,661e456ee6de07e70aa9ef7b,6628df849d28c14230bdad21,,,,,,,,,,,,,,,,,,,,,,,,,,,,,,,,,,,,,,,,,,,,,,,,,,,,,,,,0,50,50,56,1,N,M,D,o2_image,stimuli/out2.png,stimuli/out1.png,stimuli/correct_out2.png,,,,,,,,,,,,,,,,,,,,,,,,,,,,,,,,,,,,,,
,,5cf38317ada72300016a4ae0,33,male,2024-04-24_11h31.57.068,stockport_simplified,2022.2.4,MacIntel,62.5,661e456ee6de07e70aa9ef7b,6628df849d28c14230bdad21,,,,,,,,,,,,,,,,,,,,,,,,,,,,,,,,,,376.344,379.343,"[6,7,4,3,5,8,2,1]","[[-0.3,0.2],[0.3,0.2]]","[[-0.125,-0.2],[0.125,-0.2]]",-0.121167535,-0.179227431,1,0,0,2.484,o1_image,379.343,0,379.843,379.843,381.843,0,0,0,0,1,,,,,,,,,,,,,,,,,,,,,,,,,,,,,,,,,,,,,,,,,,,,,,,,,,
,,5cf38317ada72300016a4ae0,33,male,2024-04-24_11h31.57.068,stockport_simplified,2022.2.4,MacIntel,62.5,661e456ee6de07e70aa9ef7b,6628df849d28c14230bdad21,,,,,,,,,,,,,,,,,,,,,,,,,,,,,,,,,,,,,,,,,,,,,,,,,,,,,,,,0,51,51,12,1,B,X,N,o2_image,stimuli/out2.png,stimuli/out1.png,stimuli/correct_out2.png,,,,,,,,,,,,,,,,,,,,,,,,,,,,,,,,,,,,,,
,,5cf38317ada72300016a4ae0,33,male,2024-04-24_11h31.57.068,stockport_simplified,2022.2.4,MacIntel,62.5,661e456ee6de07e70aa9ef7b,6628df849d28c14230bdad21,,,,,,,,,,,,,,,,,,,,,,,,,,,,,,,,,,381.844,384.143,"[6,7,4,3,5,8,2,1]","[[-0.3,0.2],[0.3,0.2]]","[[-0.125,-0.2],[0.125,-0.2]]",-0.108615451,-0.228255208,1,0,0,1.783,o1_image,384.155,1,384.66,384.66,386.66,0,0,0,0,1,,,,,,,,,,,,,,,,,,,,,,,,,,,,,,,,,,,,,,,,,,,,,,,,,,
,,5cf38317ada72300016a4ae0,33,male,2024-04-24_11h31.57.068,stockport_simplified,2022.2.4,MacIntel,62.5,661e456ee6de07e70aa9ef7b,6628df849d28c14230bdad21,,,,,,,,,,,,,,,,,,,,,,,,,,,,,,,,,,,,,,,,,,,,,,,,,,,,,,,,0,52,52,52,1,N,M,C,o1_image,stimuli/out1.png,stimuli/correct_out1.png,stimuli/out2.png,,,,,,,,,,,,,,,,,,,,,,,,,,,,,,,,,,,,,,
,,5cf38317ada72300016a4ae0,33,male,2024-04-24_11h31.57.068,stockport_simplified,2022.2.4,MacIntel,62.5,661e456ee6de07e70aa9ef7b,6628df849d28c14230bdad21,,,,,,,,,,,,,,,,,,,,,,,,,,,,,,,,,,386.66,389.76,"[6,7,4,3,5,8,2,1]","[[-0.3,0.2],[0.3,0.2]]","[[-0.125,-0.2],[0.125,-0.2]]",0.095052083,-0.201744792,1,0,0,2.583,o2_image,389.761,1,390.26,390.26,392.26,0,0,0,0,1,,,,,,,,,,,,,,,,,,,,,,,,,,,,,,,,,,,,,,,,,,,,,,,,,,
,,5cf38317ada72300016a4ae0,33,male,2024-04-24_11h31.57.068,stockport_simplified,2022.2.4,MacIntel,62.5,661e456ee6de07e70aa9ef7b,6628df849d28c14230bdad21,,,,,,,,,,,,,,,,,,,,,,,,,,,,,,,,,,,,,,,,,,,,,,,,,,,,,,,,0,53,53,40,1,B,X,N,o2_image,stimuli/out2.png,stimuli/out1.png,stimuli/correct_out2.png,,,,,,,,,,,,,,,,,,,,,,,,,,,,,,,,,,,,,,
,,5cf38317ada72300016a4ae0,33,male,2024-04-24_11h31.57.068,stockport_simplified,2022.2.4,MacIntel,62.5,661e456ee6de07e70aa9ef7b,6628df849d28c14230bdad21,,,,,,,,,,,,,,,,,,,,,,,,,,,,,,,,,,392.26,394.526,"[6,7,4,3,5,8,2,1]","[[0.3,0.2],[-0.3,0.2]]","[[0.125,-0.2],[-0.125,-0.2]]",-0.133033854,-0.192426215,1,0,0,1.766,o2_image,394.527,0,395.027,395.027,397.027,0,0,0,0,1,,,,,,,,,,,,,,,,,,,,,,,,,,,,,,,,,,,,,,,,,,,,,,,,,,
,,5cf38317ada72300016a4ae0,33,male,2024-04-24_11h31.57.068,stockport_simplified,2022.2.4,MacIntel,62.5,661e456ee6de07e70aa9ef7b,6628df849d28c14230bdad21,,,,,,,,,,,,,,,,,,,,,,,,,,,,,,,,,,,,,,,,,,,,,,,,,,,,,,,,0,54,54,32,1,A,X,N,o1_image,stimuli/out1.png,stimuli/correct_out1.png,stimuli/out2.png,,,,,,,,,,,,,,,,,,,,,,,,,,,,,,,,,,,,,,
,,5cf38317ada72300016a4ae0,33,male,2024-04-24_11h31.57.068,stockport_simplified,2022.2.4,MacIntel,62.5,661e456ee6de07e70aa9ef7b,6628df849d28c14230bdad21,,,,,,,,,,,,,,,,,,,,,,,,,,,,,,,,,,397.028,399.976,"[6,7,4,3,5,8,2,1]","[[0.3,0.2],[-0.3,0.2]]","[[0.125,-0.2],[-0.125,-0.2]]",0.117894965,-0.21781684,1,0,0,2.433,o1_image,399.977,1,400.477,400.477,402.476,0,0,0,0,1,,,,,,,,,,,,,,,,,,,,,,,,,,,,,,,,,,,,,,,,,,,,,,,,,,
,,5cf38317ada72300016a4ae0,33,male,2024-04-24_11h31.57.068,stockport_simplified,2022.2.4,MacIntel,62.5,661e456ee6de07e70aa9ef7b,6628df849d28c14230bdad21,,,,,,,,,,,,,,,,,,,,,,,,,,,,,,,,,,,,,,,,,,,,,,,,,,,,,,,,0,55,55,30,1,A,X,N,o1_image,stimuli/out1.png,stimuli/correct_out1.png,stimuli/out2.png,,,,,,,,,,,,,,,,,,,,,,,,,,,,,,,,,,,,,,
,,5cf38317ada72300016a4ae0,33,male,2024-04-24_11h31.57.068,stockport_simplified,2022.2.4,MacIntel,62.5,661e456ee6de07e70aa9ef7b,6628df849d28c14230bdad21,,,,,,,,,,,,,,,,,,,,,,,,,,,,,,,,,,402.477,404.377,"[6,7,4,3,5,8,2,1]","[[0.3,0.2],[-0.3,0.2]]","[[-0.125,-0.2],[0.125,-0.2]]",-0.118142361,-0.207217882,1,0,0,1.399,o1_image,404.377,1,404.876,404.876,406.878,0,0,0,0,1,,,,,,,,,,,,,,,,,,,,,,,,,,,,,,,,,,,,,,,,,,,,,,,,,,
,,5cf38317ada72300016a4ae0,33,male,2024-04-24_11h31.57.068,stockport_simplified,2022.2.4,MacIntel,62.5,661e456ee6de07e70aa9ef7b,6628df849d28c14230bdad21,,,,,,,,,,,,,,,,,,,,,,,,,,,,,,,,,,,,,,,,,,,,,,,,,,,,,,,,0,56,56,23,1,N,M,C,o1_image,stimuli/out1.png,stimuli/correct_out1.png,stimuli/out2.png,,,,,,,,,,,,,,,,,,,,,,,,,,,,,,,,,,,,,,
,,5cf38317ada72300016a4ae0,33,male,2024-04-24_11h31.57.068,stockport_simplified,2022.2.4,MacIntel,62.5,661e456ee6de07e70aa9ef7b,6628df849d28c14230bdad21,,,,,,,,,,,,,,,,,,,,,,,,,,,,,,,,,,406.878,409.459,"[6,7,4,3,5,8,2,1]","[[-0.3,0.2],[0.3,0.2]]","[[-0.125,-0.2],[0.125,-0.2]]",0.081918403,-0.177513021,1,0,0,2.064,o2_image,409.46,0,409.959,409.959,411.959,0,0,0,0,1,,,,,,,,,,,,,,,,,,,,,,,,,,,,,,,,,,,,,,,,,,,,,,,,,,
,,5cf38317ada72300016a4ae0,33,male,2024-04-24_11h31.57.068,stockport_simplified,2022.2.4,MacIntel,62.5,661e456ee6de07e70aa9ef7b,6628df849d28c14230bdad21,,,,,,,,,,,,,,,,,,,,,,,,,,,,,,,,,,,,,,,,,,,,,,,,,,,,,,,,0,57,57,6,1,A,Y,N,o1_image,stimuli/out1.png,stimuli/correct_out1.png,stimuli/out2.png,,,,,,,,,,,,,,,,,,,,,,,,,,,,,,,,,,,,,,
,,5cf38317ada72300016a4ae0,33,male,2024-04-24_11h31.57.068,stockport_simplified,2022.2.4,MacIntel,62.5,661e456ee6de07e70aa9ef7b,6628df849d28c14230bdad21,,,,,,,,,,,,,,,,,,,,,,,,,,,,,,,,,,411.959,413.56,"[6,7,4,3,5,8,2,1]","[[-0.3,0.2],[0.3,0.2]]","[[0.125,-0.2],[-0.125,-0.2]]",-0.135329861,-0.18546875,1,0,0,1.1,o2_image,413.561,1,414.06,414.06,416.06,0,0,0,0,1,,,,,,,,,,,,,,,,,,,,,,,,,,,,,,,,,,,,,,,,,,,,,,,,,,
,,5cf38317ada72300016a4ae0,33,male,2024-04-24_11h31.57.068,stockport_simplified,2022.2.4,MacIntel,62.5,661e456ee6de07e70aa9ef7b,6628df849d28c14230bdad21,,,,,,,,,,,,,,,,,,,,,,,,,,,,,,,,,,,,,,,,,,,,,,,,,,,,,,,,0,58,58,26,1,N,M,D,o2_image,stimuli/out2.png,stimuli/out1.png,stimuli/correct_out2.png,,,,,,,,,,,,,,,,,,,,,,,,,,,,,,,,,,,,,,
,,5cf38317ada72300016a4ae0,33,male,2024-04-24_11h31.57.068,stockport_simplified,2022.2.4,MacIntel,62.5,661e456ee6de07e70aa9ef7b,6628df849d28c14230bdad21,,,,,,,,,,,,,,,,,,,,,,,,,,,,,,,,,,416.06,418.16,"[6,7,4,3,5,8,2,1]","[[-0.3,0.2],[0.3,0.2]]","[[-0.125,-0.2],[0.125,-0.2]]",0.088845486,-0.199179688,1,0,0,1.599,o2_image,418.161,1,418.66,418.66,420.66,0,0,0,0,1,,,,,,,,,,,,,,,,,,,,,,,,,,,,,,,,,,,,,,,,,,,,,,,,,,
,,5cf38317ada72300016a4ae0,33,male,2024-04-24_11h31.57.068,stockport_simplified,2022.2.4,MacIntel,62.5,661e456ee6de07e70aa9ef7b,6628df849d28c14230bdad21,,,,,,,,,,,,,,,,,,,,,,,,,,,,,,,,,,,,,,,,,,,,,,,,,,,,,,,,0,59,59,16,1,B,Y,N,o2_image,stimuli/out2.png,stimuli/out1.png,stimuli/correct_out2.png,,,,,,,,,,,,,,,,,,,,,,,,,,,,,,,,,,,,,,
,,5cf38317ada72300016a4ae0,33,male,2024-04-24_11h31.57.068,stockport_simplified,2022.2.4,MacIntel,62.5,661e456ee6de07e70aa9ef7b,6628df849d28c14230bdad21,,,,,,,,,,,,,,,,,,,,,,,,,,,,,,,,,,420.661,422.827,"[6,7,4,3,5,8,2,1]","[[-0.3,0.2],[0.3,0.2]]","[[-0.125,-0.2],[0.125,-0.2]]",0.083815104,-0.196571181,1,0,0,1.649,o2_image,422.828,0,423.327,423.327,425.327,0,0,0,0,1,,,,,,,,,,,,,,,,,,,,,,,,,,,,,,,,,,,,,,,,,,,,,,,,,,
,,5cf38317ada72300016a4ae0,33,male,2024-04-24_11h31.57.068,stockport_simplified,2022.2.4,MacIntel,62.5,661e456ee6de07e70aa9ef7b,6628df849d28c14230bdad21,,,,,,,,,,,,,,,,,,,,,,,,,,,,,,,,,,,,,,,,,,,,,,,,,,,,,,,,1,0,60,39,1,A,Y,N,o1_image,stimuli/out1.png,stimuli/correct_out1.png,stimuli/out2.png,,,,,,,,,,,,,,,,,,,,,,,,,,,,,,,,,,,,,,
,,5cf38317ada72300016a4ae0,33,male,2024-04-24_11h31.57.068,stockport_simplified,2022.2.4,MacIntel,62.5,661e456ee6de07e70aa9ef7b,6628df849d28c14230bdad21,,,,,,,,,,,,,,,,,,,,,,,,,,,,,,,,,,425.327,427.011,"[6,7,4,3,5,8,2,1]","[[-0.3,0.2],[0.3,0.2]]","[[-0.125,-0.2],[0.125,-0.2]]",0.098628472,-0.205789931,1,0,0,1.183,o2_image,427.011,1,427.51,427.51,429.511,0,0,0,0,1,,,,,,,,,,,,,,,,,,,,,,,,,,,,,,,,,,,,,,,,,,,,,,,,,,
,,5cf38317ada72300016a4ae0,33,male,2024-04-24_11h31.57.068,stockport_simplified,2022.2.4,MacIntel,62.5,661e456ee6de07e70aa9ef7b,6628df849d28c14230bdad21,,,,,,,,,,,,,,,,,,,,,,,,,,,,,,,,,,,,,,,,,,,,,,,,,,,,,,,,1,1,61,59,1,N,M,D,o2_image,stimuli/out2.png,stimuli/out1.png,stimuli/correct_out2.png,,,,,,,,,,,,,,,,,,,,,,,,,,,,,,,,,,,,,,
,,5cf38317ada72300016a4ae0,33,male,2024-04-24_11h31.57.068,stockport_simplified,2022.2.4,MacIntel,62.5,661e456ee6de07e70aa9ef7b,6628df849d28c14230bdad21,,,,,,,,,,,,,,,,,,,,,,,,,,,,,,,,,,429.511,432.226,"[6,7,4,3,5,8,2,1]","[[-0.3,0.2],[0.3,0.2]]","[[-0.125,-0.2],[0.125,-0.2]]",0.098628472,-0.205789931,1,0,0,2.215,o2_image,432.24,0,432.744,432.744,434.745,0,0,0,0,1,,,,,,,,,,,,,,,,,,,,,,,,,,,,,,,,,,,,,,,,,,,,,,,,,,
,,5cf38317ada72300016a4ae0,33,male,2024-04-24_11h31.57.068,stockport_simplified,2022.2.4,MacIntel,62.5,661e456ee6de07e70aa9ef7b,6628df849d28c14230bdad21,,,,,,,,,,,,,,,,,,,,,,,,,,,,,,,,,,,,,,,,,,,,,,,,,,,,,,,,1,2,62,5,1,A,Y,N,o1_image,stimuli/out1.png,stimuli/correct_out1.png,stimuli/out2.png,,,,,,,,,,,,,,,,,,,,,,,,,,,,,,,,,,,,,,
,,5cf38317ada72300016a4ae0,33,male,2024-04-24_11h31.57.068,stockport_simplified,2022.2.4,MacIntel,62.5,661e456ee6de07e70aa9ef7b,6628df849d28c14230bdad21,,,,,,,,,,,,,,,,,,,,,,,,,,,,,,,,,,434.745,436.744,"[6,7,4,3,5,8,2,1]","[[0.3,0.2],[-0.3,0.2]]","[[0.125,-0.2],[-0.125,-0.2]]",0.109344618,-0.240021701,1,0,0,1.482,o1_image,436.745,0,437.245,437.245,439.245,0,0,0,0,1,,,,,,,,,,,,,,,,,,,,,,,,,,,,,,,,,,,,,,,,,,,,,,,,,,
,,5cf38317ada72300016a4ae0,33,male,2024-04-24_11h31.57.068,stockport_simplified,2022.2.4,MacIntel,62.5,661e456ee6de07e70aa9ef7b,6628df849d28c14230bdad21,,,,,,,,,,,,,,,,,,,,,,,,,,,,,,,,,,,,,,,,,,,,,,,,,,,,,,,,1,3,63,44,1,B,X,N,o2_image,stimuli/out2.png,stimuli/out1.png,stimuli/correct_out2.png,,,,,,,,,,,,,,,,,,,,,,,,,,,,,,,,,,,,,,
,,5cf38317ada72300016a4ae0,33,male,2024-04-24_11h31.57.068,stockport_simplified,2022.2.4,MacIntel,62.5,661e456ee6de07e70aa9ef7b,6628df849d28c14230bdad21,,,,,,,,,,,,,,,,,,,,,,,,,,,,,,,,,,439.245,441.444,"[6,7,4,3,5,8,2,1]","[[0.3,0.2],[-0.3,0.2]]","[[-0.125,-0.2],[0.125,-0.2]]",-0.082960069,-0.210412326,1,0,0,1.684,o1_image,441.445,0,441.944,441.944,443.944,0,0,0,0,1,,,,,,,,,,,,,,,,,,,,,,,,,,,,,,,,,,,,,,,,,,,,,,,,,,
,,5cf38317ada72300016a4ae0,33,male,2024-04-24_11h31.57.068,stockport_simplified,2022.2.4,MacIntel,62.5,661e456ee6de07e70aa9ef7b,6628df849d28c14230bdad21,,,,,,,,,,,,,,,,,,,,,,,,,,,,,,,,,,,,,,,,,,,,,,,,,,,,,,,,1,4,64,40,1,B,X,N,o2_image,stimuli/out2.png,stimuli/out1.png,stimuli/correct_out2.png,,,,,,,,,,,,,,,,,,,,,,,,,,,,,,,,,,,,,,
,,5cf38317ada72300016a4ae0,33,male,2024-04-24_11h31.57.068,stockport_simplified,2022.2.4,MacIntel,62.5,661e456ee6de07e70aa9ef7b,6628df849d28c14230bdad21,,,,,,,,,,,,,,,,,,,,,,,,,,,,,,,,,,443.945,446.377,"[6,7,4,3,5,8,2,1]","[[-0.3,0.2],[0.3,0.2]]","[[-0.125,-0.2],[0.125,-0.2]]",0.119939236,-0.204817708,1,0,0,1.931,o2_image,446.392,1,446.894,446.894,448.895,0,0,0,0,1,,,,,,,,,,,,,,,,,,,,,,,,,,,,,,,,,,,,,,,,,,,,,,,,,,
,,5cf38317ada72300016a4ae0,33,male,2024-04-24_11h31.57.068,stockport_simplified,2022.2.4,MacIntel,62.5,661e456ee6de07e70aa9ef7b,6628df849d28c14230bdad21,,,,,,,,,,,,,,,,,,,,,,,,,,,,,,,,,,,,,,,,,,,,,,,,,,,,,,,,1,5,65,17,1,B,Y,N,o2_image,stimuli/out2.png,stimuli/out1.png,stimuli/correct_out2.png,,,,,,,,,,,,,,,,,,,,,,,,,,,,,,,,,,,,,,
,,5cf38317ada72300016a4ae0,33,male,2024-04-24_11h31.57.068,stockport_simplified,2022.2.4,MacIntel,62.5,661e456ee6de07e70aa9ef7b,6628df849d28c14230bdad21,,,,,,,,,,,,,,,,,,,,,,,,,,,,,,,,,,448.895,451.111,"[6,7,4,3,5,8,2,1]","[[0.3,0.2],[-0.3,0.2]]","[[-0.125,-0.2],[0.125,-0.2]]",-0.121853299,-0.201375868,1,0,0,1.699,o1_image,451.112,0,451.611,451.611,453.611,0,0,0,0,1,,,,,,,,,,,,,,,,,,,,,,,,,,,,,,,,,,,,,,,,,,,,,,,,,,
,,5cf38317ada72300016a4ae0,33,male,2024-04-24_11h31.57.068,stockport_simplified,2022.2.4,MacIntel,62.5,661e456ee6de07e70aa9ef7b,6628df849d28c14230bdad21,,,,,,,,,,,,,,,,,,,,,,,,,,,,,,,,,,,,,,,,,,,,,,,,,,,,,,,,1,6,66,12,1,B,X,N,o2_image,stimuli/out2.png,stimuli/out1.png,stimuli/correct_out2.png,,,,,,,,,,,,,,,,,,,,,,,,,,,,,,,,,,,,,,
,,5cf38317ada72300016a4ae0,33,male,2024-04-24_11h31.57.068,stockport_simplified,2022.2.4,MacIntel,62.5,661e456ee6de07e70aa9ef7b,6628df849d28c14230bdad21,,,,,,,,,,,,,,,,,,,,,,,,,,,,,,,,,,453.611,455.161,"[6,7,4,3,5,8,2,1]","[[0.3,0.2],[-0.3,0.2]]","[[-0.125,-0.2],[0.125,-0.2]]",0.135607639,-0.177365451,1,0,0,1.033,o2_image,455.162,1,455.661,455.661,457.661,0,0,0,0,1,,,,,,,,,,,,,,,,,,,,,,,,,,,,,,,,,,,,,,,,,,,,,,,,,,
,,5cf38317ada72300016a4ae0,33,male,2024-04-24_11h31.57.068,stockport_simplified,2022.2.4,MacIntel,62.5,661e456ee6de07e70aa9ef7b,6628df849d28c14230bdad21,,,,,,,,,,,,,,,,,,,,,,,,,,,,,,,,,,,,,,,,,,,,,,,,,,,,,,,,1,7,67,55,1,N,M,D,o2_image,stimuli/out2.png,stimuli/out1.png,stimuli/correct_out2.png,,,,,,,,,,,,,,,,,,,,,,,,,,,,,,,,,,,,,,
,,5cf38317ada72300016a4ae0,33,male,2024-04-24_11h31.57.068,stockport_simplified,2022.2.4,MacIntel,62.5,661e456ee6de07e70aa9ef7b,6628df849d28c14230bdad21,,,,,,,,,,,,,,,,,,,,,,,,,,,,,,,,,,457.662,459.527,"[6,7,4,3,5,8,2,1]","[[-0.3,0.2],[0.3,0.2]]","[[0.125,-0.2],[-0.125,-0.2]]",0.102877604,-0.176319444,1,0,0,1.348,o1_image,459.528,1,460.028,460.028,462.028,0,0,0,0,1,,,,,,,,,,,,,,,,,,,,,,,,,,,,,,,,,,,,,,,,,,,,,,,,,,
,,5cf38317ada72300016a4ae0,33,male,2024-04-24_11h31.57.068,stockport_simplified,2022.2.4,MacIntel,62.5,661e456ee6de07e70aa9ef7b,6628df849d28c14230bdad21,,,,,,,,,,,,,,,,,,,,,,,,,,,,,,,,,,,,,,,,,,,,,,,,,,,,,,,,1,8,68,21,1,N,M,C,o1_image,stimuli/out1.png,stimuli/correct_out1.png,stimuli/out2.png,,,,,,,,,,,,,,,,,,,,,,,,,,,,,,,,,,,,,,
,,5cf38317ada72300016a4ae0,33,male,2024-04-24_11h31.57.068,stockport_simplified,2022.2.4,MacIntel,62.5,661e456ee6de07e70aa9ef7b,6628df849d28c14230bdad21,,,,,,,,,,,,,,,,,,,,,,,,,,,,,,,,,,462.029,464.094,"[6,7,4,3,5,8,2,1]","[[0.3,0.2],[-0.3,0.2]]","[[0.125,-0.2],[-0.125,-0.2]]",-0.106141493,-0.222986111,1,0,0,1.549,o2_image,464.108,0,464.612,464.612,466.611,0,0,0,0,1,,,,,,,,,,,,,,,,,,,,,,,,,,,,,,,,,,,,,,,,,,,,,,,,,,
,,5cf38317ada72300016a4ae0,33,male,2024-04-24_11h31.57.068,stockport_simplified,2022.2.4,MacIntel,62.5,661e456ee6de07e70aa9ef7b,6628df849d28c14230bdad21,,,,,,,,,,,,,,,,,,,,,,,,,,,,,,,,,,,,,,,,,,,,,,,,,,,,,,,,1,9,69,6,1,A,Y,N,o1_image,stimuli/out1.png,stimuli/correct_out1.png,stimuli/out2.png,,,,,,,,,,,,,,,,,,,,,,,,,,,,,,,,,,,,,,
,,5cf38317ada72300016a4ae0,33,male,2024-04-24_11h31.57.068,stockport_simplified,2022.2.4,MacIntel,62.5,661e456ee6de07e70aa9ef7b,6628df849d28c14230bdad21,,,,,,,,,,,,,,,,,,,,,,,,,,,,,,,,,,466.612,468.828,"[6,7,4,3,5,8,2,1]","[[0.3,0.2],[-0.3,0.2]]","[[0.125,-0.2],[-0.125,-0.2]]",-0.106141493,-0.222986111,1,0,0,1.699,o2_image,468.829,1,469.328,469.328,471.328,0,0,0,0,1,,,,,,,,,,,,,,,,,,,,,,,,,,,,,,,,,,,,,,,,,,,,,,,,,,
,,5cf38317ada72300016a4ae0,33,male,2024-04-24_11h31.57.068,stockport_simplified,2022.2.4,MacIntel,62.5,661e456ee6de07e70aa9ef7b,6628df849d28c14230bdad21,,,,,,,,,,,,,,,,,,,,,,,,,,,,,,,,,,,,,,,,,,,,,,,,,,,,,,,,1,10,70,14,1,B,X,N,o2_image,stimuli/out2.png,stimuli/out1.png,stimuli/correct_out2.png,,,,,,,,,,,,,,,,,,,,,,,,,,,,,,,,,,,,,,
,,5cf38317ada72300016a4ae0,33,male,2024-04-24_11h31.57.068,stockport_simplified,2022.2.4,MacIntel,62.5,661e456ee6de07e70aa9ef7b,6628df849d28c14230bdad21,,,,,,,,,,,,,,,,,,,,,,,,,,,,,,,,,,471.329,473.361,"[6,7,4,3,5,8,2,1]","[[0.3,0.2],[-0.3,0.2]]","[[-0.125,-0.2],[0.125,-0.2]]",-0.106141493,-0.222986111,1,0,0,1.516,o1_image,473.361,0,473.861,473.862,475.861,0,0,0,0,1,,,,,,,,,,,,,,,,,,,,,,,,,,,,,,,,,,,,,,,,,,,,,,,,,,
,,5cf38317ada72300016a4ae0,33,male,2024-04-24_11h31.57.068,stockport_simplified,2022.2.4,MacIntel,62.5,661e456ee6de07e70aa9ef7b,6628df849d28c14230bdad21,,,,,,,,,,,,,,,,,,,,,,,,,,,,,,,,,,,,,,,,,,,,,,,,,,,,,,,,1,11,71,18,1,B,Y,N,o2_image,stimuli/out2.png,stimuli/out1.png,stimuli/correct_out2.png,,,,,,,,,,,,,,,,,,,,,,,,,,,,,,,,,,,,,,
,,5cf38317ada72300016a4ae0,33,male,2024-04-24_11h31.57.068,stockport_simplified,2022.2.4,MacIntel,62.5,661e456ee6de07e70aa9ef7b,6628df849d28c14230bdad21,,,,,,,,,,,,,,,,,,,,,,,,,,,,,,,,,,475.862,477.578,"[6,7,4,3,5,8,2,1]","[[0.3,0.2],[-0.3,0.2]]","[[-0.125,-0.2],[0.125,-0.2]]",-0.106141493,-0.222986111,1,0,0,1.2,o1_image,477.579,1,478.078,478.078,480.078,0,0,0,0,1,,,,,,,,,,,,,,,,,,,,,,,,,,,,,,,,,,,,,,,,,,,,,,,,,,
,,5cf38317ada72300016a4ae0,33,male,2024-04-24_11h31.57.068,stockport_simplified,2022.2.4,MacIntel,62.5,661e456ee6de07e70aa9ef7b,6628df849d28c14230bdad21,,,,,,,,,,,,,,,,,,,,,,,,,,,,,,,,,,,,,,,,,,,,,,,,,,,,,,,,1,12,72,54,1,N,M,C,o1_image,stimuli/out1.png,stimuli/correct_out1.png,stimuli/out2.png,,,,,,,,,,,,,,,,,,,,,,,,,,,,,,,,,,,,,,
,,5cf38317ada72300016a4ae0,33,male,2024-04-24_11h31.57.068,stockport_simplified,2022.2.4,MacIntel,62.5,661e456ee6de07e70aa9ef7b,6628df849d28c14230bdad21,,,,,,,,,,,,,,,,,,,,,,,,,,,,,,,,,,480.078,483.461,"[6,7,4,3,5,8,2,1]","[[0.3,0.2],[-0.3,0.2]]","[[-0.125,-0.2],[0.125,-0.2]]",0.071796875,-0.221258681,1,0,0,2.883,o2_image,483.475,0,483.978,483.978,485.979,0,0,0,0,1,,,,,,,,,,,,,,,,,,,,,,,,,,,,,,,,,,,,,,,,,,,,,,,,,,
,,5cf38317ada72300016a4ae0,33,male,2024-04-24_11h31.57.068,stockport_simplified,2022.2.4,MacIntel,62.5,661e456ee6de07e70aa9ef7b,6628df849d28c14230bdad21,,,,,,,,,,,,,,,,,,,,,,,,,,,,,,,,,,,,,,,,,,,,,,,,,,,,,,,,1,13,73,1,1,A,X,N,o1_image,stimuli/out1.png,stimuli/correct_out1.png,stimuli/out2.png,,,,,,,,,,,,,,,,,,,,,,,,,,,,,,,,,,,,,,
,,5cf38317ada72300016a4ae0,33,male,2024-04-24_11h31.57.068,stockport_simplified,2022.2.4,MacIntel,62.5,661e456ee6de07e70aa9ef7b,6628df849d28c14230bdad21,,,,,,,,,,,,,,,,,,,,,,,,,,,,,,,,,,485.979,487.678,"[6,7,4,3,5,8,2,1]","[[-0.3,0.2],[0.3,0.2]]","[[-0.125,-0.2],[0.125,-0.2]]",-0.099978299,-0.198250868,1,0,0,1.183,o1_image,487.678,1,488.178,488.178,490.178,0,0,0,0,1,,,,,,,,,,,,,,,,,,,,,,,,,,,,,,,,,,,,,,,,,,,,,,,,,,
,,5cf38317ada72300016a4ae0,33,male,2024-04-24_11h31.57.068,stockport_simplified,2022.2.4,MacIntel,62.5,661e456ee6de07e70aa9ef7b,6628df849d28c14230bdad21,,,,,,,,,,,,,,,,,,,,,,,,,,,,,,,,,,,,,,,,,,,,,,,,,,,,,,,,1,14,74,20,1,N,M,C,o1_image,stimuli/out1.png,stimuli/correct_out1.png,stimuli/out2.png,,,,,,,,,,,,,,,,,,,,,,,,,,,,,,,,,,,,,,
,,5cf38317ada72300016a4ae0,33,male,2024-04-24_11h31.57.068,stockport_simplified,2022.2.4,MacIntel,62.5,661e456ee6de07e70aa9ef7b,6628df849d28c14230bdad21,,,,,,,,,,,,,,,,,,,,,,,,,,,,,,,,,,490.179,492.095,"[6,7,4,3,5,8,2,1]","[[-0.3,0.2],[0.3,0.2]]","[[-0.125,-0.2],[0.125,-0.2]]",0.182795139,-0.192756076,1,0,0,1.4,o2_image,492.095,1,492.595,492.595,494.595,0,0,0,0,1,,,,,,,,,,,,,,,,,,,,,,,,,,,,,,,,,,,,,,,,,,,,,,,,,,
,,5cf38317ada72300016a4ae0,33,male,2024-04-24_11h31.57.068,stockport_simplified,2022.2.4,MacIntel,62.5,661e456ee6de07e70aa9ef7b,6628df849d28c14230bdad21,,,,,,,,,,,,,,,,,,,,,,,,,,,,,,,,,,,,,,,,,,,,,,,,,,,,,,,,1,15,75,47,1,B,Y,N,o2_image,stimuli/out2.png,stimuli/out1.png,stimuli/correct_out2.png,,,,,,,,,,,,,,,,,,,,,,,,,,,,,,,,,,,,,,
,,5cf38317ada72300016a4ae0,33,male,2024-04-24_11h31.57.068,stockport_simplified,2022.2.4,MacIntel,62.5,661e456ee6de07e70aa9ef7b,6628df849d28c14230bdad21,,,,,,,,,,,,,,,,,,,,,,,,,,,,,,,,,,494.596,497.128,"[6,7,4,3,5,8,2,1]","[[-0.3,0.2],[0.3,0.2]]","[[0.125,-0.2],[-0.125,-0.2]]",0.106306424,-0.192335069,1,0,0,2.016,o1_image,497.128,0,497.629,497.629,499.629,0,0,0,0,1,,,,,,,,,,,,,,,,,,,,,,,,,,,,,,,,,,,,,,,,,,,,,,,,,,
,,5cf38317ada72300016a4ae0,33,male,2024-04-24_11h31.57.068,stockport_simplified,2022.2.4,MacIntel,62.5,661e456ee6de07e70aa9ef7b,6628df849d28c14230bdad21,,,,,,,,,,,,,,,,,,,,,,,,,,,,,,,,,,,,,,,,,,,,,,,,,,,,,,,,1,16,76,10,1,B,X,N,o2_image,stimuli/out2.png,stimuli/out1.png,stimuli/correct_out2.png,,,,,,,,,,,,,,,,,,,,,,,,,,,,,,,,,,,,,,
,,5cf38317ada72300016a4ae0,33,male,2024-04-24_11h31.57.068,stockport_simplified,2022.2.4,MacIntel,62.5,661e456ee6de07e70aa9ef7b,6628df849d28c14230bdad21,,,,,,,,,,,,,,,,,,,,,,,,,,,,,,,,,,499.63,501.262,"[6,7,4,3,5,8,2,1]","[[0.3,0.2],[-0.3,0.2]]","[[0.125,-0.2],[-0.125,-0.2]]",-0.121692708,-0.19109809,1,0,0,1.116,o2_image,501.263,1,501.762,501.762,503.762,0,0,0,0,1,,,,,,,,,,,,,,,,,,,,,,,,,,,,,,,,,,,,,,,,,,,,,,,,,,
,,5cf38317ada72300016a4ae0,33,male,2024-04-24_11h31.57.068,stockport_simplified,2022.2.4,MacIntel,62.5,661e456ee6de07e70aa9ef7b,6628df849d28c14230bdad21,,,,,,,,,,,,,,,,,,,,,,,,,,,,,,,,,,,,,,,,,,,,,,,,,,,,,,,,1,17,77,58,1,N,M,D,o2_image,stimuli/out2.png,stimuli/out1.png,stimuli/correct_out2.png,,,,,,,,,,,,,,,,,,,,,,,,,,,,,,,,,,,,,,
,,5cf38317ada72300016a4ae0,33,male,2024-04-24_11h31.57.068,stockport_simplified,2022.2.4,MacIntel,62.5,661e456ee6de07e70aa9ef7b,6628df849d28c14230bdad21,,,,,,,,,,,,,,,,,,,,,,,,,,,,,,,,,,503.762,505.945,"[6,7,4,3,5,8,2,1]","[[-0.3,0.2],[0.3,0.2]]","[[0.125,-0.2],[-0.125,-0.2]]",0.065529514,-0.208055556,1,0,0,1.683,o1_image,505.946,1,506.445,506.445,508.445,0,0,0,0,1,,,,,,,,,,,,,,,,,,,,,,,,,,,,,,,,,,,,,,,,,,,,,,,,,,
,,5cf38317ada72300016a4ae0,33,male,2024-04-24_11h31.57.068,stockport_simplified,2022.2.4,MacIntel,62.5,661e456ee6de07e70aa9ef7b,6628df849d28c14230bdad21,,,,,,,,,,,,,,,,,,,,,,,,,,,,,,,,,,,,,,,,,,,,,,,,,,,,,,,,1,18,78,4,1,A,X,N,o1_image,stimuli/out1.png,stimuli/correct_out1.png,stimuli/out2.png,,,,,,,,,,,,,,,,,,,,,,,,,,,,,,,,,,,,,,
,,5cf38317ada72300016a4ae0,33,male,2024-04-24_11h31.57.068,stockport_simplified,2022.2.4,MacIntel,62.5,661e456ee6de07e70aa9ef7b,6628df849d28c14230bdad21,,,,,,,,,,,,,,,,,,,,,,,,,,,,,,,,,,508.446,510.228,"[6,7,4,3,5,8,2,1]","[[-0.3,0.2],[0.3,0.2]]","[[-0.125,-0.2],[0.125,-0.2]]",-0.163307292,-0.166154514,1,0,0,1.266,o1_image,510.228,1,510.729,510.729,512.728,0,0,0,0,1,,,,,,,,,,,,,,,,,,,,,,,,,,,,,,,,,,,,,,,,,,,,,,,,,,
,,5cf38317ada72300016a4ae0,33,male,2024-04-24_11h31.57.068,stockport_simplified,2022.2.4,MacIntel,62.5,661e456ee6de07e70aa9ef7b,6628df849d28c14230bdad21,,,,,,,,,,,,,,,,,,,,,,,,,,,,,,,,,,,,,,,,,,,,,,,,,,,,,,,,1,19,79,22,1,N,M,C,o1_image,stimuli/out1.png,stimuli/correct_out1.png,stimuli/out2.png,,,,,,,,,,,,,,,,,,,,,,,,,,,,,,,,,,,,,,
,,5cf38317ada72300016a4ae0,33,male,2024-04-24_11h31.57.068,stockport_simplified,2022.2.4,MacIntel,62.5,661e456ee6de07e70aa9ef7b,6628df849d28c14230bdad21,,,,,,,,,,,,,,,,,,,,,,,,,,,,,,,,,,512.729,514.828,"[6,7,4,3,5,8,2,1]","[[-0.3,0.2],[0.3,0.2]]","[[-0.125,-0.2],[0.125,-0.2]]",-0.11390625,-0.215976562,1,0,0,1.583,o1_image,514.829,1,515.328,515.328,517.329,0,0,0,0,1,,,,,,,,,,,,,,,,,,,,,,,,,,,,,,,,,,,,,,,,,,,,,,,,,,
,,5cf38317ada72300016a4ae0,33,male,2024-04-24_11h31.57.068,stockport_simplified,2022.2.4,MacIntel,62.5,661e456ee6de07e70aa9ef7b,6628df849d28c14230bdad21,,,,,,,,,,,,,,,,,,,,,,,,,,,,,,,,,,,,,,,,,,,,,,,,,,,,,,,,1,20,80,50,1,N,M,C,o1_image,stimuli/out1.png,stimuli/correct_out1.png,stimuli/out2.png,,,,,,,,,,,,,,,,,,,,,,,,,,,,,,,,,,,,,,
,,5cf38317ada72300016a4ae0,33,male,2024-04-24_11h31.57.068,stockport_simplified,2022.2.4,MacIntel,62.5,661e456ee6de07e70aa9ef7b,6628df849d28c14230bdad21,,,,,,,,,,,,,,,,,,,,,,,,,,,,,,,,,,517.329,520.595,"[6,7,4,3,5,8,2,1]","[[0.3,0.2],[-0.3,0.2]]","[[-0.125,-0.2],[0.125,-0.2]]",-0.11390625,-0.215976562,1,0,0,2.749,o1_image,520.608,0,521.112,521.112,523.112,0,0,0,0,1,,,,,,,,,,,,,,,,,,,,,,,,,,,,,,,,,,,,,,,,,,,,,,,,,,
,,5cf38317ada72300016a4ae0,33,male,2024-04-24_11h31.57.068,stockport_simplified,2022.2.4,MacIntel,62.5,661e456ee6de07e70aa9ef7b,6628df849d28c14230bdad21,,,,,,,,,,,,,,,,,,,,,,,,,,,,,,,,,,,,,,,,,,,,,,,,,,,,,,,,1,21,81,19,1,B,Y,N,o2_image,stimuli/out2.png,stimuli/out1.png,stimuli/correct_out2.png,,,,,,,,,,,,,,,,,,,,,,,,,,,,,,,,,,,,,,
,,5cf38317ada72300016a4ae0,33,male,2024-04-24_11h31.57.068,stockport_simplified,2022.2.4,MacIntel,62.5,661e456ee6de07e70aa9ef7b,6628df849d28c14230bdad21,,,,,,,,,,,,,,,,,,,,,,,,,,,,,,,,,,523.113,525.645,"[6,7,4,3,5,8,2,1]","[[0.3,0.2],[-0.3,0.2]]","[[-0.125,-0.2],[0.125,-0.2]]",-0.100325521,-0.252825521,1,0,0,2.016,o1_image,525.646,1,526.145,526.145,528.145,0,0,0,0,1,,,,,,,,,,,,,,,,,,,,,,,,,,,,,,,,,,,,,,,,,,,,,,,,,,
,,5cf38317ada72300016a4ae0,33,male,2024-04-24_11h31.57.068,stockport_simplified,2022.2.4,MacIntel,62.5,661e456ee6de07e70aa9ef7b,6628df849d28c14230bdad21,,,,,,,,,,,,,,,,,,,,,,,,,,,,,,,,,,,,,,,,,,,,,,,,,,,,,,,,1,22,82,34,1,A,X,N,o1_image,stimuli/out1.png,stimuli/correct_out1.png,stimuli/out2.png,,,,,,,,,,,,,,,,,,,,,,,,,,,,,,,,,,,,,,
,,5cf38317ada72300016a4ae0,33,male,2024-04-24_11h31.57.068,stockport_simplified,2022.2.4,MacIntel,62.5,661e456ee6de07e70aa9ef7b,6628df849d28c14230bdad21,,,,,,,,,,,,,,,,,,,,,,,,,,,,,,,,,,528.146,530.279,"[6,7,4,3,5,8,2,1]","[[-0.3,0.2],[0.3,0.2]]","[[-0.125,-0.2],[0.125,-0.2]]",0.131909722,-0.245364583,1,0,0,1.632,o2_image,530.279,1,530.779,530.779,532.779,0,0,0,0,1,,,,,,,,,,,,,,,,,,,,,,,,,,,,,,,,,,,,,,,,,,,,,,,,,,
,,5cf38317ada72300016a4ae0,33,male,2024-04-24_11h31.57.068,stockport_simplified,2022.2.4,MacIntel,62.5,661e456ee6de07e70aa9ef7b,6628df849d28c14230bdad21,,,,,,,,,,,,,,,,,,,,,,,,,,,,,,,,,,,,,,,,,,,,,,,,,,,,,,,,1,23,83,16,1,B,Y,N,o2_image,stimuli/out2.png,stimuli/out1.png,stimuli/correct_out2.png,,,,,,,,,,,,,,,,,,,,,,,,,,,,,,,,,,,,,,
,,5cf38317ada72300016a4ae0,33,male,2024-04-24_11h31.57.068,stockport_simplified,2022.2.4,MacIntel,62.5,661e456ee6de07e70aa9ef7b,6628df849d28c14230bdad21,,,,,,,,,,,,,,,,,,,,,,,,,,,,,,,,,,532.779,534.512,"[6,7,4,3,5,8,2,1]","[[-0.3,0.2],[0.3,0.2]]","[[0.125,-0.2],[-0.125,-0.2]]",0.132539062,-0.204496528,1,0,0,1.233,o1_image,534.513,1,535.012,535.012,537.012,0,0,0,0,1,,,,,,,,,,,,,,,,,,,,,,,,,,,,,,,,,,,,,,,,,,,,,,,,,,
,,5cf38317ada72300016a4ae0,33,male,2024-04-24_11h31.57.068,stockport_simplified,2022.2.4,MacIntel,62.5,661e456ee6de07e70aa9ef7b,6628df849d28c14230bdad21,,,,,,,,,,,,,,,,,,,,,,,,,,,,,,,,,,,,,,,,,,,,,,,,,,,,,,,,1,24,84,24,1,N,M,C,o1_image,stimuli/out1.png,stimuli/correct_out1.png,stimuli/out2.png,,,,,,,,,,,,,,,,,,,,,,,,,,,,,,,,,,,,,,
,,5cf38317ada72300016a4ae0,33,male,2024-04-24_11h31.57.068,stockport_simplified,2022.2.4,MacIntel,62.5,661e456ee6de07e70aa9ef7b,6628df849d28c14230bdad21,,,,,,,,,,,,,,,,,,,,,,,,,,,,,,,,,,537.013,539.462,"[6,7,4,3,5,8,2,1]","[[0.3,0.2],[-0.3,0.2]]","[[0.125,-0.2],[-0.125,-0.2]]",-0.071605903,-0.199713542,1,0,0,1.932,o2_image,539.462,0,539.962,539.962,541.962,0,0,0,0,1,,,,,,,,,,,,,,,,,,,,,,,,,,,,,,,,,,,,,,,,,,,,,,,,,,
,,5cf38317ada72300016a4ae0,33,male,2024-04-24_11h31.57.068,stockport_simplified,2022.2.4,MacIntel,62.5,661e456ee6de07e70aa9ef7b,6628df849d28c14230bdad21,,,,,,,,,,,,,,,,,,,,,,,,,,,,,,,,,,,,,,,,,,,,,,,,,,,,,,,,1,25,85,35,1,A,Y,N,o1_image,stimuli/out1.png,stimuli/correct_out1.png,stimuli/out2.png,,,,,,,,,,,,,,,,,,,,,,,,,,,,,,,,,,,,,,
,,5cf38317ada72300016a4ae0,33,male,2024-04-24_11h31.57.068,stockport_simplified,2022.2.4,MacIntel,62.5,661e456ee6de07e70aa9ef7b,6628df849d28c14230bdad21,,,,,,,,,,,,,,,,,,,,,,,,,,,,,,,,,,541.963,548.612,"[6,7,4,3,5,8,2,1]","[[0.3,0.2],[-0.3,0.2]]","[[0.125,-0.2],[-0.125,-0.2]]",0.148776042,-0.181740451,1,0,0,6.149,o1_image,548.627,1,549.129,549.129,551.13,0,0,0,0,1,,,,,,,,,,,,,,,,,,,,,,,,,,,,,,,,,,,,,,,,,,,,,,,,,,
,,5cf38317ada72300016a4ae0,33,male,2024-04-24_11h31.57.068,stockport_simplified,2022.2.4,MacIntel,62.5,661e456ee6de07e70aa9ef7b,6628df849d28c14230bdad21,,,,,,,,,,,,,,,,,,,,,,,,,,,,,,,,,,,,,,,,,,,,,,,,,,,,,,,,1,26,86,51,1,N,M,C,o1_image,stimuli/out1.png,stimuli/correct_out1.png,stimuli/out2.png,,,,,,,,,,,,,,,,,,,,,,,,,,,,,,,,,,,,,,
,,5cf38317ada72300016a4ae0,33,male,2024-04-24_11h31.57.068,stockport_simplified,2022.2.4,MacIntel,62.5,661e456ee6de07e70aa9ef7b,6628df849d28c14230bdad21,,,,,,,,,,,,,,,,,,,,,,,,,,,,,,,,,,551.13,553.729,"[6,7,4,3,5,8,2,1]","[[0.3,0.2],[-0.3,0.2]]","[[0.125,-0.2],[-0.125,-0.2]]",-0.077391493,-0.19718316,1,0,0,2.082,o2_image,553.729,1,554.23,554.23,556.229,0,0,0,0,1,,,,,,,,,,,,,,,,,,,,,,,,,,,,,,,,,,,,,,,,,,,,,,,,,,
,,5cf38317ada72300016a4ae0,33,male,2024-04-24_11h31.57.068,stockport_simplified,2022.2.4,MacIntel,62.5,661e456ee6de07e70aa9ef7b,6628df849d28c14230bdad21,,,,,,,,,,,,,,,,,,,,,,,,,,,,,,,,,,,,,,,,,,,,,,,,,,,,,,,,1,27,87,11,1,B,X,N,o2_image,stimuli/out2.png,stimuli/out1.png,stimuli/correct_out2.png,,,,,,,,,,,,,,,,,,,,,,,,,,,,,,,,,,,,,,
,,5cf38317ada72300016a4ae0,33,male,2024-04-24_11h31.57.068,stockport_simplified,2022.2.4,MacIntel,62.5,661e456ee6de07e70aa9ef7b,6628df849d28c14230bdad21,,,,,,,,,,,,,,,,,,,,,,,,,,,,,,,,,,556.23,558.662,"[6,7,4,3,5,8,2,1]","[[-0.3,0.2],[0.3,0.2]]","[[0.125,-0.2],[-0.125,-0.2]]",-0.151636285,-0.184752604,1,0,0,1.916,o2_image,558.663,1,559.163,559.163,561.163,0,0,0,0,1,,,,,,,,,,,,,,,,,,,,,,,,,,,,,,,,,,,,,,,,,,,,,,,,,,
,,5cf38317ada72300016a4ae0,33,male,2024-04-24_11h31.57.068,stockport_simplified,2022.2.4,MacIntel,62.5,661e456ee6de07e70aa9ef7b,6628df849d28c14230bdad21,,,,,,,,,,,,,,,,,,,,,,,,,,,,,,,,,,,,,,,,,,,,,,,,,,,,,,,,1,28,88,46,1,B,Y,N,o2_image,stimuli/out2.png,stimuli/out1.png,stimuli/correct_out2.png,,,,,,,,,,,,,,,,,,,,,,,,,,,,,,,,,,,,,,
,,5cf38317ada72300016a4ae0,33,male,2024-04-24_11h31.57.068,stockport_simplified,2022.2.4,MacIntel,62.5,661e456ee6de07e70aa9ef7b,6628df849d28c14230bdad21,,,,,,,,,,,,,,,,,,,,,,,,,,,,,,,,,,561.164,562.729,"[6,7,4,3,5,8,2,1]","[[-0.3,0.2],[0.3,0.2]]","[[0.125,-0.2],[-0.125,-0.2]]",-0.101063368,-0.203619792,1,0,0,1.05,o2_image,562.73,1,563.229,563.229,565.229,0,0,0,0,1,,,,,,,,,,,,,,,,,,,,,,,,,,,,,,,,,,,,,,,,,,,,,,,,,,
,,5cf38317ada72300016a4ae0,33,male,2024-04-24_11h31.57.068,stockport_simplified,2022.2.4,MacIntel,62.5,661e456ee6de07e70aa9ef7b,6628df849d28c14230bdad21,,,,,,,,,,,,,,,,,,,,,,,,,,,,,,,,,,,,,,,,,,,,,,,,,,,,,,,,1,29,89,25,1,N,M,D,o2_image,stimuli/out2.png,stimuli/out1.png,stimuli/correct_out2.png,,,,,,,,,,,,,,,,,,,,,,,,,,,,,,,,,,,,,,
,,5cf38317ada72300016a4ae0,33,male,2024-04-24_11h31.57.068,stockport_simplified,2022.2.4,MacIntel,62.5,661e456ee6de07e70aa9ef7b,6628df849d28c14230bdad21,,,,,,,,,,,,,,,,,,,,,,,,,,,,,,,,,,565.23,567.946,"[6,7,4,3,5,8,2,1]","[[0.3,0.2],[-0.3,0.2]]","[[0.125,-0.2],[-0.125,-0.2]]",-0.093480903,-0.207617187,1,0,0,2.199,o2_image,567.947,1,568.446,568.446,570.446,0,0,0,0,1,,,,,,,,,,,,,,,,,,,,,,,,,,,,,,,,,,,,,,,,,,,,,,,,,,
,,5cf38317ada72300016a4ae0,33,male,2024-04-24_11h31.57.068,stockport_simplified,2022.2.4,MacIntel,62.5,661e456ee6de07e70aa9ef7b,6628df849d28c14230bdad21,,,,,,,,,,,,,,,,,,,,,,,,,,,,,,,,,,,,,,,,,,,,,,,,,,,,,,,,1,30,90,49,1,B,Y,N,o2_image,stimuli/out2.png,stimuli/out1.png,stimuli/correct_out2.png,,,,,,,,,,,,,,,,,,,,,,,,,,,,,,,,,,,,,,
,,5cf38317ada72300016a4ae0,33,male,2024-04-24_11h31.57.068,stockport_simplified,2022.2.4,MacIntel,62.5,661e456ee6de07e70aa9ef7b,6628df849d28c14230bdad21,,,,,,,,,,,,,,,,,,,,,,,,,,,,,,,,,,570.447,572.48,"[6,7,4,3,5,8,2,1]","[[0.3,0.2],[-0.3,0.2]]","[[-0.125,-0.2],[0.125,-0.2]]",0.088064236,-0.221584201,1,0,0,1.517,o2_image,572.48,1,572.98,572.98,574.98,0,0,0,0,1,,,,,,,,,,,,,,,,,,,,,,,,,,,,,,,,,,,,,,,,,,,,,,,,,,
,,5cf38317ada72300016a4ae0,33,male,2024-04-24_11h31.57.068,stockport_simplified,2022.2.4,MacIntel,62.5,661e456ee6de07e70aa9ef7b,6628df849d28c14230bdad21,,,,,,,,,,,,,,,,,,,,,,,,,,,,,,,,,,,,,,,,,,,,,,,,,,,,,,,,1,31,91,15,1,B,Y,N,o2_image,stimuli/out2.png,stimuli/out1.png,stimuli/correct_out2.png,,,,,,,,,,,,,,,,,,,,,,,,,,,,,,,,,,,,,,
,,5cf38317ada72300016a4ae0,33,male,2024-04-24_11h31.57.068,stockport_simplified,2022.2.4,MacIntel,62.5,661e456ee6de07e70aa9ef7b,6628df849d28c14230bdad21,,,,,,,,,,,,,,,,,,,,,,,,,,,,,,,,,,574.98,576.93,"[6,7,4,3,5,8,2,1]","[[0.3,0.2],[-0.3,0.2]]","[[0.125,-0.2],[-0.125,-0.2]]",0.11609809,-0.138198785,1,0,0,1.433,o1_image,576.93,1,577.43,577.43,579.429,0,0,0,0,1,,,,,,,,,,,,,,,,,,,,,,,,,,,,,,,,,,,,,,,,,,,,,,,,,,
,,5cf38317ada72300016a4ae0,33,male,2024-04-24_11h31.57.068,stockport_simplified,2022.2.4,MacIntel,62.5,661e456ee6de07e70aa9ef7b,6628df849d28c14230bdad21,,,,,,,,,,,,,,,,,,,,,,,,,,,,,,,,,,,,,,,,,,,,,,,,,,,,,,,,1,32,92,52,1,N,M,C,o1_image,stimuli/out1.png,stimuli/correct_out1.png,stimuli/out2.png,,,,,,,,,,,,,,,,,,,,,,,,,,,,,,,,,,,,,,
,,5cf38317ada72300016a4ae0,33,male,2024-04-24_11h31.57.068,stockport_simplified,2022.2.4,MacIntel,62.5,661e456ee6de07e70aa9ef7b,6628df849d28c14230bdad21,,,,,,,,,,,,,,,,,,,,,,,,,,,,,,,,,,579.43,581.38,"[6,7,4,3,5,8,2,1]","[[0.3,0.2],[-0.3,0.2]]","[[-0.125,-0.2],[0.125,-0.2]]",0.100043403,-0.206050347,1,0,0,1.449,o2_image,581.38,1,581.88,581.88,583.88,0,0,0,0,1,,,,,,,,,,,,,,,,,,,,,,,,,,,,,,,,,,,,,,,,,,,,,,,,,,
,,5cf38317ada72300016a4ae0,33,male,2024-04-24_11h31.57.068,stockport_simplified,2022.2.4,MacIntel,62.5,661e456ee6de07e70aa9ef7b,6628df849d28c14230bdad21,,,,,,,,,,,,,,,,,,,,,,,,,,,,,,,,,,,,,,,,,,,,,,,,,,,,,,,,1,33,93,45,1,B,Y,N,o2_image,stimuli/out2.png,stimuli/out1.png,stimuli/correct_out2.png,,,,,,,,,,,,,,,,,,,,,,,,,,,,,,,,,,,,,,
,,5cf38317ada72300016a4ae0,33,male,2024-04-24_11h31.57.068,stockport_simplified,2022.2.4,MacIntel,62.5,661e456ee6de07e70aa9ef7b,6628df849d28c14230bdad21,,,,,,,,,,,,,,,,,,,,,,,,,,,,,,,,,,583.881,585.629,"[6,7,4,3,5,8,2,1]","[[0.3,0.2],[-0.3,0.2]]","[[0.125,-0.2],[-0.125,-0.2]]",-0.11547309,-0.257365451,1,0,0,1.232,o2_image,585.631,1,586.13,586.13,588.13,0,0,0,0,1,,,,,,,,,,,,,,,,,,,,,,,,,,,,,,,,,,,,,,,,,,,,,,,,,,
,,5cf38317ada72300016a4ae0,33,male,2024-04-24_11h31.57.068,stockport_simplified,2022.2.4,MacIntel,62.5,661e456ee6de07e70aa9ef7b,6628df849d28c14230bdad21,,,,,,,,,,,,,,,,,,,,,,,,,,,,,,,,,,,,,,,,,,,,,,,,,,,,,,,,1,34,94,48,1,B,Y,N,o2_image,stimuli/out2.png,stimuli/out1.png,stimuli/correct_out2.png,,,,,,,,,,,,,,,,,,,,,,,,,,,,,,,,,,,,,,
,,5cf38317ada72300016a4ae0,33,male,2024-04-24_11h31.57.068,stockport_simplified,2022.2.4,MacIntel,62.5,661e456ee6de07e70aa9ef7b,6628df849d28c14230bdad21,,,,,,,,,,,,,,,,,,,,,,,,,,,,,,,,,,588.131,589.663,"[6,7,4,3,5,8,2,1]","[[-0.3,0.2],[0.3,0.2]]","[[-0.125,-0.2],[0.125,-0.2]]",-0.094361979,-0.199574653,1,0,0,1.016,o1_image,589.663,1,590.164,590.164,592.164,0,0,0,0,1,,,,,,,,,,,,,,,,,,,,,,,,,,,,,,,,,,,,,,,,,,,,,,,,,,
,,5cf38317ada72300016a4ae0,33,male,2024-04-24_11h31.57.068,stockport_simplified,2022.2.4,MacIntel,62.5,661e456ee6de07e70aa9ef7b,6628df849d28c14230bdad21,,,,,,,,,,,,,,,,,,,,,,,,,,,,,,,,,,,,,,,,,,,,,,,,,,,,,,,,1,35,95,23,1,N,M,C,o1_image,stimuli/out1.png,stimuli/correct_out1.png,stimuli/out2.png,,,,,,,,,,,,,,,,,,,,,,,,,,,,,,,,,,,,,,
,,5cf38317ada72300016a4ae0,33,male,2024-04-24_11h31.57.068,stockport_simplified,2022.2.4,MacIntel,62.5,661e456ee6de07e70aa9ef7b,6628df849d28c14230bdad21,,,,,,,,,,,,,,,,,,,,,,,,,,,,,,,,,,592.164,594.363,"[6,7,4,3,5,8,2,1]","[[0.3,0.2],[-0.3,0.2]]","[[-0.125,-0.2],[0.125,-0.2]]",-0.126775174,-0.123151042,1,0,0,1.682,o1_image,594.363,0,594.863,594.863,596.864,0,0,0,0,1,,,,,,,,,,,,,,,,,,,,,,,,,,,,,,,,,,,,,,,,,,,,,,,,,,
,,5cf38317ada72300016a4ae0,33,male,2024-04-24_11h31.57.068,stockport_simplified,2022.2.4,MacIntel,62.5,661e456ee6de07e70aa9ef7b,6628df849d28c14230bdad21,,,,,,,,,,,,,,,,,,,,,,,,,,,,,,,,,,,,,,,,,,,,,,,,,,,,,,,,1,36,96,13,1,B,X,N,o2_image,stimuli/out2.png,stimuli/out1.png,stimuli/correct_out2.png,,,,,,,,,,,,,,,,,,,,,,,,,,,,,,,,,,,,,,
,,5cf38317ada72300016a4ae0,33,male,2024-04-24_11h31.57.068,stockport_simplified,2022.2.4,MacIntel,62.5,661e456ee6de07e70aa9ef7b,6628df849d28c14230bdad21,,,,,,,,,,,,,,,,,,,,,,,,,,,,,,,,,,596.864,598.413,"[6,7,4,3,5,8,2,1]","[[-0.3,0.2],[0.3,0.2]]","[[0.125,-0.2],[-0.125,-0.2]]",-0.103615451,-0.218103299,1,0,0,1.032,o2_image,598.414,1,598.913,598.913,600.914,0,0,0,0,1,,,,,,,,,,,,,,,,,,,,,,,,,,,,,,,,,,,,,,,,,,,,,,,,,,
,,5cf38317ada72300016a4ae0,33,male,2024-04-24_11h31.57.068,stockport_simplified,2022.2.4,MacIntel,62.5,661e456ee6de07e70aa9ef7b,6628df849d28c14230bdad21,,,,,,,,,,,,,,,,,,,,,,,,,,,,,,,,,,,,,,,,,,,,,,,,,,,,,,,,1,37,97,56,1,N,M,D,o2_image,stimuli/out2.png,stimuli/out1.png,stimuli/correct_out2.png,,,,,,,,,,,,,,,,,,,,,,,,,,,,,,,,,,,,,,
,,5cf38317ada72300016a4ae0,33,male,2024-04-24_11h31.57.068,stockport_simplified,2022.2.4,MacIntel,62.5,661e456ee6de07e70aa9ef7b,6628df849d28c14230bdad21,,,,,,,,,,,,,,,,,,,,,,,,,,,,,,,,,,600.914,603.613,"[6,7,4,3,5,8,2,1]","[[-0.3,0.2],[0.3,0.2]]","[[-0.125,-0.2],[0.125,-0.2]]",-0.094960937,-0.234353299,1,0,0,2.183,o1_image,603.614,1,604.113,604.113,606.114,0,0,0,0,1,,,,,,,,,,,,,,,,,,,,,,,,,,,,,,,,,,,,,,,,,,,,,,,,,,
,,5cf38317ada72300016a4ae0,33,male,2024-04-24_11h31.57.068,stockport_simplified,2022.2.4,MacIntel,62.5,661e456ee6de07e70aa9ef7b,6628df849d28c14230bdad21,,,,,,,,,,,,,,,,,,,,,,,,,,,,,,,,,,,,,,,,,,,,,,,,,,,,,,,,1,38,98,33,1,A,X,N,o1_image,stimuli/out1.png,stimuli/correct_out1.png,stimuli/out2.png,,,,,,,,,,,,,,,,,,,,,,,,,,,,,,,,,,,,,,
,,5cf38317ada72300016a4ae0,33,male,2024-04-24_11h31.57.068,stockport_simplified,2022.2.4,MacIntel,62.5,661e456ee6de07e70aa9ef7b,6628df849d28c14230bdad21,,,,,,,,,,,,,,,,,,,,,,,,,,,,,,,,,,606.114,608.08,"[6,7,4,3,5,8,2,1]","[[-0.3,0.2],[0.3,0.2]]","[[0.125,-0.2],[-0.125,-0.2]]",0.139796007,-0.19452691,1,0,0,1.449,o1_image,608.081,1,608.58,608.58,610.579,0,0,0,0,1,,,,,,,,,,,,,,,,,,,,,,,,,,,,,,,,,,,,,,,,,,,,,,,,,,
,,5cf38317ada72300016a4ae0,33,male,2024-04-24_11h31.57.068,stockport_simplified,2022.2.4,MacIntel,62.5,661e456ee6de07e70aa9ef7b,6628df849d28c14230bdad21,,,,,,,,,,,,,,,,,,,,,,,,,,,,,,,,,,,,,,,,,,,,,,,,,,,,,,,,1,39,99,32,1,A,X,N,o1_image,stimuli/out1.png,stimuli/correct_out1.png,stimuli/out2.png,,,,,,,,,,,,,,,,,,,,,,,,,,,,,,,,,,,,,,
,,5cf38317ada72300016a4ae0,33,male,2024-04-24_11h31.57.068,stockport_simplified,2022.2.4,MacIntel,62.5,661e456ee6de07e70aa9ef7b,6628df849d28c14230bdad21,,,,,,,,,,,,,,,,,,,,,,,,,,,,,,,,,,610.58,612.646,"[6,7,4,3,5,8,2,1]","[[0.3,0.2],[-0.3,0.2]]","[[-0.125,-0.2],[0.125,-0.2]]",-0.150195313,-0.272552083,1,0,0,1.566,o1_image,612.647,0,613.146,613.146,615.146,0,0,0,0,1,,,,,,,,,,,,,,,,,,,,,,,,,,,,,,,,,,,,,,,,,,,,,,,,,,
,,5cf38317ada72300016a4ae0,33,male,2024-04-24_11h31.57.068,stockport_simplified,2022.2.4,MacIntel,62.5,661e456ee6de07e70aa9ef7b,6628df849d28c14230bdad21,,,,,,,,,,,,,,,,,,,,,,,,,,,,,,,,,,,,,,,,,,,,,,,,,,,,,,,,1,40,100,42,1,B,X,N,o2_image,stimuli/out2.png,stimuli/out1.png,stimuli/correct_out2.png,,,,,,,,,,,,,,,,,,,,,,,,,,,,,,,,,,,,,,
,,5cf38317ada72300016a4ae0,33,male,2024-04-24_11h31.57.068,stockport_simplified,2022.2.4,MacIntel,62.5,661e456ee6de07e70aa9ef7b,6628df849d28c14230bdad21,,,,,,,,,,,,,,,,,,,,,,,,,,,,,,,,,,615.147,617.446,"[6,7,4,3,5,8,2,1]","[[0.3,0.2],[-0.3,0.2]]","[[0.125,-0.2],[-0.125,-0.2]]",-0.081067708,-0.233849826,1,0,0,1.799,o2_image,617.447,1,617.947,617.947,619.947,0,0,0,0,1,,,,,,,,,,,,,,,,,,,,,,,,,,,,,,,,,,,,,,,,,,,,,,,,,,
,,5cf38317ada72300016a4ae0,33,male,2024-04-24_11h31.57.068,stockport_simplified,2022.2.4,MacIntel,62.5,661e456ee6de07e70aa9ef7b,6628df849d28c14230bdad21,,,,,,,,,,,,,,,,,,,,,,,,,,,,,,,,,,,,,,,,,,,,,,,,,,,,,,,,1,41,101,27,1,N,M,D,o2_image,stimuli/out2.png,stimuli/out1.png,stimuli/correct_out2.png,,,,,,,,,,,,,,,,,,,,,,,,,,,,,,,,,,,,,,
,,5cf38317ada72300016a4ae0,33,male,2024-04-24_11h31.57.068,stockport_simplified,2022.2.4,MacIntel,62.5,661e456ee6de07e70aa9ef7b,6628df849d28c14230bdad21,,,,,,,,,,,,,,,,,,,,,,,,,,,,,,,,,,619.947,621.496,"[6,7,4,3,5,8,2,1]","[[-0.3,0.2],[0.3,0.2]]","[[0.125,-0.2],[-0.125,-0.2]]",-0.127782118,-0.161367188,1,0,0,1.033,o2_image,621.496,1,621.997,621.997,623.996,0,0,0,0,1,,,,,,,,,,,,,,,,,,,,,,,,,,,,,,,,,,,,,,,,,,,,,,,,,,
,,5cf38317ada72300016a4ae0,33,male,2024-04-24_11h31.57.068,stockport_simplified,2022.2.4,MacIntel,62.5,661e456ee6de07e70aa9ef7b,6628df849d28c14230bdad21,,,,,,,,,,,,,,,,,,,,,,,,,,,,,,,,,,,,,,,,,,,,,,,,,,,,,,,,1,42,102,26,1,N,M,D,o2_image,stimuli/out2.png,stimuli/out1.png,stimuli/correct_out2.png,,,,,,,,,,,,,,,,,,,,,,,,,,,,,,,,,,,,,,
,,5cf38317ada72300016a4ae0,33,male,2024-04-24_11h31.57.068,stockport_simplified,2022.2.4,MacIntel,62.5,661e456ee6de07e70aa9ef7b,6628df849d28c14230bdad21,,,,,,,,,,,,,,,,,,,,,,,,,,,,,,,,,,623.996,626.281,"[6,7,4,3,5,8,2,1]","[[-0.3,0.2],[0.3,0.2]]","[[-0.125,-0.2],[0.125,-0.2]]",-0.093658854,-0.196532118,1,0,0,1.783,o1_image,626.294,0,626.797,626.797,628.797,0,0,0,0,1,,,,,,,,,,,,,,,,,,,,,,,,,,,,,,,,,,,,,,,,,,,,,,,,,,
,,5cf38317ada72300016a4ae0,33,male,2024-04-24_11h31.57.068,stockport_simplified,2022.2.4,MacIntel,62.5,661e456ee6de07e70aa9ef7b,6628df849d28c14230bdad21,,,,,,,,,,,,,,,,,,,,,,,,,,,,,,,,,,,,,,,,,,,,,,,,,,,,,,,,1,43,103,43,1,B,X,N,o2_image,stimuli/out2.png,stimuli/out1.png,stimuli/correct_out2.png,,,,,,,,,,,,,,,,,,,,,,,,,,,,,,,,,,,,,,
,,5cf38317ada72300016a4ae0,33,male,2024-04-24_11h31.57.068,stockport_simplified,2022.2.4,MacIntel,62.5,661e456ee6de07e70aa9ef7b,6628df849d28c14230bdad21,,,,,,,,,,,,,,,,,,,,,,,,,,,,,,,,,,628.798,631.214,"[6,7,4,3,5,8,2,1]","[[-0.3,0.2],[0.3,0.2]]","[[0.125,-0.2],[-0.125,-0.2]]",0.128671875,-0.205329861,1,0,0,1.901,o1_image,631.215,1,631.714,631.714,633.713,0,0,0,0,1,,,,,,,,,,,,,,,,,,,,,,,,,,,,,,,,,,,,,,,,,,,,,,,,,,
,,5cf38317ada72300016a4ae0,33,male,2024-04-24_11h31.57.068,stockport_simplified,2022.2.4,MacIntel,62.5,661e456ee6de07e70aa9ef7b,6628df849d28c14230bdad21,,,,,,,,,,,,,,,,,,,,,,,,,,,,,,,,,,,,,,,,,,,,,,,,,,,,,,,,1,44,104,31,1,A,X,N,o1_image,stimuli/out1.png,stimuli/correct_out1.png,stimuli/out2.png,,,,,,,,,,,,,,,,,,,,,,,,,,,,,,,,,,,,,,
,,5cf38317ada72300016a4ae0,33,male,2024-04-24_11h31.57.068,stockport_simplified,2022.2.4,MacIntel,62.5,661e456ee6de07e70aa9ef7b,6628df849d28c14230bdad21,,,,,,,,,,,,,,,,,,,,,,,,,,,,,,,,,,633.714,635.331,"[6,7,4,3,5,8,2,1]","[[-0.3,0.2],[0.3,0.2]]","[[-0.125,-0.2],[0.125,-0.2]]",0.120742188,-0.255342882,1,0,0,1.116,o2_image,635.331,1,635.83,635.83,637.83,0,0,0,0,1,,,,,,,,,,,,,,,,,,,,,,,,,,,,,,,,,,,,,,,,,,,,,,,,,,
,,5cf38317ada72300016a4ae0,33,male,2024-04-24_11h31.57.068,stockport_simplified,2022.2.4,MacIntel,62.5,661e456ee6de07e70aa9ef7b,6628df849d28c14230bdad21,,,,,,,,,,,,,,,,,,,,,,,,,,,,,,,,,,,,,,,,,,,,,,,,,,,,,,,,1,45,105,28,1,N,M,D,o2_image,stimuli/out2.png,stimuli/out1.png,stimuli/correct_out2.png,,,,,,,,,,,,,,,,,,,,,,,,,,,,,,,,,,,,,,
,,5cf38317ada72300016a4ae0,33,male,2024-04-24_11h31.57.068,stockport_simplified,2022.2.4,MacIntel,62.5,661e456ee6de07e70aa9ef7b,6628df849d28c14230bdad21,,,,,,,,,,,,,,,,,,,,,,,,,,,,,,,,,,637.83,639.964,"[6,7,4,3,5,8,2,1]","[[-0.3,0.2],[0.3,0.2]]","[[0.125,-0.2],[-0.125,-0.2]]",-0.131918403,-0.254986979,1,0,0,1.634,o2_image,639.964,0,640.464,640.464,642.464,0,0,0,0,1,,,,,,,,,,,,,,,,,,,,,,,,,,,,,,,,,,,,,,,,,,,,,,,,,,
,,5cf38317ada72300016a4ae0,33,male,2024-04-24_11h31.57.068,stockport_simplified,2022.2.4,MacIntel,62.5,661e456ee6de07e70aa9ef7b,6628df849d28c14230bdad21,,,,,,,,,,,,,,,,,,,,,,,,,,,,,,,,,,,,,,,,,,,,,,,,,,,,,,,,1,46,106,7,1,A,Y,N,o1_image,stimuli/out1.png,stimuli/correct_out1.png,stimuli/out2.png,,,,,,,,,,,,,,,,,,,,,,,,,,,,,,,,,,,,,,
,,5cf38317ada72300016a4ae0,33,male,2024-04-24_11h31.57.068,stockport_simplified,2022.2.4,MacIntel,62.5,661e456ee6de07e70aa9ef7b,6628df849d28c14230bdad21,,,,,,,,,,,,,,,,,,,,,,,,,,,,,,,,,,642.465,644.08,"[6,7,4,3,5,8,2,1]","[[0.3,0.2],[-0.3,0.2]]","[[-0.125,-0.2],[0.125,-0.2]]",-0.106215278,-0.195394965,1,0,0,1.099,o1_image,644.081,1,644.58,644.58,646.58,0,0,0,0,1,,,,,,,,,,,,,,,,,,,,,,,,,,,,,,,,,,,,,,,,,,,,,,,,,,
,,5cf38317ada72300016a4ae0,33,male,2024-04-24_11h31.57.068,stockport_simplified,2022.2.4,MacIntel,62.5,661e456ee6de07e70aa9ef7b,6628df849d28c14230bdad21,,,,,,,,,,,,,,,,,,,,,,,,,,,,,,,,,,,,,,,,,,,,,,,,,,,,,,,,1,47,107,53,1,N,M,C,o1_image,stimuli/out1.png,stimuli/correct_out1.png,stimuli/out2.png,,,,,,,,,,,,,,,,,,,,,,,,,,,,,,,,,,,,,,
,,5cf38317ada72300016a4ae0,33,male,2024-04-24_11h31.57.068,stockport_simplified,2022.2.4,MacIntel,62.5,661e456ee6de07e70aa9ef7b,6628df849d28c14230bdad21,,,,,,,,,,,,,,,,,,,,,,,,,,,,,,,,,,646.582,648.63,"[6,7,4,3,5,8,2,1]","[[-0.3,0.2],[0.3,0.2]]","[[0.125,-0.2],[-0.125,-0.2]]",-0.118793403,-0.185720486,1,0,0,1.532,o2_image,648.631,0,649.135,649.135,651.13,0,0,0,0,1,,,,,,,,,,,,,,,,,,,,,,,,,,,,,,,,,,,,,,,,,,,,,,,,,,
,,5cf38317ada72300016a4ae0,33,male,2024-04-24_11h31.57.068,stockport_simplified,2022.2.4,MacIntel,62.5,661e456ee6de07e70aa9ef7b,6628df849d28c14230bdad21,,,,,,,,,,,,,,,,,,,,,,,,,,,,,,,,,,,,,,,,,,,,,,,,,,,,,,,,1,48,108,9,1,A,Y,N,o1_image,stimuli/out1.png,stimuli/correct_out1.png,stimuli/out2.png,,,,,,,,,,,,,,,,,,,,,,,,,,,,,,,,,,,,,,
,,5cf38317ada72300016a4ae0,33,male,2024-04-24_11h31.57.068,stockport_simplified,2022.2.4,MacIntel,62.5,661e456ee6de07e70aa9ef7b,6628df849d28c14230bdad21,,,,,,,,,,,,,,,,,,,,,,,,,,,,,,,,,,651.131,652.647,"[6,7,4,3,5,8,2,1]","[[0.3,0.2],[-0.3,0.2]]","[[-0.125,-0.2],[0.125,-0.2]]",0.120802951,-0.205703125,1,0,0,1.016,o2_image,652.647,1,653.147,653.147,655.146,0,0,0,0,1,,,,,,,,,,,,,,,,,,,,,,,,,,,,,,,,,,,,,,,,,,,,,,,,,,
,,5cf38317ada72300016a4ae0,33,male,2024-04-24_11h31.57.068,stockport_simplified,2022.2.4,MacIntel,62.5,661e456ee6de07e70aa9ef7b,6628df849d28c14230bdad21,,,,,,,,,,,,,,,,,,,,,,,,,,,,,,,,,,,,,,,,,,,,,,,,,,,,,,,,1,49,109,57,1,N,M,D,o2_image,stimuli/out2.png,stimuli/out1.png,stimuli/correct_out2.png,,,,,,,,,,,,,,,,,,,,,,,,,,,,,,,,,,,,,,
,,5cf38317ada72300016a4ae0,33,male,2024-04-24_11h31.57.068,stockport_simplified,2022.2.4,MacIntel,62.5,661e456ee6de07e70aa9ef7b,6628df849d28c14230bdad21,,,,,,,,,,,,,,,,,,,,,,,,,,,,,,,,,,655.147,657.164,"[6,7,4,3,5,8,2,1]","[[-0.3,0.2],[0.3,0.2]]","[[0.125,-0.2],[-0.125,-0.2]]",0.120551215,-0.226054687,1,0,0,1.517,o1_image,657.164,1,657.665,657.665,659.665,0,0,0,0,1,,,,,,,,,,,,,,,,,,,,,,,,,,,,,,,,,,,,,,,,,,,,,,,,,,
,,5cf38317ada72300016a4ae0,33,male,2024-04-24_11h31.57.068,stockport_simplified,2022.2.4,MacIntel,62.5,661e456ee6de07e70aa9ef7b,6628df849d28c14230bdad21,,,,,,,,,,,,,,,,,,,,,,,,,,,,,,,,,,,,,,,,,,,,,,,,,,,,,,,,1,50,110,3,1,A,X,N,o1_image,stimuli/out1.png,stimuli/correct_out1.png,stimuli/out2.png,,,,,,,,,,,,,,,,,,,,,,,,,,,,,,,,,,,,,,
,,5cf38317ada72300016a4ae0,33,male,2024-04-24_11h31.57.068,stockport_simplified,2022.2.4,MacIntel,62.5,661e456ee6de07e70aa9ef7b,6628df849d28c14230bdad21,,,,,,,,,,,,,,,,,,,,,,,,,,,,,,,,,,659.665,661.697,"[6,7,4,3,5,8,2,1]","[[0.3,0.2],[-0.3,0.2]]","[[-0.125,-0.2],[0.125,-0.2]]",0.16047309,-0.258298611,1,0,0,1.516,o2_image,661.698,0,662.197,662.197,664.198,0,0,0,0,1,,,,,,,,,,,,,,,,,,,,,,,,,,,,,,,,,,,,,,,,,,,,,,,,,,
,,5cf38317ada72300016a4ae0,33,male,2024-04-24_11h31.57.068,stockport_simplified,2022.2.4,MacIntel,62.5,661e456ee6de07e70aa9ef7b,6628df849d28c14230bdad21,,,,,,,,,,,,,,,,,,,,,,,,,,,,,,,,,,,,,,,,,,,,,,,,,,,,,,,,1,51,111,38,1,A,Y,N,o1_image,stimuli/out1.png,stimuli/correct_out1.png,stimuli/out2.png,,,,,,,,,,,,,,,,,,,,,,,,,,,,,,,,,,,,,,
,,5cf38317ada72300016a4ae0,33,male,2024-04-24_11h31.57.068,stockport_simplified,2022.2.4,MacIntel,62.5,661e456ee6de07e70aa9ef7b,6628df849d28c14230bdad21,,,,,,,,,,,,,,,,,,,,,,,,,,,,,,,,,,664.198,666.031,"[6,7,4,3,5,8,2,1]","[[-0.3,0.2],[0.3,0.2]]","[[0.125,-0.2],[-0.125,-0.2]]",0.143880208,-0.205325521,1,0,0,1.332,o1_image,666.031,1,666.53,666.53,668.531,0,0,0,0,1,,,,,,,,,,,,,,,,,,,,,,,,,,,,,,,,,,,,,,,,,,,,,,,,,,
,,5cf38317ada72300016a4ae0,33,male,2024-04-24_11h31.57.068,stockport_simplified,2022.2.4,MacIntel,62.5,661e456ee6de07e70aa9ef7b,6628df849d28c14230bdad21,,,,,,,,,,,,,,,,,,,,,,,,,,,,,,,,,,,,,,,,,,,,,,,,,,,,,,,,1,52,112,30,1,A,X,N,o1_image,stimuli/out1.png,stimuli/correct_out1.png,stimuli/out2.png,,,,,,,,,,,,,,,,,,,,,,,,,,,,,,,,,,,,,,
,,5cf38317ada72300016a4ae0,33,male,2024-04-24_11h31.57.068,stockport_simplified,2022.2.4,MacIntel,62.5,661e456ee6de07e70aa9ef7b,6628df849d28c14230bdad21,,,,,,,,,,,,,,,,,,,,,,,,,,,,,,,,,,668.531,670.381,"[6,7,4,3,5,8,2,1]","[[0.3,0.2],[-0.3,0.2]]","[[0.125,-0.2],[-0.125,-0.2]]",0.090672743,-0.219023438,1,0,0,1.35,o1_image,670.382,1,670.881,670.881,672.881,0,0,0,0,1,,,,,,,,,,,,,,,,,,,,,,,,,,,,,,,,,,,,,,,,,,,,,,,,,,
,,5cf38317ada72300016a4ae0,33,male,2024-04-24_11h31.57.068,stockport_simplified,2022.2.4,MacIntel,62.5,661e456ee6de07e70aa9ef7b,6628df849d28c14230bdad21,,,,,,,,,,,,,,,,,,,,,,,,,,,,,,,,,,,,,,,,,,,,,,,,,,,,,,,,1,53,113,2,1,A,X,N,o1_image,stimuli/out1.png,stimuli/correct_out1.png,stimuli/out2.png,,,,,,,,,,,,,,,,,,,,,,,,,,,,,,,,,,,,,,
,,5cf38317ada72300016a4ae0,33,male,2024-04-24_11h31.57.068,stockport_simplified,2022.2.4,MacIntel,62.5,661e456ee6de07e70aa9ef7b,6628df849d28c14230bdad21,,,,,,,,,,,,,,,,,,,,,,,,,,,,,,,,,,672.881,674.797,"[6,7,4,3,5,8,2,1]","[[0.3,0.2],[-0.3,0.2]]","[[-0.125,-0.2],[0.125,-0.2]]",-0.115069444,-0.176167535,1,0,0,1.416,o1_image,674.798,0,675.298,675.298,677.298,0,0,0,0,1,,,,,,,,,,,,,,,,,,,,,,,,,,,,,,,,,,,,,,,,,,,,,,,,,,
,,5cf38317ada72300016a4ae0,33,male,2024-04-24_11h31.57.068,stockport_simplified,2022.2.4,MacIntel,62.5,661e456ee6de07e70aa9ef7b,6628df849d28c14230bdad21,,,,,,,,,,,,,,,,,,,,,,,,,,,,,,,,,,,,,,,,,,,,,,,,,,,,,,,,1,54,114,41,1,B,X,N,o2_image,stimuli/out2.png,stimuli/out1.png,stimuli/correct_out2.png,,,,,,,,,,,,,,,,,,,,,,,,,,,,,,,,,,,,,,
,,5cf38317ada72300016a4ae0,33,male,2024-04-24_11h31.57.068,stockport_simplified,2022.2.4,MacIntel,62.5,661e456ee6de07e70aa9ef7b,6628df849d28c14230bdad21,,,,,,,,,,,,,,,,,,,,,,,,,,,,,,,,,,677.298,680.214,"[6,7,4,3,5,8,2,1]","[[0.3,0.2],[-0.3,0.2]]","[[-0.125,-0.2],[0.125,-0.2]]",0.110555556,-0.201779514,1,0,0,2.415,o2_image,680.214,0,680.715,680.715,682.715,0,0,0,0,1,,,,,,,,,,,,,,,,,,,,,,,,,,,,,,,,,,,,,,,,,,,,,,,,,,
,,5cf38317ada72300016a4ae0,33,male,2024-04-24_11h31.57.068,stockport_simplified,2022.2.4,MacIntel,62.5,661e456ee6de07e70aa9ef7b,6628df849d28c14230bdad21,,,,,,,,,,,,,,,,,,,,,,,,,,,,,,,,,,,,,,,,,,,,,,,,,,,,,,,,1,55,115,36,1,A,Y,N,o1_image,stimuli/out1.png,stimuli/correct_out1.png,stimuli/out2.png,,,,,,,,,,,,,,,,,,,,,,,,,,,,,,,,,,,,,,
,,5cf38317ada72300016a4ae0,33,male,2024-04-24_11h31.57.068,stockport_simplified,2022.2.4,MacIntel,62.5,661e456ee6de07e70aa9ef7b,6628df849d28c14230bdad21,,,,,,,,,,,,,,,,,,,,,,,,,,,,,,,,,,682.716,684.364,"[6,7,4,3,5,8,2,1]","[[-0.3,0.2],[0.3,0.2]]","[[-0.125,-0.2],[0.125,-0.2]]",0.110555556,-0.201779514,1,0,0,1.132,o2_image,684.365,1,684.865,684.865,686.865,0,0,0,0,1,,,,,,,,,,,,,,,,,,,,,,,,,,,,,,,,,,,,,,,,,,,,,,,,,,
,,5cf38317ada72300016a4ae0,33,male,2024-04-24_11h31.57.068,stockport_simplified,2022.2.4,MacIntel,62.5,661e456ee6de07e70aa9ef7b,6628df849d28c14230bdad21,,,,,,,,,,,,,,,,,,,,,,,,,,,,,,,,,,,,,,,,,,,,,,,,,,,,,,,,1,56,116,29,1,N,M,D,o2_image,stimuli/out2.png,stimuli/out1.png,stimuli/correct_out2.png,,,,,,,,,,,,,,,,,,,,,,,,,,,,,,,,,,,,,,
,,5cf38317ada72300016a4ae0,33,male,2024-04-24_11h31.57.068,stockport_simplified,2022.2.4,MacIntel,62.5,661e456ee6de07e70aa9ef7b,6628df849d28c14230bdad21,,,,,,,,,,,,,,,,,,,,,,,,,,,,,,,,,,686.865,689.714,"[6,7,4,3,5,8,2,1]","[[-0.3,0.2],[0.3,0.2]]","[[0.125,-0.2],[-0.125,-0.2]]",0.106206597,-0.236263021,1,0,0,2.332,o1_image,689.715,1,690.215,690.215,692.215,0,0,0,0,1,,,,,,,,,,,,,,,,,,,,,,,,,,,,,,,,,,,,,,,,,,,,,,,,,,
,,5cf38317ada72300016a4ae0,33,male,2024-04-24_11h31.57.068,stockport_simplified,2022.2.4,MacIntel,62.5,661e456ee6de07e70aa9ef7b,6628df849d28c14230bdad21,,,,,,,,,,,,,,,,,,,,,,,,,,,,,,,,,,,,,,,,,,,,,,,,,,,,,,,,1,57,117,0,1,A,X,N,o1_image,stimuli/out1.png,stimuli/correct_out1.png,stimuli/out2.png,,,,,,,,,,,,,,,,,,,,,,,,,,,,,,,,,,,,,,
,,5cf38317ada72300016a4ae0,33,male,2024-04-24_11h31.57.068,stockport_simplified,2022.2.4,MacIntel,62.5,661e456ee6de07e70aa9ef7b,6628df849d28c14230bdad21,,,,,,,,,,,,,,,,,,,,,,,,,,,,,,,,,,692.215,694.298,"[6,7,4,3,5,8,2,1]","[[0.3,0.2],[-0.3,0.2]]","[[0.125,-0.2],[-0.125,-0.2]]",-0.182829861,-0.214270833,1,0,0,1.583,o2_image,694.31,0,694.798,694.798,696.798,0,0,0,0,1,,,,,,,,,,,,,,,,,,,,,,,,,,,,,,,,,,,,,,,,,,,,,,,,,,
,,5cf38317ada72300016a4ae0,33,male,2024-04-24_11h31.57.068,stockport_simplified,2022.2.4,MacIntel,62.5,661e456ee6de07e70aa9ef7b,6628df849d28c14230bdad21,,,,,,,,,,,,,,,,,,,,,,,,,,,,,,,,,,,,,,,,,,,,,,,,,,,,,,,,1,58,118,37,1,A,Y,N,o1_image,stimuli/out1.png,stimuli/correct_out1.png,stimuli/out2.png,,,,,,,,,,,,,,,,,,,,,,,,,,,,,,,,,,,,,,
,,5cf38317ada72300016a4ae0,33,male,2024-04-24_11h31.57.068,stockport_simplified,2022.2.4,MacIntel,62.5,661e456ee6de07e70aa9ef7b,6628df849d28c14230bdad21,,,,,,,,,,,,,,,,,,,,,,,,,,,,,,,,,,696.799,699.014,"[6,7,4,3,5,8,2,1]","[[0.3,0.2],[-0.3,0.2]]","[[-0.125,-0.2],[0.125,-0.2]]",-0.132960069,-0.183654514,1,0,0,1.7,o1_image,699.015,1,699.515,699.515,701.515,0,0,0,0,1,,,,,,,,,,,,,,,,,,,,,,,,,,,,,,,,,,,,,,,,,,,,,,,,,,
,,5cf38317ada72300016a4ae0,33,male,2024-04-24_11h31.57.068,stockport_simplified,2022.2.4,MacIntel,62.5,661e456ee6de07e70aa9ef7b,6628df849d28c14230bdad21,,,,,,,,,,,,,,,,,,,,,,,,,,,,,,,,,,,,,,,,,,,,,,,,,,,,,,,,1,59,119,8,1,A,Y,N,o1_image,stimuli/out1.png,stimuli/correct_out1.png,stimuli/out2.png,,,,,,,,,,,,,,,,,,,,,,,,,,,,,,,,,,,,,,
,,5cf38317ada72300016a4ae0,33,male,2024-04-24_11h31.57.068,stockport_simplified,2022.2.4,MacIntel,62.5,661e456ee6de07e70aa9ef7b,6628df849d28c14230bdad21,,,,,,,,,,,,,,,,,,,,,,,,,,,,,,,,,,701.531,703.698,"[6,7,4,3,5,8,2,1]","[[-0.3,0.2],[0.3,0.2]]","[[0.125,-0.2],[-0.125,-0.2]]",0.073893229,-0.19062066,1,0,0,1.666,o1_image,703.699,1,704.198,704.198,706.198,,,,,,,,,,,,,,,,,,0,0,0,0,1,,,,,,,,,,,,,,,,,,,,,,,,,,,,,,,,,
,,5cf38317ada72300016a4ae0,33,male,2024-04-24_11h31.57.068,stockport_simplified,2022.2.4,MacIntel,62.5,661e456ee6de07e70aa9ef7b,6628df849d28c14230bdad21,,,,,,,,,,,,,,,,,,,,,,,,,,,,,,,,,,,,,,,,,,,,,,,,,,,,,,,,,,,,,A,X,N,o1_image,stimuli/out1.png,stimuli/correct_out1.png,stimuli/out2.png,,,,,,0,0,0,1,1,,,,,,,,,,,,,,,,,,,,,,,,,,,,
,,5cf38317ada72300016a4ae0,33,male,2024-04-24_11h31.57.068,stockport_simplified,2022.2.4,MacIntel,62.5,661e456ee6de07e70aa9ef7b,6628df849d28c14230bdad21,,,,,,,,,,,,,,,,,,,,,,,,,,,,,,,,,,706.199,708.416,"[6,7,4,3,5,8,2,1]","[[-0.3,0.2],[0.3,0.2]]","[[-0.125,-0.2],[0.125,-0.2]]",-0.078289931,-0.244474826,1,0,0,1.716,o1_image,708.43,0,708.932,708.932,710.932,,,,,,,,,,,,,,,,,,0,0,0,0,1,,,,,,,,,,,,,,,,,,,,,,,,,,,,,,,,,
,,5cf38317ada72300016a4ae0,33,male,2024-04-24_11h31.57.068,stockport_simplified,2022.2.4,MacIntel,62.5,661e456ee6de07e70aa9ef7b,6628df849d28c14230bdad21,,,,,,,,,,,,,,,,,,,,,,,,,,,,,,,,,,,,,,,,,,,,,,,,,,,,,,,,,,,,,B,X,N,o2_image,stimuli/out2.png,stimuli/out1.png,stimuli/correct_out2.png,,,,,,0,1,1,22,1,,,,,,,,,,,,,,,,,,,,,,,,,,,,
,,5cf38317ada72300016a4ae0,33,male,2024-04-24_11h31.57.068,stockport_simplified,2022.2.4,MacIntel,62.5,661e456ee6de07e70aa9ef7b,6628df849d28c14230bdad21,,,,,,,,,,,,,,,,,,,,,,,,,,,,,,,,,,710.932,713.931,"[6,7,4,3,5,8,2,1]","[[0.3,0.2],[-0.3,0.2]]","[[-0.125,-0.2],[0.125,-0.2]]",-0.073823785,-0.193220486,1,0,0,2.482,o1_image,713.931,1,714.432,714.432,716.432,,,,,,,,,,,,,,,,,,0,0,0,0,1,,,,,,,,,,,,,,,,,,,,,,,,,,,,,,,,,
,,5cf38317ada72300016a4ae0,33,male,2024-04-24_11h31.57.068,stockport_simplified,2022.2.4,MacIntel,62.5,661e456ee6de07e70aa9ef7b,6628df849d28c14230bdad21,,,,,,,,,,,,,,,,,,,,,,,,,,,,,,,,,,,,,,,,,,,,,,,,,,,,,,,,,,,,,A,Y,N,o1_image,stimuli/out1.png,stimuli/correct_out1.png,stimuli/out2.png,,,,,,0,2,2,15,1,,,,,,,,,,,,,,,,,,,,,,,,,,,,
,,5cf38317ada72300016a4ae0,33,male,2024-04-24_11h31.57.068,stockport_simplified,2022.2.4,MacIntel,62.5,661e456ee6de07e70aa9ef7b,6628df849d28c14230bdad21,,,,,,,,,,,,,,,,,,,,,,,,,,,,,,,,,,716.432,718.014,"[6,7,4,3,5,8,2,1]","[[-0.3,0.2],[0.3,0.2]]","[[-0.125,-0.2],[0.125,-0.2]]",0.098967014,-0.222139757,1,0,0,1.065,o2_image,718.015,1,718.516,718.516,720.515,,,,,,,,,,,,,,,,,,0,0,0,0,1,,,,,,,,,,,,,,,,,,,,,,,,,,,,,,,,,
,,5cf38317ada72300016a4ae0,33,male,2024-04-24_11h31.57.068,stockport_simplified,2022.2.4,MacIntel,62.5,661e456ee6de07e70aa9ef7b,6628df849d28c14230bdad21,,,,,,,,,,,,,,,,,,,,,,,,,,,,,,,,,,,,,,,,,,,,,,,,,,,,,,,,,,,,,N,M,D,o2_image,stimuli/out2.png,stimuli/out1.png,stimuli/correct_out2.png,,,,,,0,3,3,57,1,,,,,,,,,,,,,,,,,,,,,,,,,,,,
,,5cf38317ada72300016a4ae0,33,male,2024-04-24_11h31.57.068,stockport_simplified,2022.2.4,MacIntel,62.5,661e456ee6de07e70aa9ef7b,6628df849d28c14230bdad21,,,,,,,,,,,,,,,,,,,,,,,,,,,,,,,,,,720.516,722.665,"[6,7,4,3,5,8,2,1]","[[0.3,0.2],[-0.3,0.2]]","[[0.125,-0.2],[-0.125,-0.2]]",0.066948785,-0.178528646,1,0,0,1.633,o1_image,722.665,1,723.166,723.166,725.166,,,,,,,,,,,,,,,,,,0,0,0,0,1,,,,,,,,,,,,,,,,,,,,,,,,,,,,,,,,,
,,5cf38317ada72300016a4ae0,33,male,2024-04-24_11h31.57.068,stockport_simplified,2022.2.4,MacIntel,62.5,661e456ee6de07e70aa9ef7b,6628df849d28c14230bdad21,,,,,,,,,,,,,,,,,,,,,,,,,,,,,,,,,,,,,,,,,,,,,,,,,,,,,,,,,,,,,A,Y,N,o1_image,stimuli/out1.png,stimuli/correct_out1.png,stimuli/out2.png,,,,,,0,4,4,12,1,,,,,,,,,,,,,,,,,,,,,,,,,,,,
,,5cf38317ada72300016a4ae0,33,male,2024-04-24_11h31.57.068,stockport_simplified,2022.2.4,MacIntel,62.5,661e456ee6de07e70aa9ef7b,6628df849d28c14230bdad21,,,,,,,,,,,,,,,,,,,,,,,,,,,,,,,,,,725.166,728.215,"[6,7,4,3,5,8,2,1]","[[-0.3,0.2],[0.3,0.2]]","[[0.125,-0.2],[-0.125,-0.2]]",0.138038194,-0.172022569,1,0,0,2.532,o1_image,728.216,1,728.715,728.715,730.716,,,,,,,,,,,,,,,,,,0,0,0,0,1,,,,,,,,,,,,,,,,,,,,,,,,,,,,,,,,,
,,5cf38317ada72300016a4ae0,33,male,2024-04-24_11h31.57.068,stockport_simplified,2022.2.4,MacIntel,62.5,661e456ee6de07e70aa9ef7b,6628df849d28c14230bdad21,,,,,,,,,,,,,,,,,,,,,,,,,,,,,,,,,,,,,,,,,,,,,,,,,,,,,,,,,,,,,B,X,N,o1_image,stimuli/out1.png,stimuli/correct_out1.png,stimuli/out2.png,,,,,,0,5,5,26,1,,,,,,,,,,,,,,,,,,,,,,,,,,,,
,,5cf38317ada72300016a4ae0,33,male,2024-04-24_11h31.57.068,stockport_simplified,2022.2.4,MacIntel,62.5,661e456ee6de07e70aa9ef7b,6628df849d28c14230bdad21,,,,,,,,,,,,,,,,,,,,,,,,,,,,,,,,,,730.716,733.881,"[6,7,4,3,5,8,2,1]","[[0.3,0.2],[-0.3,0.2]]","[[-0.125,-0.2],[0.125,-0.2]]",0.107057292,-0.159509549,1,0,0,2.665,o2_image,733.882,1,734.382,734.382,736.382,,,,,,,,,,,,,,,,,,0,0,0,0,1,,,,,,,,,,,,,,,,,,,,,,,,,,,,,,,,,
,,5cf38317ada72300016a4ae0,33,male,2024-04-24_11h31.57.068,stockport_simplified,2022.2.4,MacIntel,62.5,661e456ee6de07e70aa9ef7b,6628df849d28c14230bdad21,,,,,,,,,,,,,,,,,,,,,,,,,,,,,,,,,,,,,,,,,,,,,,,,,,,,,,,,,,,,,B,Y,N,o2_image,stimuli/out2.png,stimuli/out1.png,stimuli/correct_out2.png,,,,,,0,6,6,35,1,,,,,,,,,,,,,,,,,,,,,,,,,,,,
