counterbalance_2.started,counterbalance_2.stopped,participant,age,gender,date,expName,psychopyVersion,OS,frameRate,STUDY_ID,SESSION_ID,information_2.started,information_2.stopped,information_loop.thisRepN,information_loop.thisTrialN,information_loop.thisN,information_loop.thisIndex,information_loop.ran,information,consent_2.started,consent_2.stopped,slider_1.response,slider_2.response,slider_3.response,slider_4.response,slider_5.response,slider_6.response,instructions.started,instructions.stopped,task1_instr.thisRepN,task1_instr.thisTrialN,task1_instr.thisN,task1_instr.thisIndex,task1_instr.ran,task1,comprehension1_2.started,comprehension1_2.stopped,comp1_mouse.x,comp1_mouse.y,comp1_mouse.leftButton,comp1_mouse.midButton,comp1_mouse.rightButton,comp1_mouse.time,comp1_mouse.clicked_name,cue_o__trial_2.started,cue_o__trial_2.stopped,order,cue_order,out_order,cue_o_mouse.x,cue_o_mouse.y,cue_o_mouse.leftButton,cue_o_mouse.midButton,cue_o_mouse.rightButton,cue_o_mouse.time,cue_o_mouse.clicked_name,cue_selection_2.started,correct_answer,cue_selection_2.stopped,feedback_2.started,feedback_2.stopped,feedback_loop.thisRepN,feedback_loop.thisTrialN,feedback_loop.thisN,feedback_loop.thisIndex,feedback_loop.ran,stage1_trials.thisRepN,stage1_trials.thisTrialN,stage1_trials.thisN,stage1_trials.thisIndex,stage1_trials.ran,cue1,cue2,cue3,outcome,correct_out,o1_feedback,o2_feedback,stage2_feedback_loop.thisRepN,stage2_feedback_loop.thisTrialN,stage2_feedback_loop.thisN,stage2_feedback_loop.thisIndex,stage2_feedback_loop.ran,stage2_trials.thisRepN,stage2_trials.thisTrialN,stage2_trials.thisN,stage2_trials.thisIndex,stage2_trials.ran,stage3_feedback_loop.thisRepN,stage3_feedback_loop.thisTrialN,stage3_feedback_loop.thisN,stage3_feedback_loop.thisIndex,stage3_feedback_loop.ran,stage3_trials.thisRepN,stage3_trials.thisTrialN,stage3_trials.thisN,stage3_trials.thisIndex,stage3_trials.ran,debrief_2.started,debrief_2.stopped,debrief_loop.thisRepN,debrief_loop.thisTrialN,debrief_loop.thisN,debrief_loop.thisIndex,debrief_loop.ran,debrief_img,compr1_completed.thisRepN,compr1_completed.thisTrialN,compr1_completed.thisN,compr1_completed.thisIndex,compr1_completed.ran,consent_loop.thisRepN,consent_loop.thisTrialN,consent_loop.thisN,consent_loop.thisIndex,consent_loop.ran
0.0004,0.0005,60a3a03bc01ba594c9cca88d,31,female,2024-04-24_12h33.29.223,stockport_simplified,2022.2.4,Win32,59.88023952,661e456ee6de07e70aa9ef7b,6628df81af01ed4d48ca786d,,,,,,,,,,,,,,,,,,,,,,,,,,,,,,,,,,,,,,,,,,,,,,,,,,,,,,,,,,,,,,,,,,,,,,,,,,,,,,,,,,,,,,,,,,,,,,,,,,,,,,,,,
,,60a3a03bc01ba594c9cca88d,31,female,2024-04-24_12h33.29.223,stockport_simplified,2022.2.4,Win32,59.88023952,661e456ee6de07e70aa9ef7b,6628df81af01ed4d48ca786d,0.0175,73.1266,0,0,0,0,1,instructions/info1.png,,,,,,,,,,,,,,,,,,,,,,,,,,,,,,,,,,,,,,,,,,,,,,,,,,,,,,,,,,,,,,,,,,,,,,,,,,,,,,,,,,,,,,,,,,,,,,,,,
,,60a3a03bc01ba594c9cca88d,31,female,2024-04-24_12h33.29.223,stockport_simplified,2022.2.4,Win32,59.88023952,661e456ee6de07e70aa9ef7b,6628df81af01ed4d48ca786d,73.1269,101.402,0,1,1,1,1,instructions/info2.png,,,,,,,,,,,,,,,,,,,,,,,,,,,,,,,,,,,,,,,,,,,,,,,,,,,,,,,,,,,,,,,,,,,,,,,,,,,,,,,,,,,,,,,,,,,,,,,,,
,,60a3a03bc01ba594c9cca88d,31,female,2024-04-24_12h33.29.223,stockport_simplified,2022.2.4,Win32,59.88023952,661e456ee6de07e70aa9ef7b,6628df81af01ed4d48ca786d,101.4218,117.6038,0,2,2,2,1,instructions/info3.png,,,,,,,,,,,,,,,,,,,,,,,,,,,,,,,,,,,,,,,,,,,,,,,,,,,,,,,,,,,,,,,,,,,,,,,,,,,,,,,,,,,,,,,,,,,,,,,,,
,,60a3a03bc01ba594c9cca88d,31,female,2024-04-24_12h33.29.223,stockport_simplified,2022.2.4,Win32,59.88023952,661e456ee6de07e70aa9ef7b,6628df81af01ed4d48ca786d,,,,,,,,,117.6234,158.853,1,1,1,1,1,1,,,,,,,,,,,,,,,,,,,,,,,,,,,,,,,,,,,,,,,,,,,,,,,,,,,,,,,,,,,,,,,,,,,,,,,,,,,,,,,,,,,,,,,,,
,,60a3a03bc01ba594c9cca88d,31,female,2024-04-24_12h33.29.223,stockport_simplified,2022.2.4,Win32,59.88023952,661e456ee6de07e70aa9ef7b,6628df81af01ed4d48ca786d,,,,,,,,,,,,,,,,,158.8735,214.1701,0,0,0,0,1,instructions/task1_1.png,,,,,,,,,,,,,,,,,,,,,,,,,,,,,,,,,,,,,,,,,,,,,,,,,,,,,,,,,,,,,,,,,,,,,,,,,,,,,,,,,
,,60a3a03bc01ba594c9cca88d,31,female,2024-04-24_12h33.29.223,stockport_simplified,2022.2.4,Win32,59.88023952,661e456ee6de07e70aa9ef7b,6628df81af01ed4d48ca786d,,,,,,,,,,,,,,,,,214.1872,240.4188,0,1,1,1,1,instructions/task1_2.png,,,,,,,,,,,,,,,,,,,,,,,,,,,,,,,,,,,,,,,,,,,,,,,,,,,,,,,,,,,,,,,,,,,,,,,,,,,,,,,,,
,,60a3a03bc01ba594c9cca88d,31,female,2024-04-24_12h33.29.223,stockport_simplified,2022.2.4,Win32,59.88023952,661e456ee6de07e70aa9ef7b,6628df81af01ed4d48ca786d,,,,,,,,,,,,,,,,,240.4285,282.1859,0,2,2,2,1,instructions/task1_3.png,,,,,,,,,,,,,,,,,,,,,,,,,,,,,,,,,,,,,,,,,,,,,,,,,,,,,,,,,,,,,,,,,,,,,,,,,,,,,,,,,
,,60a3a03bc01ba594c9cca88d,31,female,2024-04-24_12h33.29.223,stockport_simplified,2022.2.4,Win32,59.88023952,661e456ee6de07e70aa9ef7b,6628df81af01ed4d48ca786d,,,,,,,,,,,,,,,,,,,,,,,,,282.1875,326.4539,-0.125925926,-0.325,1,0,0,44.2658,comp1_resp1,326.4748,329.8043,"[7,5,4,1,6,8,2,3]","[[0.3,0.2],[-0.3,0.2]]","[[0.125,-0.2],[-0.125,-0.2]]",-0.119444444,-0.202777778,1,0,0,2.8165,o2_image,329.8077,0,330.3035,330.3041,332.303,0,0,0,0,1,,,,,,,,,,,,,,,,,,,,,,,,,,,,,,,,,,,,,,,,,,,,,,,,,,
,,60a3a03bc01ba594c9cca88d,31,female,2024-04-24_12h33.29.223,stockport_simplified,2022.2.4,Win32,59.88023952,661e456ee6de07e70aa9ef7b,6628df81af01ed4d48ca786d,,,,,,,,,,,,,,,,,,,,,,,,,,,,,,,,,,,,,,,,,,,,,,,,,,,,,,,,0,0,0,37,1,A,Y,N,o1_image,stimuli/out1.png,stimuli/correct_out1.png,stimuli/out2.png,,,,,,,,,,,,,,,,,,,,,,,,,,,,,,,,,,,,,,
,,60a3a03bc01ba594c9cca88d,31,female,2024-04-24_12h33.29.223,stockport_simplified,2022.2.4,Win32,59.88023952,661e456ee6de07e70aa9ef7b,6628df81af01ed4d48ca786d,,,,,,,,,,,,,,,,,,,,,,,,,,,,,,,,,,332.3042,334.6694,"[7,5,4,1,6,8,2,3]","[[0.3,0.2],[-0.3,0.2]]","[[-0.125,-0.2],[0.125,-0.2]]",-0.122222222,-0.199074074,1,0,0,1.8498,o1_image,334.6842,1,335.1861,335.1862,337.1872,0,0,0,0,1,,,,,,,,,,,,,,,,,,,,,,,,,,,,,,,,,,,,,,,,,,,,,,,,,,
,,60a3a03bc01ba594c9cca88d,31,female,2024-04-24_12h33.29.223,stockport_simplified,2022.2.4,Win32,59.88023952,661e456ee6de07e70aa9ef7b,6628df81af01ed4d48ca786d,,,,,,,,,,,,,,,,,,,,,,,,,,,,,,,,,,,,,,,,,,,,,,,,,,,,,,,,0,1,1,35,1,A,Y,N,o1_image,stimuli/out1.png,stimuli/correct_out1.png,stimuli/out2.png,,,,,,,,,,,,,,,,,,,,,,,,,,,,,,,,,,,,,,
,,60a3a03bc01ba594c9cca88d,31,female,2024-04-24_12h33.29.223,stockport_simplified,2022.2.4,Win32,59.88023952,661e456ee6de07e70aa9ef7b,6628df81af01ed4d48ca786d,,,,,,,,,,,,,,,,,,,,,,,,,,,,,,,,,,337.1877,339.603,"[7,5,4,1,6,8,2,3]","[[-0.3,0.2],[0.3,0.2]]","[[0.125,-0.2],[-0.125,-0.2]]",0.124074074,-0.197222222,1,0,0,1.8982,o1_image,339.6043,1,340.1025,340.1027,342.1023,0,0,0,0,1,,,,,,,,,,,,,,,,,,,,,,,,,,,,,,,,,,,,,,,,,,,,,,,,,,
,,60a3a03bc01ba594c9cca88d,31,female,2024-04-24_12h33.29.223,stockport_simplified,2022.2.4,Win32,59.88023952,661e456ee6de07e70aa9ef7b,6628df81af01ed4d48ca786d,,,,,,,,,,,,,,,,,,,,,,,,,,,,,,,,,,,,,,,,,,,,,,,,,,,,,,,,0,2,2,51,1,N,M,C,o1_image,stimuli/out1.png,stimuli/correct_out1.png,stimuli/out2.png,,,,,,,,,,,,,,,,,,,,,,,,,,,,,,,,,,,,,,
,,60a3a03bc01ba594c9cca88d,31,female,2024-04-24_12h33.29.223,stockport_simplified,2022.2.4,Win32,59.88023952,661e456ee6de07e70aa9ef7b,6628df81af01ed4d48ca786d,,,,,,,,,,,,,,,,,,,,,,,,,,,,,,,,,,342.1032,344.0862,"[7,5,4,1,6,8,2,3]","[[-0.3,0.2],[0.3,0.2]]","[[0.125,-0.2],[-0.125,-0.2]]",0.152777778,-0.209259259,1,0,0,1.4659,o1_image,344.0879,0,344.5862,344.5864,346.5855,0,0,0,0,1,,,,,,,,,,,,,,,,,,,,,,,,,,,,,,,,,,,,,,,,,,,,,,,,,,
,,60a3a03bc01ba594c9cca88d,31,female,2024-04-24_12h33.29.223,stockport_simplified,2022.2.4,Win32,59.88023952,661e456ee6de07e70aa9ef7b,6628df81af01ed4d48ca786d,,,,,,,,,,,,,,,,,,,,,,,,,,,,,,,,,,,,,,,,,,,,,,,,,,,,,,,,0,3,3,27,1,N,M,D,o2_image,stimuli/out2.png,stimuli/out1.png,stimuli/correct_out2.png,,,,,,,,,,,,,,,,,,,,,,,,,,,,,,,,,,,,,,
,,60a3a03bc01ba594c9cca88d,31,female,2024-04-24_12h33.29.223,stockport_simplified,2022.2.4,Win32,59.88023952,661e456ee6de07e70aa9ef7b,6628df81af01ed4d48ca786d,,,,,,,,,,,,,,,,,,,,,,,,,,,,,,,,,,346.5865,349.1204,"[7,5,4,1,6,8,2,3]","[[0.3,0.2],[-0.3,0.2]]","[[-0.125,-0.2],[0.125,-0.2]]",0.125925926,-0.199074074,1,0,0,2.0167,o2_image,349.1217,1,349.6202,349.6202,351.62,0,0,0,0,1,,,,,,,,,,,,,,,,,,,,,,,,,,,,,,,,,,,,,,,,,,,,,,,,,,
,,60a3a03bc01ba594c9cca88d,31,female,2024-04-24_12h33.29.223,stockport_simplified,2022.2.4,Win32,59.88023952,661e456ee6de07e70aa9ef7b,6628df81af01ed4d48ca786d,,,,,,,,,,,,,,,,,,,,,,,,,,,,,,,,,,,,,,,,,,,,,,,,,,,,,,,,0,4,4,29,1,N,M,D,o2_image,stimuli/out2.png,stimuli/out1.png,stimuli/correct_out2.png,,,,,,,,,,,,,,,,,,,,,,,,,,,,,,,,,,,,,,
,,60a3a03bc01ba594c9cca88d,31,female,2024-04-24_12h33.29.223,stockport_simplified,2022.2.4,Win32,59.88023952,661e456ee6de07e70aa9ef7b,6628df81af01ed4d48ca786d,,,,,,,,,,,,,,,,,,,,,,,,,,,,,,,,,,351.6205,354.0041,"[7,5,4,1,6,8,2,3]","[[-0.3,0.2],[0.3,0.2]]","[[-0.125,-0.2],[0.125,-0.2]]",0.107407407,-0.198148148,1,0,0,1.8662,o2_image,354.0064,1,354.5023,354.5023,356.5027,0,0,0,0,1,,,,,,,,,,,,,,,,,,,,,,,,,,,,,,,,,,,,,,,,,,,,,,,,,,
,,60a3a03bc01ba594c9cca88d,31,female,2024-04-24_12h33.29.223,stockport_simplified,2022.2.4,Win32,59.88023952,661e456ee6de07e70aa9ef7b,6628df81af01ed4d48ca786d,,,,,,,,,,,,,,,,,,,,,,,,,,,,,,,,,,,,,,,,,,,,,,,,,,,,,,,,0,5,5,19,1,B,Y,N,o2_image,stimuli/out2.png,stimuli/out1.png,stimuli/correct_out2.png,,,,,,,,,,,,,,,,,,,,,,,,,,,,,,,,,,,,,,
,,60a3a03bc01ba594c9cca88d,31,female,2024-04-24_12h33.29.223,stockport_simplified,2022.2.4,Win32,59.88023952,661e456ee6de07e70aa9ef7b,6628df81af01ed4d48ca786d,,,,,,,,,,,,,,,,,,,,,,,,,,,,,,,,,,356.5037,358.4032,"[7,5,4,1,6,8,2,3]","[[-0.3,0.2],[0.3,0.2]]","[[-0.125,-0.2],[0.125,-0.2]]",0.103703704,-0.200925926,1,0,0,1.3833,o2_image,358.4047,1,358.903,358.9031,360.9022,0,0,0,0,1,,,,,,,,,,,,,,,,,,,,,,,,,,,,,,,,,,,,,,,,,,,,,,,,,,
,,60a3a03bc01ba594c9cca88d,31,female,2024-04-24_12h33.29.223,stockport_simplified,2022.2.4,Win32,59.88023952,661e456ee6de07e70aa9ef7b,6628df81af01ed4d48ca786d,,,,,,,,,,,,,,,,,,,,,,,,,,,,,,,,,,,,,,,,,,,,,,,,,,,,,,,,0,6,6,46,1,B,Y,N,o2_image,stimuli/out2.png,stimuli/out1.png,stimuli/correct_out2.png,,,,,,,,,,,,,,,,,,,,,,,,,,,,,,,,,,,,,,
,,60a3a03bc01ba594c9cca88d,31,female,2024-04-24_12h33.29.223,stockport_simplified,2022.2.4,Win32,59.88023952,661e456ee6de07e70aa9ef7b,6628df81af01ed4d48ca786d,,,,,,,,,,,,,,,,,,,,,,,,,,,,,,,,,,360.9033,362.9858,"[7,5,4,1,6,8,2,3]","[[-0.3,0.2],[0.3,0.2]]","[[-0.125,-0.2],[0.125,-0.2]]",0.121296296,-0.199074074,1,0,0,1.5665,o2_image,362.9875,1,363.4856,363.4857,365.4866,0,0,0,0,1,,,,,,,,,,,,,,,,,,,,,,,,,,,,,,,,,,,,,,,,,,,,,,,,,,
,,60a3a03bc01ba594c9cca88d,31,female,2024-04-24_12h33.29.223,stockport_simplified,2022.2.4,Win32,59.88023952,661e456ee6de07e70aa9ef7b,6628df81af01ed4d48ca786d,,,,,,,,,,,,,,,,,,,,,,,,,,,,,,,,,,,,,,,,,,,,,,,,,,,,,,,,0,7,7,45,1,B,Y,N,o2_image,stimuli/out2.png,stimuli/out1.png,stimuli/correct_out2.png,,,,,,,,,,,,,,,,,,,,,,,,,,,,,,,,,,,,,,
,,60a3a03bc01ba594c9cca88d,31,female,2024-04-24_12h33.29.223,stockport_simplified,2022.2.4,Win32,59.88023952,661e456ee6de07e70aa9ef7b,6628df81af01ed4d48ca786d,,,,,,,,,,,,,,,,,,,,,,,,,,,,,,,,,,365.4872,367.4535,"[7,5,4,1,6,8,2,3]","[[-0.3,0.2],[0.3,0.2]]","[[0.125,-0.2],[-0.125,-0.2]]",-0.109259259,-0.203703704,1,0,0,1.4505,o2_image,367.4554,1,367.9528,367.9529,369.954,0,0,0,0,1,,,,,,,,,,,,,,,,,,,,,,,,,,,,,,,,,,,,,,,,,,,,,,,,,,
,,60a3a03bc01ba594c9cca88d,31,female,2024-04-24_12h33.29.223,stockport_simplified,2022.2.4,Win32,59.88023952,661e456ee6de07e70aa9ef7b,6628df81af01ed4d48ca786d,,,,,,,,,,,,,,,,,,,,,,,,,,,,,,,,,,,,,,,,,,,,,,,,,,,,,,,,0,8,8,11,1,B,X,N,o2_image,stimuli/out2.png,stimuli/out1.png,stimuli/correct_out2.png,,,,,,,,,,,,,,,,,,,,,,,,,,,,,,,,,,,,,,
,,60a3a03bc01ba594c9cca88d,31,female,2024-04-24_12h33.29.223,stockport_simplified,2022.2.4,Win32,59.88023952,661e456ee6de07e70aa9ef7b,6628df81af01ed4d48ca786d,,,,,,,,,,,,,,,,,,,,,,,,,,,,,,,,,,369.9545,371.4354,"[7,5,4,1,6,8,2,3]","[[-0.3,0.2],[0.3,0.2]]","[[-0.125,-0.2],[0.125,-0.2]]",0.098148148,-0.2,1,0,0,0.964,o2_image,371.4365,0,371.9364,371.9365,373.9358,0,0,0,0,1,,,,,,,,,,,,,,,,,,,,,,,,,,,,,,,,,,,,,,,,,,,,,,,,,,
,,60a3a03bc01ba594c9cca88d,31,female,2024-04-24_12h33.29.223,stockport_simplified,2022.2.4,Win32,59.88023952,661e456ee6de07e70aa9ef7b,6628df81af01ed4d48ca786d,,,,,,,,,,,,,,,,,,,,,,,,,,,,,,,,,,,,,,,,,,,,,,,,,,,,,,,,0,9,9,4,1,A,X,N,o1_image,stimuli/out1.png,stimuli/correct_out1.png,stimuli/out2.png,,,,,,,,,,,,,,,,,,,,,,,,,,,,,,,,,,,,,,
,,60a3a03bc01ba594c9cca88d,31,female,2024-04-24_12h33.29.223,stockport_simplified,2022.2.4,Win32,59.88023952,661e456ee6de07e70aa9ef7b,6628df81af01ed4d48ca786d,,,,,,,,,,,,,,,,,,,,,,,,,,,,,,,,,,373.9367,376.0371,"[7,5,4,1,6,8,2,3]","[[0.3,0.2],[-0.3,0.2]]","[[0.125,-0.2],[-0.125,-0.2]]",0.116666667,-0.212037037,1,0,0,1.5827,o1_image,376.0387,1,376.5354,376.5355,378.5358,0,0,0,0,1,,,,,,,,,,,,,,,,,,,,,,,,,,,,,,,,,,,,,,,,,,,,,,,,,,
,,60a3a03bc01ba594c9cca88d,31,female,2024-04-24_12h33.29.223,stockport_simplified,2022.2.4,Win32,59.88023952,661e456ee6de07e70aa9ef7b,6628df81af01ed4d48ca786d,,,,,,,,,,,,,,,,,,,,,,,,,,,,,,,,,,,,,,,,,,,,,,,,,,,,,,,,0,10,10,53,1,N,M,C,o1_image,stimuli/out1.png,stimuli/correct_out1.png,stimuli/out2.png,,,,,,,,,,,,,,,,,,,,,,,,,,,,,,,,,,,,,,
,,60a3a03bc01ba594c9cca88d,31,female,2024-04-24_12h33.29.223,stockport_simplified,2022.2.4,Win32,59.88023952,661e456ee6de07e70aa9ef7b,6628df81af01ed4d48ca786d,,,,,,,,,,,,,,,,,,,,,,,,,,,,,,,,,,378.5367,381.0035,"[7,5,4,1,6,8,2,3]","[[0.3,0.2],[-0.3,0.2]]","[[0.125,-0.2],[-0.125,-0.2]]",-0.118518519,-0.208333333,1,0,0,1.9488,o2_image,381.0045,1,381.5033,381.5034,383.5034,0,0,0,0,1,,,,,,,,,,,,,,,,,,,,,,,,,,,,,,,,,,,,,,,,,,,,,,,,,,
,,60a3a03bc01ba594c9cca88d,31,female,2024-04-24_12h33.29.223,stockport_simplified,2022.2.4,Win32,59.88023952,661e456ee6de07e70aa9ef7b,6628df81af01ed4d48ca786d,,,,,,,,,,,,,,,,,,,,,,,,,,,,,,,,,,,,,,,,,,,,,,,,,,,,,,,,0,11,11,18,1,B,Y,N,o2_image,stimuli/out2.png,stimuli/out1.png,stimuli/correct_out2.png,,,,,,,,,,,,,,,,,,,,,,,,,,,,,,,,,,,,,,
,,60a3a03bc01ba594c9cca88d,31,female,2024-04-24_12h33.29.223,stockport_simplified,2022.2.4,Win32,59.88023952,661e456ee6de07e70aa9ef7b,6628df81af01ed4d48ca786d,,,,,,,,,,,,,,,,,,,,,,,,,,,,,,,,,,383.5043,385.9037,"[7,5,4,1,6,8,2,3]","[[0.3,0.2],[-0.3,0.2]]","[[0.125,-0.2],[-0.125,-0.2]]",-0.143518519,-0.2,1,0,0,1.883,o2_image,385.9045,1,386.4036,386.4037,388.4025,0,0,0,0,1,,,,,,,,,,,,,,,,,,,,,,,,,,,,,,,,,,,,,,,,,,,,,,,,,,
,,60a3a03bc01ba594c9cca88d,31,female,2024-04-24_12h33.29.223,stockport_simplified,2022.2.4,Win32,59.88023952,661e456ee6de07e70aa9ef7b,6628df81af01ed4d48ca786d,,,,,,,,,,,,,,,,,,,,,,,,,,,,,,,,,,,,,,,,,,,,,,,,,,,,,,,,0,12,12,28,1,N,M,D,o2_image,stimuli/out2.png,stimuli/out1.png,stimuli/correct_out2.png,,,,,,,,,,,,,,,,,,,,,,,,,,,,,,,,,,,,,,
,,60a3a03bc01ba594c9cca88d,31,female,2024-04-24_12h33.29.223,stockport_simplified,2022.2.4,Win32,59.88023952,661e456ee6de07e70aa9ef7b,6628df81af01ed4d48ca786d,,,,,,,,,,,,,,,,,,,,,,,,,,,,,,,,,,388.4031,391.2694,"[7,5,4,1,6,8,2,3]","[[0.3,0.2],[-0.3,0.2]]","[[-0.125,-0.2],[0.125,-0.2]]",0.078703704,-0.2,1,0,0,2.3497,o2_image,391.2883,0,391.7859,391.786,393.7859,0,0,0,0,1,,,,,,,,,,,,,,,,,,,,,,,,,,,,,,,,,,,,,,,,,,,,,,,,,,
,,60a3a03bc01ba594c9cca88d,31,female,2024-04-24_12h33.29.223,stockport_simplified,2022.2.4,Win32,59.88023952,661e456ee6de07e70aa9ef7b,6628df81af01ed4d48ca786d,,,,,,,,,,,,,,,,,,,,,,,,,,,,,,,,,,,,,,,,,,,,,,,,,,,,,,,,0,13,13,7,1,A,Y,N,o1_image,stimuli/out1.png,stimuli/correct_out1.png,stimuli/out2.png,,,,,,,,,,,,,,,,,,,,,,,,,,,,,,,,,,,,,,
,,60a3a03bc01ba594c9cca88d,31,female,2024-04-24_12h33.29.223,stockport_simplified,2022.2.4,Win32,59.88023952,661e456ee6de07e70aa9ef7b,6628df81af01ed4d48ca786d,,,,,,,,,,,,,,,,,,,,,,,,,,,,,,,,,,393.7866,396.5029,"[7,5,4,1,6,8,2,3]","[[0.3,0.2],[-0.3,0.2]]","[[0.125,-0.2],[-0.125,-0.2]]",0.122222222,-0.210185185,1,0,0,2.1987,o1_image,396.5048,0,397.0026,397.0027,399.0027,0,0,0,0,1,,,,,,,,,,,,,,,,,,,,,,,,,,,,,,,,,,,,,,,,,,,,,,,,,,
,,60a3a03bc01ba594c9cca88d,31,female,2024-04-24_12h33.29.223,stockport_simplified,2022.2.4,Win32,59.88023952,661e456ee6de07e70aa9ef7b,6628df81af01ed4d48ca786d,,,,,,,,,,,,,,,,,,,,,,,,,,,,,,,,,,,,,,,,,,,,,,,,,,,,,,,,0,14,14,17,1,B,Y,N,o2_image,stimuli/out2.png,stimuli/out1.png,stimuli/correct_out2.png,,,,,,,,,,,,,,,,,,,,,,,,,,,,,,,,,,,,,,
,,60a3a03bc01ba594c9cca88d,31,female,2024-04-24_12h33.29.223,stockport_simplified,2022.2.4,Win32,59.88023952,661e456ee6de07e70aa9ef7b,6628df81af01ed4d48ca786d,,,,,,,,,,,,,,,,,,,,,,,,,,,,,,,,,,399.0034,401.503,"[7,5,4,1,6,8,2,3]","[[-0.3,0.2],[0.3,0.2]]","[[-0.125,-0.2],[0.125,-0.2]]",-0.152777778,-0.19537037,1,0,0,1.982,o1_image,401.504,1,402.0026,402.0026,404.0026,0,0,0,0,1,,,,,,,,,,,,,,,,,,,,,,,,,,,,,,,,,,,,,,,,,,,,,,,,,,
,,60a3a03bc01ba594c9cca88d,31,female,2024-04-24_12h33.29.223,stockport_simplified,2022.2.4,Win32,59.88023952,661e456ee6de07e70aa9ef7b,6628df81af01ed4d48ca786d,,,,,,,,,,,,,,,,,,,,,,,,,,,,,,,,,,,,,,,,,,,,,,,,,,,,,,,,0,15,15,24,1,N,M,C,o1_image,stimuli/out1.png,stimuli/correct_out1.png,stimuli/out2.png,,,,,,,,,,,,,,,,,,,,,,,,,,,,,,,,,,,,,,
,,60a3a03bc01ba594c9cca88d,31,female,2024-04-24_12h33.29.223,stockport_simplified,2022.2.4,Win32,59.88023952,661e456ee6de07e70aa9ef7b,6628df81af01ed4d48ca786d,,,,,,,,,,,,,,,,,,,,,,,,,,,,,,,,,,404.0035,406.6692,"[7,5,4,1,6,8,2,3]","[[0.3,0.2],[-0.3,0.2]]","[[0.125,-0.2],[-0.125,-0.2]]",0.152777778,-0.211111111,1,0,0,2.1491,o1_image,406.6844,1,407.1861,407.1861,409.1859,0,0,0,0,1,,,,,,,,,,,,,,,,,,,,,,,,,,,,,,,,,,,,,,,,,,,,,,,,,,
,,60a3a03bc01ba594c9cca88d,31,female,2024-04-24_12h33.29.223,stockport_simplified,2022.2.4,Win32,59.88023952,661e456ee6de07e70aa9ef7b,6628df81af01ed4d48ca786d,,,,,,,,,,,,,,,,,,,,,,,,,,,,,,,,,,,,,,,,,,,,,,,,,,,,,,,,0,16,16,52,1,N,M,C,o1_image,stimuli/out1.png,stimuli/correct_out1.png,stimuli/out2.png,,,,,,,,,,,,,,,,,,,,,,,,,,,,,,,,,,,,,,
,,60a3a03bc01ba594c9cca88d,31,female,2024-04-24_12h33.29.223,stockport_simplified,2022.2.4,Win32,59.88023952,661e456ee6de07e70aa9ef7b,6628df81af01ed4d48ca786d,,,,,,,,,,,,,,,,,,,,,,,,,,,,,,,,,,409.1862,411.4029,"[7,5,4,1,6,8,2,3]","[[0.3,0.2],[-0.3,0.2]]","[[-0.125,-0.2],[0.125,-0.2]]",0.102777778,-0.186111111,1,0,0,1.7147,o2_image,411.4036,1,411.9028,411.9028,413.9031,0,0,0,0,1,,,,,,,,,,,,,,,,,,,,,,,,,,,,,,,,,,,,,,,,,,,,,,,,,,
,,60a3a03bc01ba594c9cca88d,31,female,2024-04-24_12h33.29.223,stockport_simplified,2022.2.4,Win32,59.88023952,661e456ee6de07e70aa9ef7b,6628df81af01ed4d48ca786d,,,,,,,,,,,,,,,,,,,,,,,,,,,,,,,,,,,,,,,,,,,,,,,,,,,,,,,,0,17,17,15,1,B,Y,N,o2_image,stimuli/out2.png,stimuli/out1.png,stimuli/correct_out2.png,,,,,,,,,,,,,,,,,,,,,,,,,,,,,,,,,,,,,,
,,60a3a03bc01ba594c9cca88d,31,female,2024-04-24_12h33.29.223,stockport_simplified,2022.2.4,Win32,59.88023952,661e456ee6de07e70aa9ef7b,6628df81af01ed4d48ca786d,,,,,,,,,,,,,,,,,,,,,,,,,,,,,,,,,,413.9037,416.0858,"[7,5,4,1,6,8,2,3]","[[0.3,0.2],[-0.3,0.2]]","[[-0.125,-0.2],[0.125,-0.2]]",0.113888889,-0.174074074,1,0,0,1.6661,o2_image,416.0877,0,416.5857,416.5859,418.5863,0,0,0,0,1,,,,,,,,,,,,,,,,,,,,,,,,,,,,,,,,,,,,,,,,,,,,,,,,,,
,,60a3a03bc01ba594c9cca88d,31,female,2024-04-24_12h33.29.223,stockport_simplified,2022.2.4,Win32,59.88023952,661e456ee6de07e70aa9ef7b,6628df81af01ed4d48ca786d,,,,,,,,,,,,,,,,,,,,,,,,,,,,,,,,,,,,,,,,,,,,,,,,,,,,,,,,0,18,18,39,1,A,Y,N,o1_image,stimuli/out1.png,stimuli/correct_out1.png,stimuli/out2.png,,,,,,,,,,,,,,,,,,,,,,,,,,,,,,,,,,,,,,
,,60a3a03bc01ba594c9cca88d,31,female,2024-04-24_12h33.29.223,stockport_simplified,2022.2.4,Win32,59.88023952,661e456ee6de07e70aa9ef7b,6628df81af01ed4d48ca786d,,,,,,,,,,,,,,,,,,,,,,,,,,,,,,,,,,418.5871,421.8872,"[7,5,4,1,6,8,2,3]","[[-0.3,0.2],[0.3,0.2]]","[[-0.125,-0.2],[0.125,-0.2]]",-0.087037037,-0.20462963,1,0,0,2.7833,o1_image,421.889,0,422.3862,422.3862,424.3874,0,0,0,0,1,,,,,,,,,,,,,,,,,,,,,,,,,,,,,,,,,,,,,,,,,,,,,,,,,,
,,60a3a03bc01ba594c9cca88d,31,female,2024-04-24_12h33.29.223,stockport_simplified,2022.2.4,Win32,59.88023952,661e456ee6de07e70aa9ef7b,6628df81af01ed4d48ca786d,,,,,,,,,,,,,,,,,,,,,,,,,,,,,,,,,,,,,,,,,,,,,,,,,,,,,,,,0,19,19,25,1,N,M,D,o2_image,stimuli/out2.png,stimuli/out1.png,stimuli/correct_out2.png,,,,,,,,,,,,,,,,,,,,,,,,,,,,,,,,,,,,,,
,,60a3a03bc01ba594c9cca88d,31,female,2024-04-24_12h33.29.223,stockport_simplified,2022.2.4,Win32,59.88023952,661e456ee6de07e70aa9ef7b,6628df81af01ed4d48ca786d,,,,,,,,,,,,,,,,,,,,,,,,,,,,,,,,,,424.3879,427.6866,"[7,5,4,1,6,8,2,3]","[[-0.3,0.2],[0.3,0.2]]","[[-0.125,-0.2],[0.125,-0.2]]",0.136111111,-0.205555556,1,0,0,2.7846,o2_image,427.6958,1,428.1866,428.1867,430.186,0,0,0,0,1,,,,,,,,,,,,,,,,,,,,,,,,,,,,,,,,,,,,,,,,,,,,,,,,,,
,,60a3a03bc01ba594c9cca88d,31,female,2024-04-24_12h33.29.223,stockport_simplified,2022.2.4,Win32,59.88023952,661e456ee6de07e70aa9ef7b,6628df81af01ed4d48ca786d,,,,,,,,,,,,,,,,,,,,,,,,,,,,,,,,,,,,,,,,,,,,,,,,,,,,,,,,0,20,20,59,1,N,M,D,o2_image,stimuli/out2.png,stimuli/out1.png,stimuli/correct_out2.png,,,,,,,,,,,,,,,,,,,,,,,,,,,,,,,,,,,,,,
,,60a3a03bc01ba594c9cca88d,31,female,2024-04-24_12h33.29.223,stockport_simplified,2022.2.4,Win32,59.88023952,661e456ee6de07e70aa9ef7b,6628df81af01ed4d48ca786d,,,,,,,,,,,,,,,,,,,,,,,,,,,,,,,,,,430.1868,433.0363,"[7,5,4,1,6,8,2,3]","[[0.3,0.2],[-0.3,0.2]]","[[-0.125,-0.2],[0.125,-0.2]]",0.122222222,-0.209259259,1,0,0,2.3482,o2_image,433.0527,0,433.5527,433.553,435.5523,0,0,0,0,1,,,,,,,,,,,,,,,,,,,,,,,,,,,,,,,,,,,,,,,,,,,,,,,,,,
,,60a3a03bc01ba594c9cca88d,31,female,2024-04-24_12h33.29.223,stockport_simplified,2022.2.4,Win32,59.88023952,661e456ee6de07e70aa9ef7b,6628df81af01ed4d48ca786d,,,,,,,,,,,,,,,,,,,,,,,,,,,,,,,,,,,,,,,,,,,,,,,,,,,,,,,,0,21,21,3,1,A,X,N,o1_image,stimuli/out1.png,stimuli/correct_out1.png,stimuli/out2.png,,,,,,,,,,,,,,,,,,,,,,,,,,,,,,,,,,,,,,
,,60a3a03bc01ba594c9cca88d,31,female,2024-04-24_12h33.29.223,stockport_simplified,2022.2.4,Win32,59.88023952,661e456ee6de07e70aa9ef7b,6628df81af01ed4d48ca786d,,,,,,,,,,,,,,,,,,,,,,,,,,,,,,,,,,435.5527,437.9361,"[7,5,4,1,6,8,2,3]","[[-0.3,0.2],[0.3,0.2]]","[[-0.125,-0.2],[0.125,-0.2]]",0.12962963,-0.207407407,1,0,0,1.8816,o2_image,437.937,1,438.4371,438.4373,440.4356,0,0,0,0,1,,,,,,,,,,,,,,,,,,,,,,,,,,,,,,,,,,,,,,,,,,,,,,,,,,
,,60a3a03bc01ba594c9cca88d,31,female,2024-04-24_12h33.29.223,stockport_simplified,2022.2.4,Win32,59.88023952,661e456ee6de07e70aa9ef7b,6628df81af01ed4d48ca786d,,,,,,,,,,,,,,,,,,,,,,,,,,,,,,,,,,,,,,,,,,,,,,,,,,,,,,,,0,22,22,10,1,B,X,N,o2_image,stimuli/out2.png,stimuli/out1.png,stimuli/correct_out2.png,,,,,,,,,,,,,,,,,,,,,,,,,,,,,,,,,,,,,,
,,60a3a03bc01ba594c9cca88d,31,female,2024-04-24_12h33.29.223,stockport_simplified,2022.2.4,Win32,59.88023952,661e456ee6de07e70aa9ef7b,6628df81af01ed4d48ca786d,,,,,,,,,,,,,,,,,,,,,,,,,,,,,,,,,,440.4364,443.0203,"[7,5,4,1,6,8,2,3]","[[0.3,0.2],[-0.3,0.2]]","[[0.125,-0.2],[-0.125,-0.2]]",-0.114814815,-0.219444444,1,0,0,2.0674,o2_image,443.043,1,443.5362,443.5362,445.5364,0,0,0,0,1,,,,,,,,,,,,,,,,,,,,,,,,,,,,,,,,,,,,,,,,,,,,,,,,,,
,,60a3a03bc01ba594c9cca88d,31,female,2024-04-24_12h33.29.223,stockport_simplified,2022.2.4,Win32,59.88023952,661e456ee6de07e70aa9ef7b,6628df81af01ed4d48ca786d,,,,,,,,,,,,,,,,,,,,,,,,,,,,,,,,,,,,,,,,,,,,,,,,,,,,,,,,0,23,23,41,1,B,X,N,o2_image,stimuli/out2.png,stimuli/out1.png,stimuli/correct_out2.png,,,,,,,,,,,,,,,,,,,,,,,,,,,,,,,,,,,,,,
,,60a3a03bc01ba594c9cca88d,31,female,2024-04-24_12h33.29.223,stockport_simplified,2022.2.4,Win32,59.88023952,661e456ee6de07e70aa9ef7b,6628df81af01ed4d48ca786d,,,,,,,,,,,,,,,,,,,,,,,,,,,,,,,,,,445.5374,448.253,"[7,5,4,1,6,8,2,3]","[[-0.3,0.2],[0.3,0.2]]","[[-0.125,-0.2],[0.125,-0.2]]",0.118518519,-0.219444444,1,0,0,2.1987,o2_image,448.2544,0,448.7528,448.7529,450.7529,0,0,0,0,1,,,,,,,,,,,,,,,,,,,,,,,,,,,,,,,,,,,,,,,,,,,,,,,,,,
,,60a3a03bc01ba594c9cca88d,31,female,2024-04-24_12h33.29.223,stockport_simplified,2022.2.4,Win32,59.88023952,661e456ee6de07e70aa9ef7b,6628df81af01ed4d48ca786d,,,,,,,,,,,,,,,,,,,,,,,,,,,,,,,,,,,,,,,,,,,,,,,,,,,,,,,,0,24,24,38,1,A,Y,N,o1_image,stimuli/out1.png,stimuli/correct_out1.png,stimuli/out2.png,,,,,,,,,,,,,,,,,,,,,,,,,,,,,,,,,,,,,,
,,60a3a03bc01ba594c9cca88d,31,female,2024-04-24_12h33.29.223,stockport_simplified,2022.2.4,Win32,59.88023952,661e456ee6de07e70aa9ef7b,6628df81af01ed4d48ca786d,,,,,,,,,,,,,,,,,,,,,,,,,,,,,,,,,,450.7534,453.8359,"[7,5,4,1,6,8,2,3]","[[-0.3,0.2],[0.3,0.2]]","[[0.125,-0.2],[-0.125,-0.2]]",-0.069444444,-0.175925926,1,0,0,2.5651,o2_image,453.8367,1,454.3364,454.3365,456.3358,0,0,0,0,1,,,,,,,,,,,,,,,,,,,,,,,,,,,,,,,,,,,,,,,,,,,,,,,,,,
,,60a3a03bc01ba594c9cca88d,31,female,2024-04-24_12h33.29.223,stockport_simplified,2022.2.4,Win32,59.88023952,661e456ee6de07e70aa9ef7b,6628df81af01ed4d48ca786d,,,,,,,,,,,,,,,,,,,,,,,,,,,,,,,,,,,,,,,,,,,,,,,,,,,,,,,,0,25,25,14,1,B,X,N,o2_image,stimuli/out2.png,stimuli/out1.png,stimuli/correct_out2.png,,,,,,,,,,,,,,,,,,,,,,,,,,,,,,,,,,,,,,
,,60a3a03bc01ba594c9cca88d,31,female,2024-04-24_12h33.29.223,stockport_simplified,2022.2.4,Win32,59.88023952,661e456ee6de07e70aa9ef7b,6628df81af01ed4d48ca786d,,,,,,,,,,,,,,,,,,,,,,,,,,,,,,,,,,456.3369,459.5856,"[7,5,4,1,6,8,2,3]","[[-0.3,0.2],[0.3,0.2]]","[[0.125,-0.2],[-0.125,-0.2]]",0.175925926,-0.217592593,1,0,0,2.7327,o1_image,459.6042,1,460.103,460.103,462.1036,0,0,0,0,1,,,,,,,,,,,,,,,,,,,,,,,,,,,,,,,,,,,,,,,,,,,,,,,,,,
,,60a3a03bc01ba594c9cca88d,31,female,2024-04-24_12h33.29.223,stockport_simplified,2022.2.4,Win32,59.88023952,661e456ee6de07e70aa9ef7b,6628df81af01ed4d48ca786d,,,,,,,,,,,,,,,,,,,,,,,,,,,,,,,,,,,,,,,,,,,,,,,,,,,,,,,,0,26,26,23,1,N,M,C,o1_image,stimuli/out1.png,stimuli/correct_out1.png,stimuli/out2.png,,,,,,,,,,,,,,,,,,,,,,,,,,,,,,,,,,,,,,
,,60a3a03bc01ba594c9cca88d,31,female,2024-04-24_12h33.29.223,stockport_simplified,2022.2.4,Win32,59.88023952,661e456ee6de07e70aa9ef7b,6628df81af01ed4d48ca786d,,,,,,,,,,,,,,,,,,,,,,,,,,,,,,,,,,462.1047,463.9373,"[7,5,4,1,6,8,2,3]","[[-0.3,0.2],[0.3,0.2]]","[[-0.125,-0.2],[0.125,-0.2]]",-0.126851852,-0.2,1,0,0,1.3176,o1_image,463.938,1,464.4359,464.4359,466.4359,0,0,0,0,1,,,,,,,,,,,,,,,,,,,,,,,,,,,,,,,,,,,,,,,,,,,,,,,,,,
,,60a3a03bc01ba594c9cca88d,31,female,2024-04-24_12h33.29.223,stockport_simplified,2022.2.4,Win32,59.88023952,661e456ee6de07e70aa9ef7b,6628df81af01ed4d48ca786d,,,,,,,,,,,,,,,,,,,,,,,,,,,,,,,,,,,,,,,,,,,,,,,,,,,,,,,,0,27,27,50,1,N,M,C,o1_image,stimuli/out1.png,stimuli/correct_out1.png,stimuli/out2.png,,,,,,,,,,,,,,,,,,,,,,,,,,,,,,,,,,,,,,
,,60a3a03bc01ba594c9cca88d,31,female,2024-04-24_12h33.29.223,stockport_simplified,2022.2.4,Win32,59.88023952,661e456ee6de07e70aa9ef7b,6628df81af01ed4d48ca786d,,,,,,,,,,,,,,,,,,,,,,,,,,,,,,,,,,466.4368,468.1039,"[7,5,4,1,6,8,2,3]","[[-0.3,0.2],[0.3,0.2]]","[[-0.125,-0.2],[0.125,-0.2]]",-0.105555556,-0.198148148,1,0,0,1.1666,o1_image,468.1052,1,468.6032,468.6032,470.603,0,0,0,0,1,,,,,,,,,,,,,,,,,,,,,,,,,,,,,,,,,,,,,,,,,,,,,,,,,,
,,60a3a03bc01ba594c9cca88d,31,female,2024-04-24_12h33.29.223,stockport_simplified,2022.2.4,Win32,59.88023952,661e456ee6de07e70aa9ef7b,6628df81af01ed4d48ca786d,,,,,,,,,,,,,,,,,,,,,,,,,,,,,,,,,,,,,,,,,,,,,,,,,,,,,,,,0,28,28,21,1,N,M,C,o1_image,stimuli/out1.png,stimuli/correct_out1.png,stimuli/out2.png,,,,,,,,,,,,,,,,,,,,,,,,,,,,,,,,,,,,,,
,,60a3a03bc01ba594c9cca88d,31,female,2024-04-24_12h33.29.223,stockport_simplified,2022.2.4,Win32,59.88023952,661e456ee6de07e70aa9ef7b,6628df81af01ed4d48ca786d,,,,,,,,,,,,,,,,,,,,,,,,,,,,,,,,,,470.6038,472.8037,"[7,5,4,1,6,8,2,3]","[[0.3,0.2],[-0.3,0.2]]","[[0.125,-0.2],[-0.125,-0.2]]",-0.156481481,-0.191666667,1,0,0,1.6834,o2_image,472.8245,1,473.3198,473.3199,475.3193,0,0,0,0,1,,,,,,,,,,,,,,,,,,,,,,,,,,,,,,,,,,,,,,,,,,,,,,,,,,
,,60a3a03bc01ba594c9cca88d,31,female,2024-04-24_12h33.29.223,stockport_simplified,2022.2.4,Win32,59.88023952,661e456ee6de07e70aa9ef7b,6628df81af01ed4d48ca786d,,,,,,,,,,,,,,,,,,,,,,,,,,,,,,,,,,,,,,,,,,,,,,,,,,,,,,,,0,29,29,43,1,B,X,N,o2_image,stimuli/out2.png,stimuli/out1.png,stimuli/correct_out2.png,,,,,,,,,,,,,,,,,,,,,,,,,,,,,,,,,,,,,,
,,60a3a03bc01ba594c9cca88d,31,female,2024-04-24_12h33.29.223,stockport_simplified,2022.2.4,Win32,59.88023952,661e456ee6de07e70aa9ef7b,6628df81af01ed4d48ca786d,,,,,,,,,,,,,,,,,,,,,,,,,,,,,,,,,,475.3201,477.3205,"[7,5,4,1,6,8,2,3]","[[-0.3,0.2],[0.3,0.2]]","[[0.125,-0.2],[-0.125,-0.2]]",0.12962963,-0.238888889,1,0,0,1.4839,o1_image,477.3215,0,477.8191,477.8191,479.8202,0,0,0,0,1,,,,,,,,,,,,,,,,,,,,,,,,,,,,,,,,,,,,,,,,,,,,,,,,,,
,,60a3a03bc01ba594c9cca88d,31,female,2024-04-24_12h33.29.223,stockport_simplified,2022.2.4,Win32,59.88023952,661e456ee6de07e70aa9ef7b,6628df81af01ed4d48ca786d,,,,,,,,,,,,,,,,,,,,,,,,,,,,,,,,,,,,,,,,,,,,,,,,,,,,,,,,0,30,30,56,1,N,M,D,o2_image,stimuli/out2.png,stimuli/out1.png,stimuli/correct_out2.png,,,,,,,,,,,,,,,,,,,,,,,,,,,,,,,,,,,,,,
,,60a3a03bc01ba594c9cca88d,31,female,2024-04-24_12h33.29.223,stockport_simplified,2022.2.4,Win32,59.88023952,661e456ee6de07e70aa9ef7b,6628df81af01ed4d48ca786d,,,,,,,,,,,,,,,,,,,,,,,,,,,,,,,,,,479.821,481.6855,"[7,5,4,1,6,8,2,3]","[[0.3,0.2],[-0.3,0.2]]","[[0.125,-0.2],[-0.125,-0.2]]",-0.084259259,-0.2,1,0,0,1.3481,o2_image,481.6867,1,482.1864,482.1866,484.1861,0,0,0,0,1,,,,,,,,,,,,,,,,,,,,,,,,,,,,,,,,,,,,,,,,,,,,,,,,,,
,,60a3a03bc01ba594c9cca88d,31,female,2024-04-24_12h33.29.223,stockport_simplified,2022.2.4,Win32,59.88023952,661e456ee6de07e70aa9ef7b,6628df81af01ed4d48ca786d,,,,,,,,,,,,,,,,,,,,,,,,,,,,,,,,,,,,,,,,,,,,,,,,,,,,,,,,0,31,31,49,1,B,Y,N,o2_image,stimuli/out2.png,stimuli/out1.png,stimuli/correct_out2.png,,,,,,,,,,,,,,,,,,,,,,,,,,,,,,,,,,,,,,
,,60a3a03bc01ba594c9cca88d,31,female,2024-04-24_12h33.29.223,stockport_simplified,2022.2.4,Win32,59.88023952,661e456ee6de07e70aa9ef7b,6628df81af01ed4d48ca786d,,,,,,,,,,,,,,,,,,,,,,,,,,,,,,,,,,484.1868,485.8865,"[7,5,4,1,6,8,2,3]","[[-0.3,0.2],[0.3,0.2]]","[[0.125,-0.2],[-0.125,-0.2]]",-0.071296296,-0.199074074,1,0,0,1.1829,o2_image,485.8875,0,486.3863,486.3864,488.386,0,0,0,0,1,,,,,,,,,,,,,,,,,,,,,,,,,,,,,,,,,,,,,,,,,,,,,,,,,,
,,60a3a03bc01ba594c9cca88d,31,female,2024-04-24_12h33.29.223,stockport_simplified,2022.2.4,Win32,59.88023952,661e456ee6de07e70aa9ef7b,6628df81af01ed4d48ca786d,,,,,,,,,,,,,,,,,,,,,,,,,,,,,,,,,,,,,,,,,,,,,,,,,,,,,,,,0,32,32,0,1,A,X,N,o1_image,stimuli/out1.png,stimuli/correct_out1.png,stimuli/out2.png,,,,,,,,,,,,,,,,,,,,,,,,,,,,,,,,,,,,,,
,,60a3a03bc01ba594c9cca88d,31,female,2024-04-24_12h33.29.223,stockport_simplified,2022.2.4,Win32,59.88023952,661e456ee6de07e70aa9ef7b,6628df81af01ed4d48ca786d,,,,,,,,,,,,,,,,,,,,,,,,,,,,,,,,,,488.3866,490.8355,"[7,5,4,1,6,8,2,3]","[[0.3,0.2],[-0.3,0.2]]","[[0.125,-0.2],[-0.125,-0.2]]",-0.102777778,-0.200925926,1,0,0,1.9323,o2_image,490.8454,1,491.3367,491.3368,493.3365,0,0,0,0,1,,,,,,,,,,,,,,,,,,,,,,,,,,,,,,,,,,,,,,,,,,,,,,,,,,
,,60a3a03bc01ba594c9cca88d,31,female,2024-04-24_12h33.29.223,stockport_simplified,2022.2.4,Win32,59.88023952,661e456ee6de07e70aa9ef7b,6628df81af01ed4d48ca786d,,,,,,,,,,,,,,,,,,,,,,,,,,,,,,,,,,,,,,,,,,,,,,,,,,,,,,,,0,33,33,16,1,B,Y,N,o2_image,stimuli/out2.png,stimuli/out1.png,stimuli/correct_out2.png,,,,,,,,,,,,,,,,,,,,,,,,,,,,,,,,,,,,,,
,,60a3a03bc01ba594c9cca88d,31,female,2024-04-24_12h33.29.223,stockport_simplified,2022.2.4,Win32,59.88023952,661e456ee6de07e70aa9ef7b,6628df81af01ed4d48ca786d,,,,,,,,,,,,,,,,,,,,,,,,,,,,,,,,,,493.3369,495.7529,"[7,5,4,1,6,8,2,3]","[[0.3,0.2],[-0.3,0.2]]","[[-0.125,-0.2],[0.125,-0.2]]",0.15462963,-0.207407407,1,0,0,1.8991,o2_image,495.7537,1,496.254,496.2541,498.2533,0,0,0,0,1,,,,,,,,,,,,,,,,,,,,,,,,,,,,,,,,,,,,,,,,,,,,,,,,,,
,,60a3a03bc01ba594c9cca88d,31,female,2024-04-24_12h33.29.223,stockport_simplified,2022.2.4,Win32,59.88023952,661e456ee6de07e70aa9ef7b,6628df81af01ed4d48ca786d,,,,,,,,,,,,,,,,,,,,,,,,,,,,,,,,,,,,,,,,,,,,,,,,,,,,,,,,0,34,34,40,1,B,X,N,o2_image,stimuli/out2.png,stimuli/out1.png,stimuli/correct_out2.png,,,,,,,,,,,,,,,,,,,,,,,,,,,,,,,,,,,,,,
,,60a3a03bc01ba594c9cca88d,31,female,2024-04-24_12h33.29.223,stockport_simplified,2022.2.4,Win32,59.88023952,661e456ee6de07e70aa9ef7b,6628df81af01ed4d48ca786d,,,,,,,,,,,,,,,,,,,,,,,,,,,,,,,,,,498.2538,500.1693,"[7,5,4,1,6,8,2,3]","[[0.3,0.2],[-0.3,0.2]]","[[0.125,-0.2],[-0.125,-0.2]]",-0.074074074,-0.210185185,1,0,0,1.3981,o2_image,500.1711,0,500.669,500.669,502.6708,0,0,0,0,1,,,,,,,,,,,,,,,,,,,,,,,,,,,,,,,,,,,,,,,,,,,,,,,,,,
,,60a3a03bc01ba594c9cca88d,31,female,2024-04-24_12h33.29.223,stockport_simplified,2022.2.4,Win32,59.88023952,661e456ee6de07e70aa9ef7b,6628df81af01ed4d48ca786d,,,,,,,,,,,,,,,,,,,,,,,,,,,,,,,,,,,,,,,,,,,,,,,,,,,,,,,,0,35,35,30,1,A,X,N,o1_image,stimuli/out1.png,stimuli/correct_out1.png,stimuli/out2.png,,,,,,,,,,,,,,,,,,,,,,,,,,,,,,,,,,,,,,
,,60a3a03bc01ba594c9cca88d,31,female,2024-04-24_12h33.29.223,stockport_simplified,2022.2.4,Win32,59.88023952,661e456ee6de07e70aa9ef7b,6628df81af01ed4d48ca786d,,,,,,,,,,,,,,,,,,,,,,,,,,,,,,,,,,502.6714,504.7195,"[7,5,4,1,6,8,2,3]","[[-0.3,0.2],[0.3,0.2]]","[[0.125,-0.2],[-0.125,-0.2]]",-0.09537037,-0.199074074,1,0,0,1.5325,o2_image,504.7209,1,505.2199,505.22,507.2195,0,0,0,0,1,,,,,,,,,,,,,,,,,,,,,,,,,,,,,,,,,,,,,,,,,,,,,,,,,,
,,60a3a03bc01ba594c9cca88d,31,female,2024-04-24_12h33.29.223,stockport_simplified,2022.2.4,Win32,59.88023952,661e456ee6de07e70aa9ef7b,6628df81af01ed4d48ca786d,,,,,,,,,,,,,,,,,,,,,,,,,,,,,,,,,,,,,,,,,,,,,,,,,,,,,,,,0,36,36,44,1,B,X,N,o2_image,stimuli/out2.png,stimuli/out1.png,stimuli/correct_out2.png,,,,,,,,,,,,,,,,,,,,,,,,,,,,,,,,,,,,,,
,,60a3a03bc01ba594c9cca88d,31,female,2024-04-24_12h33.29.223,stockport_simplified,2022.2.4,Win32,59.88023952,661e456ee6de07e70aa9ef7b,6628df81af01ed4d48ca786d,,,,,,,,,,,,,,,,,,,,,,,,,,,,,,,,,,507.2202,509.5195,"[7,5,4,1,6,8,2,3]","[[0.3,0.2],[-0.3,0.2]]","[[-0.125,-0.2],[0.125,-0.2]]",0.123148148,-0.219444444,1,0,0,1.7979,o2_image,509.5217,0,510.019,510.0191,512.0189,0,0,0,0,1,,,,,,,,,,,,,,,,,,,,,,,,,,,,,,,,,,,,,,,,,,,,,,,,,,
,,60a3a03bc01ba594c9cca88d,31,female,2024-04-24_12h33.29.223,stockport_simplified,2022.2.4,Win32,59.88023952,661e456ee6de07e70aa9ef7b,6628df81af01ed4d48ca786d,,,,,,,,,,,,,,,,,,,,,,,,,,,,,,,,,,,,,,,,,,,,,,,,,,,,,,,,0,37,37,2,1,A,X,N,o1_image,stimuli/out1.png,stimuli/correct_out1.png,stimuli/out2.png,,,,,,,,,,,,,,,,,,,,,,,,,,,,,,,,,,,,,,
,,60a3a03bc01ba594c9cca88d,31,female,2024-04-24_12h33.29.223,stockport_simplified,2022.2.4,Win32,59.88023952,661e456ee6de07e70aa9ef7b,6628df81af01ed4d48ca786d,,,,,,,,,,,,,,,,,,,,,,,,,,,,,,,,,,512.02,513.9026,"[7,5,4,1,6,8,2,3]","[[-0.3,0.2],[0.3,0.2]]","[[0.125,-0.2],[-0.125,-0.2]]",-0.107407407,-0.199074074,1,0,0,1.3653,o2_image,513.9038,1,514.4036,514.4036,516.4023,0,0,0,0,1,,,,,,,,,,,,,,,,,,,,,,,,,,,,,,,,,,,,,,,,,,,,,,,,,,
,,60a3a03bc01ba594c9cca88d,31,female,2024-04-24_12h33.29.223,stockport_simplified,2022.2.4,Win32,59.88023952,661e456ee6de07e70aa9ef7b,6628df81af01ed4d48ca786d,,,,,,,,,,,,,,,,,,,,,,,,,,,,,,,,,,,,,,,,,,,,,,,,,,,,,,,,0,38,38,12,1,B,X,N,o2_image,stimuli/out2.png,stimuli/out1.png,stimuli/correct_out2.png,,,,,,,,,,,,,,,,,,,,,,,,,,,,,,,,,,,,,,
,,60a3a03bc01ba594c9cca88d,31,female,2024-04-24_12h33.29.223,stockport_simplified,2022.2.4,Win32,59.88023952,661e456ee6de07e70aa9ef7b,6628df81af01ed4d48ca786d,,,,,,,,,,,,,,,,,,,,,,,,,,,,,,,,,,516.4027,518.7191,"[7,5,4,1,6,8,2,3]","[[-0.3,0.2],[0.3,0.2]]","[[0.125,-0.2],[-0.125,-0.2]]",0.091666667,-0.197222222,1,0,0,1.7985,o1_image,518.7339,0,519.236,519.236,521.2359,0,0,0,0,1,,,,,,,,,,,,,,,,,,,,,,,,,,,,,,,,,,,,,,,,,,,,,,,,,,
,,60a3a03bc01ba594c9cca88d,31,female,2024-04-24_12h33.29.223,stockport_simplified,2022.2.4,Win32,59.88023952,661e456ee6de07e70aa9ef7b,6628df81af01ed4d48ca786d,,,,,,,,,,,,,,,,,,,,,,,,,,,,,,,,,,,,,,,,,,,,,,,,,,,,,,,,0,39,39,57,1,N,M,D,o2_image,stimuli/out2.png,stimuli/out1.png,stimuli/correct_out2.png,,,,,,,,,,,,,,,,,,,,,,,,,,,,,,,,,,,,,,
,,60a3a03bc01ba594c9cca88d,31,female,2024-04-24_12h33.29.223,stockport_simplified,2022.2.4,Win32,59.88023952,661e456ee6de07e70aa9ef7b,6628df81af01ed4d48ca786d,,,,,,,,,,,,,,,,,,,,,,,,,,,,,,,,,,521.2367,523.3864,"[7,5,4,1,6,8,2,3]","[[0.3,0.2],[-0.3,0.2]]","[[-0.125,-0.2],[0.125,-0.2]]",0.112037037,-0.203703704,1,0,0,1.6311,o2_image,523.3881,1,523.8873,523.8873,525.8867,0,0,0,0,1,,,,,,,,,,,,,,,,,,,,,,,,,,,,,,,,,,,,,,,,,,,,,,,,,,
,,60a3a03bc01ba594c9cca88d,31,female,2024-04-24_12h33.29.223,stockport_simplified,2022.2.4,Win32,59.88023952,661e456ee6de07e70aa9ef7b,6628df81af01ed4d48ca786d,,,,,,,,,,,,,,,,,,,,,,,,,,,,,,,,,,,,,,,,,,,,,,,,,,,,,,,,0,40,40,13,1,B,X,N,o2_image,stimuli/out2.png,stimuli/out1.png,stimuli/correct_out2.png,,,,,,,,,,,,,,,,,,,,,,,,,,,,,,,,,,,,,,
,,60a3a03bc01ba594c9cca88d,31,female,2024-04-24_12h33.29.223,stockport_simplified,2022.2.4,Win32,59.88023952,661e456ee6de07e70aa9ef7b,6628df81af01ed4d48ca786d,,,,,,,,,,,,,,,,,,,,,,,,,,,,,,,,,,525.8874,527.9358,"[7,5,4,1,6,8,2,3]","[[-0.3,0.2],[0.3,0.2]]","[[0.125,-0.2],[-0.125,-0.2]]",0.114814815,-0.205555556,1,0,0,1.5313,o1_image,527.937,1,528.437,528.4371,530.4367,0,0,0,0,1,,,,,,,,,,,,,,,,,,,,,,,,,,,,,,,,,,,,,,,,,,,,,,,,,,
,,60a3a03bc01ba594c9cca88d,31,female,2024-04-24_12h33.29.223,stockport_simplified,2022.2.4,Win32,59.88023952,661e456ee6de07e70aa9ef7b,6628df81af01ed4d48ca786d,,,,,,,,,,,,,,,,,,,,,,,,,,,,,,,,,,,,,,,,,,,,,,,,,,,,,,,,0,41,41,20,1,N,M,C,o1_image,stimuli/out1.png,stimuli/correct_out1.png,stimuli/out2.png,,,,,,,,,,,,,,,,,,,,,,,,,,,,,,,,,,,,,,
,,60a3a03bc01ba594c9cca88d,31,female,2024-04-24_12h33.29.223,stockport_simplified,2022.2.4,Win32,59.88023952,661e456ee6de07e70aa9ef7b,6628df81af01ed4d48ca786d,,,,,,,,,,,,,,,,,,,,,,,,,,,,,,,,,,530.4372,531.7695,"[7,5,4,1,6,8,2,3]","[[-0.3,0.2],[0.3,0.2]]","[[0.125,-0.2],[-0.125,-0.2]]",0.114814815,-0.205555556,1,0,0,0.8163,o1_image,531.7709,1,532.2702,532.2702,534.2697,0,0,0,0,1,,,,,,,,,,,,,,,,,,,,,,,,,,,,,,,,,,,,,,,,,,,,,,,,,,
,,60a3a03bc01ba594c9cca88d,31,female,2024-04-24_12h33.29.223,stockport_simplified,2022.2.4,Win32,59.88023952,661e456ee6de07e70aa9ef7b,6628df81af01ed4d48ca786d,,,,,,,,,,,,,,,,,,,,,,,,,,,,,,,,,,,,,,,,,,,,,,,,,,,,,,,,0,42,42,54,1,N,M,C,o1_image,stimuli/out1.png,stimuli/correct_out1.png,stimuli/out2.png,,,,,,,,,,,,,,,,,,,,,,,,,,,,,,,,,,,,,,
,,60a3a03bc01ba594c9cca88d,31,female,2024-04-24_12h33.29.223,stockport_simplified,2022.2.4,Win32,59.88023952,661e456ee6de07e70aa9ef7b,6628df81af01ed4d48ca786d,,,,,,,,,,,,,,,,,,,,,,,,,,,,,,,,,,534.2704,536.8532,"[7,5,4,1,6,8,2,3]","[[0.3,0.2],[-0.3,0.2]]","[[0.125,-0.2],[-0.125,-0.2]]",-0.1,-0.205555556,1,0,0,2.0655,o2_image,536.8658,0,537.3541,537.3542,539.3533,0,0,0,0,1,,,,,,,,,,,,,,,,,,,,,,,,,,,,,,,,,,,,,,,,,,,,,,,,,,
,,60a3a03bc01ba594c9cca88d,31,female,2024-04-24_12h33.29.223,stockport_simplified,2022.2.4,Win32,59.88023952,661e456ee6de07e70aa9ef7b,6628df81af01ed4d48ca786d,,,,,,,,,,,,,,,,,,,,,,,,,,,,,,,,,,,,,,,,,,,,,,,,,,,,,,,,0,43,43,1,1,A,X,N,o1_image,stimuli/out1.png,stimuli/correct_out1.png,stimuli/out2.png,,,,,,,,,,,,,,,,,,,,,,,,,,,,,,,,,,,,,,
,,60a3a03bc01ba594c9cca88d,31,female,2024-04-24_12h33.29.223,stockport_simplified,2022.2.4,Win32,59.88023952,661e456ee6de07e70aa9ef7b,6628df81af01ed4d48ca786d,,,,,,,,,,,,,,,,,,,,,,,,,,,,,,,,,,539.354,541.2529,"[7,5,4,1,6,8,2,3]","[[-0.3,0.2],[0.3,0.2]]","[[0.125,-0.2],[-0.125,-0.2]]",-0.138888889,-0.208333333,1,0,0,1.3833,o2_image,541.2541,0,541.7528,541.7528,543.753,0,0,0,0,1,,,,,,,,,,,,,,,,,,,,,,,,,,,,,,,,,,,,,,,,,,,,,,,,,,
,,60a3a03bc01ba594c9cca88d,31,female,2024-04-24_12h33.29.223,stockport_simplified,2022.2.4,Win32,59.88023952,661e456ee6de07e70aa9ef7b,6628df81af01ed4d48ca786d,,,,,,,,,,,,,,,,,,,,,,,,,,,,,,,,,,,,,,,,,,,,,,,,,,,,,,,,0,44,44,9,1,A,Y,N,o1_image,stimuli/out1.png,stimuli/correct_out1.png,stimuli/out2.png,,,,,,,,,,,,,,,,,,,,,,,,,,,,,,,,,,,,,,
,,60a3a03bc01ba594c9cca88d,31,female,2024-04-24_12h33.29.223,stockport_simplified,2022.2.4,Win32,59.88023952,661e456ee6de07e70aa9ef7b,6628df81af01ed4d48ca786d,,,,,,,,,,,,,,,,,,,,,,,,,,,,,,,,,,543.7537,545.9364,"[7,5,4,1,6,8,2,3]","[[-0.3,0.2],[0.3,0.2]]","[[-0.125,-0.2],[0.125,-0.2]]",-0.138888889,-0.188888889,1,0,0,1.6657,o1_image,545.9378,1,546.4359,546.4359,548.4364,0,0,0,0,1,,,,,,,,,,,,,,,,,,,,,,,,,,,,,,,,,,,,,,,,,,,,,,,,,,
,,60a3a03bc01ba594c9cca88d,31,female,2024-04-24_12h33.29.223,stockport_simplified,2022.2.4,Win32,59.88023952,661e456ee6de07e70aa9ef7b,6628df81af01ed4d48ca786d,,,,,,,,,,,,,,,,,,,,,,,,,,,,,,,,,,,,,,,,,,,,,,,,,,,,,,,,0,45,45,33,1,A,X,N,o1_image,stimuli/out1.png,stimuli/correct_out1.png,stimuli/out2.png,,,,,,,,,,,,,,,,,,,,,,,,,,,,,,,,,,,,,,
,,60a3a03bc01ba594c9cca88d,31,female,2024-04-24_12h33.29.223,stockport_simplified,2022.2.4,Win32,59.88023952,661e456ee6de07e70aa9ef7b,6628df81af01ed4d48ca786d,,,,,,,,,,,,,,,,,,,,,,,,,,,,,,,,,,548.4373,550.8193,"[7,5,4,1,6,8,2,3]","[[0.3,0.2],[-0.3,0.2]]","[[-0.125,-0.2],[0.125,-0.2]]",0.112962963,-0.216666667,1,0,0,1.8657,o2_image,550.8389,0,551.3371,551.3372,553.3361,0,0,0,0,1,,,,,,,,,,,,,,,,,,,,,,,,,,,,,,,,,,,,,,,,,,,,,,,,,,
,,60a3a03bc01ba594c9cca88d,31,female,2024-04-24_12h33.29.223,stockport_simplified,2022.2.4,Win32,59.88023952,661e456ee6de07e70aa9ef7b,6628df81af01ed4d48ca786d,,,,,,,,,,,,,,,,,,,,,,,,,,,,,,,,,,,,,,,,,,,,,,,,,,,,,,,,0,46,46,5,1,A,Y,N,o1_image,stimuli/out1.png,stimuli/correct_out1.png,stimuli/out2.png,,,,,,,,,,,,,,,,,,,,,,,,,,,,,,,,,,,,,,
,,60a3a03bc01ba594c9cca88d,31,female,2024-04-24_12h33.29.223,stockport_simplified,2022.2.4,Win32,59.88023952,661e456ee6de07e70aa9ef7b,6628df81af01ed4d48ca786d,,,,,,,,,,,,,,,,,,,,,,,,,,,,,,,,,,553.3368,555.5541,"[7,5,4,1,6,8,2,3]","[[0.3,0.2],[-0.3,0.2]]","[[-0.125,-0.2],[0.125,-0.2]]",0.168518519,-0.211111111,1,0,0,1.7017,o2_image,555.5547,1,556.0525,556.0525,558.0526,0,0,0,0,1,,,,,,,,,,,,,,,,,,,,,,,,,,,,,,,,,,,,,,,,,,,,,,,,,,
,,60a3a03bc01ba594c9cca88d,31,female,2024-04-24_12h33.29.223,stockport_simplified,2022.2.4,Win32,59.88023952,661e456ee6de07e70aa9ef7b,6628df81af01ed4d48ca786d,,,,,,,,,,,,,,,,,,,,,,,,,,,,,,,,,,,,,,,,,,,,,,,,,,,,,,,,0,47,47,47,1,B,Y,N,o2_image,stimuli/out2.png,stimuli/out1.png,stimuli/correct_out2.png,,,,,,,,,,,,,,,,,,,,,,,,,,,,,,,,,,,,,,
,,60a3a03bc01ba594c9cca88d,31,female,2024-04-24_12h33.29.223,stockport_simplified,2022.2.4,Win32,59.88023952,661e456ee6de07e70aa9ef7b,6628df81af01ed4d48ca786d,,,,,,,,,,,,,,,,,,,,,,,,,,,,,,,,,,558.0531,560.8363,"[7,5,4,1,6,8,2,3]","[[-0.3,0.2],[0.3,0.2]]","[[-0.125,-0.2],[0.125,-0.2]]",-0.12037037,-0.197222222,1,0,0,2.2824,o1_image,560.854,1,561.3532,561.3532,563.3542,0,0,0,0,1,,,,,,,,,,,,,,,,,,,,,,,,,,,,,,,,,,,,,,,,,,,,,,,,,,
,,60a3a03bc01ba594c9cca88d,31,female,2024-04-24_12h33.29.223,stockport_simplified,2022.2.4,Win32,59.88023952,661e456ee6de07e70aa9ef7b,6628df81af01ed4d48ca786d,,,,,,,,,,,,,,,,,,,,,,,,,,,,,,,,,,,,,,,,,,,,,,,,,,,,,,,,0,48,48,34,1,A,X,N,o1_image,stimuli/out1.png,stimuli/correct_out1.png,stimuli/out2.png,,,,,,,,,,,,,,,,,,,,,,,,,,,,,,,,,,,,,,
,,60a3a03bc01ba594c9cca88d,31,female,2024-04-24_12h33.29.223,stockport_simplified,2022.2.4,Win32,59.88023952,661e456ee6de07e70aa9ef7b,6628df81af01ed4d48ca786d,,,,,,,,,,,,,,,,,,,,,,,,,,,,,,,,,,563.3552,565.9041,"[7,5,4,1,6,8,2,3]","[[0.3,0.2],[-0.3,0.2]]","[[0.125,-0.2],[-0.125,-0.2]]",-0.099074074,-0.192592593,1,0,0,2.033,o2_image,565.9048,1,566.403,566.4031,568.4023,0,0,0,0,1,,,,,,,,,,,,,,,,,,,,,,,,,,,,,,,,,,,,,,,,,,,,,,,,,,
,,60a3a03bc01ba594c9cca88d,31,female,2024-04-24_12h33.29.223,stockport_simplified,2022.2.4,Win32,59.88023952,661e456ee6de07e70aa9ef7b,6628df81af01ed4d48ca786d,,,,,,,,,,,,,,,,,,,,,,,,,,,,,,,,,,,,,,,,,,,,,,,,,,,,,,,,0,49,49,42,1,B,X,N,o2_image,stimuli/out2.png,stimuli/out1.png,stimuli/correct_out2.png,,,,,,,,,,,,,,,,,,,,,,,,,,,,,,,,,,,,,,
,,60a3a03bc01ba594c9cca88d,31,female,2024-04-24_12h33.29.223,stockport_simplified,2022.2.4,Win32,59.88023952,661e456ee6de07e70aa9ef7b,6628df81af01ed4d48ca786d,,,,,,,,,,,,,,,,,,,,,,,,,,,,,,,,,,568.4033,570.3874,"[7,5,4,1,6,8,2,3]","[[0.3,0.2],[-0.3,0.2]]","[[0.125,-0.2],[-0.125,-0.2]]",0.182407407,-0.183333333,1,0,0,1.4678,o1_image,570.388,1,570.886,570.886,572.8861,0,0,0,0,1,,,,,,,,,,,,,,,,,,,,,,,,,,,,,,,,,,,,,,,,,,,,,,,,,,
,,60a3a03bc01ba594c9cca88d,31,female,2024-04-24_12h33.29.223,stockport_simplified,2022.2.4,Win32,59.88023952,661e456ee6de07e70aa9ef7b,6628df81af01ed4d48ca786d,,,,,,,,,,,,,,,,,,,,,,,,,,,,,,,,,,,,,,,,,,,,,,,,,,,,,,,,0,50,50,36,1,A,Y,N,o1_image,stimuli/out1.png,stimuli/correct_out1.png,stimuli/out2.png,,,,,,,,,,,,,,,,,,,,,,,,,,,,,,,,,,,,,,
,,60a3a03bc01ba594c9cca88d,31,female,2024-04-24_12h33.29.223,stockport_simplified,2022.2.4,Win32,59.88023952,661e456ee6de07e70aa9ef7b,6628df81af01ed4d48ca786d,,,,,,,,,,,,,,,,,,,,,,,,,,,,,,,,,,572.8868,575.0197,"[7,5,4,1,6,8,2,3]","[[0.3,0.2],[-0.3,0.2]]","[[-0.125,-0.2],[0.125,-0.2]]",-0.080555556,-0.202777778,1,0,0,1.6161,o1_image,575.0211,0,575.5192,575.5193,577.5204,0,0,0,0,1,,,,,,,,,,,,,,,,,,,,,,,,,,,,,,,,,,,,,,,,,,,,,,,,,,
,,60a3a03bc01ba594c9cca88d,31,female,2024-04-24_12h33.29.223,stockport_simplified,2022.2.4,Win32,59.88023952,661e456ee6de07e70aa9ef7b,6628df81af01ed4d48ca786d,,,,,,,,,,,,,,,,,,,,,,,,,,,,,,,,,,,,,,,,,,,,,,,,,,,,,,,,0,51,51,48,1,B,Y,N,o2_image,stimuli/out2.png,stimuli/out1.png,stimuli/correct_out2.png,,,,,,,,,,,,,,,,,,,,,,,,,,,,,,,,,,,,,,
,,60a3a03bc01ba594c9cca88d,31,female,2024-04-24_12h33.29.223,stockport_simplified,2022.2.4,Win32,59.88023952,661e456ee6de07e70aa9ef7b,6628df81af01ed4d48ca786d,,,,,,,,,,,,,,,,,,,,,,,,,,,,,,,,,,577.5209,579.5036,"[7,5,4,1,6,8,2,3]","[[-0.3,0.2],[0.3,0.2]]","[[0.125,-0.2],[-0.125,-0.2]]",0.144444444,-0.212037037,1,0,0,1.4661,o1_image,579.5053,0,580.0031,580.0032,582.0031,0,0,0,0,1,,,,,,,,,,,,,,,,,,,,,,,,,,,,,,,,,,,,,,,,,,,,,,,,,,
,,60a3a03bc01ba594c9cca88d,31,female,2024-04-24_12h33.29.223,stockport_simplified,2022.2.4,Win32,59.88023952,661e456ee6de07e70aa9ef7b,6628df81af01ed4d48ca786d,,,,,,,,,,,,,,,,,,,,,,,,,,,,,,,,,,,,,,,,,,,,,,,,,,,,,,,,0,52,52,55,1,N,M,D,o2_image,stimuli/out2.png,stimuli/out1.png,stimuli/correct_out2.png,,,,,,,,,,,,,,,,,,,,,,,,,,,,,,,,,,,,,,
,,60a3a03bc01ba594c9cca88d,31,female,2024-04-24_12h33.29.223,stockport_simplified,2022.2.4,Win32,59.88023952,661e456ee6de07e70aa9ef7b,6628df81af01ed4d48ca786d,,,,,,,,,,,,,,,,,,,,,,,,,,,,,,,,,,582.0038,584.9199,"[7,5,4,1,6,8,2,3]","[[0.3,0.2],[-0.3,0.2]]","[[-0.125,-0.2],[0.125,-0.2]]",0.168518519,-0.2,1,0,0,2.3985,o2_image,584.9356,0,585.4356,585.4358,587.4368,0,0,0,0,1,,,,,,,,,,,,,,,,,,,,,,,,,,,,,,,,,,,,,,,,,,,,,,,,,,
,,60a3a03bc01ba594c9cca88d,31,female,2024-04-24_12h33.29.223,stockport_simplified,2022.2.4,Win32,59.88023952,661e456ee6de07e70aa9ef7b,6628df81af01ed4d48ca786d,,,,,,,,,,,,,,,,,,,,,,,,,,,,,,,,,,,,,,,,,,,,,,,,,,,,,,,,0,53,53,8,1,A,Y,N,o1_image,stimuli/out1.png,stimuli/correct_out1.png,stimuli/out2.png,,,,,,,,,,,,,,,,,,,,,,,,,,,,,,,,,,,,,,
,,60a3a03bc01ba594c9cca88d,31,female,2024-04-24_12h33.29.223,stockport_simplified,2022.2.4,Win32,59.88023952,661e456ee6de07e70aa9ef7b,6628df81af01ed4d48ca786d,,,,,,,,,,,,,,,,,,,,,,,,,,,,,,,,,,587.4376,589.3196,"[7,5,4,1,6,8,2,3]","[[0.3,0.2],[-0.3,0.2]]","[[-0.125,-0.2],[0.125,-0.2]]",0.160185185,-0.198148148,1,0,0,1.366,o2_image,589.3213,0,589.8197,589.8197,591.8193,0,0,0,0,1,,,,,,,,,,,,,,,,,,,,,,,,,,,,,,,,,,,,,,,,,,,,,,,,,,
,,60a3a03bc01ba594c9cca88d,31,female,2024-04-24_12h33.29.223,stockport_simplified,2022.2.4,Win32,59.88023952,661e456ee6de07e70aa9ef7b,6628df81af01ed4d48ca786d,,,,,,,,,,,,,,,,,,,,,,,,,,,,,,,,,,,,,,,,,,,,,,,,,,,,,,,,0,54,54,31,1,A,X,N,o1_image,stimuli/out1.png,stimuli/correct_out1.png,stimuli/out2.png,,,,,,,,,,,,,,,,,,,,,,,,,,,,,,,,,,,,,,
,,60a3a03bc01ba594c9cca88d,31,female,2024-04-24_12h33.29.223,stockport_simplified,2022.2.4,Win32,59.88023952,661e456ee6de07e70aa9ef7b,6628df81af01ed4d48ca786d,,,,,,,,,,,,,,,,,,,,,,,,,,,,,,,,,,591.8202,594.3034,"[7,5,4,1,6,8,2,3]","[[-0.3,0.2],[0.3,0.2]]","[[-0.125,-0.2],[0.125,-0.2]]",-0.115740741,-0.205555556,1,0,0,1.9669,o1_image,594.3047,1,594.8033,594.8034,596.8028,0,0,0,0,1,,,,,,,,,,,,,,,,,,,,,,,,,,,,,,,,,,,,,,,,,,,,,,,,,,
,,60a3a03bc01ba594c9cca88d,31,female,2024-04-24_12h33.29.223,stockport_simplified,2022.2.4,Win32,59.88023952,661e456ee6de07e70aa9ef7b,6628df81af01ed4d48ca786d,,,,,,,,,,,,,,,,,,,,,,,,,,,,,,,,,,,,,,,,,,,,,,,,,,,,,,,,0,55,55,6,1,A,Y,N,o1_image,stimuli/out1.png,stimuli/correct_out1.png,stimuli/out2.png,,,,,,,,,,,,,,,,,,,,,,,,,,,,,,,,,,,,,,
,,60a3a03bc01ba594c9cca88d,31,female,2024-04-24_12h33.29.223,stockport_simplified,2022.2.4,Win32,59.88023952,661e456ee6de07e70aa9ef7b,6628df81af01ed4d48ca786d,,,,,,,,,,,,,,,,,,,,,,,,,,,,,,,,,,596.8034,598.8862,"[7,5,4,1,6,8,2,3]","[[0.3,0.2],[-0.3,0.2]]","[[-0.125,-0.2],[0.125,-0.2]]",0.116666667,-0.222222222,1,0,0,1.5659,o2_image,598.887,0,599.3857,599.3857,601.3858,0,0,0,0,1,,,,,,,,,,,,,,,,,,,,,,,,,,,,,,,,,,,,,,,,,,,,,,,,,,
,,60a3a03bc01ba594c9cca88d,31,female,2024-04-24_12h33.29.223,stockport_simplified,2022.2.4,Win32,59.88023952,661e456ee6de07e70aa9ef7b,6628df81af01ed4d48ca786d,,,,,,,,,,,,,,,,,,,,,,,,,,,,,,,,,,,,,,,,,,,,,,,,,,,,,,,,0,56,56,32,1,A,X,N,o1_image,stimuli/out1.png,stimuli/correct_out1.png,stimuli/out2.png,,,,,,,,,,,,,,,,,,,,,,,,,,,,,,,,,,,,,,
,,60a3a03bc01ba594c9cca88d,31,female,2024-04-24_12h33.29.223,stockport_simplified,2022.2.4,Win32,59.88023952,661e456ee6de07e70aa9ef7b,6628df81af01ed4d48ca786d,,,,,,,,,,,,,,,,,,,,,,,,,,,,,,,,,,601.3862,603.2192,"[7,5,4,1,6,8,2,3]","[[0.3,0.2],[-0.3,0.2]]","[[-0.125,-0.2],[0.125,-0.2]]",-0.090740741,-0.22037037,1,0,0,1.3157,o1_image,603.2203,1,603.719,603.7191,605.7206,0,0,0,0,1,,,,,,,,,,,,,,,,,,,,,,,,,,,,,,,,,,,,,,,,,,,,,,,,,,
,,60a3a03bc01ba594c9cca88d,31,female,2024-04-24_12h33.29.223,stockport_simplified,2022.2.4,Win32,59.88023952,661e456ee6de07e70aa9ef7b,6628df81af01ed4d48ca786d,,,,,,,,,,,,,,,,,,,,,,,,,,,,,,,,,,,,,,,,,,,,,,,,,,,,,,,,0,57,57,22,1,N,M,C,o1_image,stimuli/out1.png,stimuli/correct_out1.png,stimuli/out2.png,,,,,,,,,,,,,,,,,,,,,,,,,,,,,,,,,,,,,,
,,60a3a03bc01ba594c9cca88d,31,female,2024-04-24_12h33.29.223,stockport_simplified,2022.2.4,Win32,59.88023952,661e456ee6de07e70aa9ef7b,6628df81af01ed4d48ca786d,,,,,,,,,,,,,,,,,,,,,,,,,,,,,,,,,,605.7212,607.1709,"[7,5,4,1,6,8,2,3]","[[0.3,0.2],[-0.3,0.2]]","[[-0.125,-0.2],[0.125,-0.2]]",-0.089814815,-0.22037037,1,0,0,0.9338,o1_image,607.172,0,607.6692,607.6692,609.6692,0,0,0,0,1,,,,,,,,,,,,,,,,,,,,,,,,,,,,,,,,,,,,,,,,,,,,,,,,,,
,,60a3a03bc01ba594c9cca88d,31,female,2024-04-24_12h33.29.223,stockport_simplified,2022.2.4,Win32,59.88023952,661e456ee6de07e70aa9ef7b,6628df81af01ed4d48ca786d,,,,,,,,,,,,,,,,,,,,,,,,,,,,,,,,,,,,,,,,,,,,,,,,,,,,,,,,0,58,58,26,1,N,M,D,o2_image,stimuli/out2.png,stimuli/out1.png,stimuli/correct_out2.png,,,,,,,,,,,,,,,,,,,,,,,,,,,,,,,,,,,,,,
,,60a3a03bc01ba594c9cca88d,31,female,2024-04-24_12h33.29.223,stockport_simplified,2022.2.4,Win32,59.88023952,661e456ee6de07e70aa9ef7b,6628df81af01ed4d48ca786d,,,,,,,,,,,,,,,,,,,,,,,,,,,,,,,,,,609.6698,611.404,"[7,5,4,1,6,8,2,3]","[[0.3,0.2],[-0.3,0.2]]","[[-0.125,-0.2],[0.125,-0.2]]",0.082407407,-0.211111111,1,0,0,1.2169,o2_image,611.4046,1,611.903,611.9031,613.9027,0,0,0,0,1,,,,,,,,,,,,,,,,,,,,,,,,,,,,,,,,,,,,,,,,,,,,,,,,,,
,,60a3a03bc01ba594c9cca88d,31,female,2024-04-24_12h33.29.223,stockport_simplified,2022.2.4,Win32,59.88023952,661e456ee6de07e70aa9ef7b,6628df81af01ed4d48ca786d,,,,,,,,,,,,,,,,,,,,,,,,,,,,,,,,,,,,,,,,,,,,,,,,,,,,,,,,0,59,59,58,1,N,M,D,o2_image,stimuli/out2.png,stimuli/out1.png,stimuli/correct_out2.png,,,,,,,,,,,,,,,,,,,,,,,,,,,,,,,,,,,,,,
,,60a3a03bc01ba594c9cca88d,31,female,2024-04-24_12h33.29.223,stockport_simplified,2022.2.4,Win32,59.88023952,661e456ee6de07e70aa9ef7b,6628df81af01ed4d48ca786d,,,,,,,,,,,,,,,,,,,,,,,,,,,,,,,,,,613.9033,616.4195,"[7,5,4,1,6,8,2,3]","[[0.3,0.2],[-0.3,0.2]]","[[0.125,-0.2],[-0.125,-0.2]]",0.14537037,-0.207407407,1,0,0,1.9983,o1_image,616.4209,1,616.9206,616.9206,618.9193,0,0,0,0,1,,,,,,,,,,,,,,,,,,,,,,,,,,,,,,,,,,,,,,,,,,,,,,,,,,
,,60a3a03bc01ba594c9cca88d,31,female,2024-04-24_12h33.29.223,stockport_simplified,2022.2.4,Win32,59.88023952,661e456ee6de07e70aa9ef7b,6628df81af01ed4d48ca786d,,,,,,,,,,,,,,,,,,,,,,,,,,,,,,,,,,,,,,,,,,,,,,,,,,,,,,,,1,0,60,1,1,A,X,N,o1_image,stimuli/out1.png,stimuli/correct_out1.png,stimuli/out2.png,,,,,,,,,,,,,,,,,,,,,,,,,,,,,,,,,,,,,,
,,60a3a03bc01ba594c9cca88d,31,female,2024-04-24_12h33.29.223,stockport_simplified,2022.2.4,Win32,59.88023952,661e456ee6de07e70aa9ef7b,6628df81af01ed4d48ca786d,,,,,,,,,,,,,,,,,,,,,,,,,,,,,,,,,,618.9199,621.1857,"[7,5,4,1,6,8,2,3]","[[0.3,0.2],[-0.3,0.2]]","[[0.125,-0.2],[-0.125,-0.2]]",-0.07962963,-0.203703704,1,0,0,1.7492,o2_image,621.1866,1,621.6857,621.6858,623.6863,0,0,0,0,1,,,,,,,,,,,,,,,,,,,,,,,,,,,,,,,,,,,,,,,,,,,,,,,,,,
,,60a3a03bc01ba594c9cca88d,31,female,2024-04-24_12h33.29.223,stockport_simplified,2022.2.4,Win32,59.88023952,661e456ee6de07e70aa9ef7b,6628df81af01ed4d48ca786d,,,,,,,,,,,,,,,,,,,,,,,,,,,,,,,,,,,,,,,,,,,,,,,,,,,,,,,,1,1,61,40,1,B,X,N,o2_image,stimuli/out2.png,stimuli/out1.png,stimuli/correct_out2.png,,,,,,,,,,,,,,,,,,,,,,,,,,,,,,,,,,,,,,
,,60a3a03bc01ba594c9cca88d,31,female,2024-04-24_12h33.29.223,stockport_simplified,2022.2.4,Win32,59.88023952,661e456ee6de07e70aa9ef7b,6628df81af01ed4d48ca786d,,,,,,,,,,,,,,,,,,,,,,,,,,,,,,,,,,623.6869,625.2868,"[7,5,4,1,6,8,2,3]","[[-0.3,0.2],[0.3,0.2]]","[[0.125,-0.2],[-0.125,-0.2]]",0.139814815,-0.194444444,1,0,0,1.0822,o1_image,625.2879,0,625.7865,625.7866,627.7871,0,0,0,0,1,,,,,,,,,,,,,,,,,,,,,,,,,,,,,,,,,,,,,,,,,,,,,,,,,,
,,60a3a03bc01ba594c9cca88d,31,female,2024-04-24_12h33.29.223,stockport_simplified,2022.2.4,Win32,59.88023952,661e456ee6de07e70aa9ef7b,6628df81af01ed4d48ca786d,,,,,,,,,,,,,,,,,,,,,,,,,,,,,,,,,,,,,,,,,,,,,,,,,,,,,,,,1,2,62,27,1,N,M,D,o2_image,stimuli/out2.png,stimuli/out1.png,stimuli/correct_out2.png,,,,,,,,,,,,,,,,,,,,,,,,,,,,,,,,,,,,,,
,,60a3a03bc01ba594c9cca88d,31,female,2024-04-24_12h33.29.223,stockport_simplified,2022.2.4,Win32,59.88023952,661e456ee6de07e70aa9ef7b,6628df81af01ed4d48ca786d,,,,,,,,,,,,,,,,,,,,,,,,,,,,,,,,,,627.7877,629.5531,"[7,5,4,1,6,8,2,3]","[[-0.3,0.2],[0.3,0.2]]","[[0.125,-0.2],[-0.125,-0.2]]",-0.098148148,-0.194444444,1,0,0,1.2493,o2_image,629.5547,0,630.0531,630.0531,632.0544,0,0,0,0,1,,,,,,,,,,,,,,,,,,,,,,,,,,,,,,,,,,,,,,,,,,,,,,,,,,
,,60a3a03bc01ba594c9cca88d,31,female,2024-04-24_12h33.29.223,stockport_simplified,2022.2.4,Win32,59.88023952,661e456ee6de07e70aa9ef7b,6628df81af01ed4d48ca786d,,,,,,,,,,,,,,,,,,,,,,,,,,,,,,,,,,,,,,,,,,,,,,,,,,,,,,,,1,3,63,7,1,A,Y,N,o1_image,stimuli/out1.png,stimuli/correct_out1.png,stimuli/out2.png,,,,,,,,,,,,,,,,,,,,,,,,,,,,,,,,,,,,,,
,,60a3a03bc01ba594c9cca88d,31,female,2024-04-24_12h33.29.223,stockport_simplified,2022.2.4,Win32,59.88023952,661e456ee6de07e70aa9ef7b,6628df81af01ed4d48ca786d,,,,,,,,,,,,,,,,,,,,,,,,,,,,,,,,,,632.0549,634.0867,"[7,5,4,1,6,8,2,3]","[[-0.3,0.2],[0.3,0.2]]","[[-0.125,-0.2],[0.125,-0.2]]",-0.073148148,-0.19537037,1,0,0,1.5156,o1_image,634.0887,0,634.5866,634.5867,636.5872,0,0,0,0,1,,,,,,,,,,,,,,,,,,,,,,,,,,,,,,,,,,,,,,,,,,,,,,,,,,
,,60a3a03bc01ba594c9cca88d,31,female,2024-04-24_12h33.29.223,stockport_simplified,2022.2.4,Win32,59.88023952,661e456ee6de07e70aa9ef7b,6628df81af01ed4d48ca786d,,,,,,,,,,,,,,,,,,,,,,,,,,,,,,,,,,,,,,,,,,,,,,,,,,,,,,,,1,4,64,55,1,N,M,D,o2_image,stimuli/out2.png,stimuli/out1.png,stimuli/correct_out2.png,,,,,,,,,,,,,,,,,,,,,,,,,,,,,,,,,,,,,,
,,60a3a03bc01ba594c9cca88d,31,female,2024-04-24_12h33.29.223,stockport_simplified,2022.2.4,Win32,59.88023952,661e456ee6de07e70aa9ef7b,6628df81af01ed4d48ca786d,,,,,,,,,,,,,,,,,,,,,,,,,,,,,,,,,,636.5881,638.8365,"[7,5,4,1,6,8,2,3]","[[0.3,0.2],[-0.3,0.2]]","[[0.125,-0.2],[-0.125,-0.2]]",0.110185185,-0.206481481,1,0,0,1.7322,o1_image,638.8491,0,639.3533,639.3534,641.3532,0,0,0,0,1,,,,,,,,,,,,,,,,,,,,,,,,,,,,,,,,,,,,,,,,,,,,,,,,,,
,,60a3a03bc01ba594c9cca88d,31,female,2024-04-24_12h33.29.223,stockport_simplified,2022.2.4,Win32,59.88023952,661e456ee6de07e70aa9ef7b,6628df81af01ed4d48ca786d,,,,,,,,,,,,,,,,,,,,,,,,,,,,,,,,,,,,,,,,,,,,,,,,,,,,,,,,1,5,65,14,1,B,X,N,o2_image,stimuli/out2.png,stimuli/out1.png,stimuli/correct_out2.png,,,,,,,,,,,,,,,,,,,,,,,,,,,,,,,,,,,,,,
,,60a3a03bc01ba594c9cca88d,31,female,2024-04-24_12h33.29.223,stockport_simplified,2022.2.4,Win32,59.88023952,661e456ee6de07e70aa9ef7b,6628df81af01ed4d48ca786d,,,,,,,,,,,,,,,,,,,,,,,,,,,,,,,,,,641.3539,643.3688,"[7,5,4,1,6,8,2,3]","[[0.3,0.2],[-0.3,0.2]]","[[0.125,-0.2],[-0.125,-0.2]]",-0.087962963,-0.207407407,1,0,0,1.499,o2_image,643.3697,1,643.8694,643.8694,645.8698,0,0,0,0,1,,,,,,,,,,,,,,,,,,,,,,,,,,,,,,,,,,,,,,,,,,,,,,,,,,
,,60a3a03bc01ba594c9cca88d,31,female,2024-04-24_12h33.29.223,stockport_simplified,2022.2.4,Win32,59.88023952,661e456ee6de07e70aa9ef7b,6628df81af01ed4d48ca786d,,,,,,,,,,,,,,,,,,,,,,,,,,,,,,,,,,,,,,,,,,,,,,,,,,,,,,,,1,6,66,45,1,B,Y,N,o2_image,stimuli/out2.png,stimuli/out1.png,stimuli/correct_out2.png,,,,,,,,,,,,,,,,,,,,,,,,,,,,,,,,,,,,,,
,,60a3a03bc01ba594c9cca88d,31,female,2024-04-24_12h33.29.223,stockport_simplified,2022.2.4,Win32,59.88023952,661e456ee6de07e70aa9ef7b,6628df81af01ed4d48ca786d,,,,,,,,,,,,,,,,,,,,,,,,,,,,,,,,,,645.8705,647.9541,"[7,5,4,1,6,8,2,3]","[[-0.3,0.2],[0.3,0.2]]","[[0.125,-0.2],[-0.125,-0.2]]",0.09537037,-0.211111111,1,0,0,1.5664,o1_image,647.9547,0,648.4537,648.4537,650.4542,0,0,0,0,1,,,,,,,,,,,,,,,,,,,,,,,,,,,,,,,,,,,,,,,,,,,,,,,,,,
,,60a3a03bc01ba594c9cca88d,31,female,2024-04-24_12h33.29.223,stockport_simplified,2022.2.4,Win32,59.88023952,661e456ee6de07e70aa9ef7b,6628df81af01ed4d48ca786d,,,,,,,,,,,,,,,,,,,,,,,,,,,,,,,,,,,,,,,,,,,,,,,,,,,,,,,,1,7,67,56,1,N,M,D,o2_image,stimuli/out2.png,stimuli/out1.png,stimuli/correct_out2.png,,,,,,,,,,,,,,,,,,,,,,,,,,,,,,,,,,,,,,
,,60a3a03bc01ba594c9cca88d,31,female,2024-04-24_12h33.29.223,stockport_simplified,2022.2.4,Win32,59.88023952,661e456ee6de07e70aa9ef7b,6628df81af01ed4d48ca786d,,,,,,,,,,,,,,,,,,,,,,,,,,,,,,,,,,650.4549,652.7708,"[7,5,4,1,6,8,2,3]","[[-0.3,0.2],[0.3,0.2]]","[[-0.125,-0.2],[0.125,-0.2]]",0.117592593,-0.22037037,1,0,0,1.8005,o2_image,652.7901,1,653.2863,653.2863,655.2865,0,0,0,0,1,,,,,,,,,,,,,,,,,,,,,,,,,,,,,,,,,,,,,,,,,,,,,,,,,,
,,60a3a03bc01ba594c9cca88d,31,female,2024-04-24_12h33.29.223,stockport_simplified,2022.2.4,Win32,59.88023952,661e456ee6de07e70aa9ef7b,6628df81af01ed4d48ca786d,,,,,,,,,,,,,,,,,,,,,,,,,,,,,,,,,,,,,,,,,,,,,,,,,,,,,,,,1,8,68,11,1,B,X,N,o2_image,stimuli/out2.png,stimuli/out1.png,stimuli/correct_out2.png,,,,,,,,,,,,,,,,,,,,,,,,,,,,,,,,,,,,,,
,,60a3a03bc01ba594c9cca88d,31,female,2024-04-24_12h33.29.223,stockport_simplified,2022.2.4,Win32,59.88023952,661e456ee6de07e70aa9ef7b,6628df81af01ed4d48ca786d,,,,,,,,,,,,,,,,,,,,,,,,,,,,,,,,,,655.2875,657.7864,"[7,5,4,1,6,8,2,3]","[[0.3,0.2],[-0.3,0.2]]","[[0.125,-0.2],[-0.125,-0.2]]",-0.062962963,-0.224074074,1,0,0,1.983,o2_image,657.7875,0,658.2859,658.286,660.2875,0,0,0,0,1,,,,,,,,,,,,,,,,,,,,,,,,,,,,,,,,,,,,,,,,,,,,,,,,,,
,,60a3a03bc01ba594c9cca88d,31,female,2024-04-24_12h33.29.223,stockport_simplified,2022.2.4,Win32,59.88023952,661e456ee6de07e70aa9ef7b,6628df81af01ed4d48ca786d,,,,,,,,,,,,,,,,,,,,,,,,,,,,,,,,,,,,,,,,,,,,,,,,,,,,,,,,1,9,69,36,1,A,Y,N,o1_image,stimuli/out1.png,stimuli/correct_out1.png,stimuli/out2.png,,,,,,,,,,,,,,,,,,,,,,,,,,,,,,,,,,,,,,
,,60a3a03bc01ba594c9cca88d,31,female,2024-04-24_12h33.29.223,stockport_simplified,2022.2.4,Win32,59.88023952,661e456ee6de07e70aa9ef7b,6628df81af01ed4d48ca786d,,,,,,,,,,,,,,,,,,,,,,,,,,,,,,,,,,660.2884,662.6052,"[7,5,4,1,6,8,2,3]","[[-0.3,0.2],[0.3,0.2]]","[[-0.125,-0.2],[0.125,-0.2]]",-0.062962963,-0.207407407,1,0,0,1.8007,o1_image,662.6064,0,663.1035,663.1035,665.1026,0,0,0,0,1,,,,,,,,,,,,,,,,,,,,,,,,,,,,,,,,,,,,,,,,,,,,,,,,,,
,,60a3a03bc01ba594c9cca88d,31,female,2024-04-24_12h33.29.223,stockport_simplified,2022.2.4,Win32,59.88023952,661e456ee6de07e70aa9ef7b,6628df81af01ed4d48ca786d,,,,,,,,,,,,,,,,,,,,,,,,,,,,,,,,,,,,,,,,,,,,,,,,,,,,,,,,1,10,70,58,1,N,M,D,o2_image,stimuli/out2.png,stimuli/out1.png,stimuli/correct_out2.png,,,,,,,,,,,,,,,,,,,,,,,,,,,,,,,,,,,,,,
,,60a3a03bc01ba594c9cca88d,31,female,2024-04-24_12h33.29.223,stockport_simplified,2022.2.4,Win32,59.88023952,661e456ee6de07e70aa9ef7b,6628df81af01ed4d48ca786d,,,,,,,,,,,,,,,,,,,,,,,,,,,,,,,,,,665.1035,667.7535,"[7,5,4,1,6,8,2,3]","[[-0.3,0.2],[0.3,0.2]]","[[-0.125,-0.2],[0.125,-0.2]]",0.105555556,-0.202777778,1,0,0,2.1484,o2_image,667.7551,1,668.2531,668.2531,670.2526,0,0,0,0,1,,,,,,,,,,,,,,,,,,,,,,,,,,,,,,,,,,,,,,,,,,,,,,,,,,
,,60a3a03bc01ba594c9cca88d,31,female,2024-04-24_12h33.29.223,stockport_simplified,2022.2.4,Win32,59.88023952,661e456ee6de07e70aa9ef7b,6628df81af01ed4d48ca786d,,,,,,,,,,,,,,,,,,,,,,,,,,,,,,,,,,,,,,,,,,,,,,,,,,,,,,,,1,11,71,41,1,B,X,N,o2_image,stimuli/out2.png,stimuli/out1.png,stimuli/correct_out2.png,,,,,,,,,,,,,,,,,,,,,,,,,,,,,,,,,,,,,,
,,60a3a03bc01ba594c9cca88d,31,female,2024-04-24_12h33.29.223,stockport_simplified,2022.2.4,Win32,59.88023952,661e456ee6de07e70aa9ef7b,6628df81af01ed4d48ca786d,,,,,,,,,,,,,,,,,,,,,,,,,,,,,,,,,,670.2536,671.8367,"[7,5,4,1,6,8,2,3]","[[0.3,0.2],[-0.3,0.2]]","[[-0.125,-0.2],[0.125,-0.2]]",0.109259259,-0.201851852,1,0,0,1.0669,o2_image,671.8381,1,672.3371,672.3372,674.337,0,0,0,0,1,,,,,,,,,,,,,,,,,,,,,,,,,,,,,,,,,,,,,,,,,,,,,,,,,,
,,60a3a03bc01ba594c9cca88d,31,female,2024-04-24_12h33.29.223,stockport_simplified,2022.2.4,Win32,59.88023952,661e456ee6de07e70aa9ef7b,6628df81af01ed4d48ca786d,,,,,,,,,,,,,,,,,,,,,,,,,,,,,,,,,,,,,,,,,,,,,,,,,,,,,,,,1,12,72,16,1,B,Y,N,o2_image,stimuli/out2.png,stimuli/out1.png,stimuli/correct_out2.png,,,,,,,,,,,,,,,,,,,,,,,,,,,,,,,,,,,,,,
,,60a3a03bc01ba594c9cca88d,31,female,2024-04-24_12h33.29.223,stockport_simplified,2022.2.4,Win32,59.88023952,661e456ee6de07e70aa9ef7b,6628df81af01ed4d48ca786d,,,,,,,,,,,,,,,,,,,,,,,,,,,,,,,,,,674.3377,676.4208,"[7,5,4,1,6,8,2,3]","[[0.3,0.2],[-0.3,0.2]]","[[-0.125,-0.2],[0.125,-0.2]]",0.155555556,-0.198148148,1,0,0,1.5673,o2_image,676.4217,1,676.9196,676.9197,678.9201,0,0,0,0,1,,,,,,,,,,,,,,,,,,,,,,,,,,,,,,,,,,,,,,,,,,,,,,,,,,
,,60a3a03bc01ba594c9cca88d,31,female,2024-04-24_12h33.29.223,stockport_simplified,2022.2.4,Win32,59.88023952,661e456ee6de07e70aa9ef7b,6628df81af01ed4d48ca786d,,,,,,,,,,,,,,,,,,,,,,,,,,,,,,,,,,,,,,,,,,,,,,,,,,,,,,,,1,13,73,28,1,N,M,D,o2_image,stimuli/out2.png,stimuli/out1.png,stimuli/correct_out2.png,,,,,,,,,,,,,,,,,,,,,,,,,,,,,,,,,,,,,,
,,60a3a03bc01ba594c9cca88d,31,female,2024-04-24_12h33.29.223,stockport_simplified,2022.2.4,Win32,59.88023952,661e456ee6de07e70aa9ef7b,6628df81af01ed4d48ca786d,,,,,,,,,,,,,,,,,,,,,,,,,,,,,,,,,,678.9208,681.0032,"[7,5,4,1,6,8,2,3]","[[0.3,0.2],[-0.3,0.2]]","[[0.125,-0.2],[-0.125,-0.2]]",-0.09537037,-0.207407407,1,0,0,1.565,o2_image,681.0044,1,681.5027,681.5027,683.5036,0,0,0,0,1,,,,,,,,,,,,,,,,,,,,,,,,,,,,,,,,,,,,,,,,,,,,,,,,,,
,,60a3a03bc01ba594c9cca88d,31,female,2024-04-24_12h33.29.223,stockport_simplified,2022.2.4,Win32,59.88023952,661e456ee6de07e70aa9ef7b,6628df81af01ed4d48ca786d,,,,,,,,,,,,,,,,,,,,,,,,,,,,,,,,,,,,,,,,,,,,,,,,,,,,,,,,1,14,74,49,1,B,Y,N,o2_image,stimuli/out2.png,stimuli/out1.png,stimuli/correct_out2.png,,,,,,,,,,,,,,,,,,,,,,,,,,,,,,,,,,,,,,
,,60a3a03bc01ba594c9cca88d,31,female,2024-04-24_12h33.29.223,stockport_simplified,2022.2.4,Win32,59.88023952,661e456ee6de07e70aa9ef7b,6628df81af01ed4d48ca786d,,,,,,,,,,,,,,,,,,,,,,,,,,,,,,,,,,683.5044,685.7362,"[7,5,4,1,6,8,2,3]","[[0.3,0.2],[-0.3,0.2]]","[[0.125,-0.2],[-0.125,-0.2]]",-0.112037037,-0.236111111,1,0,0,1.7145,o2_image,685.738,0,686.237,686.237,688.2366,0,0,0,0,1,,,,,,,,,,,,,,,,,,,,,,,,,,,,,,,,,,,,,,,,,,,,,,,,,,
,,60a3a03bc01ba594c9cca88d,31,female,2024-04-24_12h33.29.223,stockport_simplified,2022.2.4,Win32,59.88023952,661e456ee6de07e70aa9ef7b,6628df81af01ed4d48ca786d,,,,,,,,,,,,,,,,,,,,,,,,,,,,,,,,,,,,,,,,,,,,,,,,,,,,,,,,1,15,75,54,1,N,M,C,o1_image,stimuli/out1.png,stimuli/correct_out1.png,stimuli/out2.png,,,,,,,,,,,,,,,,,,,,,,,,,,,,,,,,,,,,,,
,,60a3a03bc01ba594c9cca88d,31,female,2024-04-24_12h33.29.223,stockport_simplified,2022.2.4,Win32,59.88023952,661e456ee6de07e70aa9ef7b,6628df81af01ed4d48ca786d,,,,,,,,,,,,,,,,,,,,,,,,,,,,,,,,,,688.2373,690.0026,"[7,5,4,1,6,8,2,3]","[[0.3,0.2],[-0.3,0.2]]","[[-0.125,-0.2],[0.125,-0.2]]",0.1,-0.213888889,1,0,0,1.2481,o2_image,690.0035,0,690.5033,690.5033,692.5035,0,0,0,0,1,,,,,,,,,,,,,,,,,,,,,,,,,,,,,,,,,,,,,,,,,,,,,,,,,,
,,60a3a03bc01ba594c9cca88d,31,female,2024-04-24_12h33.29.223,stockport_simplified,2022.2.4,Win32,59.88023952,661e456ee6de07e70aa9ef7b,6628df81af01ed4d48ca786d,,,,,,,,,,,,,,,,,,,,,,,,,,,,,,,,,,,,,,,,,,,,,,,,,,,,,,,,1,16,76,4,1,A,X,N,o1_image,stimuli/out1.png,stimuli/correct_out1.png,stimuli/out2.png,,,,,,,,,,,,,,,,,,,,,,,,,,,,,,,,,,,,,,
,,60a3a03bc01ba594c9cca88d,31,female,2024-04-24_12h33.29.223,stockport_simplified,2022.2.4,Win32,59.88023952,661e456ee6de07e70aa9ef7b,6628df81af01ed4d48ca786d,,,,,,,,,,,,,,,,,,,,,,,,,,,,,,,,,,692.5043,694.354,"[7,5,4,1,6,8,2,3]","[[0.3,0.2],[-0.3,0.2]]","[[-0.125,-0.2],[0.125,-0.2]]",0.114814815,-0.202777778,1,0,0,1.3337,o2_image,694.355,1,694.853,694.8531,696.853,0,0,0,0,1,,,,,,,,,,,,,,,,,,,,,,,,,,,,,,,,,,,,,,,,,,,,,,,,,,
,,60a3a03bc01ba594c9cca88d,31,female,2024-04-24_12h33.29.223,stockport_simplified,2022.2.4,Win32,59.88023952,661e456ee6de07e70aa9ef7b,6628df81af01ed4d48ca786d,,,,,,,,,,,,,,,,,,,,,,,,,,,,,,,,,,,,,,,,,,,,,,,,,,,,,,,,1,17,77,25,1,N,M,D,o2_image,stimuli/out2.png,stimuli/out1.png,stimuli/correct_out2.png,,,,,,,,,,,,,,,,,,,,,,,,,,,,,,,,,,,,,,
,,60a3a03bc01ba594c9cca88d,31,female,2024-04-24_12h33.29.223,stockport_simplified,2022.2.4,Win32,59.88023952,661e456ee6de07e70aa9ef7b,6628df81af01ed4d48ca786d,,,,,,,,,,,,,,,,,,,,,,,,,,,,,,,,,,696.8537,698.8866,"[7,5,4,1,6,8,2,3]","[[0.3,0.2],[-0.3,0.2]]","[[-0.125,-0.2],[0.125,-0.2]]",0.078703704,-0.191666667,1,0,0,1.5171,o2_image,698.8879,0,699.3856,699.3856,701.3859,0,0,0,0,1,,,,,,,,,,,,,,,,,,,,,,,,,,,,,,,,,,,,,,,,,,,,,,,,,,
,,60a3a03bc01ba594c9cca88d,31,female,2024-04-24_12h33.29.223,stockport_simplified,2022.2.4,Win32,59.88023952,661e456ee6de07e70aa9ef7b,6628df81af01ed4d48ca786d,,,,,,,,,,,,,,,,,,,,,,,,,,,,,,,,,,,,,,,,,,,,,,,,,,,,,,,,1,18,78,9,1,A,Y,N,o1_image,stimuli/out1.png,stimuli/correct_out1.png,stimuli/out2.png,,,,,,,,,,,,,,,,,,,,,,,,,,,,,,,,,,,,,,
,,60a3a03bc01ba594c9cca88d,31,female,2024-04-24_12h33.29.223,stockport_simplified,2022.2.4,Win32,59.88023952,661e456ee6de07e70aa9ef7b,6628df81af01ed4d48ca786d,,,,,,,,,,,,,,,,,,,,,,,,,,,,,,,,,,701.3864,703.0872,"[7,5,4,1,6,8,2,3]","[[-0.3,0.2],[0.3,0.2]]","[[-0.125,-0.2],[0.125,-0.2]]",-0.148148148,-0.206481481,1,0,0,1.1835,o1_image,703.088,1,703.5858,703.5858,705.5868,0,0,0,0,1,,,,,,,,,,,,,,,,,,,,,,,,,,,,,,,,,,,,,,,,,,,,,,,,,,
,,60a3a03bc01ba594c9cca88d,31,female,2024-04-24_12h33.29.223,stockport_simplified,2022.2.4,Win32,59.88023952,661e456ee6de07e70aa9ef7b,6628df81af01ed4d48ca786d,,,,,,,,,,,,,,,,,,,,,,,,,,,,,,,,,,,,,,,,,,,,,,,,,,,,,,,,1,19,79,23,1,N,M,C,o1_image,stimuli/out1.png,stimuli/correct_out1.png,stimuli/out2.png,,,,,,,,,,,,,,,,,,,,,,,,,,,,,,,,,,,,,,
,,60a3a03bc01ba594c9cca88d,31,female,2024-04-24_12h33.29.223,stockport_simplified,2022.2.4,Win32,59.88023952,661e456ee6de07e70aa9ef7b,6628df81af01ed4d48ca786d,,,,,,,,,,,,,,,,,,,,,,,,,,,,,,,,,,705.5875,707.586,"[7,5,4,1,6,8,2,3]","[[-0.3,0.2],[0.3,0.2]]","[[-0.125,-0.2],[0.125,-0.2]]",0.064814815,-0.200925926,1,0,0,1.4813,o2_image,707.588,1,708.0858,708.0859,710.0857,0,0,0,0,1,,,,,,,,,,,,,,,,,,,,,,,,,,,,,,,,,,,,,,,,,,,,,,,,,,
,,60a3a03bc01ba594c9cca88d,31,female,2024-04-24_12h33.29.223,stockport_simplified,2022.2.4,Win32,59.88023952,661e456ee6de07e70aa9ef7b,6628df81af01ed4d48ca786d,,,,,,,,,,,,,,,,,,,,,,,,,,,,,,,,,,,,,,,,,,,,,,,,,,,,,,,,1,20,80,26,1,N,M,D,o2_image,stimuli/out2.png,stimuli/out1.png,stimuli/correct_out2.png,,,,,,,,,,,,,,,,,,,,,,,,,,,,,,,,,,,,,,
,,60a3a03bc01ba594c9cca88d,31,female,2024-04-24_12h33.29.223,stockport_simplified,2022.2.4,Win32,59.88023952,661e456ee6de07e70aa9ef7b,6628df81af01ed4d48ca786d,,,,,,,,,,,,,,,,,,,,,,,,,,,,,,,,,,710.0865,712.8697,"[7,5,4,1,6,8,2,3]","[[-0.3,0.2],[0.3,0.2]]","[[-0.125,-0.2],[0.125,-0.2]]",0.102777778,-0.200925926,1,0,0,2.2658,o2_image,712.8787,1,713.3694,713.3695,715.3709,0,0,0,0,1,,,,,,,,,,,,,,,,,,,,,,,,,,,,,,,,,,,,,,,,,,,,,,,,,,
,,60a3a03bc01ba594c9cca88d,31,female,2024-04-24_12h33.29.223,stockport_simplified,2022.2.4,Win32,59.88023952,661e456ee6de07e70aa9ef7b,6628df81af01ed4d48ca786d,,,,,,,,,,,,,,,,,,,,,,,,,,,,,,,,,,,,,,,,,,,,,,,,,,,,,,,,1,21,81,47,1,B,Y,N,o2_image,stimuli/out2.png,stimuli/out1.png,stimuli/correct_out2.png,,,,,,,,,,,,,,,,,,,,,,,,,,,,,,,,,,,,,,
,,60a3a03bc01ba594c9cca88d,31,female,2024-04-24_12h33.29.223,stockport_simplified,2022.2.4,Win32,59.88023952,661e456ee6de07e70aa9ef7b,6628df81af01ed4d48ca786d,,,,,,,,,,,,,,,,,,,,,,,,,,,,,,,,,,715.3714,717.2534,"[7,5,4,1,6,8,2,3]","[[-0.3,0.2],[0.3,0.2]]","[[-0.125,-0.2],[0.125,-0.2]]",-0.156481481,-0.219444444,1,0,0,1.3669,o1_image,717.2549,1,717.7532,717.7532,719.7535,0,0,0,0,1,,,,,,,,,,,,,,,,,,,,,,,,,,,,,,,,,,,,,,,,,,,,,,,,,,
,,60a3a03bc01ba594c9cca88d,31,female,2024-04-24_12h33.29.223,stockport_simplified,2022.2.4,Win32,59.88023952,661e456ee6de07e70aa9ef7b,6628df81af01ed4d48ca786d,,,,,,,,,,,,,,,,,,,,,,,,,,,,,,,,,,,,,,,,,,,,,,,,,,,,,,,,1,22,82,24,1,N,M,C,o1_image,stimuli/out1.png,stimuli/correct_out1.png,stimuli/out2.png,,,,,,,,,,,,,,,,,,,,,,,,,,,,,,,,,,,,,,
,,60a3a03bc01ba594c9cca88d,31,female,2024-04-24_12h33.29.223,stockport_simplified,2022.2.4,Win32,59.88023952,661e456ee6de07e70aa9ef7b,6628df81af01ed4d48ca786d,,,,,,,,,,,,,,,,,,,,,,,,,,,,,,,,,,719.7537,721.537,"[7,5,4,1,6,8,2,3]","[[0.3,0.2],[-0.3,0.2]]","[[-0.125,-0.2],[0.125,-0.2]]",0.075925926,-0.210185185,1,0,0,1.2814,o2_image,721.5384,0,722.0362,722.0363,724.037,0,0,0,0,1,,,,,,,,,,,,,,,,,,,,,,,,,,,,,,,,,,,,,,,,,,,,,,,,,,
,,60a3a03bc01ba594c9cca88d,31,female,2024-04-24_12h33.29.223,stockport_simplified,2022.2.4,Win32,59.88023952,661e456ee6de07e70aa9ef7b,6628df81af01ed4d48ca786d,,,,,,,,,,,,,,,,,,,,,,,,,,,,,,,,,,,,,,,,,,,,,,,,,,,,,,,,1,23,83,5,1,A,Y,N,o1_image,stimuli/out1.png,stimuli/correct_out1.png,stimuli/out2.png,,,,,,,,,,,,,,,,,,,,,,,,,,,,,,,,,,,,,,
,,60a3a03bc01ba594c9cca88d,31,female,2024-04-24_12h33.29.223,stockport_simplified,2022.2.4,Win32,59.88023952,661e456ee6de07e70aa9ef7b,6628df81af01ed4d48ca786d,,,,,,,,,,,,,,,,,,,,,,,,,,,,,,,,,,724.0377,726.2361,"[7,5,4,1,6,8,2,3]","[[-0.3,0.2],[0.3,0.2]]","[[0.125,-0.2],[-0.125,-0.2]]",-0.090740741,-0.215740741,1,0,0,1.6978,o2_image,726.2369,1,726.7361,726.7361,728.7357,0,0,0,0,1,,,,,,,,,,,,,,,,,,,,,,,,,,,,,,,,,,,,,,,,,,,,,,,,,,
,,60a3a03bc01ba594c9cca88d,31,female,2024-04-24_12h33.29.223,stockport_simplified,2022.2.4,Win32,59.88023952,661e456ee6de07e70aa9ef7b,6628df81af01ed4d48ca786d,,,,,,,,,,,,,,,,,,,,,,,,,,,,,,,,,,,,,,,,,,,,,,,,,,,,,,,,1,24,84,19,1,B,Y,N,o2_image,stimuli/out2.png,stimuli/out1.png,stimuli/correct_out2.png,,,,,,,,,,,,,,,,,,,,,,,,,,,,,,,,,,,,,,
,,60a3a03bc01ba594c9cca88d,31,female,2024-04-24_12h33.29.223,stockport_simplified,2022.2.4,Win32,59.88023952,661e456ee6de07e70aa9ef7b,6628df81af01ed4d48ca786d,,,,,,,,,,,,,,,,,,,,,,,,,,,,,,,,,,728.7361,730.8043,"[7,5,4,1,6,8,2,3]","[[-0.3,0.2],[0.3,0.2]]","[[0.125,-0.2],[-0.125,-0.2]]",0.109259259,-0.212037037,1,0,0,1.5668,o1_image,730.8053,1,731.3037,731.3038,733.3032,0,0,0,0,1,,,,,,,,,,,,,,,,,,,,,,,,,,,,,,,,,,,,,,,,,,,,,,,,,,
,,60a3a03bc01ba594c9cca88d,31,female,2024-04-24_12h33.29.223,stockport_simplified,2022.2.4,Win32,59.88023952,661e456ee6de07e70aa9ef7b,6628df81af01ed4d48ca786d,,,,,,,,,,,,,,,,,,,,,,,,,,,,,,,,,,,,,,,,,,,,,,,,,,,,,,,,1,25,85,50,1,N,M,C,o1_image,stimuli/out1.png,stimuli/correct_out1.png,stimuli/out2.png,,,,,,,,,,,,,,,,,,,,,,,,,,,,,,,,,,,,,,
,,60a3a03bc01ba594c9cca88d,31,female,2024-04-24_12h33.29.223,stockport_simplified,2022.2.4,Win32,59.88023952,661e456ee6de07e70aa9ef7b,6628df81af01ed4d48ca786d,,,,,,,,,,,,,,,,,,,,,,,,,,,,,,,,,,733.3039,735.1695,"[7,5,4,1,6,8,2,3]","[[-0.3,0.2],[0.3,0.2]]","[[0.125,-0.2],[-0.125,-0.2]]",0.115740741,-0.206481481,1,0,0,1.3647,o1_image,735.171,1,735.6694,735.6696,737.6695,0,0,0,0,1,,,,,,,,,,,,,,,,,,,,,,,,,,,,,,,,,,,,,,,,,,,,,,,,,,
,,60a3a03bc01ba594c9cca88d,31,female,2024-04-24_12h33.29.223,stockport_simplified,2022.2.4,Win32,59.88023952,661e456ee6de07e70aa9ef7b,6628df81af01ed4d48ca786d,,,,,,,,,,,,,,,,,,,,,,,,,,,,,,,,,,,,,,,,,,,,,,,,,,,,,,,,1,26,86,33,1,A,X,N,o1_image,stimuli/out1.png,stimuli/correct_out1.png,stimuli/out2.png,,,,,,,,,,,,,,,,,,,,,,,,,,,,,,,,,,,,,,
,,60a3a03bc01ba594c9cca88d,31,female,2024-04-24_12h33.29.223,stockport_simplified,2022.2.4,Win32,59.88023952,661e456ee6de07e70aa9ef7b,6628df81af01ed4d48ca786d,,,,,,,,,,,,,,,,,,,,,,,,,,,,,,,,,,737.6705,739.5211,"[7,5,4,1,6,8,2,3]","[[-0.3,0.2],[0.3,0.2]]","[[0.125,-0.2],[-0.125,-0.2]]",-0.119444444,-0.214814815,1,0,0,1.3336,o2_image,739.5223,1,740.0193,740.0194,742.0194,0,0,0,0,1,,,,,,,,,,,,,,,,,,,,,,,,,,,,,,,,,,,,,,,,,,,,,,,,,,
,,60a3a03bc01ba594c9cca88d,31,female,2024-04-24_12h33.29.223,stockport_simplified,2022.2.4,Win32,59.88023952,661e456ee6de07e70aa9ef7b,6628df81af01ed4d48ca786d,,,,,,,,,,,,,,,,,,,,,,,,,,,,,,,,,,,,,,,,,,,,,,,,,,,,,,,,1,27,87,15,1,B,Y,N,o2_image,stimuli/out2.png,stimuli/out1.png,stimuli/correct_out2.png,,,,,,,,,,,,,,,,,,,,,,,,,,,,,,,,,,,,,,
,,60a3a03bc01ba594c9cca88d,31,female,2024-04-24_12h33.29.223,stockport_simplified,2022.2.4,Win32,59.88023952,661e456ee6de07e70aa9ef7b,6628df81af01ed4d48ca786d,,,,,,,,,,,,,,,,,,,,,,,,,,,,,,,,,,742.0198,744.1704,"[7,5,4,1,6,8,2,3]","[[-0.3,0.2],[0.3,0.2]]","[[-0.125,-0.2],[0.125,-0.2]]",-0.151851852,-0.210185185,1,0,0,1.6327,o1_image,744.171,1,744.6694,744.6694,746.6699,0,0,0,0,1,,,,,,,,,,,,,,,,,,,,,,,,,,,,,,,,,,,,,,,,,,,,,,,,,,
,,60a3a03bc01ba594c9cca88d,31,female,2024-04-24_12h33.29.223,stockport_simplified,2022.2.4,Win32,59.88023952,661e456ee6de07e70aa9ef7b,6628df81af01ed4d48ca786d,,,,,,,,,,,,,,,,,,,,,,,,,,,,,,,,,,,,,,,,,,,,,,,,,,,,,,,,1,28,88,20,1,N,M,C,o1_image,stimuli/out1.png,stimuli/correct_out1.png,stimuli/out2.png,,,,,,,,,,,,,,,,,,,,,,,,,,,,,,,,,,,,,,
,,60a3a03bc01ba594c9cca88d,31,female,2024-04-24_12h33.29.223,stockport_simplified,2022.2.4,Win32,59.88023952,661e456ee6de07e70aa9ef7b,6628df81af01ed4d48ca786d,,,,,,,,,,,,,,,,,,,,,,,,,,,,,,,,,,746.6706,748.5368,"[7,5,4,1,6,8,2,3]","[[-0.3,0.2],[0.3,0.2]]","[[-0.125,-0.2],[0.125,-0.2]]",0.071296296,-0.205555556,1,0,0,1.3502,o2_image,748.5381,1,749.0379,749.0379,751.036,0,0,0,0,1,,,,,,,,,,,,,,,,,,,,,,,,,,,,,,,,,,,,,,,,,,,,,,,,,,
,,60a3a03bc01ba594c9cca88d,31,female,2024-04-24_12h33.29.223,stockport_simplified,2022.2.4,Win32,59.88023952,661e456ee6de07e70aa9ef7b,6628df81af01ed4d48ca786d,,,,,,,,,,,,,,,,,,,,,,,,,,,,,,,,,,,,,,,,,,,,,,,,,,,,,,,,1,29,89,46,1,B,Y,N,o2_image,stimuli/out2.png,stimuli/out1.png,stimuli/correct_out2.png,,,,,,,,,,,,,,,,,,,,,,,,,,,,,,,,,,,,,,
,,60a3a03bc01ba594c9cca88d,31,female,2024-04-24_12h33.29.223,stockport_simplified,2022.2.4,Win32,59.88023952,661e456ee6de07e70aa9ef7b,6628df81af01ed4d48ca786d,,,,,,,,,,,,,,,,,,,,,,,,,,,,,,,,,,751.0368,753.12,"[7,5,4,1,6,8,2,3]","[[0.3,0.2],[-0.3,0.2]]","[[-0.125,-0.2],[0.125,-0.2]]",-0.130555556,-0.214814815,1,0,0,1.5817,o1_image,753.1213,1,753.6198,753.6198,755.6203,0,0,0,0,1,,,,,,,,,,,,,,,,,,,,,,,,,,,,,,,,,,,,,,,,,,,,,,,,,,
,,60a3a03bc01ba594c9cca88d,31,female,2024-04-24_12h33.29.223,stockport_simplified,2022.2.4,Win32,59.88023952,661e456ee6de07e70aa9ef7b,6628df81af01ed4d48ca786d,,,,,,,,,,,,,,,,,,,,,,,,,,,,,,,,,,,,,,,,,,,,,,,,,,,,,,,,1,30,90,35,1,A,Y,N,o1_image,stimuli/out1.png,stimuli/correct_out1.png,stimuli/out2.png,,,,,,,,,,,,,,,,,,,,,,,,,,,,,,,,,,,,,,
,,60a3a03bc01ba594c9cca88d,31,female,2024-04-24_12h33.29.223,stockport_simplified,2022.2.4,Win32,59.88023952,661e456ee6de07e70aa9ef7b,6628df81af01ed4d48ca786d,,,,,,,,,,,,,,,,,,,,,,,,,,,,,,,,,,755.6208,757.9193,"[7,5,4,1,6,8,2,3]","[[-0.3,0.2],[0.3,0.2]]","[[0.125,-0.2],[-0.125,-0.2]]",-0.116666667,-0.212962963,1,0,0,1.7824,o2_image,757.9207,1,758.4205,758.4205,760.4204,0,0,0,0,1,,,,,,,,,,,,,,,,,,,,,,,,,,,,,,,,,,,,,,,,,,,,,,,,,,
,,60a3a03bc01ba594c9cca88d,31,female,2024-04-24_12h33.29.223,stockport_simplified,2022.2.4,Win32,59.88023952,661e456ee6de07e70aa9ef7b,6628df81af01ed4d48ca786d,,,,,,,,,,,,,,,,,,,,,,,,,,,,,,,,,,,,,,,,,,,,,,,,,,,,,,,,1,31,91,17,1,B,Y,N,o2_image,stimuli/out2.png,stimuli/out1.png,stimuli/correct_out2.png,,,,,,,,,,,,,,,,,,,,,,,,,,,,,,,,,,,,,,
,,60a3a03bc01ba594c9cca88d,31,female,2024-04-24_12h33.29.223,stockport_simplified,2022.2.4,Win32,59.88023952,661e456ee6de07e70aa9ef7b,6628df81af01ed4d48ca786d,,,,,,,,,,,,,,,,,,,,,,,,,,,,,,,,,,760.4211,762.3036,"[7,5,4,1,6,8,2,3]","[[-0.3,0.2],[0.3,0.2]]","[[0.125,-0.2],[-0.125,-0.2]]",0.12037037,-0.228703704,1,0,0,1.3664,o1_image,762.3047,1,762.8032,762.8032,764.8034,0,0,0,0,1,,,,,,,,,,,,,,,,,,,,,,,,,,,,,,,,,,,,,,,,,,,,,,,,,,
,,60a3a03bc01ba594c9cca88d,31,female,2024-04-24_12h33.29.223,stockport_simplified,2022.2.4,Win32,59.88023952,661e456ee6de07e70aa9ef7b,6628df81af01ed4d48ca786d,,,,,,,,,,,,,,,,,,,,,,,,,,,,,,,,,,,,,,,,,,,,,,,,,,,,,,,,1,32,92,22,1,N,M,C,o1_image,stimuli/out1.png,stimuli/correct_out1.png,stimuli/out2.png,,,,,,,,,,,,,,,,,,,,,,,,,,,,,,,,,,,,,,
,,60a3a03bc01ba594c9cca88d,31,female,2024-04-24_12h33.29.223,stockport_simplified,2022.2.4,Win32,59.88023952,661e456ee6de07e70aa9ef7b,6628df81af01ed4d48ca786d,,,,,,,,,,,,,,,,,,,,,,,,,,,,,,,,,,764.8044,766.1701,"[7,5,4,1,6,8,2,3]","[[0.3,0.2],[-0.3,0.2]]","[[-0.125,-0.2],[0.125,-0.2]]",0.106481481,-0.228703704,1,0,0,0.8496,o2_image,766.1718,0,766.6713,766.6713,768.6693,0,0,0,0,1,,,,,,,,,,,,,,,,,,,,,,,,,,,,,,,,,,,,,,,,,,,,,,,,,,
,,60a3a03bc01ba594c9cca88d,31,female,2024-04-24_12h33.29.223,stockport_simplified,2022.2.4,Win32,59.88023952,661e456ee6de07e70aa9ef7b,6628df81af01ed4d48ca786d,,,,,,,,,,,,,,,,,,,,,,,,,,,,,,,,,,,,,,,,,,,,,,,,,,,,,,,,1,33,93,52,1,N,M,C,o1_image,stimuli/out1.png,stimuli/correct_out1.png,stimuli/out2.png,,,,,,,,,,,,,,,,,,,,,,,,,,,,,,,,,,,,,,
,,60a3a03bc01ba594c9cca88d,31,female,2024-04-24_12h33.29.223,stockport_simplified,2022.2.4,Win32,59.88023952,661e456ee6de07e70aa9ef7b,6628df81af01ed4d48ca786d,,,,,,,,,,,,,,,,,,,,,,,,,,,,,,,,,,768.67,770.586,"[7,5,4,1,6,8,2,3]","[[0.3,0.2],[-0.3,0.2]]","[[0.125,-0.2],[-0.125,-0.2]]",0.112037037,-0.225,1,0,0,1.4156,o1_image,770.5878,1,771.0871,771.0873,773.0875,0,0,0,0,1,,,,,,,,,,,,,,,,,,,,,,,,,,,,,,,,,,,,,,,,,,,,,,,,,,
,,60a3a03bc01ba594c9cca88d,31,female,2024-04-24_12h33.29.223,stockport_simplified,2022.2.4,Win32,59.88023952,661e456ee6de07e70aa9ef7b,6628df81af01ed4d48ca786d,,,,,,,,,,,,,,,,,,,,,,,,,,,,,,,,,,,,,,,,,,,,,,,,,,,,,,,,1,34,94,51,1,N,M,C,o1_image,stimuli/out1.png,stimuli/correct_out1.png,stimuli/out2.png,,,,,,,,,,,,,,,,,,,,,,,,,,,,,,,,,,,,,,
,,60a3a03bc01ba594c9cca88d,31,female,2024-04-24_12h33.29.223,stockport_simplified,2022.2.4,Win32,59.88023952,661e456ee6de07e70aa9ef7b,6628df81af01ed4d48ca786d,,,,,,,,,,,,,,,,,,,,,,,,,,,,,,,,,,773.088,775.7867,"[7,5,4,1,6,8,2,3]","[[-0.3,0.2],[0.3,0.2]]","[[-0.125,-0.2],[0.125,-0.2]]",-0.123148148,-0.237037037,1,0,0,2.1817,o1_image,775.7881,1,776.2866,776.2868,778.2865,0,0,0,0,1,,,,,,,,,,,,,,,,,,,,,,,,,,,,,,,,,,,,,,,,,,,,,,,,,,
,,60a3a03bc01ba594c9cca88d,31,female,2024-04-24_12h33.29.223,stockport_simplified,2022.2.4,Win32,59.88023952,661e456ee6de07e70aa9ef7b,6628df81af01ed4d48ca786d,,,,,,,,,,,,,,,,,,,,,,,,,,,,,,,,,,,,,,,,,,,,,,,,,,,,,,,,1,35,95,2,1,A,X,N,o1_image,stimuli/out1.png,stimuli/correct_out1.png,stimuli/out2.png,,,,,,,,,,,,,,,,,,,,,,,,,,,,,,,,,,,,,,
,,60a3a03bc01ba594c9cca88d,31,female,2024-04-24_12h33.29.223,stockport_simplified,2022.2.4,Win32,59.88023952,661e456ee6de07e70aa9ef7b,6628df81af01ed4d48ca786d,,,,,,,,,,,,,,,,,,,,,,,,,,,,,,,,,,778.2876,780.8375,"[7,5,4,1,6,8,2,3]","[[0.3,0.2],[-0.3,0.2]]","[[-0.125,-0.2],[0.125,-0.2]]",0.112037037,-0.233333333,1,0,0,2.0493,o2_image,780.838,1,781.3377,781.3378,783.337,0,0,0,0,1,,,,,,,,,,,,,,,,,,,,,,,,,,,,,,,,,,,,,,,,,,,,,,,,,,
,,60a3a03bc01ba594c9cca88d,31,female,2024-04-24_12h33.29.223,stockport_simplified,2022.2.4,Win32,59.88023952,661e456ee6de07e70aa9ef7b,6628df81af01ed4d48ca786d,,,,,,,,,,,,,,,,,,,,,,,,,,,,,,,,,,,,,,,,,,,,,,,,,,,,,,,,1,36,96,43,1,B,X,N,o2_image,stimuli/out2.png,stimuli/out1.png,stimuli/correct_out2.png,,,,,,,,,,,,,,,,,,,,,,,,,,,,,,,,,,,,,,
,,60a3a03bc01ba594c9cca88d,31,female,2024-04-24_12h33.29.223,stockport_simplified,2022.2.4,Win32,59.88023952,661e456ee6de07e70aa9ef7b,6628df81af01ed4d48ca786d,,,,,,,,,,,,,,,,,,,,,,,,,,,,,,,,,,783.3375,786.0033,"[7,5,4,1,6,8,2,3]","[[-0.3,0.2],[0.3,0.2]]","[[0.125,-0.2],[-0.125,-0.2]]",0.138888889,-0.224074074,1,0,0,2.1493,o1_image,786.0047,1,786.5036,786.5036,788.5027,0,0,0,0,1,,,,,,,,,,,,,,,,,,,,,,,,,,,,,,,,,,,,,,,,,,,,,,,,,,
,,60a3a03bc01ba594c9cca88d,31,female,2024-04-24_12h33.29.223,stockport_simplified,2022.2.4,Win32,59.88023952,661e456ee6de07e70aa9ef7b,6628df81af01ed4d48ca786d,,,,,,,,,,,,,,,,,,,,,,,,,,,,,,,,,,,,,,,,,,,,,,,,,,,,,,,,1,37,97,31,1,A,X,N,o1_image,stimuli/out1.png,stimuli/correct_out1.png,stimuli/out2.png,,,,,,,,,,,,,,,,,,,,,,,,,,,,,,,,,,,,,,
,,60a3a03bc01ba594c9cca88d,31,female,2024-04-24_12h33.29.223,stockport_simplified,2022.2.4,Win32,59.88023952,661e456ee6de07e70aa9ef7b,6628df81af01ed4d48ca786d,,,,,,,,,,,,,,,,,,,,,,,,,,,,,,,,,,788.5033,790.703,"[7,5,4,1,6,8,2,3]","[[-0.3,0.2],[0.3,0.2]]","[[0.125,-0.2],[-0.125,-0.2]]",-0.097222222,-0.219444444,1,0,0,1.6988,o2_image,790.7042,1,791.2037,791.2038,793.2027,0,0,0,0,1,,,,,,,,,,,,,,,,,,,,,,,,,,,,,,,,,,,,,,,,,,,,,,,,,,
,,60a3a03bc01ba594c9cca88d,31,female,2024-04-24_12h33.29.223,stockport_simplified,2022.2.4,Win32,59.88023952,661e456ee6de07e70aa9ef7b,6628df81af01ed4d48ca786d,,,,,,,,,,,,,,,,,,,,,,,,,,,,,,,,,,,,,,,,,,,,,,,,,,,,,,,,1,38,98,59,1,N,M,D,o2_image,stimuli/out2.png,stimuli/out1.png,stimuli/correct_out2.png,,,,,,,,,,,,,,,,,,,,,,,,,,,,,,,,,,,,,,
,,60a3a03bc01ba594c9cca88d,31,female,2024-04-24_12h33.29.223,stockport_simplified,2022.2.4,Win32,59.88023952,661e456ee6de07e70aa9ef7b,6628df81af01ed4d48ca786d,,,,,,,,,,,,,,,,,,,,,,,,,,,,,,,,,,793.2037,794.8205,"[7,5,4,1,6,8,2,3]","[[0.3,0.2],[-0.3,0.2]]","[[0.125,-0.2],[-0.125,-0.2]]",-0.097222222,-0.219444444,1,0,0,1.1001,o2_image,794.8218,1,795.32,795.32,797.3207,0,0,0,0,1,,,,,,,,,,,,,,,,,,,,,,,,,,,,,,,,,,,,,,,,,,,,,,,,,,
,,60a3a03bc01ba594c9cca88d,31,female,2024-04-24_12h33.29.223,stockport_simplified,2022.2.4,Win32,59.88023952,661e456ee6de07e70aa9ef7b,6628df81af01ed4d48ca786d,,,,,,,,,,,,,,,,,,,,,,,,,,,,,,,,,,,,,,,,,,,,,,,,,,,,,,,,1,39,99,29,1,N,M,D,o2_image,stimuli/out2.png,stimuli/out1.png,stimuli/correct_out2.png,,,,,,,,,,,,,,,,,,,,,,,,,,,,,,,,,,,,,,
,,60a3a03bc01ba594c9cca88d,31,female,2024-04-24_12h33.29.223,stockport_simplified,2022.2.4,Win32,59.88023952,661e456ee6de07e70aa9ef7b,6628df81af01ed4d48ca786d,,,,,,,,,,,,,,,,,,,,,,,,,,,,,,,,,,797.3212,799.8861,"[7,5,4,1,6,8,2,3]","[[0.3,0.2],[-0.3,0.2]]","[[-0.125,-0.2],[0.125,-0.2]]",0.106481481,-0.218518519,1,0,0,2.0462,o2_image,799.8871,1,800.3865,800.3865,802.3859,0,0,0,0,1,,,,,,,,,,,,,,,,,,,,,,,,,,,,,,,,,,,,,,,,,,,,,,,,,,
,,60a3a03bc01ba594c9cca88d,31,female,2024-04-24_12h33.29.223,stockport_simplified,2022.2.4,Win32,59.88023952,661e456ee6de07e70aa9ef7b,6628df81af01ed4d48ca786d,,,,,,,,,,,,,,,,,,,,,,,,,,,,,,,,,,,,,,,,,,,,,,,,,,,,,,,,1,40,100,48,1,B,Y,N,o2_image,stimuli/out2.png,stimuli/out1.png,stimuli/correct_out2.png,,,,,,,,,,,,,,,,,,,,,,,,,,,,,,,,,,,,,,
,,60a3a03bc01ba594c9cca88d,31,female,2024-04-24_12h33.29.223,stockport_simplified,2022.2.4,Win32,59.88023952,661e456ee6de07e70aa9ef7b,6628df81af01ed4d48ca786d,,,,,,,,,,,,,,,,,,,,,,,,,,,,,,,,,,802.3865,804.3036,"[7,5,4,1,6,8,2,3]","[[-0.3,0.2],[0.3,0.2]]","[[-0.125,-0.2],[0.125,-0.2]]",-0.124074074,-0.226851852,1,0,0,1.4163,o1_image,804.305,1,804.8025,804.8025,806.8032,0,0,0,0,1,,,,,,,,,,,,,,,,,,,,,,,,,,,,,,,,,,,,,,,,,,,,,,,,,,
,,60a3a03bc01ba594c9cca88d,31,female,2024-04-24_12h33.29.223,stockport_simplified,2022.2.4,Win32,59.88023952,661e456ee6de07e70aa9ef7b,6628df81af01ed4d48ca786d,,,,,,,,,,,,,,,,,,,,,,,,,,,,,,,,,,,,,,,,,,,,,,,,,,,,,,,,1,41,101,53,1,N,M,C,o1_image,stimuli/out1.png,stimuli/correct_out1.png,stimuli/out2.png,,,,,,,,,,,,,,,,,,,,,,,,,,,,,,,,,,,,,,
,,60a3a03bc01ba594c9cca88d,31,female,2024-04-24_12h33.29.223,stockport_simplified,2022.2.4,Win32,59.88023952,661e456ee6de07e70aa9ef7b,6628df81af01ed4d48ca786d,,,,,,,,,,,,,,,,,,,,,,,,,,,,,,,,,,806.8041,809.5034,"[7,5,4,1,6,8,2,3]","[[-0.3,0.2],[0.3,0.2]]","[[-0.125,-0.2],[0.125,-0.2]]",0.090740741,-0.205555556,1,0,0,2.1822,o2_image,809.5233,1,810.0195,810.0196,812.0199,0,0,0,0,1,,,,,,,,,,,,,,,,,,,,,,,,,,,,,,,,,,,,,,,,,,,,,,,,,,
,,60a3a03bc01ba594c9cca88d,31,female,2024-04-24_12h33.29.223,stockport_simplified,2022.2.4,Win32,59.88023952,661e456ee6de07e70aa9ef7b,6628df81af01ed4d48ca786d,,,,,,,,,,,,,,,,,,,,,,,,,,,,,,,,,,,,,,,,,,,,,,,,,,,,,,,,1,42,102,12,1,B,X,N,o2_image,stimuli/out2.png,stimuli/out1.png,stimuli/correct_out2.png,,,,,,,,,,,,,,,,,,,,,,,,,,,,,,,,,,,,,,
,,60a3a03bc01ba594c9cca88d,31,female,2024-04-24_12h33.29.223,stockport_simplified,2022.2.4,Win32,59.88023952,661e456ee6de07e70aa9ef7b,6628df81af01ed4d48ca786d,,,,,,,,,,,,,,,,,,,,,,,,,,,,,,,,,,812.0206,814.2703,"[7,5,4,1,6,8,2,3]","[[-0.3,0.2],[0.3,0.2]]","[[0.125,-0.2],[-0.125,-0.2]]",0.091666667,-0.209259259,1,0,0,1.7328,o1_image,814.2714,1,814.7696,814.7696,816.7703,0,0,0,0,1,,,,,,,,,,,,,,,,,,,,,,,,,,,,,,,,,,,,,,,,,,,,,,,,,,
,,60a3a03bc01ba594c9cca88d,31,female,2024-04-24_12h33.29.223,stockport_simplified,2022.2.4,Win32,59.88023952,661e456ee6de07e70aa9ef7b,6628df81af01ed4d48ca786d,,,,,,,,,,,,,,,,,,,,,,,,,,,,,,,,,,,,,,,,,,,,,,,,,,,,,,,,1,43,103,32,1,A,X,N,o1_image,stimuli/out1.png,stimuli/correct_out1.png,stimuli/out2.png,,,,,,,,,,,,,,,,,,,,,,,,,,,,,,,,,,,,,,
,,60a3a03bc01ba594c9cca88d,31,female,2024-04-24_12h33.29.223,stockport_simplified,2022.2.4,Win32,59.88023952,661e456ee6de07e70aa9ef7b,6628df81af01ed4d48ca786d,,,,,,,,,,,,,,,,,,,,,,,,,,,,,,,,,,816.7711,818.886,"[7,5,4,1,6,8,2,3]","[[0.3,0.2],[-0.3,0.2]]","[[-0.125,-0.2],[0.125,-0.2]]",0.137037037,-0.215740741,1,0,0,1.6144,o2_image,818.8871,0,819.3872,819.3872,821.3878,0,0,0,0,1,,,,,,,,,,,,,,,,,,,,,,,,,,,,,,,,,,,,,,,,,,,,,,,,,,
,,60a3a03bc01ba594c9cca88d,31,female,2024-04-24_12h33.29.223,stockport_simplified,2022.2.4,Win32,59.88023952,661e456ee6de07e70aa9ef7b,6628df81af01ed4d48ca786d,,,,,,,,,,,,,,,,,,,,,,,,,,,,,,,,,,,,,,,,,,,,,,,,,,,,,,,,1,44,104,6,1,A,Y,N,o1_image,stimuli/out1.png,stimuli/correct_out1.png,stimuli/out2.png,,,,,,,,,,,,,,,,,,,,,,,,,,,,,,,,,,,,,,
,,60a3a03bc01ba594c9cca88d,31,female,2024-04-24_12h33.29.223,stockport_simplified,2022.2.4,Win32,59.88023952,661e456ee6de07e70aa9ef7b,6628df81af01ed4d48ca786d,,,,,,,,,,,,,,,,,,,,,,,,,,,,,,,,,,821.3885,823.5539,"[7,5,4,1,6,8,2,3]","[[0.3,0.2],[-0.3,0.2]]","[[-0.125,-0.2],[0.125,-0.2]]",0.151851852,-0.225925926,1,0,0,1.6493,o2_image,823.5555,1,824.0532,824.0532,826.0533,0,0,0,0,1,,,,,,,,,,,,,,,,,,,,,,,,,,,,,,,,,,,,,,,,,,,,,,,,,,
,,60a3a03bc01ba594c9cca88d,31,female,2024-04-24_12h33.29.223,stockport_simplified,2022.2.4,Win32,59.88023952,661e456ee6de07e70aa9ef7b,6628df81af01ed4d48ca786d,,,,,,,,,,,,,,,,,,,,,,,,,,,,,,,,,,,,,,,,,,,,,,,,,,,,,,,,1,45,105,13,1,B,X,N,o2_image,stimuli/out2.png,stimuli/out1.png,stimuli/correct_out2.png,,,,,,,,,,,,,,,,,,,,,,,,,,,,,,,,,,,,,,
,,60a3a03bc01ba594c9cca88d,31,female,2024-04-24_12h33.29.223,stockport_simplified,2022.2.4,Win32,59.88023952,661e456ee6de07e70aa9ef7b,6628df81af01ed4d48ca786d,,,,,,,,,,,,,,,,,,,,,,,,,,,,,,,,,,826.0539,828.5872,"[7,5,4,1,6,8,2,3]","[[-0.3,0.2],[0.3,0.2]]","[[0.125,-0.2],[-0.125,-0.2]]",0.122222222,-0.22037037,1,0,0,2.0322,o1_image,828.5885,1,829.0864,829.0864,831.0871,0,0,0,0,1,,,,,,,,,,,,,,,,,,,,,,,,,,,,,,,,,,,,,,,,,,,,,,,,,,
,,60a3a03bc01ba594c9cca88d,31,female,2024-04-24_12h33.29.223,stockport_simplified,2022.2.4,Win32,59.88023952,661e456ee6de07e70aa9ef7b,6628df81af01ed4d48ca786d,,,,,,,,,,,,,,,,,,,,,,,,,,,,,,,,,,,,,,,,,,,,,,,,,,,,,,,,1,46,106,30,1,A,X,N,o1_image,stimuli/out1.png,stimuli/correct_out1.png,stimuli/out2.png,,,,,,,,,,,,,,,,,,,,,,,,,,,,,,,,,,,,,,
,,60a3a03bc01ba594c9cca88d,31,female,2024-04-24_12h33.29.223,stockport_simplified,2022.2.4,Win32,59.88023952,661e456ee6de07e70aa9ef7b,6628df81af01ed4d48ca786d,,,,,,,,,,,,,,,,,,,,,,,,,,,,,,,,,,831.0876,833.8694,"[7,5,4,1,6,8,2,3]","[[-0.3,0.2],[0.3,0.2]]","[[-0.125,-0.2],[0.125,-0.2]]",0.1,-0.221296296,1,0,0,2.2657,o2_image,833.8708,1,834.3699,834.3699,836.3693,0,0,0,0,1,,,,,,,,,,,,,,,,,,,,,,,,,,,,,,,,,,,,,,,,,,,,,,,,,,
,,60a3a03bc01ba594c9cca88d,31,female,2024-04-24_12h33.29.223,stockport_simplified,2022.2.4,Win32,59.88023952,661e456ee6de07e70aa9ef7b,6628df81af01ed4d48ca786d,,,,,,,,,,,,,,,,,,,,,,,,,,,,,,,,,,,,,,,,,,,,,,,,,,,,,,,,1,47,107,44,1,B,X,N,o2_image,stimuli/out2.png,stimuli/out1.png,stimuli/correct_out2.png,,,,,,,,,,,,,,,,,,,,,,,,,,,,,,,,,,,,,,
,,60a3a03bc01ba594c9cca88d,31,female,2024-04-24_12h33.29.223,stockport_simplified,2022.2.4,Win32,59.88023952,661e456ee6de07e70aa9ef7b,6628df81af01ed4d48ca786d,,,,,,,,,,,,,,,,,,,,,,,,,,,,,,,,,,836.3702,840.3544,"[7,5,4,1,6,8,2,3]","[[0.3,0.2],[-0.3,0.2]]","[[-0.125,-0.2],[0.125,-0.2]]",0.109259259,-0.203703704,1,0,0,3.4675,o2_image,840.3638,0,840.8531,840.8531,842.8537,0,0,0,0,1,,,,,,,,,,,,,,,,,,,,,,,,,,,,,,,,,,,,,,,,,,,,,,,,,,
,,60a3a03bc01ba594c9cca88d,31,female,2024-04-24_12h33.29.223,stockport_simplified,2022.2.4,Win32,59.88023952,661e456ee6de07e70aa9ef7b,6628df81af01ed4d48ca786d,,,,,,,,,,,,,,,,,,,,,,,,,,,,,,,,,,,,,,,,,,,,,,,,,,,,,,,,1,48,108,8,1,A,Y,N,o1_image,stimuli/out1.png,stimuli/correct_out1.png,stimuli/out2.png,,,,,,,,,,,,,,,,,,,,,,,,,,,,,,,,,,,,,,
,,60a3a03bc01ba594c9cca88d,31,female,2024-04-24_12h33.29.223,stockport_simplified,2022.2.4,Win32,59.88023952,661e456ee6de07e70aa9ef7b,6628df81af01ed4d48ca786d,,,,,,,,,,,,,,,,,,,,,,,,,,,,,,,,,,842.8544,844.7861,"[7,5,4,1,6,8,2,3]","[[-0.3,0.2],[0.3,0.2]]","[[0.125,-0.2],[-0.125,-0.2]]",0.125925926,-0.20462963,1,0,0,1.4155,o1_image,844.7876,1,845.2877,845.2877,847.2868,0,0,0,0,1,,,,,,,,,,,,,,,,,,,,,,,,,,,,,,,,,,,,,,,,,,,,,,,,,,
,,60a3a03bc01ba594c9cca88d,31,female,2024-04-24_12h33.29.223,stockport_simplified,2022.2.4,Win32,59.88023952,661e456ee6de07e70aa9ef7b,6628df81af01ed4d48ca786d,,,,,,,,,,,,,,,,,,,,,,,,,,,,,,,,,,,,,,,,,,,,,,,,,,,,,,,,1,49,109,21,1,N,M,C,o1_image,stimuli/out1.png,stimuli/correct_out1.png,stimuli/out2.png,,,,,,,,,,,,,,,,,,,,,,,,,,,,,,,,,,,,,,
,,60a3a03bc01ba594c9cca88d,31,female,2024-04-24_12h33.29.223,stockport_simplified,2022.2.4,Win32,59.88023952,661e456ee6de07e70aa9ef7b,6628df81af01ed4d48ca786d,,,,,,,,,,,,,,,,,,,,,,,,,,,,,,,,,,847.2873,849.52,"[7,5,4,1,6,8,2,3]","[[0.3,0.2],[-0.3,0.2]]","[[-0.125,-0.2],[0.125,-0.2]]",0.137962963,-0.206481481,1,0,0,1.717,o2_image,849.5217,1,850.0199,850.0199,852.0206,0,0,0,0,1,,,,,,,,,,,,,,,,,,,,,,,,,,,,,,,,,,,,,,,,,,,,,,,,,,
,,60a3a03bc01ba594c9cca88d,31,female,2024-04-24_12h33.29.223,stockport_simplified,2022.2.4,Win32,59.88023952,661e456ee6de07e70aa9ef7b,6628df81af01ed4d48ca786d,,,,,,,,,,,,,,,,,,,,,,,,,,,,,,,,,,,,,,,,,,,,,,,,,,,,,,,,1,50,110,42,1,B,X,N,o2_image,stimuli/out2.png,stimuli/out1.png,stimuli/correct_out2.png,,,,,,,,,,,,,,,,,,,,,,,,,,,,,,,,,,,,,,
,,60a3a03bc01ba594c9cca88d,31,female,2024-04-24_12h33.29.223,stockport_simplified,2022.2.4,Win32,59.88023952,661e456ee6de07e70aa9ef7b,6628df81af01ed4d48ca786d,,,,,,,,,,,,,,,,,,,,,,,,,,,,,,,,,,852.0209,854.7871,"[7,5,4,1,6,8,2,3]","[[0.3,0.2],[-0.3,0.2]]","[[-0.125,-0.2],[0.125,-0.2]]",-0.137962963,-0.207407407,1,0,0,2.2498,o1_image,854.7879,1,855.2865,855.2869,857.2871,0,0,0,0,1,,,,,,,,,,,,,,,,,,,,,,,,,,,,,,,,,,,,,,,,,,,,,,,,,,
,,60a3a03bc01ba594c9cca88d,31,female,2024-04-24_12h33.29.223,stockport_simplified,2022.2.4,Win32,59.88023952,661e456ee6de07e70aa9ef7b,6628df81af01ed4d48ca786d,,,,,,,,,,,,,,,,,,,,,,,,,,,,,,,,,,,,,,,,,,,,,,,,,,,,,,,,1,51,111,0,1,A,X,N,o1_image,stimuli/out1.png,stimuli/correct_out1.png,stimuli/out2.png,,,,,,,,,,,,,,,,,,,,,,,,,,,,,,,,,,,,,,
,,60a3a03bc01ba594c9cca88d,31,female,2024-04-24_12h33.29.223,stockport_simplified,2022.2.4,Win32,59.88023952,661e456ee6de07e70aa9ef7b,6628df81af01ed4d48ca786d,,,,,,,,,,,,,,,,,,,,,,,,,,,,,,,,,,857.2881,859.0538,"[7,5,4,1,6,8,2,3]","[[-0.3,0.2],[0.3,0.2]]","[[-0.125,-0.2],[0.125,-0.2]]",0.100925926,-0.2,1,0,0,1.265,o2_image,859.0556,1,859.5545,859.5545,861.5531,0,0,0,0,1,,,,,,,,,,,,,,,,,,,,,,,,,,,,,,,,,,,,,,,,,,,,,,,,,,
,,60a3a03bc01ba594c9cca88d,31,female,2024-04-24_12h33.29.223,stockport_simplified,2022.2.4,Win32,59.88023952,661e456ee6de07e70aa9ef7b,6628df81af01ed4d48ca786d,,,,,,,,,,,,,,,,,,,,,,,,,,,,,,,,,,,,,,,,,,,,,,,,,,,,,,,,1,52,112,18,1,B,Y,N,o2_image,stimuli/out2.png,stimuli/out1.png,stimuli/correct_out2.png,,,,,,,,,,,,,,,,,,,,,,,,,,,,,,,,,,,,,,
,,60a3a03bc01ba594c9cca88d,31,female,2024-04-24_12h33.29.223,stockport_simplified,2022.2.4,Win32,59.88023952,661e456ee6de07e70aa9ef7b,6628df81af01ed4d48ca786d,,,,,,,,,,,,,,,,,,,,,,,,,,,,,,,,,,861.5542,863.403,"[7,5,4,1,6,8,2,3]","[[0.3,0.2],[-0.3,0.2]]","[[-0.125,-0.2],[0.125,-0.2]]",0.084259259,-0.2,1,0,0,1.3328,o2_image,863.4045,0,863.9031,863.9031,865.9027,0,0,0,0,1,,,,,,,,,,,,,,,,,,,,,,,,,,,,,,,,,,,,,,,,,,,,,,,,,,
,,60a3a03bc01ba594c9cca88d,31,female,2024-04-24_12h33.29.223,stockport_simplified,2022.2.4,Win32,59.88023952,661e456ee6de07e70aa9ef7b,6628df81af01ed4d48ca786d,,,,,,,,,,,,,,,,,,,,,,,,,,,,,,,,,,,,,,,,,,,,,,,,,,,,,,,,1,53,113,39,1,A,Y,N,o1_image,stimuli/out1.png,stimuli/correct_out1.png,stimuli/out2.png,,,,,,,,,,,,,,,,,,,,,,,,,,,,,,,,,,,,,,
,,60a3a03bc01ba594c9cca88d,31,female,2024-04-24_12h33.29.223,stockport_simplified,2022.2.4,Win32,59.88023952,661e456ee6de07e70aa9ef7b,6628df81af01ed4d48ca786d,,,,,,,,,,,,,,,,,,,,,,,,,,,,,,,,,,865.9035,868.7035,"[7,5,4,1,6,8,2,3]","[[0.3,0.2],[-0.3,0.2]]","[[0.125,-0.2],[-0.125,-0.2]]",0.101851852,-0.201851852,1,0,0,2.2828,o1_image,868.7046,1,869.2047,869.2048,871.2038,0,0,0,0,1,,,,,,,,,,,,,,,,,,,,,,,,,,,,,,,,,,,,,,,,,,,,,,,,,,
,,60a3a03bc01ba594c9cca88d,31,female,2024-04-24_12h33.29.223,stockport_simplified,2022.2.4,Win32,59.88023952,661e456ee6de07e70aa9ef7b,6628df81af01ed4d48ca786d,,,,,,,,,,,,,,,,,,,,,,,,,,,,,,,,,,,,,,,,,,,,,,,,,,,,,,,,1,54,114,3,1,A,X,N,o1_image,stimuli/out1.png,stimuli/correct_out1.png,stimuli/out2.png,,,,,,,,,,,,,,,,,,,,,,,,,,,,,,,,,,,,,,
,,60a3a03bc01ba594c9cca88d,31,female,2024-04-24_12h33.29.223,stockport_simplified,2022.2.4,Win32,59.88023952,661e456ee6de07e70aa9ef7b,6628df81af01ed4d48ca786d,,,,,,,,,,,,,,,,,,,,,,,,,,,,,,,,,,871.2043,873.2866,"[7,5,4,1,6,8,2,3]","[[0.3,0.2],[-0.3,0.2]]","[[0.125,-0.2],[-0.125,-0.2]]",0.080555556,-0.201851852,1,0,0,1.5663,o1_image,873.2879,1,873.7878,873.7879,875.7861,0,0,0,0,1,,,,,,,,,,,,,,,,,,,,,,,,,,,,,,,,,,,,,,,,,,,,,,,,,,
,,60a3a03bc01ba594c9cca88d,31,female,2024-04-24_12h33.29.223,stockport_simplified,2022.2.4,Win32,59.88023952,661e456ee6de07e70aa9ef7b,6628df81af01ed4d48ca786d,,,,,,,,,,,,,,,,,,,,,,,,,,,,,,,,,,,,,,,,,,,,,,,,,,,,,,,,1,55,115,38,1,A,Y,N,o1_image,stimuli/out1.png,stimuli/correct_out1.png,stimuli/out2.png,,,,,,,,,,,,,,,,,,,,,,,,,,,,,,,,,,,,,,
,,60a3a03bc01ba594c9cca88d,31,female,2024-04-24_12h33.29.223,stockport_simplified,2022.2.4,Win32,59.88023952,661e456ee6de07e70aa9ef7b,6628df81af01ed4d48ca786d,,,,,,,,,,,,,,,,,,,,,,,,,,,,,,,,,,875.7868,877.8701,"[7,5,4,1,6,8,2,3]","[[-0.3,0.2],[0.3,0.2]]","[[0.125,-0.2],[-0.125,-0.2]]",-0.087037037,-0.210185185,1,0,0,1.5822,o2_image,877.8713,0,878.37,878.37,880.3711,0,0,0,0,1,,,,,,,,,,,,,,,,,,,,,,,,,,,,,,,,,,,,,,,,,,,,,,,,,,
,,60a3a03bc01ba594c9cca88d,31,female,2024-04-24_12h33.29.223,stockport_simplified,2022.2.4,Win32,59.88023952,661e456ee6de07e70aa9ef7b,6628df81af01ed4d48ca786d,,,,,,,,,,,,,,,,,,,,,,,,,,,,,,,,,,,,,,,,,,,,,,,,,,,,,,,,1,56,116,34,1,A,X,N,o1_image,stimuli/out1.png,stimuli/correct_out1.png,stimuli/out2.png,,,,,,,,,,,,,,,,,,,,,,,,,,,,,,,,,,,,,,
,,60a3a03bc01ba594c9cca88d,31,female,2024-04-24_12h33.29.223,stockport_simplified,2022.2.4,Win32,59.88023952,661e456ee6de07e70aa9ef7b,6628df81af01ed4d48ca786d,,,,,,,,,,,,,,,,,,,,,,,,,,,,,,,,,,880.3714,882.1203,"[7,5,4,1,6,8,2,3]","[[-0.3,0.2],[0.3,0.2]]","[[0.125,-0.2],[-0.125,-0.2]]",0.12962963,-0.212037037,1,0,0,1.2334,o1_image,882.1217,1,882.62,882.62,884.6214,0,0,0,0,1,,,,,,,,,,,,,,,,,,,,,,,,,,,,,,,,,,,,,,,,,,,,,,,,,,
,,60a3a03bc01ba594c9cca88d,31,female,2024-04-24_12h33.29.223,stockport_simplified,2022.2.4,Win32,59.88023952,661e456ee6de07e70aa9ef7b,6628df81af01ed4d48ca786d,,,,,,,,,,,,,,,,,,,,,,,,,,,,,,,,,,,,,,,,,,,,,,,,,,,,,,,,1,57,117,37,1,A,Y,N,o1_image,stimuli/out1.png,stimuli/correct_out1.png,stimuli/out2.png,,,,,,,,,,,,,,,,,,,,,,,,,,,,,,,,,,,,,,
,,60a3a03bc01ba594c9cca88d,31,female,2024-04-24_12h33.29.223,stockport_simplified,2022.2.4,Win32,59.88023952,661e456ee6de07e70aa9ef7b,6628df81af01ed4d48ca786d,,,,,,,,,,,,,,,,,,,,,,,,,,,,,,,,,,884.622,886.6872,"[7,5,4,1,6,8,2,3]","[[0.3,0.2],[-0.3,0.2]]","[[-0.125,-0.2],[0.125,-0.2]]",0.10462963,-0.218518519,1,0,0,1.5496,o2_image,886.6883,1,887.1871,887.1872,889.1867,0,0,0,0,1,,,,,,,,,,,,,,,,,,,,,,,,,,,,,,,,,,,,,,,,,,,,,,,,,,
,,60a3a03bc01ba594c9cca88d,31,female,2024-04-24_12h33.29.223,stockport_simplified,2022.2.4,Win32,59.88023952,661e456ee6de07e70aa9ef7b,6628df81af01ed4d48ca786d,,,,,,,,,,,,,,,,,,,,,,,,,,,,,,,,,,,,,,,,,,,,,,,,,,,,,,,,1,58,118,10,1,B,X,N,o2_image,stimuli/out2.png,stimuli/out1.png,stimuli/correct_out2.png,,,,,,,,,,,,,,,,,,,,,,,,,,,,,,,,,,,,,,
,,60a3a03bc01ba594c9cca88d,31,female,2024-04-24_12h33.29.223,stockport_simplified,2022.2.4,Win32,59.88023952,661e456ee6de07e70aa9ef7b,6628df81af01ed4d48ca786d,,,,,,,,,,,,,,,,,,,,,,,,,,,,,,,,,,889.1873,891.4034,"[7,5,4,1,6,8,2,3]","[[0.3,0.2],[-0.3,0.2]]","[[-0.125,-0.2],[0.125,-0.2]]",0.119444444,-0.222222222,1,0,0,1.6995,o2_image,891.4046,1,891.9034,891.9034,893.9031,0,0,0,0,1,,,,,,,,,,,,,,,,,,,,,,,,,,,,,,,,,,,,,,,,,,,,,,,,,,
,,60a3a03bc01ba594c9cca88d,31,female,2024-04-24_12h33.29.223,stockport_simplified,2022.2.4,Win32,59.88023952,661e456ee6de07e70aa9ef7b,6628df81af01ed4d48ca786d,,,,,,,,,,,,,,,,,,,,,,,,,,,,,,,,,,,,,,,,,,,,,,,,,,,,,,,,1,59,119,57,1,N,M,D,o2_image,stimuli/out2.png,stimuli/out1.png,stimuli/correct_out2.png,,,,,,,,,,,,,,,,,,,,,,,,,,,,,,,,,,,,,,
,,60a3a03bc01ba594c9cca88d,31,female,2024-04-24_12h33.29.223,stockport_simplified,2022.2.4,Win32,59.88023952,661e456ee6de07e70aa9ef7b,6628df81af01ed4d48ca786d,,,,,,,,,,,,,,,,,,,,,,,,,,,,,,,,,,893.9215,895.9869,"[7,5,4,1,6,8,2,3]","[[-0.3,0.2],[0.3,0.2]]","[[0.125,-0.2],[-0.125,-0.2]]",0.113888889,-0.216666667,1,0,0,1.5492,o1_image,895.9888,1,896.4867,896.4868,898.4879,,,,,,,,,,,,,,,,,,0,0,0,0,1,,,,,,,,,,,,,,,,,,,,,,,,,,,,,,,,,
,,60a3a03bc01ba594c9cca88d,31,female,2024-04-24_12h33.29.223,stockport_simplified,2022.2.4,Win32,59.88023952,661e456ee6de07e70aa9ef7b,6628df81af01ed4d48ca786d,,,,,,,,,,,,,,,,,,,,,,,,,,,,,,,,,,,,,,,,,,,,,,,,,,,,,,,,,,,,,A,Y,N,o1_image,stimuli/out1.png,stimuli/correct_out1.png,stimuli/out2.png,,,,,,0,0,0,15,1,,,,,,,,,,,,,,,,,,,,,,,,,,,,
,,60a3a03bc01ba594c9cca88d,31,female,2024-04-24_12h33.29.223,stockport_simplified,2022.2.4,Win32,59.88023952,661e456ee6de07e70aa9ef7b,6628df81af01ed4d48ca786d,,,,,,,,,,,,,,,,,,,,,,,,,,,,,,,,,,898.4893,900.0203,"[7,5,4,1,6,8,2,3]","[[0.3,0.2],[-0.3,0.2]]","[[0.125,-0.2],[-0.125,-0.2]]",0.113888889,-0.216666667,1,0,0,1.0165,o1_image,900.0217,1,900.5208,900.5209,902.5203,,,,,,,,,,,,,,,,,,0,0,0,0,1,,,,,,,,,,,,,,,,,,,,,,,,,,,,,,,,,
,,60a3a03bc01ba594c9cca88d,31,female,2024-04-24_12h33.29.223,stockport_simplified,2022.2.4,Win32,59.88023952,661e456ee6de07e70aa9ef7b,6628df81af01ed4d48ca786d,,,,,,,,,,,,,,,,,,,,,,,,,,,,,,,,,,,,,,,,,,,,,,,,,,,,,,,,,,,,,A,Y,N,o1_image,stimuli/out1.png,stimuli/correct_out1.png,stimuli/out2.png,,,,,,0,1,1,12,1,,,,,,,,,,,,,,,,,,,,,,,,,,,,
,,60a3a03bc01ba594c9cca88d,31,female,2024-04-24_12h33.29.223,stockport_simplified,2022.2.4,Win32,59.88023952,661e456ee6de07e70aa9ef7b,6628df81af01ed4d48ca786d,,,,,,,,,,,,,,,,,,,,,,,,,,,,,,,,,,902.5214,904.2871,"[7,5,4,1,6,8,2,3]","[[0.3,0.2],[-0.3,0.2]]","[[0.125,-0.2],[-0.125,-0.2]]",-0.109259259,-0.217592593,1,0,0,1.2497,o2_image,904.2883,1,904.7877,904.7877,906.787,,,,,,,,,,,,,,,,,,0,0,0,0,1,,,,,,,,,,,,,,,,,,,,,,,,,,,,,,,,,
,,60a3a03bc01ba594c9cca88d,31,female,2024-04-24_12h33.29.223,stockport_simplified,2022.2.4,Win32,59.88023952,661e456ee6de07e70aa9ef7b,6628df81af01ed4d48ca786d,,,,,,,,,,,,,,,,,,,,,,,,,,,,,,,,,,,,,,,,,,,,,,,,,,,,,,,,,,,,,N,M,D,o2_image,stimuli/out2.png,stimuli/out1.png,stimuli/correct_out2.png,,,,,,0,2,2,57,1,,,,,,,,,,,,,,,,,,,,,,,,,,,,
,,60a3a03bc01ba594c9cca88d,31,female,2024-04-24_12h33.29.223,stockport_simplified,2022.2.4,Win32,59.88023952,661e456ee6de07e70aa9ef7b,6628df81af01ed4d48ca786d,,,,,,,,,,,,,,,,,,,,,,,,,,,,,,,,,,906.7877,909.1545,"[7,5,4,1,6,8,2,3]","[[-0.3,0.2],[0.3,0.2]]","[[0.125,-0.2],[-0.125,-0.2]]",0.143518519,-0.212962963,1,0,0,1.8505,o1_image,909.1631,1,909.6534,909.6537,911.6537,,,,,,,,,,,,,,,,,,0,0,0,0,1,,,,,,,,,,,,,,,,,,,,,,,,,,,,,,,,,
