counterbalance_2.started,counterbalance_2.stopped,participant,age,gender,date,expName,psychopyVersion,OS,frameRate,STUDY_ID,SESSION_ID,information_2.started,information_2.stopped,information_loop.thisRepN,information_loop.thisTrialN,information_loop.thisN,information_loop.thisIndex,information_loop.ran,information,consent_2.started,consent_2.stopped,slider_1.response,slider_2.response,slider_3.response,slider_4.response,slider_5.response,slider_6.response,instructions.started,instructions.stopped,task1_instr.thisRepN,task1_instr.thisTrialN,task1_instr.thisN,task1_instr.thisIndex,task1_instr.ran,task1,comprehension1_2.started,comprehension1_2.stopped,comp1_mouse.x,comp1_mouse.y,comp1_mouse.leftButton,comp1_mouse.midButton,comp1_mouse.rightButton,comp1_mouse.time,comp1_mouse.clicked_name,cue_o__trial_2.started,cue_o__trial_2.stopped,order,cue_order,out_order,cue_o_mouse.x,cue_o_mouse.y,cue_o_mouse.leftButton,cue_o_mouse.midButton,cue_o_mouse.rightButton,cue_o_mouse.time,cue_o_mouse.clicked_name,cue_selection_2.started,correct_answer,cue_selection_2.stopped,feedback_2.started,feedback_2.stopped,feedback_loop.thisRepN,feedback_loop.thisTrialN,feedback_loop.thisN,feedback_loop.thisIndex,feedback_loop.ran,stage1_trials.thisRepN,stage1_trials.thisTrialN,stage1_trials.thisN,stage1_trials.thisIndex,stage1_trials.ran,cue1,cue2,cue3,outcome,correct_out,o1_feedback,o2_feedback,stage2_feedback_loop.thisRepN,stage2_feedback_loop.thisTrialN,stage2_feedback_loop.thisN,stage2_feedback_loop.thisIndex,stage2_feedback_loop.ran,stage2_trials.thisRepN,stage2_trials.thisTrialN,stage2_trials.thisN,stage2_trials.thisIndex,stage2_trials.ran,stage3_feedback_loop.thisRepN,stage3_feedback_loop.thisTrialN,stage3_feedback_loop.thisN,stage3_feedback_loop.thisIndex,stage3_feedback_loop.ran,stage3_trials.thisRepN,stage3_trials.thisTrialN,stage3_trials.thisN,stage3_trials.thisIndex,stage3_trials.ran,debrief_2.started,debrief_2.stopped,debrief_loop.thisRepN,debrief_loop.thisTrialN,debrief_loop.thisN,debrief_loop.thisIndex,debrief_loop.ran,debrief_img,compr1_completed.thisRepN,compr1_completed.thisTrialN,compr1_completed.thisN,compr1_completed.thisIndex,compr1_completed.ran,consent_loop.thisRepN,consent_loop.thisTrialN,consent_loop.thisN,consent_loop.thisIndex,consent_loop.ran
0.0007,0.0011,5f56104edb04a89ea3f12ec6,42,female,2024-04-16_12h28.10.412,stockport_simplified,2022.2.4,Win32,29.94011976,661e456ee6de07e70aa9ef7b,661e511cac52da4490fb11d9,,,,,,,,,,,,,,,,,,,,,,,,,,,,,,,,,,,,,,,,,,,,,,,,,,,,,,,,,,,,,,,,,,,,,,,,,,,,,,,,,,,,,,,,,,,,,,,,,,,,,,,,,
,,5f56104edb04a89ea3f12ec6,42,female,2024-04-16_12h28.10.412,stockport_simplified,2022.2.4,Win32,29.94011976,661e456ee6de07e70aa9ef7b,661e511cac52da4490fb11d9,0.042,37.402,0,0,0,0,1,instructions/info1.png,,,,,,,,,,,,,,,,,,,,,,,,,,,,,,,,,,,,,,,,,,,,,,,,,,,,,,,,,,,,,,,,,,,,,,,,,,,,,,,,,,,,,,,,,,,,,,,,,
,,5f56104edb04a89ea3f12ec6,42,female,2024-04-16_12h28.10.412,stockport_simplified,2022.2.4,Win32,29.94011976,661e456ee6de07e70aa9ef7b,661e511cac52da4490fb11d9,37.4036,43.9455,0,1,1,1,1,instructions/info2.png,,,,,,,,,,,,,,,,,,,,,,,,,,,,,,,,,,,,,,,,,,,,,,,,,,,,,,,,,,,,,,,,,,,,,,,,,,,,,,,,,,,,,,,,,,,,,,,,,
,,5f56104edb04a89ea3f12ec6,42,female,2024-04-16_12h28.10.412,stockport_simplified,2022.2.4,Win32,29.94011976,661e456ee6de07e70aa9ef7b,661e511cac52da4490fb11d9,43.9773,50.0958,0,2,2,2,1,instructions/info3.png,,,,,,,,,,,,,,,,,,,,,,,,,,,,,,,,,,,,,,,,,,,,,,,,,,,,,,,,,,,,,,,,,,,,,,,,,,,,,,,,,,,,,,,,,,,,,,,,,
,,5f56104edb04a89ea3f12ec6,42,female,2024-04-16_12h28.10.412,stockport_simplified,2022.2.4,Win32,29.94011976,661e456ee6de07e70aa9ef7b,661e511cac52da4490fb11d9,,,,,,,,,50.1298,120.7084,1,1,1,1,1,1,,,,,,,,,,,,,,,,,,,,,,,,,,,,,,,,,,,,,,,,,,,,,,,,,,,,,,,,,,,,,,,,,,,,,,,,,,,,,,,,,,,,,,,,,
,,5f56104edb04a89ea3f12ec6,42,female,2024-04-16_12h28.10.412,stockport_simplified,2022.2.4,Win32,29.94011976,661e456ee6de07e70aa9ef7b,661e511cac52da4490fb11d9,,,,,,,,,,,,,,,,,120.7423,346.2168,0,0,0,0,1,instructions/task1_1.png,,,,,,,,,,,,,,,,,,,,,,,,,,,,,,,,,,,,,,,,,,,,,,,,,,,,,,,,,,,,,,,,,,,,,,,,,,,,,,,,,
,,5f56104edb04a89ea3f12ec6,42,female,2024-04-16_12h28.10.412,stockport_simplified,2022.2.4,Win32,29.94011976,661e456ee6de07e70aa9ef7b,661e511cac52da4490fb11d9,,,,,,,,,,,,,,,,,346.2183,376.1041,0,1,1,1,1,instructions/task1_2.png,,,,,,,,,,,,,,,,,,,,,,,,,,,,,,,,,,,,,,,,,,,,,,,,,,,,,,,,,,,,,,,,,,,,,,,,,,,,,,,,,
,,5f56104edb04a89ea3f12ec6,42,female,2024-04-16_12h28.10.412,stockport_simplified,2022.2.4,Win32,29.94011976,661e456ee6de07e70aa9ef7b,661e511cac52da4490fb11d9,,,,,,,,,,,,,,,,,376.1383,426.7879,0,2,2,2,1,instructions/task1_3.png,,,,,,,,,,,,,,,,,,,,,,,,,,,,,,,,,,,,,,,,,,,,,,,,,,,,,,,,,,,,,,,,,,,,,,,,,,,,,,,,,
,,5f56104edb04a89ea3f12ec6,42,female,2024-04-16_12h28.10.412,stockport_simplified,2022.2.4,Win32,29.94011976,661e456ee6de07e70aa9ef7b,661e511cac52da4490fb11d9,,,,,,,,,,,,,,,,,,,,,,,,,426.7904,501.3906,0.077330356,-0.327634123,1,0,0,74.5978,comp1_resp1,501.4844,504.8446,"[6,5,1,4,2,7,8,3]","[[0.3,0.2],[-0.3,0.2]]","[[0.125,-0.2],[-0.125,-0.2]]",-0.137215745,-0.194323923,1,0,0,2.8552,o2_image,504.8489,1,505.3402,505.3407,507.3256,0,0,0,0,1,,,,,,,,,,,,,,,,,,,,,,,,,,,,,,,,,,,,,,,,,,,,,,,,,,
,,5f56104edb04a89ea3f12ec6,42,female,2024-04-16_12h28.10.412,stockport_simplified,2022.2.4,Win32,29.94011976,661e456ee6de07e70aa9ef7b,661e511cac52da4490fb11d9,,,,,,,,,,,,,,,,,,,,,,,,,,,,,,,,,,,,,,,,,,,,,,,,,,,,,,,,0,0,0,40,1,B,X,N,o2_image,stimuli/out2.png,stimuli/out1.png,stimuli/correct_out2.png,,,,,,,,,,,,,,,,,,,,,,,,,,,,,,,,,,,,,,
,,5f56104edb04a89ea3f12ec6,42,female,2024-04-16_12h28.10.412,stockport_simplified,2022.2.4,Win32,29.94011976,661e456ee6de07e70aa9ef7b,661e511cac52da4490fb11d9,,,,,,,,,,,,,,,,,,,,,,,,,,,,,,,,,,507.3273,510.6675,"[6,5,1,4,2,7,8,3]","[[-0.3,0.2],[0.3,0.2]]","[[0.125,-0.2],[-0.125,-0.2]]",0.141902659,-0.204044458,1,0,0,2.829,o1_image,510.7024,0,511.2024,511.2025,513.2065,0,0,0,0,1,,,,,,,,,,,,,,,,,,,,,,,,,,,,,,,,,,,,,,,,,,,,,,,,,,
,,5f56104edb04a89ea3f12ec6,42,female,2024-04-16_12h28.10.412,stockport_simplified,2022.2.4,Win32,29.94011976,661e456ee6de07e70aa9ef7b,661e511cac52da4490fb11d9,,,,,,,,,,,,,,,,,,,,,,,,,,,,,,,,,,,,,,,,,,,,,,,,,,,,,,,,0,1,1,27,1,N,M,D,o2_image,stimuli/out2.png,stimuli/out1.png,stimuli/correct_out2.png,,,,,,,,,,,,,,,,,,,,,,,,,,,,,,,,,,,,,,
,,5f56104edb04a89ea3f12ec6,42,female,2024-04-16_12h28.10.412,stockport_simplified,2022.2.4,Win32,29.94011976,661e456ee6de07e70aa9ef7b,661e511cac52da4490fb11d9,,,,,,,,,,,,,,,,,,,,,,,,,,,,,,,,,,513.2076,515.6367,"[6,5,1,4,2,7,8,3]","[[0.3,0.2],[-0.3,0.2]]","[[-0.125,-0.2],[0.125,-0.2]]",0.139125374,-0.20057287,1,0,0,1.916,o2_image,515.6519,0,516.1538,516.1539,518.1662,0,0,0,0,1,,,,,,,,,,,,,,,,,,,,,,,,,,,,,,,,,,,,,,,,,,,,,,,,,,
,,5f56104edb04a89ea3f12ec6,42,female,2024-04-16_12h28.10.412,stockport_simplified,2022.2.4,Win32,29.94011976,661e456ee6de07e70aa9ef7b,661e511cac52da4490fb11d9,,,,,,,,,,,,,,,,,,,,,,,,,,,,,,,,,,,,,,,,,,,,,,,,,,,,,,,,0,2,2,31,1,A,X,N,o1_image,stimuli/out1.png,stimuli/correct_out1.png,stimuli/out2.png,,,,,,,,,,,,,,,,,,,,,,,,,,,,,,,,,,,,,,
,,5f56104edb04a89ea3f12ec6,42,female,2024-04-16_12h28.10.412,stockport_simplified,2022.2.4,Win32,29.94011976,661e456ee6de07e70aa9ef7b,661e511cac52da4490fb11d9,,,,,,,,,,,,,,,,,,,,,,,,,,,,,,,,,,518.1674,521.6342,"[6,5,1,4,2,7,8,3]","[[-0.3,0.2],[0.3,0.2]]","[[-0.125,-0.2],[0.125,-0.2]]",0.118295477,-0.173494323,1,0,0,2.9455,o2_image,521.6376,1,522.1359,522.1361,524.1398,0,0,0,0,1,,,,,,,,,,,,,,,,,,,,,,,,,,,,,,,,,,,,,,,,,,,,,,,,,,
,,5f56104edb04a89ea3f12ec6,42,female,2024-04-16_12h28.10.412,stockport_simplified,2022.2.4,Win32,29.94011976,661e456ee6de07e70aa9ef7b,661e511cac52da4490fb11d9,,,,,,,,,,,,,,,,,,,,,,,,,,,,,,,,,,,,,,,,,,,,,,,,,,,,,,,,0,3,3,44,1,B,X,N,o2_image,stimuli/out2.png,stimuli/out1.png,stimuli/correct_out2.png,,,,,,,,,,,,,,,,,,,,,,,,,,,,,,,,,,,,,,
,,5f56104edb04a89ea3f12ec6,42,female,2024-04-16_12h28.10.412,stockport_simplified,2022.2.4,Win32,29.94011976,661e456ee6de07e70aa9ef7b,661e511cac52da4490fb11d9,,,,,,,,,,,,,,,,,,,,,,,,,,,,,,,,,,524.1413,527.589,"[6,5,1,4,2,7,8,3]","[[-0.3,0.2],[0.3,0.2]]","[[0.125,-0.2],[-0.125,-0.2]]",0.130099142,-0.181826178,1,0,0,2.9336,o1_image,527.5909,1,528.0861,528.0862,530.0861,0,0,0,0,1,,,,,,,,,,,,,,,,,,,,,,,,,,,,,,,,,,,,,,,,,,,,,,,,,,
,,5f56104edb04a89ea3f12ec6,42,female,2024-04-16_12h28.10.412,stockport_simplified,2022.2.4,Win32,29.94011976,661e456ee6de07e70aa9ef7b,661e511cac52da4490fb11d9,,,,,,,,,,,,,,,,,,,,,,,,,,,,,,,,,,,,,,,,,,,,,,,,,,,,,,,,0,4,4,52,1,N,M,C,o1_image,stimuli/out1.png,stimuli/correct_out1.png,stimuli/out2.png,,,,,,,,,,,,,,,,,,,,,,,,,,,,,,,,,,,,,,
,,5f56104edb04a89ea3f12ec6,42,female,2024-04-16_12h28.10.412,stockport_simplified,2022.2.4,Win32,29.94011976,661e456ee6de07e70aa9ef7b,661e511cac52da4490fb11d9,,,,,,,,,,,,,,,,,,,,,,,,,,,,,,,,,,530.0874,536.1229,"[6,5,1,4,2,7,8,3]","[[0.3,0.2],[-0.3,0.2]]","[[-0.125,-0.2],[0.125,-0.2]]",-0.211508397,-0.227651492,1,0,0,4.4697,o1_image,536.1584,1,536.6528,536.6529,538.653,0,0,0,0,1,,,,,,,,,,,,,,,,,,,,,,,,,,,,,,,,,,,,,,,,,,,,,,,,,,
,,5f56104edb04a89ea3f12ec6,42,female,2024-04-16_12h28.10.412,stockport_simplified,2022.2.4,Win32,29.94011976,661e456ee6de07e70aa9ef7b,661e511cac52da4490fb11d9,,,,,,,,,,,,,,,,,,,,,,,,,,,,,,,,,,,,,,,,,,,,,,,,,,,,,,,,0,5,5,6,1,A,Y,N,o1_image,stimuli/out1.png,stimuli/correct_out1.png,stimuli/out2.png,,,,,,,,,,,,,,,,,,,,,,,,,,,,,,,,,,,,,,
,,5f56104edb04a89ea3f12ec6,42,female,2024-04-16_12h28.10.412,stockport_simplified,2022.2.4,Win32,29.94011976,661e456ee6de07e70aa9ef7b,661e511cac52da4490fb11d9,,,,,,,,,,,,,,,,,,,,,,,,,,,,,,,,,,538.6541,543.6724,"[6,5,1,4,2,7,8,3]","[[-0.3,0.2],[0.3,0.2]]","[[0.125,-0.2],[-0.125,-0.2]]",0.118295477,-0.201267247,1,0,0,4.5098,o1_image,543.7079,1,544.1862,544.1863,546.1762,0,0,0,0,1,,,,,,,,,,,,,,,,,,,,,,,,,,,,,,,,,,,,,,,,,,,,,,,,,,
,,5f56104edb04a89ea3f12ec6,42,female,2024-04-16_12h28.10.412,stockport_simplified,2022.2.4,Win32,29.94011976,661e456ee6de07e70aa9ef7b,661e511cac52da4490fb11d9,,,,,,,,,,,,,,,,,,,,,,,,,,,,,,,,,,,,,,,,,,,,,,,,,,,,,,,,0,6,6,2,1,A,X,N,o1_image,stimuli/out1.png,stimuli/correct_out1.png,stimuli/out2.png,,,,,,,,,,,,,,,,,,,,,,,,,,,,,,,,,,,,,,
,,5f56104edb04a89ea3f12ec6,42,female,2024-04-16_12h28.10.412,stockport_simplified,2022.2.4,Win32,29.94011976,661e456ee6de07e70aa9ef7b,661e511cac52da4490fb11d9,,,,,,,,,,,,,,,,,,,,,,,,,,,,,,,,,,546.1774,548.5561,"[6,5,1,4,2,7,8,3]","[[0.3,0.2],[-0.3,0.2]]","[[-0.125,-0.2],[0.125,-0.2]]",0.118295477,-0.201267247,1,0,0,1.8628,o2_image,548.5579,1,549.053,549.0531,551.057,0,0,0,0,1,,,,,,,,,,,,,,,,,,,,,,,,,,,,,,,,,,,,,,,,,,,,,,,,,,
,,5f56104edb04a89ea3f12ec6,42,female,2024-04-16_12h28.10.412,stockport_simplified,2022.2.4,Win32,29.94011976,661e456ee6de07e70aa9ef7b,661e511cac52da4490fb11d9,,,,,,,,,,,,,,,,,,,,,,,,,,,,,,,,,,,,,,,,,,,,,,,,,,,,,,,,0,7,7,41,1,B,X,N,o2_image,stimuli/out2.png,stimuli/out1.png,stimuli/correct_out2.png,,,,,,,,,,,,,,,,,,,,,,,,,,,,,,,,,,,,,,
,,5f56104edb04a89ea3f12ec6,42,female,2024-04-16_12h28.10.412,stockport_simplified,2022.2.4,Win32,29.94011976,661e456ee6de07e70aa9ef7b,661e511cac52da4490fb11d9,,,,,,,,,,,,,,,,,,,,,,,,,,,,,,,,,,551.0582,553.7282,"[6,5,1,4,2,7,8,3]","[[-0.3,0.2],[0.3,0.2]]","[[0.125,-0.2],[-0.125,-0.2]]",-0.117774639,-0.229040097,1,0,0,2.1387,o2_image,553.7301,0,554.2267,554.2269,556.2028,0,0,0,0,1,,,,,,,,,,,,,,,,,,,,,,,,,,,,,,,,,,,,,,,,,,,,,,,,,,
,,5f56104edb04a89ea3f12ec6,42,female,2024-04-16_12h28.10.412,stockport_simplified,2022.2.4,Win32,29.94011976,661e456ee6de07e70aa9ef7b,661e511cac52da4490fb11d9,,,,,,,,,,,,,,,,,,,,,,,,,,,,,,,,,,,,,,,,,,,,,,,,,,,,,,,,0,8,8,51,1,N,M,C,o1_image,stimuli/out1.png,stimuli/correct_out1.png,stimuli/out2.png,,,,,,,,,,,,,,,,,,,,,,,,,,,,,,,,,,,,,,
,,5f56104edb04a89ea3f12ec6,42,female,2024-04-16_12h28.10.412,stockport_simplified,2022.2.4,Win32,29.94011976,661e456ee6de07e70aa9ef7b,661e511cac52da4490fb11d9,,,,,,,,,,,,,,,,,,,,,,,,,,,,,,,,,,556.2039,558.9378,"[6,5,1,4,2,7,8,3]","[[0.3,0.2],[-0.3,0.2]]","[[0.125,-0.2],[-0.125,-0.2]]",0.118295477,-0.214459295,1,0,0,2.2196,o1_image,558.9398,1,559.4529,559.453,561.4544,0,0,0,0,1,,,,,,,,,,,,,,,,,,,,,,,,,,,,,,,,,,,,,,,,,,,,,,,,,,
,,5f56104edb04a89ea3f12ec6,42,female,2024-04-16_12h28.10.412,stockport_simplified,2022.2.4,Win32,29.94011976,661e456ee6de07e70aa9ef7b,661e511cac52da4490fb11d9,,,,,,,,,,,,,,,,,,,,,,,,,,,,,,,,,,,,,,,,,,,,,,,,,,,,,,,,0,9,9,30,1,A,X,N,o1_image,stimuli/out1.png,stimuli/correct_out1.png,stimuli/out2.png,,,,,,,,,,,,,,,,,,,,,,,,,,,,,,,,,,,,,,
,,5f56104edb04a89ea3f12ec6,42,female,2024-04-16_12h28.10.412,stockport_simplified,2022.2.4,Win32,29.94011976,661e456ee6de07e70aa9ef7b,661e511cac52da4490fb11d9,,,,,,,,,,,,,,,,,,,,,,,,,,,,,,,,,,561.4555,564.6018,"[6,5,1,4,2,7,8,3]","[[0.3,0.2],[-0.3,0.2]]","[[-0.125,-0.2],[0.125,-0.2]]",0.118295477,-0.214459295,1,0,0,2.6129,o2_image,564.6349,0,565.1264,565.1266,567.1288,0,0,0,0,1,,,,,,,,,,,,,,,,,,,,,,,,,,,,,,,,,,,,,,,,,,,,,,,,,,
,,5f56104edb04a89ea3f12ec6,42,female,2024-04-16_12h28.10.412,stockport_simplified,2022.2.4,Win32,29.94011976,661e456ee6de07e70aa9ef7b,661e511cac52da4490fb11d9,,,,,,,,,,,,,,,,,,,,,,,,,,,,,,,,,,,,,,,,,,,,,,,,,,,,,,,,0,10,10,9,1,A,Y,N,o1_image,stimuli/out1.png,stimuli/correct_out1.png,stimuli/out2.png,,,,,,,,,,,,,,,,,,,,,,,,,,,,,,,,,,,,,,
,,5f56104edb04a89ea3f12ec6,42,female,2024-04-16_12h28.10.412,stockport_simplified,2022.2.4,Win32,29.94011976,661e456ee6de07e70aa9ef7b,661e511cac52da4490fb11d9,,,,,,,,,,,,,,,,,,,,,,,,,,,,,,,,,,567.13,569.5737,"[6,5,1,4,2,7,8,3]","[[-0.3,0.2],[0.3,0.2]]","[[-0.125,-0.2],[0.125,-0.2]]",-0.121246301,-0.174188551,1,0,0,1.9349,o1_image,569.5754,0,570.0719,570.072,572.0714,0,0,0,0,1,,,,,,,,,,,,,,,,,,,,,,,,,,,,,,,,,,,,,,,,,,,,,,,,,,
,,5f56104edb04a89ea3f12ec6,42,female,2024-04-16_12h28.10.412,stockport_simplified,2022.2.4,Win32,29.94011976,661e456ee6de07e70aa9ef7b,661e511cac52da4490fb11d9,,,,,,,,,,,,,,,,,,,,,,,,,,,,,,,,,,,,,,,,,,,,,,,,,,,,,,,,0,11,11,14,1,B,X,N,o2_image,stimuli/out2.png,stimuli/out1.png,stimuli/correct_out2.png,,,,,,,,,,,,,,,,,,,,,,,,,,,,,,,,,,,,,,
,,5f56104edb04a89ea3f12ec6,42,female,2024-04-16_12h28.10.412,stockport_simplified,2022.2.4,Win32,29.94011976,661e456ee6de07e70aa9ef7b,661e511cac52da4490fb11d9,,,,,,,,,,,,,,,,,,,,,,,,,,,,,,,,,,572.0724,574.6899,"[6,5,1,4,2,7,8,3]","[[-0.3,0.2],[0.3,0.2]]","[[-0.125,-0.2],[0.125,-0.2]]",0.1314876,-0.216542278,1,0,0,2.1021,o2_image,574.7235,1,575.2301,575.2301,577.2265,0,0,0,0,1,,,,,,,,,,,,,,,,,,,,,,,,,,,,,,,,,,,,,,,,,,,,,,,,,,
,,5f56104edb04a89ea3f12ec6,42,female,2024-04-16_12h28.10.412,stockport_simplified,2022.2.4,Win32,29.94011976,661e456ee6de07e70aa9ef7b,661e511cac52da4490fb11d9,,,,,,,,,,,,,,,,,,,,,,,,,,,,,,,,,,,,,,,,,,,,,,,,,,,,,,,,0,12,12,47,1,B,Y,N,o2_image,stimuli/out2.png,stimuli/out1.png,stimuli/correct_out2.png,,,,,,,,,,,,,,,,,,,,,,,,,,,,,,,,,,,,,,
,,5f56104edb04a89ea3f12ec6,42,female,2024-04-16_12h28.10.412,stockport_simplified,2022.2.4,Win32,29.94011976,661e456ee6de07e70aa9ef7b,661e511cac52da4490fb11d9,,,,,,,,,,,,,,,,,,,,,,,,,,,,,,,,,,577.2275,580.1064,"[6,5,1,4,2,7,8,3]","[[0.3,0.2],[-0.3,0.2]]","[[0.125,-0.2],[-0.125,-0.2]]",0.1314876,-0.216542278,1,0,0,2.3675,o1_image,580.1082,1,580.6217,580.6218,582.6097,0,0,0,0,1,,,,,,,,,,,,,,,,,,,,,,,,,,,,,,,,,,,,,,,,,,,,,,,,,,
,,5f56104edb04a89ea3f12ec6,42,female,2024-04-16_12h28.10.412,stockport_simplified,2022.2.4,Win32,29.94011976,661e456ee6de07e70aa9ef7b,661e511cac52da4490fb11d9,,,,,,,,,,,,,,,,,,,,,,,,,,,,,,,,,,,,,,,,,,,,,,,,,,,,,,,,0,13,13,5,1,A,Y,N,o1_image,stimuli/out1.png,stimuli/correct_out1.png,stimuli/out2.png,,,,,,,,,,,,,,,,,,,,,,,,,,,,,,,,,,,,,,
,,5f56104edb04a89ea3f12ec6,42,female,2024-04-16_12h28.10.412,stockport_simplified,2022.2.4,Win32,29.94011976,661e456ee6de07e70aa9ef7b,661e511cac52da4490fb11d9,,,,,,,,,,,,,,,,,,,,,,,,,,,,,,,,,,582.6108,585.4399,"[6,5,1,4,2,7,8,3]","[[-0.3,0.2],[0.3,0.2]]","[[0.125,-0.2],[-0.125,-0.2]]",-0.159434025,-0.207516194,1,0,0,2.3126,o2_image,585.442,1,585.9438,585.9438,587.9371,0,0,0,0,1,,,,,,,,,,,,,,,,,,,,,,,,,,,,,,,,,,,,,,,,,,,,,,,,,,
,,5f56104edb04a89ea3f12ec6,42,female,2024-04-16_12h28.10.412,stockport_simplified,2022.2.4,Win32,29.94011976,661e456ee6de07e70aa9ef7b,661e511cac52da4490fb11d9,,,,,,,,,,,,,,,,,,,,,,,,,,,,,,,,,,,,,,,,,,,,,,,,,,,,,,,,0,14,14,48,1,B,Y,N,o2_image,stimuli/out2.png,stimuli/out1.png,stimuli/correct_out2.png,,,,,,,,,,,,,,,,,,,,,,,,,,,,,,,,,,,,,,
,,5f56104edb04a89ea3f12ec6,42,female,2024-04-16_12h28.10.412,stockport_simplified,2022.2.4,Win32,29.94011976,661e456ee6de07e70aa9ef7b,661e511cac52da4490fb11d9,,,,,,,,,,,,,,,,,,,,,,,,,,,,,,,,,,587.9382,590.6062,"[6,5,1,4,2,7,8,3]","[[-0.3,0.2],[0.3,0.2]]","[[0.125,-0.2],[-0.125,-0.2]]",0.093299986,-0.193629621,1,0,0,2.1595,o1_image,590.6084,1,591.1037,591.1039,593.1046,0,0,0,0,1,,,,,,,,,,,,,,,,,,,,,,,,,,,,,,,,,,,,,,,,,,,,,,,,,,
,,5f56104edb04a89ea3f12ec6,42,female,2024-04-16_12h28.10.412,stockport_simplified,2022.2.4,Win32,29.94011976,661e456ee6de07e70aa9ef7b,661e511cac52da4490fb11d9,,,,,,,,,,,,,,,,,,,,,,,,,,,,,,,,,,,,,,,,,,,,,,,,,,,,,,,,0,15,15,8,1,A,Y,N,o1_image,stimuli/out1.png,stimuli/correct_out1.png,stimuli/out2.png,,,,,,,,,,,,,,,,,,,,,,,,,,,,,,,,,,,,,,
,,5f56104edb04a89ea3f12ec6,42,female,2024-04-16_12h28.10.412,stockport_simplified,2022.2.4,Win32,29.94011976,661e456ee6de07e70aa9ef7b,661e511cac52da4490fb11d9,,,,,,,,,,,,,,,,,,,,,,,,,,,,,,,,,,593.1055,595.5565,"[6,5,1,4,2,7,8,3]","[[-0.3,0.2],[0.3,0.2]]","[[-0.125,-0.2],[0.125,-0.2]]",-0.123329283,-0.198489888,1,0,0,1.935,o1_image,595.5583,1,596.072,596.0721,598.0629,0,0,0,0,1,,,,,,,,,,,,,,,,,,,,,,,,,,,,,,,,,,,,,,,,,,,,,,,,,,
,,5f56104edb04a89ea3f12ec6,42,female,2024-04-16_12h28.10.412,stockport_simplified,2022.2.4,Win32,29.94011976,661e456ee6de07e70aa9ef7b,661e511cac52da4490fb11d9,,,,,,,,,,,,,,,,,,,,,,,,,,,,,,,,,,,,,,,,,,,,,,,,,,,,,,,,0,16,16,32,1,A,X,N,o1_image,stimuli/out1.png,stimuli/correct_out1.png,stimuli/out2.png,,,,,,,,,,,,,,,,,,,,,,,,,,,,,,,,,,,,,,
,,5f56104edb04a89ea3f12ec6,42,female,2024-04-16_12h28.10.412,stockport_simplified,2022.2.4,Win32,29.94011976,661e456ee6de07e70aa9ef7b,661e511cac52da4490fb11d9,,,,,,,,,,,,,,,,,,,,,,,,,,,,,,,,,,598.064,601.1065,"[6,5,1,4,2,7,8,3]","[[0.3,0.2],[-0.3,0.2]]","[[-0.125,-0.2],[0.125,-0.2]]",-0.124023586,-0.198489888,1,0,0,2.5319,o1_image,601.1404,0,601.6389,601.639,603.6373,0,0,0,0,1,,,,,,,,,,,,,,,,,,,,,,,,,,,,,,,,,,,,,,,,,,,,,,,,,,
,,5f56104edb04a89ea3f12ec6,42,female,2024-04-16_12h28.10.412,stockport_simplified,2022.2.4,Win32,29.94011976,661e456ee6de07e70aa9ef7b,661e511cac52da4490fb11d9,,,,,,,,,,,,,,,,,,,,,,,,,,,,,,,,,,,,,,,,,,,,,,,,,,,,,,,,0,17,17,25,1,N,M,D,o2_image,stimuli/out2.png,stimuli/out1.png,stimuli/correct_out2.png,,,,,,,,,,,,,,,,,,,,,,,,,,,,,,,,,,,,,,
,,5f56104edb04a89ea3f12ec6,42,female,2024-04-16_12h28.10.412,stockport_simplified,2022.2.4,Win32,29.94011976,661e456ee6de07e70aa9ef7b,661e511cac52da4490fb11d9,,,,,,,,,,,,,,,,,,,,,,,,,,,,,,,,,,603.6383,605.4571,"[6,5,1,4,2,7,8,3]","[[0.3,0.2],[-0.3,0.2]]","[[-0.125,-0.2],[0.125,-0.2]]",-0.124023586,-0.198489888,1,0,0,1.3007,o1_image,605.4588,0,605.9489,605.949,607.9389,0,0,0,0,1,,,,,,,,,,,,,,,,,,,,,,,,,,,,,,,,,,,,,,,,,,,,,,,,,,
,,5f56104edb04a89ea3f12ec6,42,female,2024-04-16_12h28.10.412,stockport_simplified,2022.2.4,Win32,29.94011976,661e456ee6de07e70aa9ef7b,661e511cac52da4490fb11d9,,,,,,,,,,,,,,,,,,,,,,,,,,,,,,,,,,,,,,,,,,,,,,,,,,,,,,,,0,18,18,10,1,B,X,N,o2_image,stimuli/out2.png,stimuli/out1.png,stimuli/correct_out2.png,,,,,,,,,,,,,,,,,,,,,,,,,,,,,,,,,,,,,,
,,5f56104edb04a89ea3f12ec6,42,female,2024-04-16_12h28.10.412,stockport_simplified,2022.2.4,Win32,29.94011976,661e456ee6de07e70aa9ef7b,661e511cac52da4490fb11d9,,,,,,,,,,,,,,,,,,,,,,,,,,,,,,,,,,607.9401,610.2235,"[6,5,1,4,2,7,8,3]","[[0.3,0.2],[-0.3,0.2]]","[[0.125,-0.2],[-0.125,-0.2]]",0.143985642,-0.151970197,1,0,0,1.7612,o1_image,610.2254,1,610.716,610.7161,612.7393,0,0,0,0,1,,,,,,,,,,,,,,,,,,,,,,,,,,,,,,,,,,,,,,,,,,,,,,,,,,
,,5f56104edb04a89ea3f12ec6,42,female,2024-04-16_12h28.10.412,stockport_simplified,2022.2.4,Win32,29.94011976,661e456ee6de07e70aa9ef7b,661e511cac52da4490fb11d9,,,,,,,,,,,,,,,,,,,,,,,,,,,,,,,,,,,,,,,,,,,,,,,,,,,,,,,,0,19,19,4,1,A,X,N,o1_image,stimuli/out1.png,stimuli/correct_out1.png,stimuli/out2.png,,,,,,,,,,,,,,,,,,,,,,,,,,,,,,,,,,,,,,
,,5f56104edb04a89ea3f12ec6,42,female,2024-04-16_12h28.10.412,stockport_simplified,2022.2.4,Win32,29.94011976,661e456ee6de07e70aa9ef7b,661e511cac52da4490fb11d9,,,,,,,,,,,,,,,,,,,,,,,,,,,,,,,,,,612.7406,614.9498,"[6,5,1,4,2,7,8,3]","[[0.3,0.2],[-0.3,0.2]]","[[-0.125,-0.2],[0.125,-0.2]]",0.143985642,-0.151970197,1,0,0,1.6939,o2_image,614.9521,1,615.4208,615.4208,617.4043,0,0,0,0,1,,,,,,,,,,,,,,,,,,,,,,,,,,,,,,,,,,,,,,,,,,,,,,,,,,
,,5f56104edb04a89ea3f12ec6,42,female,2024-04-16_12h28.10.412,stockport_simplified,2022.2.4,Win32,29.94011976,661e456ee6de07e70aa9ef7b,661e511cac52da4490fb11d9,,,,,,,,,,,,,,,,,,,,,,,,,,,,,,,,,,,,,,,,,,,,,,,,,,,,,,,,0,20,20,12,1,B,X,N,o2_image,stimuli/out2.png,stimuli/out1.png,stimuli/correct_out2.png,,,,,,,,,,,,,,,,,,,,,,,,,,,,,,,,,,,,,,
,,5f56104edb04a89ea3f12ec6,42,female,2024-04-16_12h28.10.412,stockport_simplified,2022.2.4,Win32,29.94011976,661e456ee6de07e70aa9ef7b,661e511cac52da4490fb11d9,,,,,,,,,,,,,,,,,,,,,,,,,,,,,,,,,,617.4053,620.6244,"[6,5,1,4,2,7,8,3]","[[0.3,0.2],[-0.3,0.2]]","[[0.125,-0.2],[-0.125,-0.2]]",-0.119163319,-0.201961476,1,0,0,2.7147,o2_image,620.6262,1,621.1388,621.1389,623.1403,0,0,0,0,1,,,,,,,,,,,,,,,,,,,,,,,,,,,,,,,,,,,,,,,,,,,,,,,,,,
,,5f56104edb04a89ea3f12ec6,42,female,2024-04-16_12h28.10.412,stockport_simplified,2022.2.4,Win32,29.94011976,661e456ee6de07e70aa9ef7b,661e511cac52da4490fb11d9,,,,,,,,,,,,,,,,,,,,,,,,,,,,,,,,,,,,,,,,,,,,,,,,,,,,,,,,0,21,21,18,1,B,Y,N,o2_image,stimuli/out2.png,stimuli/out1.png,stimuli/correct_out2.png,,,,,,,,,,,,,,,,,,,,,,,,,,,,,,,,,,,,,,
,,5f56104edb04a89ea3f12ec6,42,female,2024-04-16_12h28.10.412,stockport_simplified,2022.2.4,Win32,29.94011976,661e456ee6de07e70aa9ef7b,661e511cac52da4490fb11d9,,,,,,,,,,,,,,,,,,,,,,,,,,,,,,,,,,623.1414,625.4884,"[6,5,1,4,2,7,8,3]","[[0.3,0.2],[-0.3,0.2]]","[[-0.125,-0.2],[0.125,-0.2]]",-0.129578082,-0.156136087,0,0,1,1.8326,o1_image,625.4905,1,625.9891,625.9891,627.9894,0,0,0,0,1,,,,,,,,,,,,,,,,,,,,,,,,,,,,,,,,,,,,,,,,,,,,,,,,,,
,,5f56104edb04a89ea3f12ec6,42,female,2024-04-16_12h28.10.412,stockport_simplified,2022.2.4,Win32,29.94011976,661e456ee6de07e70aa9ef7b,661e511cac52da4490fb11d9,,,,,,,,,,,,,,,,,,,,,,,,,,,,,,,,,,,,,,,,,,,,,,,,,,,,,,,,0,22,22,34,1,A,X,N,o1_image,stimuli/out1.png,stimuli/correct_out1.png,stimuli/out2.png,,,,,,,,,,,,,,,,,,,,,,,,,,,,,,,,,,,,,,
,,5f56104edb04a89ea3f12ec6,42,female,2024-04-16_12h28.10.412,stockport_simplified,2022.2.4,Win32,29.94011976,661e456ee6de07e70aa9ef7b,661e511cac52da4490fb11d9,,,,,,,,,,,,,,,,,,,,,,,,,,,,,,,,,,627.9905,630.314,"[6,5,1,4,2,7,8,3]","[[0.3,0.2],[-0.3,0.2]]","[[-0.125,-0.2],[0.125,-0.2]]",-0.171931845,-0.143638268,1,0,0,1.8159,o1_image,630.3159,1,630.7879,630.788,632.7757,0,0,0,0,1,,,,,,,,,,,,,,,,,,,,,,,,,,,,,,,,,,,,,,,,,,,,,,,,,,
,,5f56104edb04a89ea3f12ec6,42,female,2024-04-16_12h28.10.412,stockport_simplified,2022.2.4,Win32,29.94011976,661e456ee6de07e70aa9ef7b,661e511cac52da4490fb11d9,,,,,,,,,,,,,,,,,,,,,,,,,,,,,,,,,,,,,,,,,,,,,,,,,,,,,,,,0,23,23,50,1,N,M,C,o1_image,stimuli/out1.png,stimuli/correct_out1.png,stimuli/out2.png,,,,,,,,,,,,,,,,,,,,,,,,,,,,,,,,,,,,,,
,,5f56104edb04a89ea3f12ec6,42,female,2024-04-16_12h28.10.412,stockport_simplified,2022.2.4,Win32,29.94011976,661e456ee6de07e70aa9ef7b,661e511cac52da4490fb11d9,,,,,,,,,,,,,,,,,,,,,,,,,,,,,,,,,,632.7768,635.1908,"[6,5,1,4,2,7,8,3]","[[0.3,0.2],[-0.3,0.2]]","[[-0.125,-0.2],[0.125,-0.2]]",-0.135827103,-0.160302052,1,0,0,1.9025,o1_image,635.1928,1,635.6879,635.6879,637.6947,0,0,0,0,1,,,,,,,,,,,,,,,,,,,,,,,,,,,,,,,,,,,,,,,,,,,,,,,,,,
,,5f56104edb04a89ea3f12ec6,42,female,2024-04-16_12h28.10.412,stockport_simplified,2022.2.4,Win32,29.94011976,661e456ee6de07e70aa9ef7b,661e511cac52da4490fb11d9,,,,,,,,,,,,,,,,,,,,,,,,,,,,,,,,,,,,,,,,,,,,,,,,,,,,,,,,0,24,24,53,1,N,M,C,o1_image,stimuli/out1.png,stimuli/correct_out1.png,stimuli/out2.png,,,,,,,,,,,,,,,,,,,,,,,,,,,,,,,,,,,,,,
,,5f56104edb04a89ea3f12ec6,42,female,2024-04-16_12h28.10.412,stockport_simplified,2022.2.4,Win32,29.94011976,661e456ee6de07e70aa9ef7b,661e511cac52da4490fb11d9,,,,,,,,,,,,,,,,,,,,,,,,,,,,,,,,,,637.6959,639.3908,"[6,5,1,4,2,7,8,3]","[[0.3,0.2],[-0.3,0.2]]","[[0.125,-0.2],[-0.125,-0.2]]",-0.135827103,-0.160302052,1,0,0,1.1784,o2_image,639.3928,1,639.8994,639.8994,641.8899,0,0,0,0,1,,,,,,,,,,,,,,,,,,,,,,,,,,,,,,,,,,,,,,,,,,,,,,,,,,
,,5f56104edb04a89ea3f12ec6,42,female,2024-04-16_12h28.10.412,stockport_simplified,2022.2.4,Win32,29.94011976,661e456ee6de07e70aa9ef7b,661e511cac52da4490fb11d9,,,,,,,,,,,,,,,,,,,,,,,,,,,,,,,,,,,,,,,,,,,,,,,,,,,,,,,,0,25,25,26,1,N,M,D,o2_image,stimuli/out2.png,stimuli/out1.png,stimuli/correct_out2.png,,,,,,,,,,,,,,,,,,,,,,,,,,,,,,,,,,,,,,
,,5f56104edb04a89ea3f12ec6,42,female,2024-04-16_12h28.10.412,stockport_simplified,2022.2.4,Win32,29.94011976,661e456ee6de07e70aa9ef7b,661e511cac52da4490fb11d9,,,,,,,,,,,,,,,,,,,,,,,,,,,,,,,,,,641.8911,647.7698,"[6,5,1,4,2,7,8,3]","[[-0.3,0.2],[0.3,0.2]]","[[0.125,-0.2],[-0.125,-0.2]]",0.10996377,-0.22209707,1,0,0,5.3629,o1_image,647.8051,1,648.2925,648.2926,650.2996,0,0,0,0,1,,,,,,,,,,,,,,,,,,,,,,,,,,,,,,,,,,,,,,,,,,,,,,,,,,
,,5f56104edb04a89ea3f12ec6,42,female,2024-04-16_12h28.10.412,stockport_simplified,2022.2.4,Win32,29.94011976,661e456ee6de07e70aa9ef7b,661e511cac52da4490fb11d9,,,,,,,,,,,,,,,,,,,,,,,,,,,,,,,,,,,,,,,,,,,,,,,,,,,,,,,,0,26,26,23,1,N,M,C,o1_image,stimuli/out1.png,stimuli/correct_out1.png,stimuli/out2.png,,,,,,,,,,,,,,,,,,,,,,,,,,,,,,,,,,,,,,
,,5f56104edb04a89ea3f12ec6,42,female,2024-04-16_12h28.10.412,stockport_simplified,2022.2.4,Win32,29.94011976,661e456ee6de07e70aa9ef7b,661e511cac52da4490fb11d9,,,,,,,,,,,,,,,,,,,,,,,,,,,,,,,,,,650.3011,652.1843,"[6,5,1,4,2,7,8,3]","[[0.3,0.2],[-0.3,0.2]]","[[0.125,-0.2],[-0.125,-0.2]]",-0.146241866,-0.217930957,1,0,0,1.3755,o2_image,652.1866,1,652.6881,652.6882,654.6966,0,0,0,0,1,,,,,,,,,,,,,,,,,,,,,,,,,,,,,,,,,,,,,,,,,,,,,,,,,,
,,5f56104edb04a89ea3f12ec6,42,female,2024-04-16_12h28.10.412,stockport_simplified,2022.2.4,Win32,29.94011976,661e456ee6de07e70aa9ef7b,661e511cac52da4490fb11d9,,,,,,,,,,,,,,,,,,,,,,,,,,,,,,,,,,,,,,,,,,,,,,,,,,,,,,,,0,27,27,58,1,N,M,D,o2_image,stimuli/out2.png,stimuli/out1.png,stimuli/correct_out2.png,,,,,,,,,,,,,,,,,,,,,,,,,,,,,,,,,,,,,,
,,5f56104edb04a89ea3f12ec6,42,female,2024-04-16_12h28.10.412,stockport_simplified,2022.2.4,Win32,29.94011976,661e456ee6de07e70aa9ef7b,661e511cac52da4490fb11d9,,,,,,,,,,,,,,,,,,,,,,,,,,,,,,,,,,654.6977,657.1982,"[6,5,1,4,2,7,8,3]","[[0.3,0.2],[-0.3,0.2]]","[[0.125,-0.2],[-0.125,-0.2]]",-0.146241866,-0.217930957,1,0,0,1.9917,o2_image,657.2,1,657.6968,657.6969,659.707,0,0,0,0,1,,,,,,,,,,,,,,,,,,,,,,,,,,,,,,,,,,,,,,,,,,,,,,,,,,
,,5f56104edb04a89ea3f12ec6,42,female,2024-04-16_12h28.10.412,stockport_simplified,2022.2.4,Win32,29.94011976,661e456ee6de07e70aa9ef7b,661e511cac52da4490fb11d9,,,,,,,,,,,,,,,,,,,,,,,,,,,,,,,,,,,,,,,,,,,,,,,,,,,,,,,,0,28,28,46,1,B,Y,N,o2_image,stimuli/out2.png,stimuli/out1.png,stimuli/correct_out2.png,,,,,,,,,,,,,,,,,,,,,,,,,,,,,,,,,,,,,,
,,5f56104edb04a89ea3f12ec6,42,female,2024-04-16_12h28.10.412,stockport_simplified,2022.2.4,Win32,29.94011976,661e456ee6de07e70aa9ef7b,661e511cac52da4490fb11d9,,,,,,,,,,,,,,,,,,,,,,,,,,,,,,,,,,659.708,664.5149,"[6,5,1,4,2,7,8,3]","[[-0.3,0.2],[0.3,0.2]]","[[-0.125,-0.2],[0.125,-0.2]]",0.169675435,-0.224874355,1,0,0,4.2805,o2_image,664.5492,0,665.0401,665.0402,667.0281,0,0,0,0,1,,,,,,,,,,,,,,,,,,,,,,,,,,,,,,,,,,,,,,,,,,,,,,,,,,
,,5f56104edb04a89ea3f12ec6,42,female,2024-04-16_12h28.10.412,stockport_simplified,2022.2.4,Win32,29.94011976,661e456ee6de07e70aa9ef7b,661e511cac52da4490fb11d9,,,,,,,,,,,,,,,,,,,,,,,,,,,,,,,,,,,,,,,,,,,,,,,,,,,,,,,,0,29,29,24,1,N,M,C,o1_image,stimuli/out1.png,stimuli/correct_out1.png,stimuli/out2.png,,,,,,,,,,,,,,,,,,,,,,,,,,,,,,,,,,,,,,
,,5f56104edb04a89ea3f12ec6,42,female,2024-04-16_12h28.10.412,stockport_simplified,2022.2.4,Win32,29.94011976,661e456ee6de07e70aa9ef7b,661e511cac52da4490fb11d9,,,,,,,,,,,,,,,,,,,,,,,,,,,,,,,,,,667.0293,670.2419,"[6,5,1,4,2,7,8,3]","[[-0.3,0.2],[0.3,0.2]]","[[-0.125,-0.2],[0.125,-0.2]]",0.109269245,-0.219319563,1,0,0,2.6951,o2_image,670.2759,1,670.7761,670.7761,672.7782,0,0,0,0,1,,,,,,,,,,,,,,,,,,,,,,,,,,,,,,,,,,,,,,,,,,,,,,,,,,
,,5f56104edb04a89ea3f12ec6,42,female,2024-04-16_12h28.10.412,stockport_simplified,2022.2.4,Win32,29.94011976,661e456ee6de07e70aa9ef7b,661e511cac52da4490fb11d9,,,,,,,,,,,,,,,,,,,,,,,,,,,,,,,,,,,,,,,,,,,,,,,,,,,,,,,,0,30,30,43,1,B,X,N,o2_image,stimuli/out2.png,stimuli/out1.png,stimuli/correct_out2.png,,,,,,,,,,,,,,,,,,,,,,,,,,,,,,,,,,,,,,
,,5f56104edb04a89ea3f12ec6,42,female,2024-04-16_12h28.10.412,stockport_simplified,2022.2.4,Win32,29.94011976,661e456ee6de07e70aa9ef7b,661e511cac52da4490fb11d9,,,,,,,,,,,,,,,,,,,,,,,,,,,,,,,,,,672.7791,674.5724,"[6,5,1,4,2,7,8,3]","[[0.3,0.2],[-0.3,0.2]]","[[-0.125,-0.2],[0.125,-0.2]]",0.109269245,-0.219319563,1,0,0,1.2812,o2_image,674.5743,1,675.0613,675.0614,677.0387,0,0,0,0,1,,,,,,,,,,,,,,,,,,,,,,,,,,,,,,,,,,,,,,,,,,,,,,,,,,
,,5f56104edb04a89ea3f12ec6,42,female,2024-04-16_12h28.10.412,stockport_simplified,2022.2.4,Win32,29.94011976,661e456ee6de07e70aa9ef7b,661e511cac52da4490fb11d9,,,,,,,,,,,,,,,,,,,,,,,,,,,,,,,,,,,,,,,,,,,,,,,,,,,,,,,,0,31,31,29,1,N,M,D,o2_image,stimuli/out2.png,stimuli/out1.png,stimuli/correct_out2.png,,,,,,,,,,,,,,,,,,,,,,,,,,,,,,,,,,,,,,
,,5f56104edb04a89ea3f12ec6,42,female,2024-04-16_12h28.10.412,stockport_simplified,2022.2.4,Win32,29.94011976,661e456ee6de07e70aa9ef7b,661e511cac52da4490fb11d9,,,,,,,,,,,,,,,,,,,,,,,,,,,,,,,,,,677.0397,680.0082,"[6,5,1,4,2,7,8,3]","[[-0.3,0.2],[0.3,0.2]]","[[-0.125,-0.2],[0.125,-0.2]]",0.109269245,-0.219319563,1,0,0,2.4594,o2_image,680.0423,1,680.5308,680.5309,682.5221,0,0,0,0,1,,,,,,,,,,,,,,,,,,,,,,,,,,,,,,,,,,,,,,,,,,,,,,,,,,
,,5f56104edb04a89ea3f12ec6,42,female,2024-04-16_12h28.10.412,stockport_simplified,2022.2.4,Win32,29.94011976,661e456ee6de07e70aa9ef7b,661e511cac52da4490fb11d9,,,,,,,,,,,,,,,,,,,,,,,,,,,,,,,,,,,,,,,,,,,,,,,,,,,,,,,,0,32,32,15,1,B,Y,N,o2_image,stimuli/out2.png,stimuli/out1.png,stimuli/correct_out2.png,,,,,,,,,,,,,,,,,,,,,,,,,,,,,,,,,,,,,,
,,5f56104edb04a89ea3f12ec6,42,female,2024-04-16_12h28.10.412,stockport_simplified,2022.2.4,Win32,29.94011976,661e456ee6de07e70aa9ef7b,661e511cac52da4490fb11d9,,,,,,,,,,,,,,,,,,,,,,,,,,,,,,,,,,682.5231,684.6414,"[6,5,1,4,2,7,8,3]","[[0.3,0.2],[-0.3,0.2]]","[[-0.125,-0.2],[0.125,-0.2]]",0.109269245,-0.219319563,1,0,0,1.611,o2_image,684.6433,1,685.1404,685.1405,687.143,0,0,0,0,1,,,,,,,,,,,,,,,,,,,,,,,,,,,,,,,,,,,,,,,,,,,,,,,,,,
,,5f56104edb04a89ea3f12ec6,42,female,2024-04-16_12h28.10.412,stockport_simplified,2022.2.4,Win32,29.94011976,661e456ee6de07e70aa9ef7b,661e511cac52da4490fb11d9,,,,,,,,,,,,,,,,,,,,,,,,,,,,,,,,,,,,,,,,,,,,,,,,,,,,,,,,0,33,33,57,1,N,M,D,o2_image,stimuli/out2.png,stimuli/out1.png,stimuli/correct_out2.png,,,,,,,,,,,,,,,,,,,,,,,,,,,,,,,,,,,,,,
,,5f56104edb04a89ea3f12ec6,42,female,2024-04-16_12h28.10.412,stockport_simplified,2022.2.4,Win32,29.94011976,661e456ee6de07e70aa9ef7b,661e511cac52da4490fb11d9,,,,,,,,,,,,,,,,,,,,,,,,,,,,,,,,,,687.1441,690.7287,"[6,5,1,4,2,7,8,3]","[[-0.3,0.2],[0.3,0.2]]","[[-0.125,-0.2],[0.125,-0.2]]",0.150234366,-0.235289044,1,0,0,3.0706,o2_image,690.763,1,691.2567,691.2568,693.2617,0,0,0,0,1,,,,,,,,,,,,,,,,,,,,,,,,,,,,,,,,,,,,,,,,,,,,,,,,,,
,,5f56104edb04a89ea3f12ec6,42,female,2024-04-16_12h28.10.412,stockport_simplified,2022.2.4,Win32,29.94011976,661e456ee6de07e70aa9ef7b,661e511cac52da4490fb11d9,,,,,,,,,,,,,,,,,,,,,,,,,,,,,,,,,,,,,,,,,,,,,,,,,,,,,,,,0,34,34,13,1,B,X,N,o2_image,stimuli/out2.png,stimuli/out1.png,stimuli/correct_out2.png,,,,,,,,,,,,,,,,,,,,,,,,,,,,,,,,,,,,,,
,,5f56104edb04a89ea3f12ec6,42,female,2024-04-16_12h28.10.412,stockport_simplified,2022.2.4,Win32,29.94011976,661e456ee6de07e70aa9ef7b,661e511cac52da4490fb11d9,,,,,,,,,,,,,,,,,,,,,,,,,,,,,,,,,,693.2629,695.1361,"[6,5,1,4,2,7,8,3]","[[0.3,0.2],[-0.3,0.2]]","[[-0.125,-0.2],[0.125,-0.2]]",-0.121246301,-0.15127582,1,0,0,1.363,o1_image,695.1382,1,695.6285,695.6286,697.624,0,0,0,0,1,,,,,,,,,,,,,,,,,,,,,,,,,,,,,,,,,,,,,,,,,,,,,,,,,,
,,5f56104edb04a89ea3f12ec6,42,female,2024-04-16_12h28.10.412,stockport_simplified,2022.2.4,Win32,29.94011976,661e456ee6de07e70aa9ef7b,661e511cac52da4490fb11d9,,,,,,,,,,,,,,,,,,,,,,,,,,,,,,,,,,,,,,,,,,,,,,,,,,,,,,,,0,35,35,33,1,A,X,N,o1_image,stimuli/out1.png,stimuli/correct_out1.png,stimuli/out2.png,,,,,,,,,,,,,,,,,,,,,,,,,,,,,,,,,,,,,,
,,5f56104edb04a89ea3f12ec6,42,female,2024-04-16_12h28.10.412,stockport_simplified,2022.2.4,Win32,29.94011976,661e456ee6de07e70aa9ef7b,661e511cac52da4490fb11d9,,,,,,,,,,,,,,,,,,,,,,,,,,,,,,,,,,697.6251,699.2083,"[6,5,1,4,2,7,8,3]","[[0.3,0.2],[-0.3,0.2]]","[[-0.125,-0.2],[0.125,-0.2]]",-0.121246301,-0.15127582,1,0,0,1.0679,o1_image,699.2103,1,699.689,699.6891,701.7074,0,0,0,0,1,,,,,,,,,,,,,,,,,,,,,,,,,,,,,,,,,,,,,,,,,,,,,,,,,,
,,5f56104edb04a89ea3f12ec6,42,female,2024-04-16_12h28.10.412,stockport_simplified,2022.2.4,Win32,29.94011976,661e456ee6de07e70aa9ef7b,661e511cac52da4490fb11d9,,,,,,,,,,,,,,,,,,,,,,,,,,,,,,,,,,,,,,,,,,,,,,,,,,,,,,,,0,36,36,1,1,A,X,N,o1_image,stimuli/out1.png,stimuli/correct_out1.png,stimuli/out2.png,,,,,,,,,,,,,,,,,,,,,,,,,,,,,,,,,,,,,,
,,5f56104edb04a89ea3f12ec6,42,female,2024-04-16_12h28.10.412,stockport_simplified,2022.2.4,Win32,29.94011976,661e456ee6de07e70aa9ef7b,661e511cac52da4490fb11d9,,,,,,,,,,,,,,,,,,,,,,,,,,,,,,,,,,701.7084,704.4582,"[6,5,1,4,2,7,8,3]","[[0.3,0.2],[-0.3,0.2]]","[[0.125,-0.2],[-0.125,-0.2]]",-0.108054104,-0.177660139,1,0,0,2.2438,o2_image,704.4919,1,704.9905,704.9906,706.956,0,0,0,0,1,,,,,,,,,,,,,,,,,,,,,,,,,,,,,,,,,,,,,,,,,,,,,,,,,,
,,5f56104edb04a89ea3f12ec6,42,female,2024-04-16_12h28.10.412,stockport_simplified,2022.2.4,Win32,29.94011976,661e456ee6de07e70aa9ef7b,661e511cac52da4490fb11d9,,,,,,,,,,,,,,,,,,,,,,,,,,,,,,,,,,,,,,,,,,,,,,,,,,,,,,,,0,37,37,17,1,B,Y,N,o2_image,stimuli/out2.png,stimuli/out1.png,stimuli/correct_out2.png,,,,,,,,,,,,,,,,,,,,,,,,,,,,,,,,,,,,,,
,,5f56104edb04a89ea3f12ec6,42,female,2024-04-16_12h28.10.412,stockport_simplified,2022.2.4,Win32,29.94011976,661e456ee6de07e70aa9ef7b,661e511cac52da4490fb11d9,,,,,,,,,,,,,,,,,,,,,,,,,,,,,,,,,,706.9569,708.5419,"[6,5,1,4,2,7,8,3]","[[0.3,0.2],[-0.3,0.2]]","[[0.125,-0.2],[-0.125,-0.2]]",-0.108054104,-0.177660139,1,0,0,1.0734,o2_image,708.5438,1,709.029,709.0292,711.0264,0,0,0,0,1,,,,,,,,,,,,,,,,,,,,,,,,,,,,,,,,,,,,,,,,,,,,,,,,,,
,,5f56104edb04a89ea3f12ec6,42,female,2024-04-16_12h28.10.412,stockport_simplified,2022.2.4,Win32,29.94011976,661e456ee6de07e70aa9ef7b,661e511cac52da4490fb11d9,,,,,,,,,,,,,,,,,,,,,,,,,,,,,,,,,,,,,,,,,,,,,,,,,,,,,,,,0,38,38,55,1,N,M,D,o2_image,stimuli/out2.png,stimuli/out1.png,stimuli/correct_out2.png,,,,,,,,,,,,,,,,,,,,,,,,,,,,,,,,,,,,,,
,,5f56104edb04a89ea3f12ec6,42,female,2024-04-16_12h28.10.412,stockport_simplified,2022.2.4,Win32,29.94011976,661e456ee6de07e70aa9ef7b,661e511cac52da4490fb11d9,,,,,,,,,,,,,,,,,,,,,,,,,,,,,,,,,,711.0274,713.5765,"[6,5,1,4,2,7,8,3]","[[0.3,0.2],[-0.3,0.2]]","[[-0.125,-0.2],[0.125,-0.2]]",-0.119163319,-0.199878493,1,0,0,2.0434,o1_image,713.5774,1,714.0911,714.0913,716.0906,0,0,0,0,1,,,,,,,,,,,,,,,,,,,,,,,,,,,,,,,,,,,,,,,,,,,,,,,,,,
,,5f56104edb04a89ea3f12ec6,42,female,2024-04-16_12h28.10.412,stockport_simplified,2022.2.4,Win32,29.94011976,661e456ee6de07e70aa9ef7b,661e511cac52da4490fb11d9,,,,,,,,,,,,,,,,,,,,,,,,,,,,,,,,,,,,,,,,,,,,,,,,,,,,,,,,0,39,39,0,1,A,X,N,o1_image,stimuli/out1.png,stimuli/correct_out1.png,stimuli/out2.png,,,,,,,,,,,,,,,,,,,,,,,,,,,,,,,,,,,,,,
,,5f56104edb04a89ea3f12ec6,42,female,2024-04-16_12h28.10.412,stockport_simplified,2022.2.4,Win32,29.94011976,661e456ee6de07e70aa9ef7b,661e511cac52da4490fb11d9,,,,,,,,,,,,,,,,,,,,,,,,,,,,,,,,,,716.0919,718.9233,"[6,5,1,4,2,7,8,3]","[[0.3,0.2],[-0.3,0.2]]","[[-0.125,-0.2],[0.125,-0.2]]",0.095382969,-0.23459489,1,0,0,2.3244,o2_image,718.9568,1,719.452,719.4521,721.4229,0,0,0,0,1,,,,,,,,,,,,,,,,,,,,,,,,,,,,,,,,,,,,,,,,,,,,,,,,,,
,,5f56104edb04a89ea3f12ec6,42,female,2024-04-16_12h28.10.412,stockport_simplified,2022.2.4,Win32,29.94011976,661e456ee6de07e70aa9ef7b,661e511cac52da4490fb11d9,,,,,,,,,,,,,,,,,,,,,,,,,,,,,,,,,,,,,,,,,,,,,,,,,,,,,,,,0,40,40,19,1,B,Y,N,o2_image,stimuli/out2.png,stimuli/out1.png,stimuli/correct_out2.png,,,,,,,,,,,,,,,,,,,,,,,,,,,,,,,,,,,,,,
,,5f56104edb04a89ea3f12ec6,42,female,2024-04-16_12h28.10.412,stockport_simplified,2022.2.4,Win32,29.94011976,661e456ee6de07e70aa9ef7b,661e511cac52da4490fb11d9,,,,,,,,,,,,,,,,,,,,,,,,,,,,,,,,,,721.4239,725.6139,"[6,5,1,4,2,7,8,3]","[[-0.3,0.2],[0.3,0.2]]","[[0.125,-0.2],[-0.125,-0.2]]",-0.129578082,-0.208904725,1,0,0,3.678,o2_image,725.6471,0,726.1436,726.1437,728.1582,0,0,0,0,1,,,,,,,,,,,,,,,,,,,,,,,,,,,,,,,,,,,,,,,,,,,,,,,,,,
,,5f56104edb04a89ea3f12ec6,42,female,2024-04-16_12h28.10.412,stockport_simplified,2022.2.4,Win32,29.94011976,661e456ee6de07e70aa9ef7b,661e511cac52da4490fb11d9,,,,,,,,,,,,,,,,,,,,,,,,,,,,,,,,,,,,,,,,,,,,,,,,,,,,,,,,0,41,41,22,1,N,M,C,o1_image,stimuli/out1.png,stimuli/correct_out1.png,stimuli/out2.png,,,,,,,,,,,,,,,,,,,,,,,,,,,,,,,,,,,,,,
,,5f56104edb04a89ea3f12ec6,42,female,2024-04-16_12h28.10.412,stockport_simplified,2022.2.4,Win32,29.94011976,661e456ee6de07e70aa9ef7b,661e511cac52da4490fb11d9,,,,,,,,,,,,,,,,,,,,,,,,,,,,,,,,,,728.1593,730.3473,"[6,5,1,4,2,7,8,3]","[[0.3,0.2],[-0.3,0.2]]","[[0.125,-0.2],[-0.125,-0.2]]",0.127321857,-0.210293405,1,0,0,1.6855,o1_image,730.3492,0,730.8483,730.8484,732.844,0,0,0,0,1,,,,,,,,,,,,,,,,,,,,,,,,,,,,,,,,,,,,,,,,,,,,,,,,,,
,,5f56104edb04a89ea3f12ec6,42,female,2024-04-16_12h28.10.412,stockport_simplified,2022.2.4,Win32,29.94011976,661e456ee6de07e70aa9ef7b,661e511cac52da4490fb11d9,,,,,,,,,,,,,,,,,,,,,,,,,,,,,,,,,,,,,,,,,,,,,,,,,,,,,,,,0,42,42,56,1,N,M,D,o2_image,stimuli/out2.png,stimuli/out1.png,stimuli/correct_out2.png,,,,,,,,,,,,,,,,,,,,,,,,,,,,,,,,,,,,,,
,,5f56104edb04a89ea3f12ec6,42,female,2024-04-16_12h28.10.412,stockport_simplified,2022.2.4,Win32,29.94011976,661e456ee6de07e70aa9ef7b,661e511cac52da4490fb11d9,,,,,,,,,,,,,,,,,,,,,,,,,,,,,,,,,,732.845,734.7423,"[6,5,1,4,2,7,8,3]","[[0.3,0.2],[-0.3,0.2]]","[[0.125,-0.2],[-0.125,-0.2]]",-0.121940529,-0.185297691,1,0,0,1.3815,o2_image,734.7445,1,735.2481,735.2483,737.2428,0,0,0,0,1,,,,,,,,,,,,,,,,,,,,,,,,,,,,,,,,,,,,,,,,,,,,,,,,,,
,,5f56104edb04a89ea3f12ec6,42,female,2024-04-16_12h28.10.412,stockport_simplified,2022.2.4,Win32,29.94011976,661e456ee6de07e70aa9ef7b,661e511cac52da4490fb11d9,,,,,,,,,,,,,,,,,,,,,,,,,,,,,,,,,,,,,,,,,,,,,,,,,,,,,,,,0,43,43,59,1,N,M,D,o2_image,stimuli/out2.png,stimuli/out1.png,stimuli/correct_out2.png,,,,,,,,,,,,,,,,,,,,,,,,,,,,,,,,,,,,,,
,,5f56104edb04a89ea3f12ec6,42,female,2024-04-16_12h28.10.412,stockport_simplified,2022.2.4,Win32,29.94011976,661e456ee6de07e70aa9ef7b,661e511cac52da4490fb11d9,,,,,,,,,,,,,,,,,,,,,,,,,,,,,,,,,,737.2439,739.0313,"[6,5,1,4,2,7,8,3]","[[-0.3,0.2],[0.3,0.2]]","[[-0.125,-0.2],[0.125,-0.2]]",-0.121940529,-0.185297691,1,0,0,1.2856,o1_image,739.033,1,739.5132,739.5134,741.5078,0,0,0,0,1,,,,,,,,,,,,,,,,,,,,,,,,,,,,,,,,,,,,,,,,,,,,,,,,,,
,,5f56104edb04a89ea3f12ec6,42,female,2024-04-16_12h28.10.412,stockport_simplified,2022.2.4,Win32,29.94011976,661e456ee6de07e70aa9ef7b,661e511cac52da4490fb11d9,,,,,,,,,,,,,,,,,,,,,,,,,,,,,,,,,,,,,,,,,,,,,,,,,,,,,,,,0,44,44,20,1,N,M,C,o1_image,stimuli/out1.png,stimuli/correct_out1.png,stimuli/out2.png,,,,,,,,,,,,,,,,,,,,,,,,,,,,,,,,,,,,,,
,,5f56104edb04a89ea3f12ec6,42,female,2024-04-16_12h28.10.412,stockport_simplified,2022.2.4,Win32,29.94011976,661e456ee6de07e70aa9ef7b,661e511cac52da4490fb11d9,,,,,,,,,,,,,,,,,,,,,,,,,,,,,,,,,,741.5088,743.5294,"[6,5,1,4,2,7,8,3]","[[-0.3,0.2],[0.3,0.2]]","[[-0.125,-0.2],[0.125,-0.2]]",0.146068401,-0.205433138,1,0,0,1.5008,o2_image,743.5314,1,744.0412,744.0412,746.0463,0,0,0,0,1,,,,,,,,,,,,,,,,,,,,,,,,,,,,,,,,,,,,,,,,,,,,,,,,,,
,,5f56104edb04a89ea3f12ec6,42,female,2024-04-16_12h28.10.412,stockport_simplified,2022.2.4,Win32,29.94011976,661e456ee6de07e70aa9ef7b,661e511cac52da4490fb11d9,,,,,,,,,,,,,,,,,,,,,,,,,,,,,,,,,,,,,,,,,,,,,,,,,,,,,,,,0,45,45,28,1,N,M,D,o2_image,stimuli/out2.png,stimuli/out1.png,stimuli/correct_out2.png,,,,,,,,,,,,,,,,,,,,,,,,,,,,,,,,,,,,,,
,,5f56104edb04a89ea3f12ec6,42,female,2024-04-16_12h28.10.412,stockport_simplified,2022.2.4,Win32,29.94011976,661e456ee6de07e70aa9ef7b,661e511cac52da4490fb11d9,,,,,,,,,,,,,,,,,,,,,,,,,,,,,,,,,,746.0475,751.743,"[6,5,1,4,2,7,8,3]","[[-0.3,0.2],[0.3,0.2]]","[[-0.125,-0.2],[0.125,-0.2]]",-0.165682935,-0.287363305,1,0,0,5.1581,o1_image,751.7761,1,752.2734,752.2734,754.2654,0,0,0,0,1,,,,,,,,,,,,,,,,,,,,,,,,,,,,,,,,,,,,,,,,,,,,,,,,,,
,,5f56104edb04a89ea3f12ec6,42,female,2024-04-16_12h28.10.412,stockport_simplified,2022.2.4,Win32,29.94011976,661e456ee6de07e70aa9ef7b,661e511cac52da4490fb11d9,,,,,,,,,,,,,,,,,,,,,,,,,,,,,,,,,,,,,,,,,,,,,,,,,,,,,,,,0,46,46,54,1,N,M,C,o1_image,stimuli/out1.png,stimuli/correct_out1.png,stimuli/out2.png,,,,,,,,,,,,,,,,,,,,,,,,,,,,,,,,,,,,,,
,,5f56104edb04a89ea3f12ec6,42,female,2024-04-16_12h28.10.412,stockport_simplified,2022.2.4,Win32,29.94011976,661e456ee6de07e70aa9ef7b,661e511cac52da4490fb11d9,,,,,,,,,,,,,,,,,,,,,,,,,,,,,,,,,,754.2666,757.5264,"[6,5,1,4,2,7,8,3]","[[0.3,0.2],[-0.3,0.2]]","[[0.125,-0.2],[-0.125,-0.2]]",-0.135827103,-0.259590381,1,0,0,2.7507,o2_image,757.5593,1,758.0491,758.0492,760.0414,0,0,0,0,1,,,,,,,,,,,,,,,,,,,,,,,,,,,,,,,,,,,,,,,,,,,,,,,,,,
,,5f56104edb04a89ea3f12ec6,42,female,2024-04-16_12h28.10.412,stockport_simplified,2022.2.4,Win32,29.94011976,661e456ee6de07e70aa9ef7b,661e511cac52da4490fb11d9,,,,,,,,,,,,,,,,,,,,,,,,,,,,,,,,,,,,,,,,,,,,,,,,,,,,,,,,0,47,47,42,1,B,X,N,o2_image,stimuli/out2.png,stimuli/out1.png,stimuli/correct_out2.png,,,,,,,,,,,,,,,,,,,,,,,,,,,,,,,,,,,,,,
,,5f56104edb04a89ea3f12ec6,42,female,2024-04-16_12h28.10.412,stockport_simplified,2022.2.4,Win32,29.94011976,661e456ee6de07e70aa9ef7b,661e511cac52da4490fb11d9,,,,,,,,,,,,,,,,,,,,,,,,,,,,,,,,,,760.0427,763.3971,"[6,5,1,4,2,7,8,3]","[[0.3,0.2],[-0.3,0.2]]","[[0.125,-0.2],[-0.125,-0.2]]",0.133570582,-0.126974484,1,0,0,2.8396,o1_image,763.4082,1,763.907,763.9071,765.9062,0,0,0,0,1,,,,,,,,,,,,,,,,,,,,,,,,,,,,,,,,,,,,,,,,,,,,,,,,,,
,,5f56104edb04a89ea3f12ec6,42,female,2024-04-16_12h28.10.412,stockport_simplified,2022.2.4,Win32,29.94011976,661e456ee6de07e70aa9ef7b,661e511cac52da4490fb11d9,,,,,,,,,,,,,,,,,,,,,,,,,,,,,,,,,,,,,,,,,,,,,,,,,,,,,,,,0,48,48,36,1,A,Y,N,o1_image,stimuli/out1.png,stimuli/correct_out1.png,stimuli/out2.png,,,,,,,,,,,,,,,,,,,,,,,,,,,,,,,,,,,,,,
,,5f56104edb04a89ea3f12ec6,42,female,2024-04-16_12h28.10.412,stockport_simplified,2022.2.4,Win32,29.94011976,661e456ee6de07e70aa9ef7b,661e511cac52da4490fb11d9,,,,,,,,,,,,,,,,,,,,,,,,,,,,,,,,,,765.9067,770.164,"[6,5,1,4,2,7,8,3]","[[-0.3,0.2],[0.3,0.2]]","[[-0.125,-0.2],[0.125,-0.2]]",-0.164988707,-0.203350155,0,0,1,3.7287,o1_image,770.1759,1,770.6802,770.6803,772.6755,0,0,0,0,1,,,,,,,,,,,,,,,,,,,,,,,,,,,,,,,,,,,,,,,,,,,,,,,,,,
,,5f56104edb04a89ea3f12ec6,42,female,2024-04-16_12h28.10.412,stockport_simplified,2022.2.4,Win32,29.94011976,661e456ee6de07e70aa9ef7b,661e511cac52da4490fb11d9,,,,,,,,,,,,,,,,,,,,,,,,,,,,,,,,,,,,,,,,,,,,,,,,,,,,,,,,0,49,49,38,1,A,Y,N,o1_image,stimuli/out1.png,stimuli/correct_out1.png,stimuli/out2.png,,,,,,,,,,,,,,,,,,,,,,,,,,,,,,,,,,,,,,
,,5f56104edb04a89ea3f12ec6,42,female,2024-04-16_12h28.10.412,stockport_simplified,2022.2.4,Win32,29.94011976,661e456ee6de07e70aa9ef7b,661e511cac52da4490fb11d9,,,,,,,,,,,,,,,,,,,,,,,,,,,,,,,,,,772.6761,775.1912,"[6,5,1,4,2,7,8,3]","[[-0.3,0.2],[0.3,0.2]]","[[0.125,-0.2],[-0.125,-0.2]]",-0.097639193,-0.157524841,1,0,0,1.9979,o2_image,775.1921,1,775.6938,775.6939,777.6852,0,0,0,0,1,,,,,,,,,,,,,,,,,,,,,,,,,,,,,,,,,,,,,,,,,,,,,,,,,,
,,5f56104edb04a89ea3f12ec6,42,female,2024-04-16_12h28.10.412,stockport_simplified,2022.2.4,Win32,29.94011976,661e456ee6de07e70aa9ef7b,661e511cac52da4490fb11d9,,,,,,,,,,,,,,,,,,,,,,,,,,,,,,,,,,,,,,,,,,,,,,,,,,,,,,,,0,50,50,11,1,B,X,N,o2_image,stimuli/out2.png,stimuli/out1.png,stimuli/correct_out2.png,,,,,,,,,,,,,,,,,,,,,,,,,,,,,,,,,,,,,,
,,5f56104edb04a89ea3f12ec6,42,female,2024-04-16_12h28.10.412,stockport_simplified,2022.2.4,Win32,29.94011976,661e456ee6de07e70aa9ef7b,661e511cac52da4490fb11d9,,,,,,,,,,,,,,,,,,,,,,,,,,,,,,,,,,777.6864,779.7578,"[6,5,1,4,2,7,8,3]","[[0.3,0.2],[-0.3,0.2]]","[[-0.125,-0.2],[0.125,-0.2]]",-0.099027947,-0.157524841,1,0,0,1.5557,o1_image,779.7599,1,780.2487,780.2488,782.24,0,0,0,0,1,,,,,,,,,,,,,,,,,,,,,,,,,,,,,,,,,,,,,,,,,,,,,,,,,,
,,5f56104edb04a89ea3f12ec6,42,female,2024-04-16_12h28.10.412,stockport_simplified,2022.2.4,Win32,29.94011976,661e456ee6de07e70aa9ef7b,661e511cac52da4490fb11d9,,,,,,,,,,,,,,,,,,,,,,,,,,,,,,,,,,,,,,,,,,,,,,,,,,,,,,,,0,51,51,39,1,A,Y,N,o1_image,stimuli/out1.png,stimuli/correct_out1.png,stimuli/out2.png,,,,,,,,,,,,,,,,,,,,,,,,,,,,,,,,,,,,,,
,,5f56104edb04a89ea3f12ec6,42,female,2024-04-16_12h28.10.412,stockport_simplified,2022.2.4,Win32,29.94011976,661e456ee6de07e70aa9ef7b,661e511cac52da4490fb11d9,,,,,,,,,,,,,,,,,,,,,,,,,,,,,,,,,,782.2406,786.351,"[6,5,1,4,2,7,8,3]","[[-0.3,0.2],[0.3,0.2]]","[[0.125,-0.2],[-0.125,-0.2]]",0.123155745,-0.203350155,1,0,0,3.5937,o1_image,786.3849,1,786.8919,786.8919,788.8944,0,0,0,0,1,,,,,,,,,,,,,,,,,,,,,,,,,,,,,,,,,,,,,,,,,,,,,,,,,,
,,5f56104edb04a89ea3f12ec6,42,female,2024-04-16_12h28.10.412,stockport_simplified,2022.2.4,Win32,29.94011976,661e456ee6de07e70aa9ef7b,661e511cac52da4490fb11d9,,,,,,,,,,,,,,,,,,,,,,,,,,,,,,,,,,,,,,,,,,,,,,,,,,,,,,,,0,52,52,3,1,A,X,N,o1_image,stimuli/out1.png,stimuli/correct_out1.png,stimuli/out2.png,,,,,,,,,,,,,,,,,,,,,,,,,,,,,,,,,,,,,,
,,5f56104edb04a89ea3f12ec6,42,female,2024-04-16_12h28.10.412,stockport_simplified,2022.2.4,Win32,29.94011976,661e456ee6de07e70aa9ef7b,661e511cac52da4490fb11d9,,,,,,,,,,,,,,,,,,,,,,,,,,,,,,,,,,788.8956,791.5147,"[6,5,1,4,2,7,8,3]","[[0.3,0.2],[-0.3,0.2]]","[[-0.125,-0.2],[0.125,-0.2]]",0.108574943,-0.233900365,1,0,0,2.1036,o2_image,791.5164,1,791.9947,791.9948,793.9949,0,0,0,0,1,,,,,,,,,,,,,,,,,,,,,,,,,,,,,,,,,,,,,,,,,,,,,,,,,,
,,5f56104edb04a89ea3f12ec6,42,female,2024-04-16_12h28.10.412,stockport_simplified,2022.2.4,Win32,29.94011976,661e456ee6de07e70aa9ef7b,661e511cac52da4490fb11d9,,,,,,,,,,,,,,,,,,,,,,,,,,,,,,,,,,,,,,,,,,,,,,,,,,,,,,,,0,53,53,16,1,B,Y,N,o2_image,stimuli/out2.png,stimuli/out1.png,stimuli/correct_out2.png,,,,,,,,,,,,,,,,,,,,,,,,,,,,,,,,,,,,,,
,,5f56104edb04a89ea3f12ec6,42,female,2024-04-16_12h28.10.412,stockport_simplified,2022.2.4,Win32,29.94011976,661e456ee6de07e70aa9ef7b,661e511cac52da4490fb11d9,,,,,,,,,,,,,,,,,,,,,,,,,,,,,,,,,,793.9959,798.974,"[6,5,1,4,2,7,8,3]","[[-0.3,0.2],[0.3,0.2]]","[[-0.125,-0.2],[0.125,-0.2]]",0.080107641,-0.251258674,1,0,0,4.4627,o2_image,799.0093,0,799.5257,799.5258,801.5077,0,0,0,0,1,,,,,,,,,,,,,,,,,,,,,,,,,,,,,,,,,,,,,,,,,,,,,,,,,,
,,5f56104edb04a89ea3f12ec6,42,female,2024-04-16_12h28.10.412,stockport_simplified,2022.2.4,Win32,29.94011976,661e456ee6de07e70aa9ef7b,661e511cac52da4490fb11d9,,,,,,,,,,,,,,,,,,,,,,,,,,,,,,,,,,,,,,,,,,,,,,,,,,,,,,,,0,54,54,37,1,A,Y,N,o1_image,stimuli/out1.png,stimuli/correct_out1.png,stimuli/out2.png,,,,,,,,,,,,,,,,,,,,,,,,,,,,,,,,,,,,,,
,,5f56104edb04a89ea3f12ec6,42,female,2024-04-16_12h28.10.412,stockport_simplified,2022.2.4,Win32,29.94011976,661e456ee6de07e70aa9ef7b,661e511cac52da4490fb11d9,,,,,,,,,,,,,,,,,,,,,,,,,,,,,,,,,,801.5087,805.659,"[6,5,1,4,2,7,8,3]","[[-0.3,0.2],[0.3,0.2]]","[[-0.125,-0.2],[0.125,-0.2]]",-0.090001715,-0.206821743,1,0,0,3.6456,o1_image,805.6698,1,806.1401,806.1403,808.1415,0,0,0,0,1,,,,,,,,,,,,,,,,,,,,,,,,,,,,,,,,,,,,,,,,,,,,,,,,,,
,,5f56104edb04a89ea3f12ec6,42,female,2024-04-16_12h28.10.412,stockport_simplified,2022.2.4,Win32,29.94011976,661e456ee6de07e70aa9ef7b,661e511cac52da4490fb11d9,,,,,,,,,,,,,,,,,,,,,,,,,,,,,,,,,,,,,,,,,,,,,,,,,,,,,,,,0,55,55,21,1,N,M,C,o1_image,stimuli/out1.png,stimuli/correct_out1.png,stimuli/out2.png,,,,,,,,,,,,,,,,,,,,,,,,,,,,,,,,,,,,,,
,,5f56104edb04a89ea3f12ec6,42,female,2024-04-16_12h28.10.412,stockport_simplified,2022.2.4,Win32,29.94011976,661e456ee6de07e70aa9ef7b,661e511cac52da4490fb11d9,,,,,,,,,,,,,,,,,,,,,,,,,,,,,,,,,,808.142,813.928,"[6,5,1,4,2,7,8,3]","[[0.3,0.2],[-0.3,0.2]]","[[0.125,-0.2],[-0.125,-0.2]]",-0.105971048,-0.21307069,1,0,0,5.2829,o2_image,813.9611,0,814.466,814.466,816.4577,0,0,0,0,1,,,,,,,,,,,,,,,,,,,,,,,,,,,,,,,,,,,,,,,,,,,,,,,,,,
,,5f56104edb04a89ea3f12ec6,42,female,2024-04-16_12h28.10.412,stockport_simplified,2022.2.4,Win32,29.94011976,661e456ee6de07e70aa9ef7b,661e511cac52da4490fb11d9,,,,,,,,,,,,,,,,,,,,,,,,,,,,,,,,,,,,,,,,,,,,,,,,,,,,,,,,0,56,56,7,1,A,Y,N,o1_image,stimuli/out1.png,stimuli/correct_out1.png,stimuli/out2.png,,,,,,,,,,,,,,,,,,,,,,,,,,,,,,,,,,,,,,
,,5f56104edb04a89ea3f12ec6,42,female,2024-04-16_12h28.10.412,stockport_simplified,2022.2.4,Win32,29.94011976,661e456ee6de07e70aa9ef7b,661e511cac52da4490fb11d9,,,,,,,,,,,,,,,,,,,,,,,,,,,,,,,,,,816.4587,820.294,"[6,5,1,4,2,7,8,3]","[[0.3,0.2],[-0.3,0.2]]","[[0.125,-0.2],[-0.125,-0.2]]",-0.105971048,-0.21515382,1,0,0,3.3337,o2_image,820.3263,1,820.8145,820.8146,822.7807,0,0,0,0,1,,,,,,,,,,,,,,,,,,,,,,,,,,,,,,,,,,,,,,,,,,,,,,,,,,
,,5f56104edb04a89ea3f12ec6,42,female,2024-04-16_12h28.10.412,stockport_simplified,2022.2.4,Win32,29.94011976,661e456ee6de07e70aa9ef7b,661e511cac52da4490fb11d9,,,,,,,,,,,,,,,,,,,,,,,,,,,,,,,,,,,,,,,,,,,,,,,,,,,,,,,,0,57,57,45,1,B,Y,N,o2_image,stimuli/out2.png,stimuli/out1.png,stimuli/correct_out2.png,,,,,,,,,,,,,,,,,,,,,,,,,,,,,,,,,,,,,,
,,5f56104edb04a89ea3f12ec6,42,female,2024-04-16_12h28.10.412,stockport_simplified,2022.2.4,Win32,29.94011976,661e456ee6de07e70aa9ef7b,661e511cac52da4490fb11d9,,,,,,,,,,,,,,,,,,,,,,,,,,,,,,,,,,822.7816,825.9941,"[6,5,1,4,2,7,8,3]","[[-0.3,0.2],[0.3,0.2]]","[[0.125,-0.2],[-0.125,-0.2]]",0.153706176,-0.159607749,1,0,0,2.7002,o1_image,825.9957,1,826.4929,826.4931,828.4909,0,0,0,0,1,,,,,,,,,,,,,,,,,,,,,,,,,,,,,,,,,,,,,,,,,,,,,,,,,,
,,5f56104edb04a89ea3f12ec6,42,female,2024-04-16_12h28.10.412,stockport_simplified,2022.2.4,Win32,29.94011976,661e456ee6de07e70aa9ef7b,661e511cac52da4490fb11d9,,,,,,,,,,,,,,,,,,,,,,,,,,,,,,,,,,,,,,,,,,,,,,,,,,,,,,,,0,58,58,35,1,A,Y,N,o1_image,stimuli/out1.png,stimuli/correct_out1.png,stimuli/out2.png,,,,,,,,,,,,,,,,,,,,,,,,,,,,,,,,,,,,,,
,,5f56104edb04a89ea3f12ec6,42,female,2024-04-16_12h28.10.412,stockport_simplified,2022.2.4,Win32,29.94011976,661e456ee6de07e70aa9ef7b,661e511cac52da4490fb11d9,,,,,,,,,,,,,,,,,,,,,,,,,,,,,,,,,,828.4919,830.9942,"[6,5,1,4,2,7,8,3]","[[0.3,0.2],[-0.3,0.2]]","[[-0.125,-0.2],[0.125,-0.2]]",0.153706176,-0.159607749,1,0,0,1.9841,o2_image,830.996,1,831.4813,831.4813,833.4791,0,0,0,0,1,,,,,,,,,,,,,,,,,,,,,,,,,,,,,,,,,,,,,,,,,,,,,,,,,,
,,5f56104edb04a89ea3f12ec6,42,female,2024-04-16_12h28.10.412,stockport_simplified,2022.2.4,Win32,29.94011976,661e456ee6de07e70aa9ef7b,661e511cac52da4490fb11d9,,,,,,,,,,,,,,,,,,,,,,,,,,,,,,,,,,,,,,,,,,,,,,,,,,,,,,,,0,59,59,49,1,B,Y,N,o2_image,stimuli/out2.png,stimuli/out1.png,stimuli/correct_out2.png,,,,,,,,,,,,,,,,,,,,,,,,,,,,,,,,,,,,,,
,,5f56104edb04a89ea3f12ec6,42,female,2024-04-16_12h28.10.412,stockport_simplified,2022.2.4,Win32,29.94011976,661e456ee6de07e70aa9ef7b,661e511cac52da4490fb11d9,,,,,,,,,,,,,,,,,,,,,,,,,,,,,,,,,,833.4799,839.4773,"[6,5,1,4,2,7,8,3]","[[-0.3,0.2],[0.3,0.2]]","[[0.125,-0.2],[-0.125,-0.2]]",-0.164294293,-0.226262812,1,0,0,5.4935,o2_image,839.5111,1,839.9916,839.9916,841.9755,0,0,0,0,1,,,,,,,,,,,,,,,,,,,,,,,,,,,,,,,,,,,,,,,,,,,,,,,,,,
,,5f56104edb04a89ea3f12ec6,42,female,2024-04-16_12h28.10.412,stockport_simplified,2022.2.4,Win32,29.94011976,661e456ee6de07e70aa9ef7b,661e511cac52da4490fb11d9,,,,,,,,,,,,,,,,,,,,,,,,,,,,,,,,,,,,,,,,,,,,,,,,,,,,,,,,1,0,60,46,1,B,Y,N,o2_image,stimuli/out2.png,stimuli/out1.png,stimuli/correct_out2.png,,,,,,,,,,,,,,,,,,,,,,,,,,,,,,,,,,,,,,
,,5f56104edb04a89ea3f12ec6,42,female,2024-04-16_12h28.10.412,stockport_simplified,2022.2.4,Win32,29.94011976,661e456ee6de07e70aa9ef7b,661e511cac52da4490fb11d9,,,,,,,,,,,,,,,,,,,,,,,,,,,,,,,,,,841.9763,846.292,"[6,5,1,4,2,7,8,3]","[[-0.3,0.2],[0.3,0.2]]","[[0.125,-0.2],[-0.125,-0.2]]",-0.164294293,-0.226262812,1,0,0,3.8095,o2_image,846.3264,1,846.8084,846.8085,848.8264,0,0,0,0,1,,,,,,,,,,,,,,,,,,,,,,,,,,,,,,,,,,,,,,,,,,,,,,,,,,
,,5f56104edb04a89ea3f12ec6,42,female,2024-04-16_12h28.10.412,stockport_simplified,2022.2.4,Win32,29.94011976,661e456ee6de07e70aa9ef7b,661e511cac52da4490fb11d9,,,,,,,,,,,,,,,,,,,,,,,,,,,,,,,,,,,,,,,,,,,,,,,,,,,,,,,,1,1,61,48,1,B,Y,N,o2_image,stimuli/out2.png,stimuli/out1.png,stimuli/correct_out2.png,,,,,,,,,,,,,,,,,,,,,,,,,,,,,,,,,,,,,,
,,5f56104edb04a89ea3f12ec6,42,female,2024-04-16_12h28.10.412,stockport_simplified,2022.2.4,Win32,29.94011976,661e456ee6de07e70aa9ef7b,661e511cac52da4490fb11d9,,,,,,,,,,,,,,,,,,,,,,,,,,,,,,,,,,848.828,854.4902,"[6,5,1,4,2,7,8,3]","[[0.3,0.2],[-0.3,0.2]]","[[0.125,-0.2],[-0.125,-0.2]]",0.093994141,-0.157524841,1,0,0,5.1461,o1_image,854.5232,0,855.0265,855.0265,856.9921,0,0,0,0,1,,,,,,,,,,,,,,,,,,,,,,,,,,,,,,,,,,,,,,,,,,,,,,,,,,
,,5f56104edb04a89ea3f12ec6,42,female,2024-04-16_12h28.10.412,stockport_simplified,2022.2.4,Win32,29.94011976,661e456ee6de07e70aa9ef7b,661e511cac52da4490fb11d9,,,,,,,,,,,,,,,,,,,,,,,,,,,,,,,,,,,,,,,,,,,,,,,,,,,,,,,,1,2,62,14,1,B,X,N,o2_image,stimuli/out2.png,stimuli/out1.png,stimuli/correct_out2.png,,,,,,,,,,,,,,,,,,,,,,,,,,,,,,,,,,,,,,
,,5f56104edb04a89ea3f12ec6,42,female,2024-04-16_12h28.10.412,stockport_simplified,2022.2.4,Win32,29.94011976,661e456ee6de07e70aa9ef7b,661e511cac52da4490fb11d9,,,,,,,,,,,,,,,,,,,,,,,,,,,,,,,,,,856.9932,866.7447,"[6,5,1,4,2,7,8,3]","[[0.3,0.2],[-0.3,0.2]]","[[-0.125,-0.2],[0.125,-0.2]]",0.093994141,-0.157524841,1,0,0,9.2173,o2_image,866.7798,0,867.2936,867.2936,869.279,0,0,0,0,1,,,,,,,,,,,,,,,,,,,,,,,,,,,,,,,,,,,,,,,,,,,,,,,,,,
,,5f56104edb04a89ea3f12ec6,42,female,2024-04-16_12h28.10.412,stockport_simplified,2022.2.4,Win32,29.94011976,661e456ee6de07e70aa9ef7b,661e511cac52da4490fb11d9,,,,,,,,,,,,,,,,,,,,,,,,,,,,,,,,,,,,,,,,,,,,,,,,,,,,,,,,1,3,63,38,1,A,Y,N,o1_image,stimuli/out1.png,stimuli/correct_out1.png,stimuli/out2.png,,,,,,,,,,,,,,,,,,,,,,,,,,,,,,,,,,,,,,
,,5f56104edb04a89ea3f12ec6,42,female,2024-04-16_12h28.10.412,stockport_simplified,2022.2.4,Win32,29.94011976,661e456ee6de07e70aa9ef7b,661e511cac52da4490fb11d9,,,,,,,,,,,,,,,,,,,,,,,,,,,,,,,,,,869.2802,874.796,"[6,5,1,4,2,7,8,3]","[[-0.3,0.2],[0.3,0.2]]","[[0.125,-0.2],[-0.125,-0.2]]",-0.139298616,-0.174188551,1,0,0,5.0016,o2_image,874.8288,1,875.3276,875.3276,877.3269,0,0,0,0,1,,,,,,,,,,,,,,,,,,,,,,,,,,,,,,,,,,,,,,,,,,,,,,,,,,
,,5f56104edb04a89ea3f12ec6,42,female,2024-04-16_12h28.10.412,stockport_simplified,2022.2.4,Win32,29.94011976,661e456ee6de07e70aa9ef7b,661e511cac52da4490fb11d9,,,,,,,,,,,,,,,,,,,,,,,,,,,,,,,,,,,,,,,,,,,,,,,,,,,,,,,,1,4,64,11,1,B,X,N,o2_image,stimuli/out2.png,stimuli/out1.png,stimuli/correct_out2.png,,,,,,,,,,,,,,,,,,,,,,,,,,,,,,,,,,,,,,
,,5f56104edb04a89ea3f12ec6,42,female,2024-04-16_12h28.10.412,stockport_simplified,2022.2.4,Win32,29.94011976,661e456ee6de07e70aa9ef7b,661e511cac52da4490fb11d9,,,,,,,,,,,,,,,,,,,,,,,,,,,,,,,,,,877.3279,884.3193,"[6,5,1,4,2,7,8,3]","[[-0.3,0.2],[0.3,0.2]]","[[0.125,-0.2],[-0.125,-0.2]]",-0.139298616,-0.174188551,1,0,0,6.4755,o2_image,884.352,1,884.8489,884.849,886.8258,0,0,0,0,1,,,,,,,,,,,,,,,,,,,,,,,,,,,,,,,,,,,,,,,,,,,,,,,,,,
,,5f56104edb04a89ea3f12ec6,42,female,2024-04-16_12h28.10.412,stockport_simplified,2022.2.4,Win32,29.94011976,661e456ee6de07e70aa9ef7b,661e511cac52da4490fb11d9,,,,,,,,,,,,,,,,,,,,,,,,,,,,,,,,,,,,,,,,,,,,,,,,,,,,,,,,1,5,65,15,1,B,Y,N,o2_image,stimuli/out2.png,stimuli/out1.png,stimuli/correct_out2.png,,,,,,,,,,,,,,,,,,,,,,,,,,,,,,,,,,,,,,
,,5f56104edb04a89ea3f12ec6,42,female,2024-04-16_12h28.10.412,stockport_simplified,2022.2.4,Win32,29.94011976,661e456ee6de07e70aa9ef7b,661e511cac52da4490fb11d9,,,,,,,,,,,,,,,,,,,,,,,,,,,,,,,,,,886.8268,892.4485,"[6,5,1,4,2,7,8,3]","[[0.3,0.2],[-0.3,0.2]]","[[0.125,-0.2],[-0.125,-0.2]]",0.141902659,-0.187380674,1,0,0,5.1025,o1_image,892.4795,0,892.9802,892.9802,894.9595,0,0,0,0,1,,,,,,,,,,,,,,,,,,,,,,,,,,,,,,,,,,,,,,,,,,,,,,,,,,
,,5f56104edb04a89ea3f12ec6,42,female,2024-04-16_12h28.10.412,stockport_simplified,2022.2.4,Win32,29.94011976,661e456ee6de07e70aa9ef7b,661e511cac52da4490fb11d9,,,,,,,,,,,,,,,,,,,,,,,,,,,,,,,,,,,,,,,,,,,,,,,,,,,,,,,,1,6,66,41,1,B,X,N,o2_image,stimuli/out2.png,stimuli/out1.png,stimuli/correct_out2.png,,,,,,,,,,,,,,,,,,,,,,,,,,,,,,,,,,,,,,
,,5f56104edb04a89ea3f12ec6,42,female,2024-04-16_12h28.10.412,stockport_simplified,2022.2.4,Win32,29.94011976,661e456ee6de07e70aa9ef7b,661e511cac52da4490fb11d9,,,,,,,,,,,,,,,,,,,,,,,,,,,,,,,,,,894.9605,906.4595,"[6,5,1,4,2,7,8,3]","[[0.3,0.2],[-0.3,0.2]]","[[-0.125,-0.2],[0.125,-0.2]]",,,,,,,,,,,,,,,,,,1,7,67,37,1,A,Y,N,o1_image,stimuli/out1.png,stimuli/correct_out1.png,stimuli/out2.png,,,,,,,,,,,,,,,,,,,,,,,,,,,,,,,,,,,,,,
,,5f56104edb04a89ea3f12ec6,42,female,2024-04-16_12h28.10.412,stockport_simplified,2022.2.4,Win32,29.94011976,661e456ee6de07e70aa9ef7b,661e511cac52da4490fb11d9,,,,,,,,,,,,,,,,,,,,,,,,,,,,,,,,,,906.4896,909.429,"[6,5,1,4,2,7,8,3]","[[0.3,0.2],[-0.3,0.2]]","[[0.125,-0.2],[-0.125,-0.2]]",-0.09833357,-0.170022587,1,0,0,2.4329,o2_image,909.4312,0,909.9281,909.9281,911.9097,0,0,0,0,1,,,,,,,,,,,,,,,,,,,,,,,,,,,,,,,,,,,,,,,,,,,,,,,,,,
,,5f56104edb04a89ea3f12ec6,42,female,2024-04-16_12h28.10.412,stockport_simplified,2022.2.4,Win32,29.94011976,661e456ee6de07e70aa9ef7b,661e511cac52da4490fb11d9,,,,,,,,,,,,,,,,,,,,,,,,,,,,,,,,,,,,,,,,,,,,,,,,,,,,,,,,1,8,68,36,1,A,Y,N,o1_image,stimuli/out1.png,stimuli/correct_out1.png,stimuli/out2.png,,,,,,,,,,,,,,,,,,,,,,,,,,,,,,,,,,,,,,
,,5f56104edb04a89ea3f12ec6,42,female,2024-04-16_12h28.10.412,stockport_simplified,2022.2.4,Win32,29.94011976,661e456ee6de07e70aa9ef7b,661e511cac52da4490fb11d9,,,,,,,,,,,,,,,,,,,,,,,,,,,,,,,,,,911.911,915.2124,"[6,5,1,4,2,7,8,3]","[[0.3,0.2],[-0.3,0.2]]","[[-0.125,-0.2],[0.125,-0.2]]",0.175230005,-0.169328284,1,0,0,2.7812,o2_image,915.2466,1,915.7431,915.7431,917.7441,0,0,0,0,1,,,,,,,,,,,,,,,,,,,,,,,,,,,,,,,,,,,,,,,,,,,,,,,,,,
,,5f56104edb04a89ea3f12ec6,42,female,2024-04-16_12h28.10.412,stockport_simplified,2022.2.4,Win32,29.94011976,661e456ee6de07e70aa9ef7b,661e511cac52da4490fb11d9,,,,,,,,,,,,,,,,,,,,,,,,,,,,,,,,,,,,,,,,,,,,,,,,,,,,,,,,1,9,69,29,1,N,M,D,o2_image,stimuli/out2.png,stimuli/out1.png,stimuli/correct_out2.png,,,,,,,,,,,,,,,,,,,,,,,,,,,,,,,,,,,,,,
,,5f56104edb04a89ea3f12ec6,42,female,2024-04-16_12h28.10.412,stockport_simplified,2022.2.4,Win32,29.94011976,661e456ee6de07e70aa9ef7b,661e511cac52da4490fb11d9,,,,,,,,,,,,,,,,,,,,,,,,,,,,,,,,,,917.7452,919.31,"[6,5,1,4,2,7,8,3]","[[0.3,0.2],[-0.3,0.2]]","[[-0.125,-0.2],[0.125,-0.2]]",0.175230005,-0.169328284,1,0,0,1.0378,o2_image,919.312,1,919.8117,919.8119,921.7931,0,0,0,0,1,,,,,,,,,,,,,,,,,,,,,,,,,,,,,,,,,,,,,,,,,,,,,,,,,,
,,5f56104edb04a89ea3f12ec6,42,female,2024-04-16_12h28.10.412,stockport_simplified,2022.2.4,Win32,29.94011976,661e456ee6de07e70aa9ef7b,661e511cac52da4490fb11d9,,,,,,,,,,,,,,,,,,,,,,,,,,,,,,,,,,,,,,,,,,,,,,,,,,,,,,,,1,10,70,55,1,N,M,D,o2_image,stimuli/out2.png,stimuli/out1.png,stimuli/correct_out2.png,,,,,,,,,,,,,,,,,,,,,,,,,,,,,,,,,,,,,,
,,5f56104edb04a89ea3f12ec6,42,female,2024-04-16_12h28.10.412,stockport_simplified,2022.2.4,Win32,29.94011976,661e456ee6de07e70aa9ef7b,661e511cac52da4490fb11d9,,,,,,,,,,,,,,,,,,,,,,,,,,,,,,,,,,921.7942,923.846,"[6,5,1,4,2,7,8,3]","[[-0.3,0.2],[0.3,0.2]]","[[-0.125,-0.2],[0.125,-0.2]]",-0.113608748,-0.185297691,1,0,0,1.5349,o1_image,923.8478,1,924.3445,924.3446,926.3493,0,0,0,0,1,,,,,,,,,,,,,,,,,,,,,,,,,,,,,,,,,,,,,,,,,,,,,,,,,,
,,5f56104edb04a89ea3f12ec6,42,female,2024-04-16_12h28.10.412,stockport_simplified,2022.2.4,Win32,29.94011976,661e456ee6de07e70aa9ef7b,661e511cac52da4490fb11d9,,,,,,,,,,,,,,,,,,,,,,,,,,,,,,,,,,,,,,,,,,,,,,,,,,,,,,,,1,11,71,2,1,A,X,N,o1_image,stimuli/out1.png,stimuli/correct_out1.png,stimuli/out2.png,,,,,,,,,,,,,,,,,,,,,,,,,,,,,,,,,,,,,,
,,5f56104edb04a89ea3f12ec6,42,female,2024-04-16_12h28.10.412,stockport_simplified,2022.2.4,Win32,29.94011976,661e456ee6de07e70aa9ef7b,661e511cac52da4490fb11d9,,,,,,,,,,,,,,,,,,,,,,,,,,,,,,,,,,926.3503,929.8126,"[6,5,1,4,2,7,8,3]","[[0.3,0.2],[-0.3,0.2]]","[[0.125,-0.2],[-0.125,-0.2]]",0.105103503,-0.180437424,1,0,0,2.9344,o1_image,929.8472,0,930.3445,930.3446,932.3498,0,0,0,0,1,,,,,,,,,,,,,,,,,,,,,,,,,,,,,,,,,,,,,,,,,,,,,,,,,,
,,5f56104edb04a89ea3f12ec6,42,female,2024-04-16_12h28.10.412,stockport_simplified,2022.2.4,Win32,29.94011976,661e456ee6de07e70aa9ef7b,661e511cac52da4490fb11d9,,,,,,,,,,,,,,,,,,,,,,,,,,,,,,,,,,,,,,,,,,,,,,,,,,,,,,,,1,12,72,40,1,B,X,N,o2_image,stimuli/out2.png,stimuli/out1.png,stimuli/correct_out2.png,,,,,,,,,,,,,,,,,,,,,,,,,,,,,,,,,,,,,,
,,5f56104edb04a89ea3f12ec6,42,female,2024-04-16_12h28.10.412,stockport_simplified,2022.2.4,Win32,29.94011976,661e456ee6de07e70aa9ef7b,661e511cac52da4490fb11d9,,,,,,,,,,,,,,,,,,,,,,,,,,,,,,,,,,932.3509,934.8796,"[6,5,1,4,2,7,8,3]","[[0.3,0.2],[-0.3,0.2]]","[[-0.125,-0.2],[0.125,-0.2]]",-0.133049706,-0.171411266,1,0,0,2.0008,o1_image,934.9129,1,935.4118,935.412,937.4118,0,0,0,0,1,,,,,,,,,,,,,,,,,,,,,,,,,,,,,,,,,,,,,,,,,,,,,,,,,,
,,5f56104edb04a89ea3f12ec6,42,female,2024-04-16_12h28.10.412,stockport_simplified,2022.2.4,Win32,29.94011976,661e456ee6de07e70aa9ef7b,661e511cac52da4490fb11d9,,,,,,,,,,,,,,,,,,,,,,,,,,,,,,,,,,,,,,,,,,,,,,,,,,,,,,,,1,13,73,34,1,A,X,N,o1_image,stimuli/out1.png,stimuli/correct_out1.png,stimuli/out2.png,,,,,,,,,,,,,,,,,,,,,,,,,,,,,,,,,,,,,,
,,5f56104edb04a89ea3f12ec6,42,female,2024-04-16_12h28.10.412,stockport_simplified,2022.2.4,Win32,29.94011976,661e456ee6de07e70aa9ef7b,661e511cac52da4490fb11d9,,,,,,,,,,,,,,,,,,,,,,,,,,,,,,,,,,937.413,940.9465,"[6,5,1,4,2,7,8,3]","[[-0.3,0.2],[0.3,0.2]]","[[0.125,-0.2],[-0.125,-0.2]]",-0.123329283,-0.245703881,1,0,0,3.0177,o2_image,940.9798,1,941.4834,941.4834,943.4687,0,0,0,0,1,,,,,,,,,,,,,,,,,,,,,,,,,,,,,,,,,,,,,,,,,,,,,,,,,,
,,5f56104edb04a89ea3f12ec6,42,female,2024-04-16_12h28.10.412,stockport_simplified,2022.2.4,Win32,29.94011976,661e456ee6de07e70aa9ef7b,661e511cac52da4490fb11d9,,,,,,,,,,,,,,,,,,,,,,,,,,,,,,,,,,,,,,,,,,,,,,,,,,,,,,,,1,14,74,19,1,B,Y,N,o2_image,stimuli/out2.png,stimuli/out1.png,stimuli/correct_out2.png,,,,,,,,,,,,,,,,,,,,,,,,,,,,,,,,,,,,,,
,,5f56104edb04a89ea3f12ec6,42,female,2024-04-16_12h28.10.412,stockport_simplified,2022.2.4,Win32,29.94011976,661e456ee6de07e70aa9ef7b,661e511cac52da4490fb11d9,,,,,,,,,,,,,,,,,,,,,,,,,,,,,,,,,,943.4697,948.0439,"[6,5,1,4,2,7,8,3]","[[0.3,0.2],[-0.3,0.2]]","[[0.125,-0.2],[-0.125,-0.2]]",0.083579452,-0.197795659,1,0,0,4.0642,o1_image,948.0774,1,948.5947,948.595,950.5902,0,0,0,0,1,,,,,,,,,,,,,,,,,,,,,,,,,,,,,,,,,,,,,,,,,,,,,,,,,,
,,5f56104edb04a89ea3f12ec6,42,female,2024-04-16_12h28.10.412,stockport_simplified,2022.2.4,Win32,29.94011976,661e456ee6de07e70aa9ef7b,661e511cac52da4490fb11d9,,,,,,,,,,,,,,,,,,,,,,,,,,,,,,,,,,,,,,,,,,,,,,,,,,,,,,,,1,15,75,22,1,N,M,C,o1_image,stimuli/out1.png,stimuli/correct_out1.png,stimuli/out2.png,,,,,,,,,,,,,,,,,,,,,,,,,,,,,,,,,,,,,,
,,5f56104edb04a89ea3f12ec6,42,female,2024-04-16_12h28.10.412,stockport_simplified,2022.2.4,Win32,29.94011976,661e456ee6de07e70aa9ef7b,661e511cac52da4490fb11d9,,,,,,,,,,,,,,,,,,,,,,,,,,,,,,,,,,950.5911,955.3631,"[6,5,1,4,2,7,8,3]","[[0.3,0.2],[-0.3,0.2]]","[[-0.125,-0.2],[0.125,-0.2]]",-0.110137087,-0.177660139,1,0,0,4.2517,o1_image,955.3972,1,955.8785,955.8786,957.8799,0,0,0,0,1,,,,,,,,,,,,,,,,,,,,,,,,,,,,,,,,,,,,,,,,,,,,,,,,,,
,,5f56104edb04a89ea3f12ec6,42,female,2024-04-16_12h28.10.412,stockport_simplified,2022.2.4,Win32,29.94011976,661e456ee6de07e70aa9ef7b,661e511cac52da4490fb11d9,,,,,,,,,,,,,,,,,,,,,,,,,,,,,,,,,,,,,,,,,,,,,,,,,,,,,,,,1,16,76,53,1,N,M,C,o1_image,stimuli/out1.png,stimuli/correct_out1.png,stimuli/out2.png,,,,,,,,,,,,,,,,,,,,,,,,,,,,,,,,,,,,,,
,,5f56104edb04a89ea3f12ec6,42,female,2024-04-16_12h28.10.412,stockport_simplified,2022.2.4,Win32,29.94011976,661e456ee6de07e70aa9ef7b,661e511cac52da4490fb11d9,,,,,,,,,,,,,,,,,,,,,,,,,,,,,,,,,,957.881,960.7464,"[6,5,1,4,2,7,8,3]","[[0.3,0.2],[-0.3,0.2]]","[[-0.125,-0.2],[0.125,-0.2]]",0.121767065,-0.168634055,1,0,0,2.3475,o2_image,960.7483,1,961.2454,961.2456,963.2444,0,0,0,0,1,,,,,,,,,,,,,,,,,,,,,,,,,,,,,,,,,,,,,,,,,,,,,,,,,,
,,5f56104edb04a89ea3f12ec6,42,female,2024-04-16_12h28.10.412,stockport_simplified,2022.2.4,Win32,29.94011976,661e456ee6de07e70aa9ef7b,661e511cac52da4490fb11d9,,,,,,,,,,,,,,,,,,,,,,,,,,,,,,,,,,,,,,,,,,,,,,,,,,,,,,,,1,17,77,56,1,N,M,D,o2_image,stimuli/out2.png,stimuli/out1.png,stimuli/correct_out2.png,,,,,,,,,,,,,,,,,,,,,,,,,,,,,,,,,,,,,,
,,5f56104edb04a89ea3f12ec6,42,female,2024-04-16_12h28.10.412,stockport_simplified,2022.2.4,Win32,29.94011976,661e456ee6de07e70aa9ef7b,661e511cac52da4490fb11d9,,,,,,,,,,,,,,,,,,,,,,,,,,,,,,,,,,963.2449,966.7114,"[6,5,1,4,2,7,8,3]","[[-0.3,0.2],[0.3,0.2]]","[[-0.125,-0.2],[0.125,-0.2]]",0.114129513,-0.182520406,1,0,0,2.9647,o2_image,966.7123,1,967.2075,967.2076,969.1986,0,0,0,0,1,,,,,,,,,,,,,,,,,,,,,,,,,,,,,,,,,,,,,,,,,,,,,,,,,,
,,5f56104edb04a89ea3f12ec6,42,female,2024-04-16_12h28.10.412,stockport_simplified,2022.2.4,Win32,29.94011976,661e456ee6de07e70aa9ef7b,661e511cac52da4490fb11d9,,,,,,,,,,,,,,,,,,,,,,,,,,,,,,,,,,,,,,,,,,,,,,,,,,,,,,,,1,18,78,43,1,B,X,N,o2_image,stimuli/out2.png,stimuli/out1.png,stimuli/correct_out2.png,,,,,,,,,,,,,,,,,,,,,,,,,,,,,,,,,,,,,,
,,5f56104edb04a89ea3f12ec6,42,female,2024-04-16_12h28.10.412,stockport_simplified,2022.2.4,Win32,29.94011976,661e456ee6de07e70aa9ef7b,661e511cac52da4490fb11d9,,,,,,,,,,,,,,,,,,,,,,,,,,,,,,,,,,969.1995,973.6853,"[6,5,1,4,2,7,8,3]","[[0.3,0.2],[-0.3,0.2]]","[[0.125,-0.2],[-0.125,-0.2]]",0.156483461,-0.21307069,1,0,0,3.9668,o1_image,973.7189,1,974.2223,974.2224,976.2198,0,0,0,0,1,,,,,,,,,,,,,,,,,,,,,,,,,,,,,,,,,,,,,,,,,,,,,,,,,,
,,5f56104edb04a89ea3f12ec6,42,female,2024-04-16_12h28.10.412,stockport_simplified,2022.2.4,Win32,29.94011976,661e456ee6de07e70aa9ef7b,661e511cac52da4490fb11d9,,,,,,,,,,,,,,,,,,,,,,,,,,,,,,,,,,,,,,,,,,,,,,,,,,,,,,,,1,19,79,39,1,A,Y,N,o1_image,stimuli/out1.png,stimuli/correct_out1.png,stimuli/out2.png,,,,,,,,,,,,,,,,,,,,,,,,,,,,,,,,,,,,,,
,,5f56104edb04a89ea3f12ec6,42,female,2024-04-16_12h28.10.412,stockport_simplified,2022.2.4,Win32,29.94011976,661e456ee6de07e70aa9ef7b,661e511cac52da4490fb11d9,,,,,,,,,,,,,,,,,,,,,,,,,,,,,,,,,,976.2209,978.7454,"[6,5,1,4,2,7,8,3]","[[0.3,0.2],[-0.3,0.2]]","[[-0.125,-0.2],[0.125,-0.2]]",-0.136521331,-0.204044458,1,0,0,2.0175,o1_image,978.7463,1,979.2447,979.2448,981.2446,0,0,0,0,1,,,,,,,,,,,,,,,,,,,,,,,,,,,,,,,,,,,,,,,,,,,,,,,,,,
,,5f56104edb04a89ea3f12ec6,42,female,2024-04-16_12h28.10.412,stockport_simplified,2022.2.4,Win32,29.94011976,661e456ee6de07e70aa9ef7b,661e511cac52da4490fb11d9,,,,,,,,,,,,,,,,,,,,,,,,,,,,,,,,,,,,,,,,,,,,,,,,,,,,,,,,1,20,80,4,1,A,X,N,o1_image,stimuli/out1.png,stimuli/correct_out1.png,stimuli/out2.png,,,,,,,,,,,,,,,,,,,,,,,,,,,,,,,,,,,,,,
,,5f56104edb04a89ea3f12ec6,42,female,2024-04-16_12h28.10.412,stockport_simplified,2022.2.4,Win32,29.94011976,661e456ee6de07e70aa9ef7b,661e511cac52da4490fb11d9,,,,,,,,,,,,,,,,,,,,,,,,,,,,,,,,,,981.2456,984.8122,"[6,5,1,4,2,7,8,3]","[[-0.3,0.2],[0.3,0.2]]","[[-0.125,-0.2],[0.125,-0.2]]",-0.136521331,-0.204044458,1,0,0,3.0514,o1_image,984.8268,1,985.3292,985.3294,987.3107,0,0,0,0,1,,,,,,,,,,,,,,,,,,,,,,,,,,,,,,,,,,,,,,,,,,,,,,,,,,
,,5f56104edb04a89ea3f12ec6,42,female,2024-04-16_12h28.10.412,stockport_simplified,2022.2.4,Win32,29.94011976,661e456ee6de07e70aa9ef7b,661e511cac52da4490fb11d9,,,,,,,,,,,,,,,,,,,,,,,,,,,,,,,,,,,,,,,,,,,,,,,,,,,,,,,,1,21,81,8,1,A,Y,N,o1_image,stimuli/out1.png,stimuli/correct_out1.png,stimuli/out2.png,,,,,,,,,,,,,,,,,,,,,,,,,,,,,,,,,,,,,,
,,5f56104edb04a89ea3f12ec6,42,female,2024-04-16_12h28.10.412,stockport_simplified,2022.2.4,Win32,29.94011976,661e456ee6de07e70aa9ef7b,661e511cac52da4490fb11d9,,,,,,,,,,,,,,,,,,,,,,,,,,,,,,,,,,987.3114,990.9472,"[6,5,1,4,2,7,8,3]","[[-0.3,0.2],[0.3,0.2]]","[[0.125,-0.2],[-0.125,-0.2]]",0.10996377,-0.195712603,1,0,0,3.134,o1_image,990.982,1,991.4705,991.4706,993.4702,0,0,0,0,1,,,,,,,,,,,,,,,,,,,,,,,,,,,,,,,,,,,,,,,,,,,,,,,,,,
,,5f56104edb04a89ea3f12ec6,42,female,2024-04-16_12h28.10.412,stockport_simplified,2022.2.4,Win32,29.94011976,661e456ee6de07e70aa9ef7b,661e511cac52da4490fb11d9,,,,,,,,,,,,,,,,,,,,,,,,,,,,,,,,,,,,,,,,,,,,,,,,,,,,,,,,1,22,82,51,1,N,M,C,o1_image,stimuli/out1.png,stimuli/correct_out1.png,stimuli/out2.png,,,,,,,,,,,,,,,,,,,,,,,,,,,,,,,,,,,,,,
,,5f56104edb04a89ea3f12ec6,42,female,2024-04-16_12h28.10.412,stockport_simplified,2022.2.4,Win32,29.94011976,661e456ee6de07e70aa9ef7b,661e511cac52da4490fb11d9,,,,,,,,,,,,,,,,,,,,,,,,,,,,,,,,,,993.4713,996.9972,"[6,5,1,4,2,7,8,3]","[[0.3,0.2],[-0.3,0.2]]","[[0.125,-0.2],[-0.125,-0.2]]",0.10996377,-0.195712603,1,0,0,3.0002,o1_image,997.0309,1,997.5316,997.5317,999.5322,0,0,0,0,1,,,,,,,,,,,,,,,,,,,,,,,,,,,,,,,,,,,,,,,,,,,,,,,,,,
,,5f56104edb04a89ea3f12ec6,42,female,2024-04-16_12h28.10.412,stockport_simplified,2022.2.4,Win32,29.94011976,661e456ee6de07e70aa9ef7b,661e511cac52da4490fb11d9,,,,,,,,,,,,,,,,,,,,,,,,,,,,,,,,,,,,,,,,,,,,,,,,,,,,,,,,1,23,83,5,1,A,Y,N,o1_image,stimuli/out1.png,stimuli/correct_out1.png,stimuli/out2.png,,,,,,,,,,,,,,,,,,,,,,,,,,,,,,,,,,,,,,
,,5f56104edb04a89ea3f12ec6,42,female,2024-04-16_12h28.10.412,stockport_simplified,2022.2.4,Win32,29.94011976,661e456ee6de07e70aa9ef7b,661e511cac52da4490fb11d9,,,,,,,,,,,,,,,,,,,,,,,,,,,,,,,,,,999.5332,1002.0644,"[6,5,1,4,2,7,8,3]","[[-0.3,0.2],[0.3,0.2]]","[[-0.125,-0.2],[0.125,-0.2]]",-0.141381599,-0.193629621,1,0,0,2.0291,o1_image,1002.0955,1,1002.596,1002.5961,1004.587,0,0,0,0,1,,,,,,,,,,,,,,,,,,,,,,,,,,,,,,,,,,,,,,,,,,,,,,,,,,
,,5f56104edb04a89ea3f12ec6,42,female,2024-04-16_12h28.10.412,stockport_simplified,2022.2.4,Win32,29.94011976,661e456ee6de07e70aa9ef7b,661e511cac52da4490fb11d9,,,,,,,,,,,,,,,,,,,,,,,,,,,,,,,,,,,,,,,,,,,,,,,,,,,,,,,,1,24,84,20,1,N,M,C,o1_image,stimuli/out1.png,stimuli/correct_out1.png,stimuli/out2.png,,,,,,,,,,,,,,,,,,,,,,,,,,,,,,,,,,,,,,
,,5f56104edb04a89ea3f12ec6,42,female,2024-04-16_12h28.10.412,stockport_simplified,2022.2.4,Win32,29.94011976,661e456ee6de07e70aa9ef7b,661e511cac52da4490fb11d9,,,,,,,,,,,,,,,,,,,,,,,,,,,,,,,,,,1004.5884,1009.4783,"[6,5,1,4,2,7,8,3]","[[0.3,0.2],[-0.3,0.2]]","[[-0.125,-0.2],[0.125,-0.2]]",-0.141381599,-0.193629621,1,0,0,4.3794,o1_image,1009.5071,0,1009.9971,1009.9971,1011.9842,0,0,0,0,1,,,,,,,,,,,,,,,,,,,,,,,,,,,,,,,,,,,,,,,,,,,,,,,,,,
,,5f56104edb04a89ea3f12ec6,42,female,2024-04-16_12h28.10.412,stockport_simplified,2022.2.4,Win32,29.94011976,661e456ee6de07e70aa9ef7b,661e511cac52da4490fb11d9,,,,,,,,,,,,,,,,,,,,,,,,,,,,,,,,,,,,,,,,,,,,,,,,,,,,,,,,1,25,85,12,1,B,X,N,o2_image,stimuli/out2.png,stimuli/out1.png,stimuli/correct_out2.png,,,,,,,,,,,,,,,,,,,,,,,,,,,,,,,,,,,,,,
,,5f56104edb04a89ea3f12ec6,42,female,2024-04-16_12h28.10.412,stockport_simplified,2022.2.4,Win32,29.94011976,661e456ee6de07e70aa9ef7b,661e511cac52da4490fb11d9,,,,,,,,,,,,,,,,,,,,,,,,,,,,,,,,,,1011.9855,1018.5336,"[6,5,1,4,2,7,8,3]","[[0.3,0.2],[-0.3,0.2]]","[[0.125,-0.2],[-0.125,-0.2]]",0.134265107,-0.185297691,1,0,0,6.0365,o1_image,1018.5673,1,1019.0798,1019.08,1021.0965,0,0,0,0,1,,,,,,,,,,,,,,,,,,,,,,,,,,,,,,,,,,,,,,,,,,,,,,,,,,
,,5f56104edb04a89ea3f12ec6,42,female,2024-04-16_12h28.10.412,stockport_simplified,2022.2.4,Win32,29.94011976,661e456ee6de07e70aa9ef7b,661e511cac52da4490fb11d9,,,,,,,,,,,,,,,,,,,,,,,,,,,,,,,,,,,,,,,,,,,,,,,,,,,,,,,,1,26,86,52,1,N,M,C,o1_image,stimuli/out1.png,stimuli/correct_out1.png,stimuli/out2.png,,,,,,,,,,,,,,,,,,,,,,,,,,,,,,,,,,,,,,
,,5f56104edb04a89ea3f12ec6,42,female,2024-04-16_12h28.10.412,stockport_simplified,2022.2.4,Win32,29.94011976,661e456ee6de07e70aa9ef7b,661e511cac52da4490fb11d9,,,,,,,,,,,,,,,,,,,,,,,,,,,,,,,,,,1021.0975,1030.1478,"[6,5,1,4,2,7,8,3]","[[0.3,0.2],[-0.3,0.2]]","[[0.125,-0.2],[-0.125,-0.2]]",-0.151796547,-0.21307069,1,0,0,8.5348,o2_image,1030.1826,0,1030.697,1030.6972,1032.7044,0,0,0,0,1,,,,,,,,,,,,,,,,,,,,,,,,,,,,,,,,,,,,,,,,,,,,,,,,,,
,,5f56104edb04a89ea3f12ec6,42,female,2024-04-16_12h28.10.412,stockport_simplified,2022.2.4,Win32,29.94011976,661e456ee6de07e70aa9ef7b,661e511cac52da4490fb11d9,,,,,,,,,,,,,,,,,,,,,,,,,,,,,,,,,,,,,,,,,,,,,,,,,,,,,,,,1,27,87,54,1,N,M,C,o1_image,stimuli/out1.png,stimuli/correct_out1.png,stimuli/out2.png,,,,,,,,,,,,,,,,,,,,,,,,,,,,,,,,,,,,,,
,,5f56104edb04a89ea3f12ec6,42,female,2024-04-16_12h28.10.412,stockport_simplified,2022.2.4,Win32,29.94011976,661e456ee6de07e70aa9ef7b,661e511cac52da4490fb11d9,,,,,,,,,,,,,,,,,,,,,,,,,,,,,,,,,,1032.7054,1036.2194,"[6,5,1,4,2,7,8,3]","[[0.3,0.2],[-0.3,0.2]]","[[-0.125,-0.2],[0.125,-0.2]]",0.117601323,-0.23459489,1,0,0,2.9722,o2_image,1036.2213,1,1036.7047,1036.7048,1038.6967,0,0,0,0,1,,,,,,,,,,,,,,,,,,,,,,,,,,,,,,,,,,,,,,,,,,,,,,,,,,
,,5f56104edb04a89ea3f12ec6,42,female,2024-04-16_12h28.10.412,stockport_simplified,2022.2.4,Win32,29.94011976,661e456ee6de07e70aa9ef7b,661e511cac52da4490fb11d9,,,,,,,,,,,,,,,,,,,,,,,,,,,,,,,,,,,,,,,,,,,,,,,,,,,,,,,,1,28,88,59,1,N,M,D,o2_image,stimuli/out2.png,stimuli/out1.png,stimuli/correct_out2.png,,,,,,,,,,,,,,,,,,,,,,,,,,,,,,,,,,,,,,
,,5f56104edb04a89ea3f12ec6,42,female,2024-04-16_12h28.10.412,stockport_simplified,2022.2.4,Win32,29.94011976,661e456ee6de07e70aa9ef7b,661e511cac52da4490fb11d9,,,,,,,,,,,,,,,,,,,,,,,,,,,,,,,,,,1038.6978,1041.7988,"[6,5,1,4,2,7,8,3]","[[0.3,0.2],[-0.3,0.2]]","[[0.125,-0.2],[-0.125,-0.2]]",-0.099027947,-0.22417983,1,0,0,2.5962,o2_image,1041.7996,0,1042.2969,1042.297,1044.2969,0,0,0,0,1,,,,,,,,,,,,,,,,,,,,,,,,,,,,,,,,,,,,,,,,,,,,,,,,,,
,,5f56104edb04a89ea3f12ec6,42,female,2024-04-16_12h28.10.412,stockport_simplified,2022.2.4,Win32,29.94011976,661e456ee6de07e70aa9ef7b,661e511cac52da4490fb11d9,,,,,,,,,,,,,,,,,,,,,,,,,,,,,,,,,,,,,,,,,,,,,,,,,,,,,,,,1,29,89,24,1,N,M,C,o1_image,stimuli/out1.png,stimuli/correct_out1.png,stimuli/out2.png,,,,,,,,,,,,,,,,,,,,,,,,,,,,,,,,,,,,,,
,,5f56104edb04a89ea3f12ec6,42,female,2024-04-16_12h28.10.412,stockport_simplified,2022.2.4,Win32,29.94011976,661e456ee6de07e70aa9ef7b,661e511cac52da4490fb11d9,,,,,,,,,,,,,,,,,,,,,,,,,,,,,,,,,,1044.298,1046.2647,"[6,5,1,4,2,7,8,3]","[[0.3,0.2],[-0.3,0.2]]","[[-0.125,-0.2],[0.125,-0.2]]",-0.099027947,-0.22417983,1,0,0,1.4627,o1_image,1046.2668,0,1046.7628,1046.7628,1048.7455,0,0,0,0,1,,,,,,,,,,,,,,,,,,,,,,,,,,,,,,,,,,,,,,,,,,,,,,,,,,
,,5f56104edb04a89ea3f12ec6,42,female,2024-04-16_12h28.10.412,stockport_simplified,2022.2.4,Win32,29.94011976,661e456ee6de07e70aa9ef7b,661e511cac52da4490fb11d9,,,,,,,,,,,,,,,,,,,,,,,,,,,,,,,,,,,,,,,,,,,,,,,,,,,,,,,,1,30,90,10,1,B,X,N,o2_image,stimuli/out2.png,stimuli/out1.png,stimuli/correct_out2.png,,,,,,,,,,,,,,,,,,,,,,,,,,,,,,,,,,,,,,
,,5f56104edb04a89ea3f12ec6,42,female,2024-04-16_12h28.10.412,stockport_simplified,2022.2.4,Win32,29.94011976,661e456ee6de07e70aa9ef7b,661e511cac52da4490fb11d9,,,,,,,,,,,,,,,,,,,,,,,,,,,,,,,,,,1048.7465,1051.0818,"[6,5,1,4,2,7,8,3]","[[0.3,0.2],[-0.3,0.2]]","[[0.125,-0.2],[-0.125,-0.2]]",-0.099027947,-0.22417983,1,0,0,1.818,o2_image,1051.0836,1,1051.5973,1051.5973,1053.6087,0,0,0,0,1,,,,,,,,,,,,,,,,,,,,,,,,,,,,,,,,,,,,,,,,,,,,,,,,,,
,,5f56104edb04a89ea3f12ec6,42,female,2024-04-16_12h28.10.412,stockport_simplified,2022.2.4,Win32,29.94011976,661e456ee6de07e70aa9ef7b,661e511cac52da4490fb11d9,,,,,,,,,,,,,,,,,,,,,,,,,,,,,,,,,,,,,,,,,,,,,,,,,,,,,,,,1,31,91,49,1,B,Y,N,o2_image,stimuli/out2.png,stimuli/out1.png,stimuli/correct_out2.png,,,,,,,,,,,,,,,,,,,,,,,,,,,,,,,,,,,,,,
,,5f56104edb04a89ea3f12ec6,42,female,2024-04-16_12h28.10.412,stockport_simplified,2022.2.4,Win32,29.94011976,661e456ee6de07e70aa9ef7b,661e511cac52da4490fb11d9,,,,,,,,,,,,,,,,,,,,,,,,,,,,,,,,,,1053.6097,1060.7317,"[6,5,1,4,2,7,8,3]","[[-0.3,0.2],[0.3,0.2]]","[[0.125,-0.2],[-0.125,-0.2]]",-0.099027947,-0.22417983,1,0,0,6.6099,o2_image,1060.7663,0,1061.2805,1061.2805,1063.2791,0,0,0,0,1,,,,,,,,,,,,,,,,,,,,,,,,,,,,,,,,,,,,,,,,,,,,,,,,,,
,,5f56104edb04a89ea3f12ec6,42,female,2024-04-16_12h28.10.412,stockport_simplified,2022.2.4,Win32,29.94011976,661e456ee6de07e70aa9ef7b,661e511cac52da4490fb11d9,,,,,,,,,,,,,,,,,,,,,,,,,,,,,,,,,,,,,,,,,,,,,,,,,,,,,,,,1,32,92,21,1,N,M,C,o1_image,stimuli/out1.png,stimuli/correct_out1.png,stimuli/out2.png,,,,,,,,,,,,,,,,,,,,,,,,,,,,,,,,,,,,,,
,,5f56104edb04a89ea3f12ec6,42,female,2024-04-16_12h28.10.412,stockport_simplified,2022.2.4,Win32,29.94011976,661e456ee6de07e70aa9ef7b,661e511cac52da4490fb11d9,,,,,,,,,,,,,,,,,,,,,,,,,,,,,,,,,,1063.2802,1066.5474,"[6,5,1,4,2,7,8,3]","[[-0.3,0.2],[0.3,0.2]]","[[-0.125,-0.2],[0.125,-0.2]]",-0.099027947,-0.22417983,1,0,0,2.7498,o1_image,1066.5492,1,1067.0291,1067.0292,1069.0471,0,0,0,0,1,,,,,,,,,,,,,,,,,,,,,,,,,,,,,,,,,,,,,,,,,,,,,,,,,,
,,5f56104edb04a89ea3f12ec6,42,female,2024-04-16_12h28.10.412,stockport_simplified,2022.2.4,Win32,29.94011976,661e456ee6de07e70aa9ef7b,661e511cac52da4490fb11d9,,,,,,,,,,,,,,,,,,,,,,,,,,,,,,,,,,,,,,,,,,,,,,,,,,,,,,,,1,33,93,33,1,A,X,N,o1_image,stimuli/out1.png,stimuli/correct_out1.png,stimuli/out2.png,,,,,,,,,,,,,,,,,,,,,,,,,,,,,,,,,,,,,,
,,5f56104edb04a89ea3f12ec6,42,female,2024-04-16_12h28.10.412,stockport_simplified,2022.2.4,Win32,29.94011976,661e456ee6de07e70aa9ef7b,661e511cac52da4490fb11d9,,,,,,,,,,,,,,,,,,,,,,,,,,,,,,,,,,1069.0481,1072.3153,"[6,5,1,4,2,7,8,3]","[[0.3,0.2],[-0.3,0.2]]","[[-0.125,-0.2],[0.125,-0.2]]",-0.099027947,-0.22417983,1,0,0,2.7611,o1_image,1072.3172,1,1072.8139,1072.814,1074.796,0,0,0,0,1,,,,,,,,,,,,,,,,,,,,,,,,,,,,,,,,,,,,,,,,,,,,,,,,,,
,,5f56104edb04a89ea3f12ec6,42,female,2024-04-16_12h28.10.412,stockport_simplified,2022.2.4,Win32,29.94011976,661e456ee6de07e70aa9ef7b,661e511cac52da4490fb11d9,,,,,,,,,,,,,,,,,,,,,,,,,,,,,,,,,,,,,,,,,,,,,,,,,,,,,,,,1,34,94,3,1,A,X,N,o1_image,stimuli/out1.png,stimuli/correct_out1.png,stimuli/out2.png,,,,,,,,,,,,,,,,,,,,,,,,,,,,,,,,,,,,,,
,,5f56104edb04a89ea3f12ec6,42,female,2024-04-16_12h28.10.412,stockport_simplified,2022.2.4,Win32,29.94011976,661e456ee6de07e70aa9ef7b,661e511cac52da4490fb11d9,,,,,,,,,,,,,,,,,,,,,,,,,,,,,,,,,,1074.797,1077.965,"[6,5,1,4,2,7,8,3]","[[-0.3,0.2],[0.3,0.2]]","[[0.125,-0.2],[-0.125,-0.2]]",-0.137909974,-0.22417983,1,0,0,2.6516,o2_image,1077.967,1,1078.4806,1078.4807,1080.4628,0,0,0,0,1,,,,,,,,,,,,,,,,,,,,,,,,,,,,,,,,,,,,,,,,,,,,,,,,,,
,,5f56104edb04a89ea3f12ec6,42,female,2024-04-16_12h28.10.412,stockport_simplified,2022.2.4,Win32,29.94011976,661e456ee6de07e70aa9ef7b,661e511cac52da4490fb11d9,,,,,,,,,,,,,,,,,,,,,,,,,,,,,,,,,,,,,,,,,,,,,,,,,,,,,,,,1,35,95,42,1,B,X,N,o2_image,stimuli/out2.png,stimuli/out1.png,stimuli/correct_out2.png,,,,,,,,,,,,,,,,,,,,,,,,,,,,,,,,,,,,,,
,,5f56104edb04a89ea3f12ec6,42,female,2024-04-16_12h28.10.412,stockport_simplified,2022.2.4,Win32,29.94011976,661e456ee6de07e70aa9ef7b,661e511cac52da4490fb11d9,,,,,,,,,,,,,,,,,,,,,,,,,,,,,,,,,,1080.4639,1082.2799,"[6,5,1,4,2,7,8,3]","[[0.3,0.2],[-0.3,0.2]]","[[-0.125,-0.2],[0.125,-0.2]]",-0.137909974,-0.22417983,1,0,0,1.282,o1_image,1082.2817,0,1082.7834,1082.7835,1084.7799,0,0,0,0,1,,,,,,,,,,,,,,,,,,,,,,,,,,,,,,,,,,,,,,,,,,,,,,,,,,
,,5f56104edb04a89ea3f12ec6,42,female,2024-04-16_12h28.10.412,stockport_simplified,2022.2.4,Win32,29.94011976,661e456ee6de07e70aa9ef7b,661e511cac52da4490fb11d9,,,,,,,,,,,,,,,,,,,,,,,,,,,,,,,,,,,,,,,,,,,,,,,,,,,,,,,,1,36,96,18,1,B,Y,N,o2_image,stimuli/out2.png,stimuli/out1.png,stimuli/correct_out2.png,,,,,,,,,,,,,,,,,,,,,,,,,,,,,,,,,,,,,,
,,5f56104edb04a89ea3f12ec6,42,female,2024-04-16_12h28.10.412,stockport_simplified,2022.2.4,Win32,29.94011976,661e456ee6de07e70aa9ef7b,661e511cac52da4490fb11d9,,,,,,,,,,,,,,,,,,,,,,,,,,,,,,,,,,1084.7809,1089.5521,"[6,5,1,4,2,7,8,3]","[[0.3,0.2],[-0.3,0.2]]","[[-0.125,-0.2],[0.125,-0.2]]",-0.137909974,-0.22417983,1,0,0,4.2697,o1_image,1089.585,1,1090.0907,1090.0908,1092.0944,0,0,0,0,1,,,,,,,,,,,,,,,,,,,,,,,,,,,,,,,,,,,,,,,,,,,,,,,,,,
,,5f56104edb04a89ea3f12ec6,42,female,2024-04-16_12h28.10.412,stockport_simplified,2022.2.4,Win32,29.94011976,661e456ee6de07e70aa9ef7b,661e511cac52da4490fb11d9,,,,,,,,,,,,,,,,,,,,,,,,,,,,,,,,,,,,,,,,,,,,,,,,,,,,,,,,1,37,97,35,1,A,Y,N,o1_image,stimuli/out1.png,stimuli/correct_out1.png,stimuli/out2.png,,,,,,,,,,,,,,,,,,,,,,,,,,,,,,,,,,,,,,
,,5f56104edb04a89ea3f12ec6,42,female,2024-04-16_12h28.10.412,stockport_simplified,2022.2.4,Win32,29.94011976,661e456ee6de07e70aa9ef7b,661e511cac52da4490fb11d9,,,,,,,,,,,,,,,,,,,,,,,,,,,,,,,,,,1092.0977,1094.4654,"[6,5,1,4,2,7,8,3]","[[-0.3,0.2],[0.3,0.2]]","[[0.125,-0.2],[-0.125,-0.2]]",-0.105971048,-0.206821743,1,0,0,1.8515,o2_image,1094.4673,1,1094.9577,1094.9578,1096.9546,0,0,0,0,1,,,,,,,,,,,,,,,,,,,,,,,,,,,,,,,,,,,,,,,,,,,,,,,,,,
,,5f56104edb04a89ea3f12ec6,42,female,2024-04-16_12h28.10.412,stockport_simplified,2022.2.4,Win32,29.94011976,661e456ee6de07e70aa9ef7b,661e511cac52da4490fb11d9,,,,,,,,,,,,,,,,,,,,,,,,,,,,,,,,,,,,,,,,,,,,,,,,,,,,,,,,1,38,98,47,1,B,Y,N,o2_image,stimuli/out2.png,stimuli/out1.png,stimuli/correct_out2.png,,,,,,,,,,,,,,,,,,,,,,,,,,,,,,,,,,,,,,
,,5f56104edb04a89ea3f12ec6,42,female,2024-04-16_12h28.10.412,stockport_simplified,2022.2.4,Win32,29.94011976,661e456ee6de07e70aa9ef7b,661e511cac52da4490fb11d9,,,,,,,,,,,,,,,,,,,,,,,,,,,,,,,,,,1096.956,1100.0129,"[6,5,1,4,2,7,8,3]","[[0.3,0.2],[-0.3,0.2]]","[[0.125,-0.2],[-0.125,-0.2]]",0.115518341,-0.240149311,1,0,0,2.5298,o1_image,1100.0333,1,1100.5291,1100.5292,1102.5337,0,0,0,0,1,,,,,,,,,,,,,,,,,,,,,,,,,,,,,,,,,,,,,,,,,,,,,,,,,,
,,5f56104edb04a89ea3f12ec6,42,female,2024-04-16_12h28.10.412,stockport_simplified,2022.2.4,Win32,29.94011976,661e456ee6de07e70aa9ef7b,661e511cac52da4490fb11d9,,,,,,,,,,,,,,,,,,,,,,,,,,,,,,,,,,,,,,,,,,,,,,,,,,,,,,,,1,39,99,23,1,N,M,C,o1_image,stimuli/out1.png,stimuli/correct_out1.png,stimuli/out2.png,,,,,,,,,,,,,,,,,,,,,,,,,,,,,,,,,,,,,,
,,5f56104edb04a89ea3f12ec6,42,female,2024-04-16_12h28.10.412,stockport_simplified,2022.2.4,Win32,29.94011976,661e456ee6de07e70aa9ef7b,661e511cac52da4490fb11d9,,,,,,,,,,,,,,,,,,,,,,,,,,,,,,,,,,1102.5348,1104.9164,"[6,5,1,4,2,7,8,3]","[[-0.3,0.2],[0.3,0.2]]","[[0.125,-0.2],[-0.125,-0.2]]",0.115518341,-0.240149311,1,0,0,1.8687,o1_image,1104.9186,1,1105.3963,1105.3965,1107.3984,0,0,0,0,1,,,,,,,,,,,,,,,,,,,,,,,,,,,,,,,,,,,,,,,,,,,,,,,,,,
,,5f56104edb04a89ea3f12ec6,42,female,2024-04-16_12h28.10.412,stockport_simplified,2022.2.4,Win32,29.94011976,661e456ee6de07e70aa9ef7b,661e511cac52da4490fb11d9,,,,,,,,,,,,,,,,,,,,,,,,,,,,,,,,,,,,,,,,,,,,,,,,,,,,,,,,1,40,100,7,1,A,Y,N,o1_image,stimuli/out1.png,stimuli/correct_out1.png,stimuli/out2.png,,,,,,,,,,,,,,,,,,,,,,,,,,,,,,,,,,,,,,
,,5f56104edb04a89ea3f12ec6,42,female,2024-04-16_12h28.10.412,stockport_simplified,2022.2.4,Win32,29.94011976,661e456ee6de07e70aa9ef7b,661e511cac52da4490fb11d9,,,,,,,,,,,,,,,,,,,,,,,,,,,,,,,,,,1107.3994,1109.877,"[6,5,1,4,2,7,8,3]","[[-0.3,0.2],[0.3,0.2]]","[[-0.125,-0.2],[0.125,-0.2]]",-0.131661064,-0.183214857,1,0,0,1.962,o1_image,1109.8793,1,1110.368,1110.368,1112.3468,0,0,0,0,1,,,,,,,,,,,,,,,,,,,,,,,,,,,,,,,,,,,,,,,,,,,,,,,,,,
,,5f56104edb04a89ea3f12ec6,42,female,2024-04-16_12h28.10.412,stockport_simplified,2022.2.4,Win32,29.94011976,661e456ee6de07e70aa9ef7b,661e511cac52da4490fb11d9,,,,,,,,,,,,,,,,,,,,,,,,,,,,,,,,,,,,,,,,,,,,,,,,,,,,,,,,1,41,101,31,1,A,X,N,o1_image,stimuli/out1.png,stimuli/correct_out1.png,stimuli/out2.png,,,,,,,,,,,,,,,,,,,,,,,,,,,,,,,,,,,,,,
,,5f56104edb04a89ea3f12ec6,42,female,2024-04-16_12h28.10.412,stockport_simplified,2022.2.4,Win32,29.94011976,661e456ee6de07e70aa9ef7b,661e511cac52da4490fb11d9,,,,,,,,,,,,,,,,,,,,,,,,,,,,,,,,,,1112.3482,1115.47,"[6,5,1,4,2,7,8,3]","[[0.3,0.2],[-0.3,0.2]]","[[0.125,-0.2],[-0.125,-0.2]]",-0.145547637,-0.183909086,1,0,0,2.6197,o2_image,1115.5038,1,1115.9982,1115.9982,1118.0043,0,0,0,0,1,,,,,,,,,,,,,,,,,,,,,,,,,,,,,,,,,,,,,,,,,,,,,,,,,,
,,5f56104edb04a89ea3f12ec6,42,female,2024-04-16_12h28.10.412,stockport_simplified,2022.2.4,Win32,29.94011976,661e456ee6de07e70aa9ef7b,661e511cac52da4490fb11d9,,,,,,,,,,,,,,,,,,,,,,,,,,,,,,,,,,,,,,,,,,,,,,,,,,,,,,,,1,42,102,45,1,B,Y,N,o2_image,stimuli/out2.png,stimuli/out1.png,stimuli/correct_out2.png,,,,,,,,,,,,,,,,,,,,,,,,,,,,,,,,,,,,,,
,,5f56104edb04a89ea3f12ec6,42,female,2024-04-16_12h28.10.412,stockport_simplified,2022.2.4,Win32,29.94011976,661e456ee6de07e70aa9ef7b,661e511cac52da4490fb11d9,,,,,,,,,,,,,,,,,,,,,,,,,,,,,,,,,,1118.0055,1121.3662,"[6,5,1,4,2,7,8,3]","[[-0.3,0.2],[0.3,0.2]]","[[0.125,-0.2],[-0.125,-0.2]]",-0.145547637,-0.183909086,1,0,0,2.8471,o2_image,1121.3683,1,1121.8508,1121.8509,1123.8391,0,0,0,0,1,,,,,,,,,,,,,,,,,,,,,,,,,,,,,,,,,,,,,,,,,,,,,,,,,,
,,5f56104edb04a89ea3f12ec6,42,female,2024-04-16_12h28.10.412,stockport_simplified,2022.2.4,Win32,29.94011976,661e456ee6de07e70aa9ef7b,661e511cac52da4490fb11d9,,,,,,,,,,,,,,,,,,,,,,,,,,,,,,,,,,,,,,,,,,,,,,,,,,,,,,,,1,43,103,13,1,B,X,N,o2_image,stimuli/out2.png,stimuli/out1.png,stimuli/correct_out2.png,,,,,,,,,,,,,,,,,,,,,,,,,,,,,,,,,,,,,,
,,5f56104edb04a89ea3f12ec6,42,female,2024-04-16_12h28.10.412,stockport_simplified,2022.2.4,Win32,29.94011976,661e456ee6de07e70aa9ef7b,661e511cac52da4490fb11d9,,,,,,,,,,,,,,,,,,,,,,,,,,,,,,,,,,1123.8402,1128.2334,"[6,5,1,4,2,7,8,3]","[[-0.3,0.2],[0.3,0.2]]","[[0.125,-0.2],[-0.125,-0.2]]",0.103714675,-0.182520406,1,0,0,3.8849,o1_image,1128.2683,1,1128.7637,1128.7637,1130.7816,0,0,0,0,1,,,,,,,,,,,,,,,,,,,,,,,,,,,,,,,,,,,,,,,,,,,,,,,,,,
,,5f56104edb04a89ea3f12ec6,42,female,2024-04-16_12h28.10.412,stockport_simplified,2022.2.4,Win32,29.94011976,661e456ee6de07e70aa9ef7b,661e511cac52da4490fb11d9,,,,,,,,,,,,,,,,,,,,,,,,,,,,,,,,,,,,,,,,,,,,,,,,,,,,,,,,1,44,104,9,1,A,Y,N,o1_image,stimuli/out1.png,stimuli/correct_out1.png,stimuli/out2.png,,,,,,,,,,,,,,,,,,,,,,,,,,,,,,,,,,,,,,
,,5f56104edb04a89ea3f12ec6,42,female,2024-04-16_12h28.10.412,stockport_simplified,2022.2.4,Win32,29.94011976,661e456ee6de07e70aa9ef7b,661e511cac52da4490fb11d9,,,,,,,,,,,,,,,,,,,,,,,,,,,,,,,,,,1130.7826,1133.2976,"[6,5,1,4,2,7,8,3]","[[0.3,0.2],[-0.3,0.2]]","[[-0.125,-0.2],[0.125,-0.2]]",-0.135827103,-0.179048819,1,0,0,2.0103,o1_image,1133.2988,0,1133.7977,1133.7977,1135.8019,0,0,0,0,1,,,,,,,,,,,,,,,,,,,,,,,,,,,,,,,,,,,,,,,,,,,,,,,,,,
,,5f56104edb04a89ea3f12ec6,42,female,2024-04-16_12h28.10.412,stockport_simplified,2022.2.4,Win32,29.94011976,661e456ee6de07e70aa9ef7b,661e511cac52da4490fb11d9,,,,,,,,,,,,,,,,,,,,,,,,,,,,,,,,,,,,,,,,,,,,,,,,,,,,,,,,1,45,105,28,1,N,M,D,o2_image,stimuli/out2.png,stimuli/out1.png,stimuli/correct_out2.png,,,,,,,,,,,,,,,,,,,,,,,,,,,,,,,,,,,,,,
,,5f56104edb04a89ea3f12ec6,42,female,2024-04-16_12h28.10.412,stockport_simplified,2022.2.4,Win32,29.94011976,661e456ee6de07e70aa9ef7b,661e511cac52da4490fb11d9,,,,,,,,,,,,,,,,,,,,,,,,,,,,,,,,,,1135.803,1137.5832,"[6,5,1,4,2,7,8,3]","[[0.3,0.2],[-0.3,0.2]]","[[0.125,-0.2],[-0.125,-0.2]]",-0.08583575,-0.190852336,1,0,0,1.2662,o2_image,1137.5857,1,1138.0637,1138.0638,1140.0605,0,0,0,0,1,,,,,,,,,,,,,,,,,,,,,,,,,,,,,,,,,,,,,,,,,,,,,,,,,,
,,5f56104edb04a89ea3f12ec6,42,female,2024-04-16_12h28.10.412,stockport_simplified,2022.2.4,Win32,29.94011976,661e456ee6de07e70aa9ef7b,661e511cac52da4490fb11d9,,,,,,,,,,,,,,,,,,,,,,,,,,,,,,,,,,,,,,,,,,,,,,,,,,,,,,,,1,46,106,58,1,N,M,D,o2_image,stimuli/out2.png,stimuli/out1.png,stimuli/correct_out2.png,,,,,,,,,,,,,,,,,,,,,,,,,,,,,,,,,,,,,,
,,5f56104edb04a89ea3f12ec6,42,female,2024-04-16_12h28.10.412,stockport_simplified,2022.2.4,Win32,29.94011976,661e456ee6de07e70aa9ef7b,661e511cac52da4490fb11d9,,,,,,,,,,,,,,,,,,,,,,,,,,,,,,,,,,1140.0616,1142.4334,"[6,5,1,4,2,7,8,3]","[[-0.3,0.2],[0.3,0.2]]","[[-0.125,-0.2],[0.125,-0.2]]",-0.103193837,-0.209599028,1,0,0,1.8598,o1_image,1142.4353,1,1142.9321,1142.9322,1144.9307,0,0,0,0,1,,,,,,,,,,,,,,,,,,,,,,,,,,,,,,,,,,,,,,,,,,,,,,,,,,
,,5f56104edb04a89ea3f12ec6,42,female,2024-04-16_12h28.10.412,stockport_simplified,2022.2.4,Win32,29.94011976,661e456ee6de07e70aa9ef7b,661e511cac52da4490fb11d9,,,,,,,,,,,,,,,,,,,,,,,,,,,,,,,,,,,,,,,,,,,,,,,,,,,,,,,,1,47,107,32,1,A,X,N,o1_image,stimuli/out1.png,stimuli/correct_out1.png,stimuli/out2.png,,,,,,,,,,,,,,,,,,,,,,,,,,,,,,,,,,,,,,
,,5f56104edb04a89ea3f12ec6,42,female,2024-04-16_12h28.10.412,stockport_simplified,2022.2.4,Win32,29.94011976,661e456ee6de07e70aa9ef7b,661e511cac52da4490fb11d9,,,,,,,,,,,,,,,,,,,,,,,,,,,,,,,,,,1144.9316,1146.8935,"[6,5,1,4,2,7,8,3]","[[-0.3,0.2],[0.3,0.2]]","[[-0.125,-0.2],[0.125,-0.2]]",0.094688443,-0.165162319,1,0,0,1.4438,o2_image,1146.8955,1,1147.3987,1147.3988,1149.4038,0,0,0,0,1,,,,,,,,,,,,,,,,,,,,,,,,,,,,,,,,,,,,,,,,,,,,,,,,,,
,,5f56104edb04a89ea3f12ec6,42,female,2024-04-16_12h28.10.412,stockport_simplified,2022.2.4,Win32,29.94011976,661e456ee6de07e70aa9ef7b,661e511cac52da4490fb11d9,,,,,,,,,,,,,,,,,,,,,,,,,,,,,,,,,,,,,,,,,,,,,,,,,,,,,,,,1,48,108,26,1,N,M,D,o2_image,stimuli/out2.png,stimuli/out1.png,stimuli/correct_out2.png,,,,,,,,,,,,,,,,,,,,,,,,,,,,,,,,,,,,,,
,,5f56104edb04a89ea3f12ec6,42,female,2024-04-16_12h28.10.412,stockport_simplified,2022.2.4,Win32,29.94011976,661e456ee6de07e70aa9ef7b,661e511cac52da4490fb11d9,,,,,,,,,,,,,,,,,,,,,,,,,,,,,,,,,,1149.4048,1153.6333,"[6,5,1,4,2,7,8,3]","[[-0.3,0.2],[0.3,0.2]]","[[-0.125,-0.2],[0.125,-0.2]]",-0.149713491,-0.166550999,1,0,0,3.7272,o1_image,1153.6667,1,1154.1823,1154.1824,1156.1729,0,0,0,0,1,,,,,,,,,,,,,,,,,,,,,,,,,,,,,,,,,,,,,,,,,,,,,,,,,,
,,5f56104edb04a89ea3f12ec6,42,female,2024-04-16_12h28.10.412,stockport_simplified,2022.2.4,Win32,29.94011976,661e456ee6de07e70aa9ef7b,661e511cac52da4490fb11d9,,,,,,,,,,,,,,,,,,,,,,,,,,,,,,,,,,,,,,,,,,,,,,,,,,,,,,,,1,49,109,0,1,A,X,N,o1_image,stimuli/out1.png,stimuli/correct_out1.png,stimuli/out2.png,,,,,,,,,,,,,,,,,,,,,,,,,,,,,,,,,,,,,,
,,5f56104edb04a89ea3f12ec6,42,female,2024-04-16_12h28.10.412,stockport_simplified,2022.2.4,Win32,29.94011976,661e456ee6de07e70aa9ef7b,661e511cac52da4490fb11d9,,,,,,,,,,,,,,,,,,,,,,,,,,,,,,,,,,1156.1739,1163.7507,"[6,5,1,4,2,7,8,3]","[[-0.3,0.2],[0.3,0.2]]","[[-0.125,-0.2],[0.125,-0.2]]",-0.149713491,-0.166550999,1,0,0,7.0691,o1_image,1163.7835,0,1164.2823,1164.2823,1166.2688,0,0,0,0,1,,,,,,,,,,,,,,,,,,,,,,,,,,,,,,,,,,,,,,,,,,,,,,,,,,
,,5f56104edb04a89ea3f12ec6,42,female,2024-04-16_12h28.10.412,stockport_simplified,2022.2.4,Win32,29.94011976,661e456ee6de07e70aa9ef7b,661e511cac52da4490fb11d9,,,,,,,,,,,,,,,,,,,,,,,,,,,,,,,,,,,,,,,,,,,,,,,,,,,,,,,,1,50,110,44,1,B,X,N,o2_image,stimuli/out2.png,stimuli/out1.png,stimuli/correct_out2.png,,,,,,,,,,,,,,,,,,,,,,,,,,,,,,,,,,,,,,
,,5f56104edb04a89ea3f12ec6,42,female,2024-04-16_12h28.10.412,stockport_simplified,2022.2.4,Win32,29.94011976,661e456ee6de07e70aa9ef7b,661e511cac52da4490fb11d9,,,,,,,,,,,,,,,,,,,,,,,,,,,,,,,,,,1166.2699,1173.3173,"[6,5,1,4,2,7,8,3]","[[0.3,0.2],[-0.3,0.2]]","[[0.125,-0.2],[-0.125,-0.2]]",0.126627332,-0.197101208,1,0,0,6.5352,o1_image,1173.3502,1,1173.853,1173.8531,1175.8519,0,0,0,0,1,,,,,,,,,,,,,,,,,,,,,,,,,,,,,,,,,,,,,,,,,,,,,,,,,,
,,5f56104edb04a89ea3f12ec6,42,female,2024-04-16_12h28.10.412,stockport_simplified,2022.2.4,Win32,29.94011976,661e456ee6de07e70aa9ef7b,661e511cac52da4490fb11d9,,,,,,,,,,,,,,,,,,,,,,,,,,,,,,,,,,,,,,,,,,,,,,,,,,,,,,,,1,51,111,6,1,A,Y,N,o1_image,stimuli/out1.png,stimuli/correct_out1.png,stimuli/out2.png,,,,,,,,,,,,,,,,,,,,,,,,,,,,,,,,,,,,,,
,,5f56104edb04a89ea3f12ec6,42,female,2024-04-16_12h28.10.412,stockport_simplified,2022.2.4,Win32,29.94011976,661e456ee6de07e70aa9ef7b,661e511cac52da4490fb11d9,,,,,,,,,,,,,,,,,,,,,,,,,,,,,,,,,,1175.853,1181.9673,"[6,5,1,4,2,7,8,3]","[[-0.3,0.2],[0.3,0.2]]","[[0.125,-0.2],[-0.125,-0.2]]",-0.100416552,-0.193629621,1,0,0,5.5958,o2_image,1182.0017,1,1182.4816,1182.4816,1184.4757,0,0,0,0,1,,,,,,,,,,,,,,,,,,,,,,,,,,,,,,,,,,,,,,,,,,,,,,,,,,
,,5f56104edb04a89ea3f12ec6,42,female,2024-04-16_12h28.10.412,stockport_simplified,2022.2.4,Win32,29.94011976,661e456ee6de07e70aa9ef7b,661e511cac52da4490fb11d9,,,,,,,,,,,,,,,,,,,,,,,,,,,,,,,,,,,,,,,,,,,,,,,,,,,,,,,,1,52,112,17,1,B,Y,N,o2_image,stimuli/out2.png,stimuli/out1.png,stimuli/correct_out2.png,,,,,,,,,,,,,,,,,,,,,,,,,,,,,,,,,,,,,,
,,5f56104edb04a89ea3f12ec6,42,female,2024-04-16_12h28.10.412,stockport_simplified,2022.2.4,Win32,29.94011976,661e456ee6de07e70aa9ef7b,661e511cac52da4490fb11d9,,,,,,,,,,,,,,,,,,,,,,,,,,,,,,,,,,1184.4766,1187.2937,"[6,5,1,4,2,7,8,3]","[[0.3,0.2],[-0.3,0.2]]","[[-0.125,-0.2],[0.125,-0.2]]",-0.100416552,-0.193629621,1,0,0,2.3113,o1_image,1187.2955,1,1187.8021,1187.8022,1189.8,0,0,0,0,1,,,,,,,,,,,,,,,,,,,,,,,,,,,,,,,,,,,,,,,,,,,,,,,,,,
,,5f56104edb04a89ea3f12ec6,42,female,2024-04-16_12h28.10.412,stockport_simplified,2022.2.4,Win32,29.94011976,661e456ee6de07e70aa9ef7b,661e511cac52da4490fb11d9,,,,,,,,,,,,,,,,,,,,,,,,,,,,,,,,,,,,,,,,,,,,,,,,,,,,,,,,1,53,113,30,1,A,X,N,o1_image,stimuli/out1.png,stimuli/correct_out1.png,stimuli/out2.png,,,,,,,,,,,,,,,,,,,,,,,,,,,,,,,,,,,,,,
,,5f56104edb04a89ea3f12ec6,42,female,2024-04-16_12h28.10.412,stockport_simplified,2022.2.4,Win32,29.94011976,661e456ee6de07e70aa9ef7b,661e511cac52da4490fb11d9,,,,,,,,,,,,,,,,,,,,,,,,,,,,,,,,,,1189.8009,1191.3746,"[6,5,1,4,2,7,8,3]","[[0.3,0.2],[-0.3,0.2]]","[[-0.125,-0.2],[0.125,-0.2]]",-0.100416552,-0.193629621,1,0,0,1.0571,o1_image,1191.3766,1,1191.8996,1191.8996,1193.902,0,0,0,0,1,,,,,,,,,,,,,,,,,,,,,,,,,,,,,,,,,,,,,,,,,,,,,,,,,,
,,5f56104edb04a89ea3f12ec6,42,female,2024-04-16_12h28.10.412,stockport_simplified,2022.2.4,Win32,29.94011976,661e456ee6de07e70aa9ef7b,661e511cac52da4490fb11d9,,,,,,,,,,,,,,,,,,,,,,,,,,,,,,,,,,,,,,,,,,,,,,,,,,,,,,,,1,54,114,1,1,A,X,N,o1_image,stimuli/out1.png,stimuli/correct_out1.png,stimuli/out2.png,,,,,,,,,,,,,,,,,,,,,,,,,,,,,,,,,,,,,,
,,5f56104edb04a89ea3f12ec6,42,female,2024-04-16_12h28.10.412,stockport_simplified,2022.2.4,Win32,29.94011976,661e456ee6de07e70aa9ef7b,661e511cac52da4490fb11d9,,,,,,,,,,,,,,,,,,,,,,,,,,,,,,,,,,1193.9032,1196.3034,"[6,5,1,4,2,7,8,3]","[[0.3,0.2],[-0.3,0.2]]","[[-0.125,-0.2],[0.125,-0.2]]",0.132182125,-0.181826178,1,0,0,1.8694,o2_image,1196.3051,0,1196.7995,1196.7995,1198.7997,0,0,0,0,1,,,,,,,,,,,,,,,,,,,,,,,,,,,,,,,,,,,,,,,,,,,,,,,,,,
,,5f56104edb04a89ea3f12ec6,42,female,2024-04-16_12h28.10.412,stockport_simplified,2022.2.4,Win32,29.94011976,661e456ee6de07e70aa9ef7b,661e511cac52da4490fb11d9,,,,,,,,,,,,,,,,,,,,,,,,,,,,,,,,,,,,,,,,,,,,,,,,,,,,,,,,1,55,115,50,1,N,M,C,o1_image,stimuli/out1.png,stimuli/correct_out1.png,stimuli/out2.png,,,,,,,,,,,,,,,,,,,,,,,,,,,,,,,,,,,,,,
,,5f56104edb04a89ea3f12ec6,42,female,2024-04-16_12h28.10.412,stockport_simplified,2022.2.4,Win32,29.94011976,661e456ee6de07e70aa9ef7b,661e511cac52da4490fb11d9,,,,,,,,,,,,,,,,,,,,,,,,,,,,,,,,,,1198.8008,1203.854,"[6,5,1,4,2,7,8,3]","[[0.3,0.2],[-0.3,0.2]]","[[0.125,-0.2],[-0.125,-0.2]]",-0.096250513,-0.182520406,1,0,0,4.5391,o2_image,1203.8868,1,1204.3651,1204.3651,1206.3593,0,0,0,0,1,,,,,,,,,,,,,,,,,,,,,,,,,,,,,,,,,,,,,,,,,,,,,,,,,,
,,5f56104edb04a89ea3f12ec6,42,female,2024-04-16_12h28.10.412,stockport_simplified,2022.2.4,Win32,29.94011976,661e456ee6de07e70aa9ef7b,661e511cac52da4490fb11d9,,,,,,,,,,,,,,,,,,,,,,,,,,,,,,,,,,,,,,,,,,,,,,,,,,,,,,,,1,56,116,16,1,B,Y,N,o2_image,stimuli/out2.png,stimuli/out1.png,stimuli/correct_out2.png,,,,,,,,,,,,,,,,,,,,,,,,,,,,,,,,,,,,,,
,,5f56104edb04a89ea3f12ec6,42,female,2024-04-16_12h28.10.412,stockport_simplified,2022.2.4,Win32,29.94011976,661e456ee6de07e70aa9ef7b,661e511cac52da4490fb11d9,,,,,,,,,,,,,,,,,,,,,,,,,,,,,,,,,,1206.3604,1208.7152,"[6,5,1,4,2,7,8,3]","[[-0.3,0.2],[0.3,0.2]]","[[-0.125,-0.2],[0.125,-0.2]]",0.187728048,-0.182520406,1,0,0,1.8378,o2_image,1208.7492,1,1209.2666,1209.2667,1211.2549,0,0,0,0,1,,,,,,,,,,,,,,,,,,,,,,,,,,,,,,,,,,,,,,,,,,,,,,,,,,
,,5f56104edb04a89ea3f12ec6,42,female,2024-04-16_12h28.10.412,stockport_simplified,2022.2.4,Win32,29.94011976,661e456ee6de07e70aa9ef7b,661e511cac52da4490fb11d9,,,,,,,,,,,,,,,,,,,,,,,,,,,,,,,,,,,,,,,,,,,,,,,,,,,,,,,,1,57,117,27,1,N,M,D,o2_image,stimuli/out2.png,stimuli/out1.png,stimuli/correct_out2.png,,,,,,,,,,,,,,,,,,,,,,,,,,,,,,,,,,,,,,
,,5f56104edb04a89ea3f12ec6,42,female,2024-04-16_12h28.10.412,stockport_simplified,2022.2.4,Win32,29.94011976,661e456ee6de07e70aa9ef7b,661e511cac52da4490fb11d9,,,,,,,,,,,,,,,,,,,,,,,,,,,,,,,,,,1211.2561,1219.9168,"[6,5,1,4,2,7,8,3]","[[-0.3,0.2],[0.3,0.2]]","[[0.125,-0.2],[-0.125,-0.2]]",-0.099027947,-0.177660139,1,0,0,8.1496,o2_image,1219.9516,1,1220.4539,1220.4541,1222.453,0,0,0,0,1,,,,,,,,,,,,,,,,,,,,,,,,,,,,,,,,,,,,,,,,,,,,,,,,,,
,,5f56104edb04a89ea3f12ec6,42,female,2024-04-16_12h28.10.412,stockport_simplified,2022.2.4,Win32,29.94011976,661e456ee6de07e70aa9ef7b,661e511cac52da4490fb11d9,,,,,,,,,,,,,,,,,,,,,,,,,,,,,,,,,,,,,,,,,,,,,,,,,,,,,,,,1,58,118,57,1,N,M,D,o2_image,stimuli/out2.png,stimuli/out1.png,stimuli/correct_out2.png,,,,,,,,,,,,,,,,,,,,,,,,,,,,,,,,,,,,,,
,,5f56104edb04a89ea3f12ec6,42,female,2024-04-16_12h28.10.412,stockport_simplified,2022.2.4,Win32,29.94011976,661e456ee6de07e70aa9ef7b,661e511cac52da4490fb11d9,,,,,,,,,,,,,,,,,,,,,,,,,,,,,,,,,,1222.4542,1227.8349,"[6,5,1,4,2,7,8,3]","[[0.3,0.2],[-0.3,0.2]]","[[0.125,-0.2],[-0.125,-0.2]]",-0.099027947,-0.177660139,1,0,0,4.8661,o2_image,1227.8679,1,1228.3655,1228.3655,1230.3697,0,0,0,0,1,,,,,,,,,,,,,,,,,,,,,,,,,,,,,,,,,,,,,,,,,,,,,,,,,,
,,5f56104edb04a89ea3f12ec6,42,female,2024-04-16_12h28.10.412,stockport_simplified,2022.2.4,Win32,29.94011976,661e456ee6de07e70aa9ef7b,661e511cac52da4490fb11d9,,,,,,,,,,,,,,,,,,,,,,,,,,,,,,,,,,,,,,,,,,,,,,,,,,,,,,,,1,59,119,25,1,N,M,D,o2_image,stimuli/out2.png,stimuli/out1.png,stimuli/correct_out2.png,,,,,,,,,,,,,,,,,,,,,,,,,,,,,,,,,,,,,,
,,5f56104edb04a89ea3f12ec6,42,female,2024-04-16_12h28.10.412,stockport_simplified,2022.2.4,Win32,29.94011976,661e456ee6de07e70aa9ef7b,661e511cac52da4490fb11d9,,,,,,,,,,,,,,,,,,,,,,,,,,,,,,,,,,1230.4188,1232.7736,"[6,5,1,4,2,7,8,3]","[[0.3,0.2],[-0.3,0.2]]","[[-0.125,-0.2],[0.125,-0.2]]",0.144679944,-0.19640698,1,0,0,1.8375,o2_image,1232.776,1,1233.2528,1233.2533,1235.239,,,,,,,,,,,,,,,,,,0,0,0,0,1,,,,,,,,,,,,,,,,,,,,,,,,,,,,,,,,,
,,5f56104edb04a89ea3f12ec6,42,female,2024-04-16_12h28.10.412,stockport_simplified,2022.2.4,Win32,29.94011976,661e456ee6de07e70aa9ef7b,661e511cac52da4490fb11d9,,,,,,,,,,,,,,,,,,,,,,,,,,,,,,,,,,,,,,,,,,,,,,,,,,,,,,,,,,,,,N,M,D,o2_image,stimuli/out2.png,stimuli/out1.png,stimuli/correct_out2.png,,,,,,0,0,0,56,1,,,,,,,,,,,,,,,,,,,,,,,,,,,,
,,5f56104edb04a89ea3f12ec6,42,female,2024-04-16_12h28.10.412,stockport_simplified,2022.2.4,Win32,29.94011976,661e456ee6de07e70aa9ef7b,661e511cac52da4490fb11d9,,,,,,,,,,,,,,,,,,,,,,,,,,,,,,,,,,1235.2415,1242.4355,"[6,5,1,4,2,7,8,3]","[[0.3,0.2],[-0.3,0.2]]","[[-0.125,-0.2],[0.125,-0.2]]",-0.12055185,-0.192935392,1,0,0,6.6847,o1_image,1242.4695,1,1242.949,1242.9491,1244.9158,,,,,,,,,,,,,,,,,,0,0,0,0,1,,,,,,,,,,,,,,,,,,,,,,,,,,,,,,,,,
,,5f56104edb04a89ea3f12ec6,42,female,2024-04-16_12h28.10.412,stockport_simplified,2022.2.4,Win32,29.94011976,661e456ee6de07e70aa9ef7b,661e511cac52da4490fb11d9,,,,,,,,,,,,,,,,,,,,,,,,,,,,,,,,,,,,,,,,,,,,,,,,,,,,,,,,,,,,,A,Y,N,o1_image,stimuli/out1.png,stimuli/correct_out1.png,stimuli/out2.png,,,,,,0,1,1,18,1,,,,,,,,,,,,,,,,,,,,,,,,,,,,
,,5f56104edb04a89ea3f12ec6,42,female,2024-04-16_12h28.10.412,stockport_simplified,2022.2.4,Win32,29.94011976,661e456ee6de07e70aa9ef7b,661e511cac52da4490fb11d9,,,,,,,,,,,,,,,,,,,,,,,,,,,,,,,,,,1244.9171,1247.771,"[6,5,1,4,2,7,8,3]","[[-0.3,0.2],[0.3,0.2]]","[[0.125,-0.2],[-0.125,-0.2]]",-0.12055185,-0.192935392,1,0,0,2.3482,o2_image,1247.8039,1,1248.2818,1248.2819,1250.284,,,,,,,,,,,,,,,,,,0,0,0,0,1,,,,,,,,,,,,,,,,,,,,,,,,,,,,,,,,,
,,5f56104edb04a89ea3f12ec6,42,female,2024-04-16_12h28.10.412,stockport_simplified,2022.2.4,Win32,29.94011976,661e456ee6de07e70aa9ef7b,661e511cac52da4490fb11d9,,,,,,,,,,,,,,,,,,,,,,,,,,,,,,,,,,,,,,,,,,,,,,,,,,,,,,,,,,,,,B,Y,N,o2_image,stimuli/out2.png,stimuli/out1.png,stimuli/correct_out2.png,,,,,,0,2,2,31,1,,,,,,,,,,,,,,,,,,,,,,,,,,,,
,,5f56104edb04a89ea3f12ec6,42,female,2024-04-16_12h28.10.412,stockport_simplified,2022.2.4,Win32,29.94011976,661e456ee6de07e70aa9ef7b,661e511cac52da4490fb11d9,,,,,,,,,,,,,,,,,,,,,,,,,,,,,,,,,,1250.285,1256.3184,"[6,5,1,4,2,7,8,3]","[[0.3,0.2],[-0.3,0.2]]","[[-0.125,-0.2],[0.125,-0.2]]",-0.12055185,-0.192935392,1,0,0,5.5302,o1_image,1256.3513,1,1256.8582,1256.8583,1258.8679,,,,,,,,,,,,,,,,,,0,0,0,0,1,,,,,,,,,,,,,,,,,,,,,,,,,,,,,,,,,
