counterbalance_2.started,counterbalance_2.stopped,participant,age,gender,date,expName,psychopyVersion,OS,frameRate,STUDY_ID,SESSION_ID,information_2.started,information_2.stopped,information_loop.thisRepN,information_loop.thisTrialN,information_loop.thisN,information_loop.thisIndex,information_loop.ran,information,consent_2.started,consent_2.stopped,slider_1.response,slider_2.response,slider_3.response,slider_4.response,slider_5.response,slider_6.response,instructions.started,instructions.stopped,task1_instr.thisRepN,task1_instr.thisTrialN,task1_instr.thisN,task1_instr.thisIndex,task1_instr.ran,task1,comprehension1_2.started,comprehension1_2.stopped,comp1_mouse.x,comp1_mouse.y,comp1_mouse.leftButton,comp1_mouse.midButton,comp1_mouse.rightButton,comp1_mouse.time,comp1_mouse.clicked_name,cue_o__trial_2.started,cue_o__trial_2.stopped,order,cue_order,out_order,cue_o_mouse.x,cue_o_mouse.y,cue_o_mouse.leftButton,cue_o_mouse.midButton,cue_o_mouse.rightButton,cue_o_mouse.time,cue_o_mouse.clicked_name,cue_selection_2.started,correct_answer,cue_selection_2.stopped,feedback_2.started,feedback_2.stopped,feedback_loop.thisRepN,feedback_loop.thisTrialN,feedback_loop.thisN,feedback_loop.thisIndex,feedback_loop.ran,stage1_trials.thisRepN,stage1_trials.thisTrialN,stage1_trials.thisN,stage1_trials.thisIndex,stage1_trials.ran,cue1,cue2,cue3,outcome,correct_out,o1_feedback,o2_feedback,stage2_feedback_loop.thisRepN,stage2_feedback_loop.thisTrialN,stage2_feedback_loop.thisN,stage2_feedback_loop.thisIndex,stage2_feedback_loop.ran,stage2_trials.thisRepN,stage2_trials.thisTrialN,stage2_trials.thisN,stage2_trials.thisIndex,stage2_trials.ran,stage3_feedback_loop.thisRepN,stage3_feedback_loop.thisTrialN,stage3_feedback_loop.thisN,stage3_feedback_loop.thisIndex,stage3_feedback_loop.ran,stage3_trials.thisRepN,stage3_trials.thisTrialN,stage3_trials.thisN,stage3_trials.thisIndex,stage3_trials.ran,debrief_2.started,debrief_2.stopped,debrief_loop.thisRepN,debrief_loop.thisTrialN,debrief_loop.thisN,debrief_loop.thisIndex,debrief_loop.ran,debrief_img,compr1_completed.thisRepN,compr1_completed.thisTrialN,compr1_completed.thisN,compr1_completed.thisIndex,compr1_completed.ran,consent_loop.thisRepN,consent_loop.thisTrialN,consent_loop.thisN,consent_loop.thisIndex,consent_loop.ran
0.0005,0.0011,5bf077d95fc1db0001305dd4,36,male,2024-04-16_11h21.26.971,stockport_simplified,2022.2.4,MacIntel,30.03003003,661e456ee6de07e70aa9ef7b,661e5114e993ed2a8dd64f4b,,,,,,,,,,,,,,,,,,,,,,,,,,,,,,,,,,,,,,,,,,,,,,,,,,,,,,,,,,,,,,,,,,,,,,,,,,,,,,,,,,,,,,,,,,,,,,,,,,,,,,,,,
,,5bf077d95fc1db0001305dd4,36,male,2024-04-16_11h21.26.971,stockport_simplified,2022.2.4,MacIntel,30.03003003,661e456ee6de07e70aa9ef7b,661e5114e993ed2a8dd64f4b,0.0144,1.4305,0,0,0,0,1,instructions/info1.png,,,,,,,,,,,,,,,,,,,,,,,,,,,,,,,,,,,,,,,,,,,,,,,,,,,,,,,,,,,,,,,,,,,,,,,,,,,,,,,,,,,,,,,,,,,,,,,,,
,,5bf077d95fc1db0001305dd4,36,male,2024-04-16_11h21.26.971,stockport_simplified,2022.2.4,MacIntel,30.03003003,661e456ee6de07e70aa9ef7b,661e5114e993ed2a8dd64f4b,1.4317,2.43,0,1,1,1,1,instructions/info2.png,,,,,,,,,,,,,,,,,,,,,,,,,,,,,,,,,,,,,,,,,,,,,,,,,,,,,,,,,,,,,,,,,,,,,,,,,,,,,,,,,,,,,,,,,,,,,,,,,
,,5bf077d95fc1db0001305dd4,36,male,2024-04-16_11h21.26.971,stockport_simplified,2022.2.4,MacIntel,30.03003003,661e456ee6de07e70aa9ef7b,661e5114e993ed2a8dd64f4b,2.4311,3.8965,0,2,2,2,1,instructions/info3.png,,,,,,,,,,,,,,,,,,,,,,,,,,,,,,,,,,,,,,,,,,,,,,,,,,,,,,,,,,,,,,,,,,,,,,,,,,,,,,,,,,,,,,,,,,,,,,,,,
,,5bf077d95fc1db0001305dd4,36,male,2024-04-16_11h21.26.971,stockport_simplified,2022.2.4,MacIntel,30.03003003,661e456ee6de07e70aa9ef7b,661e5114e993ed2a8dd64f4b,,,,,,,,,3.897,15.4976,1,1,1,1,1,1,,,,,,,,,,,,,,,,,,,,,,,,,,,,,,,,,,,,,,,,,,,,,,,,,,,,,,,,,,,,,,,,,,,,,,,,,,,,,,,,,,,,,,,,,
,,5bf077d95fc1db0001305dd4,36,male,2024-04-16_11h21.26.971,stockport_simplified,2022.2.4,MacIntel,30.03003003,661e456ee6de07e70aa9ef7b,661e5114e993ed2a8dd64f4b,,,,,,,,,,,,,,,,,15.5048,31.9305,0,0,0,0,1,instructions/task1_1.png,,,,,,,,,,,,,,,,,,,,,,,,,,,,,,,,,,,,,,,,,,,,,,,,,,,,,,,,,,,,,,,,,,,,,,,,,,,,,,,,,
,,5bf077d95fc1db0001305dd4,36,male,2024-04-16_11h21.26.971,stockport_simplified,2022.2.4,MacIntel,30.03003003,661e456ee6de07e70aa9ef7b,661e5114e993ed2a8dd64f4b,,,,,,,,,,,,,,,,,31.9319,43.2305,0,1,1,1,1,instructions/task1_2.png,,,,,,,,,,,,,,,,,,,,,,,,,,,,,,,,,,,,,,,,,,,,,,,,,,,,,,,,,,,,,,,,,,,,,,,,,,,,,,,,,
,,5bf077d95fc1db0001305dd4,36,male,2024-04-16_11h21.26.971,stockport_simplified,2022.2.4,MacIntel,30.03003003,661e456ee6de07e70aa9ef7b,661e5114e993ed2a8dd64f4b,,,,,,,,,,,,,,,,,43.2318,52.4971,0,2,2,2,1,instructions/task1_3.png,,,,,,,,,,,,,,,,,,,,,,,,,,,,,,,,,,,,,,,,,,,,,,,,,,,,,,,,,,,,,,,,,,,,,,,,,,,,,,,,,
,,5bf077d95fc1db0001305dd4,36,male,2024-04-16_11h21.26.971,stockport_simplified,2022.2.4,MacIntel,30.03003003,661e456ee6de07e70aa9ef7b,661e5114e993ed2a8dd64f4b,,,,,,,,,,,,,,,,,,,,,,,,,52.4988,67.6331,-0.226480035,0.221740451,1,0,0,2.7312,comp1_resp1,67.6611,71.8312,"[2,3,7,6,1,4,5,8]","[[-0.3,0.2],[0.3,0.2]]","[[-0.125,-0.2],[0.125,-0.2]]",0.113090278,-0.223042535,1,0,0,3.6657,o2_image,71.845,1,72.3301,72.3302,74.3302,0,0,0,0,1,,,,,,,,,,,,,,,,,,,,,,,,,,,,,,,,,,,,,,,,,,,,,,,,,,
,,5bf077d95fc1db0001305dd4,36,male,2024-04-16_11h21.26.971,stockport_simplified,2022.2.4,MacIntel,30.03003003,661e456ee6de07e70aa9ef7b,661e5114e993ed2a8dd64f4b,,,,,,,,,,,,,,,,,,,,,,,,,,,,,,,,,,,,,,,,,,,,,,,,,,,,,,,,0,0,0,16,1,B,Y,N,o2_image,stimuli/out2.png,stimuli/out1.png,stimuli/correct_out2.png,,,,,,,,,,,,,,,,,,,,,,,,,,,,,,,,,,,,,,
,,5bf077d95fc1db0001305dd4,36,male,2024-04-16_11h21.26.971,stockport_simplified,2022.2.4,MacIntel,30.03003003,661e456ee6de07e70aa9ef7b,661e5114e993ed2a8dd64f4b,,,,,,,,,,,,,,,,,,,,,,,,,,,,,,,,,,74.3307,76.2972,"[2,3,7,6,1,4,5,8]","[[-0.3,0.2],[0.3,0.2]]","[[0.125,-0.2],[-0.125,-0.2]]",0.113090278,-0.223042535,1,0,0,1.4319,o1_image,76.2982,1,76.7972,76.7972,78.7971,0,0,0,0,1,,,,,,,,,,,,,,,,,,,,,,,,,,,,,,,,,,,,,,,,,,,,,,,,,,
,,5bf077d95fc1db0001305dd4,36,male,2024-04-16_11h21.26.971,stockport_simplified,2022.2.4,MacIntel,30.03003003,661e456ee6de07e70aa9ef7b,661e5114e993ed2a8dd64f4b,,,,,,,,,,,,,,,,,,,,,,,,,,,,,,,,,,,,,,,,,,,,,,,,,,,,,,,,0,1,1,4,1,A,X,N,o1_image,stimuli/out1.png,stimuli/correct_out1.png,stimuli/out2.png,,,,,,,,,,,,,,,,,,,,,,,,,,,,,,,,,,,,,,
,,5bf077d95fc1db0001305dd4,36,male,2024-04-16_11h21.26.971,stockport_simplified,2022.2.4,MacIntel,30.03003003,661e456ee6de07e70aa9ef7b,661e5114e993ed2a8dd64f4b,,,,,,,,,,,,,,,,,,,,,,,,,,,,,,,,,,78.7979,81.0639,"[2,3,7,6,1,4,5,8]","[[0.3,0.2],[-0.3,0.2]]","[[0.125,-0.2],[-0.125,-0.2]]",0.113090278,-0.223042535,1,0,0,1.7329,o1_image,81.0649,1,81.5636,81.5636,83.5639,0,0,0,0,1,,,,,,,,,,,,,,,,,,,,,,,,,,,,,,,,,,,,,,,,,,,,,,,,,,
,,5bf077d95fc1db0001305dd4,36,male,2024-04-16_11h21.26.971,stockport_simplified,2022.2.4,MacIntel,30.03003003,661e456ee6de07e70aa9ef7b,661e5114e993ed2a8dd64f4b,,,,,,,,,,,,,,,,,,,,,,,,,,,,,,,,,,,,,,,,,,,,,,,,,,,,,,,,0,2,2,7,1,A,Y,N,o1_image,stimuli/out1.png,stimuli/correct_out1.png,stimuli/out2.png,,,,,,,,,,,,,,,,,,,,,,,,,,,,,,,,,,,,,,
,,5bf077d95fc1db0001305dd4,36,male,2024-04-16_11h21.26.971,stockport_simplified,2022.2.4,MacIntel,30.03003003,661e456ee6de07e70aa9ef7b,661e5114e993ed2a8dd64f4b,,,,,,,,,,,,,,,,,,,,,,,,,,,,,,,,,,83.5646,85.4971,"[2,3,7,6,1,4,5,8]","[[0.3,0.2],[-0.3,0.2]]","[[-0.125,-0.2],[0.125,-0.2]]",0.113090278,-0.223042535,1,0,0,1.399,o2_image,85.4983,0,85.9972,85.9972,87.9972,0,0,0,0,1,,,,,,,,,,,,,,,,,,,,,,,,,,,,,,,,,,,,,,,,,,,,,,,,,,
,,5bf077d95fc1db0001305dd4,36,male,2024-04-16_11h21.26.971,stockport_simplified,2022.2.4,MacIntel,30.03003003,661e456ee6de07e70aa9ef7b,661e5114e993ed2a8dd64f4b,,,,,,,,,,,,,,,,,,,,,,,,,,,,,,,,,,,,,,,,,,,,,,,,,,,,,,,,0,3,3,24,1,N,M,C,o1_image,stimuli/out1.png,stimuli/correct_out1.png,stimuli/out2.png,,,,,,,,,,,,,,,,,,,,,,,,,,,,,,,,,,,,,,
,,5bf077d95fc1db0001305dd4,36,male,2024-04-16_11h21.26.971,stockport_simplified,2022.2.4,MacIntel,30.03003003,661e456ee6de07e70aa9ef7b,661e5114e993ed2a8dd64f4b,,,,,,,,,,,,,,,,,,,,,,,,,,,,,,,,,,87.998,91.2632,"[2,3,7,6,1,4,5,8]","[[-0.3,0.2],[0.3,0.2]]","[[0.125,-0.2],[-0.125,-0.2]]",-0.088064236,-0.251575521,1,0,0,2.732,o2_image,91.2638,1,91.7639,91.764,93.764,0,0,0,0,1,,,,,,,,,,,,,,,,,,,,,,,,,,,,,,,,,,,,,,,,,,,,,,,,,,
,,5bf077d95fc1db0001305dd4,36,male,2024-04-16_11h21.26.971,stockport_simplified,2022.2.4,MacIntel,30.03003003,661e456ee6de07e70aa9ef7b,661e5114e993ed2a8dd64f4b,,,,,,,,,,,,,,,,,,,,,,,,,,,,,,,,,,,,,,,,,,,,,,,,,,,,,,,,0,4,4,46,1,B,Y,N,o2_image,stimuli/out2.png,stimuli/out1.png,stimuli/correct_out2.png,,,,,,,,,,,,,,,,,,,,,,,,,,,,,,,,,,,,,,
,,5bf077d95fc1db0001305dd4,36,male,2024-04-16_11h21.26.971,stockport_simplified,2022.2.4,MacIntel,30.03003003,661e456ee6de07e70aa9ef7b,661e5114e993ed2a8dd64f4b,,,,,,,,,,,,,,,,,,,,,,,,,,,,,,,,,,93.7646,95.7306,"[2,3,7,6,1,4,5,8]","[[-0.3,0.2],[0.3,0.2]]","[[-0.125,-0.2],[0.125,-0.2]]",-0.088064236,-0.252131076,1,0,0,1.4328,o1_image,95.7316,1,96.2306,96.2307,98.2307,0,0,0,0,1,,,,,,,,,,,,,,,,,,,,,,,,,,,,,,,,,,,,,,,,,,,,,,,,,,
,,5bf077d95fc1db0001305dd4,36,male,2024-04-16_11h21.26.971,stockport_simplified,2022.2.4,MacIntel,30.03003003,661e456ee6de07e70aa9ef7b,661e5114e993ed2a8dd64f4b,,,,,,,,,,,,,,,,,,,,,,,,,,,,,,,,,,,,,,,,,,,,,,,,,,,,,,,,0,5,5,39,1,A,Y,N,o1_image,stimuli/out1.png,stimuli/correct_out1.png,stimuli/out2.png,,,,,,,,,,,,,,,,,,,,,,,,,,,,,,,,,,,,,,
,,5bf077d95fc1db0001305dd4,36,male,2024-04-16_11h21.26.971,stockport_simplified,2022.2.4,MacIntel,30.03003003,661e456ee6de07e70aa9ef7b,661e5114e993ed2a8dd64f4b,,,,,,,,,,,,,,,,,,,,,,,,,,,,,,,,,,98.2316,100.631,"[2,3,7,6,1,4,5,8]","[[-0.3,0.2],[0.3,0.2]]","[[-0.125,-0.2],[0.125,-0.2]]",-0.098125,-0.249461806,1,0,0,1.8661,o1_image,100.6323,0,101.1307,101.1308,103.1306,0,0,0,0,1,,,,,,,,,,,,,,,,,,,,,,,,,,,,,,,,,,,,,,,,,,,,,,,,,,
,,5bf077d95fc1db0001305dd4,36,male,2024-04-16_11h21.26.971,stockport_simplified,2022.2.4,MacIntel,30.03003003,661e456ee6de07e70aa9ef7b,661e5114e993ed2a8dd64f4b,,,,,,,,,,,,,,,,,,,,,,,,,,,,,,,,,,,,,,,,,,,,,,,,,,,,,,,,0,6,6,40,1,B,X,N,o2_image,stimuli/out2.png,stimuli/out1.png,stimuli/correct_out2.png,,,,,,,,,,,,,,,,,,,,,,,,,,,,,,,,,,,,,,
,,5bf077d95fc1db0001305dd4,36,male,2024-04-16_11h21.26.971,stockport_simplified,2022.2.4,MacIntel,30.03003003,661e456ee6de07e70aa9ef7b,661e5114e993ed2a8dd64f4b,,,,,,,,,,,,,,,,,,,,,,,,,,,,,,,,,,103.1314,105.1307,"[2,3,7,6,1,4,5,8]","[[-0.3,0.2],[0.3,0.2]]","[[-0.125,-0.2],[0.125,-0.2]]",-0.132834201,-0.247178819,1,0,0,1.4669,o1_image,105.1316,0,105.6307,105.6308,107.6307,0,0,0,0,1,,,,,,,,,,,,,,,,,,,,,,,,,,,,,,,,,,,,,,,,,,,,,,,,,,
,,5bf077d95fc1db0001305dd4,36,male,2024-04-16_11h21.26.971,stockport_simplified,2022.2.4,MacIntel,30.03003003,661e456ee6de07e70aa9ef7b,661e5114e993ed2a8dd64f4b,,,,,,,,,,,,,,,,,,,,,,,,,,,,,,,,,,,,,,,,,,,,,,,,,,,,,,,,0,7,7,18,1,B,Y,N,o2_image,stimuli/out2.png,stimuli/out1.png,stimuli/correct_out2.png,,,,,,,,,,,,,,,,,,,,,,,,,,,,,,,,,,,,,,
,,5bf077d95fc1db0001305dd4,36,male,2024-04-16_11h21.26.971,stockport_simplified,2022.2.4,MacIntel,30.03003003,661e456ee6de07e70aa9ef7b,661e5114e993ed2a8dd64f4b,,,,,,,,,,,,,,,,,,,,,,,,,,,,,,,,,,107.6314,109.5641,"[2,3,7,6,1,4,5,8]","[[0.3,0.2],[-0.3,0.2]]","[[-0.125,-0.2],[0.125,-0.2]]",-0.123845486,-0.245529514,1,0,0,1.399,o1_image,109.565,0,110.0639,110.064,112.0633,0,0,0,0,1,,,,,,,,,,,,,,,,,,,,,,,,,,,,,,,,,,,,,,,,,,,,,,,,,,
,,5bf077d95fc1db0001305dd4,36,male,2024-04-16_11h21.26.971,stockport_simplified,2022.2.4,MacIntel,30.03003003,661e456ee6de07e70aa9ef7b,661e5114e993ed2a8dd64f4b,,,,,,,,,,,,,,,,,,,,,,,,,,,,,,,,,,,,,,,,,,,,,,,,,,,,,,,,0,8,8,58,1,N,M,D,o2_image,stimuli/out2.png,stimuli/out1.png,stimuli/correct_out2.png,,,,,,,,,,,,,,,,,,,,,,,,,,,,,,,,,,,,,,
,,5bf077d95fc1db0001305dd4,36,male,2024-04-16_11h21.26.971,stockport_simplified,2022.2.4,MacIntel,30.03003003,661e456ee6de07e70aa9ef7b,661e5114e993ed2a8dd64f4b,,,,,,,,,,,,,,,,,,,,,,,,,,,,,,,,,,112.0641,115.1971,"[2,3,7,6,1,4,5,8]","[[-0.3,0.2],[0.3,0.2]]","[[-0.125,-0.2],[0.125,-0.2]]",0.024348958,-0.217556424,1,0,0,2.1329,o2_image,115.1977,1,115.6973,115.6973,117.6973,0,0,0,0,1,,,,,,,,,,,,,,,,,,,,,,,,,,,,,,,,,,,,,,,,,,,,,,,,,,
,,5bf077d95fc1db0001305dd4,36,male,2024-04-16_11h21.26.971,stockport_simplified,2022.2.4,MacIntel,30.03003003,661e456ee6de07e70aa9ef7b,661e5114e993ed2a8dd64f4b,,,,,,,,,,,,,,,,,,,,,,,,,,,,,,,,,,,,,,,,,,,,,,,,,,,,,,,,0,9,9,11,1,B,X,N,o2_image,stimuli/out2.png,stimuli/out1.png,stimuli/correct_out2.png,,,,,,,,,,,,,,,,,,,,,,,,,,,,,,,,,,,,,,
,,5bf077d95fc1db0001305dd4,36,male,2024-04-16_11h21.26.971,stockport_simplified,2022.2.4,MacIntel,30.03003003,661e456ee6de07e70aa9ef7b,661e5114e993ed2a8dd64f4b,,,,,,,,,,,,,,,,,,,,,,,,,,,,,,,,,,117.698,119.7643,"[2,3,7,6,1,4,5,8]","[[-0.3,0.2],[0.3,0.2]]","[[-0.125,-0.2],[0.125,-0.2]]",0.166796875,-0.192200521,1,0,0,1.5334,o2_image,119.7655,1,120.2641,120.2641,122.2641,0,0,0,0,1,,,,,,,,,,,,,,,,,,,,,,,,,,,,,,,,,,,,,,,,,,,,,,,,,,
,,5bf077d95fc1db0001305dd4,36,male,2024-04-16_11h21.26.971,stockport_simplified,2022.2.4,MacIntel,30.03003003,661e456ee6de07e70aa9ef7b,661e5114e993ed2a8dd64f4b,,,,,,,,,,,,,,,,,,,,,,,,,,,,,,,,,,,,,,,,,,,,,,,,,,,,,,,,0,10,10,42,1,B,X,N,o2_image,stimuli/out2.png,stimuli/out1.png,stimuli/correct_out2.png,,,,,,,,,,,,,,,,,,,,,,,,,,,,,,,,,,,,,,
,,5bf077d95fc1db0001305dd4,36,male,2024-04-16_11h21.26.971,stockport_simplified,2022.2.4,MacIntel,30.03003003,661e456ee6de07e70aa9ef7b,661e5114e993ed2a8dd64f4b,,,,,,,,,,,,,,,,,,,,,,,,,,,,,,,,,,122.2648,124.3643,"[2,3,7,6,1,4,5,8]","[[0.3,0.2],[-0.3,0.2]]","[[0.125,-0.2],[-0.125,-0.2]]",0.110928819,-0.182335069,1,0,0,1.5661,o1_image,124.3651,0,124.864,124.8641,126.8641,0,0,0,0,1,,,,,,,,,,,,,,,,,,,,,,,,,,,,,,,,,,,,,,,,,,,,,,,,,,
,,5bf077d95fc1db0001305dd4,36,male,2024-04-16_11h21.26.971,stockport_simplified,2022.2.4,MacIntel,30.03003003,661e456ee6de07e70aa9ef7b,661e5114e993ed2a8dd64f4b,,,,,,,,,,,,,,,,,,,,,,,,,,,,,,,,,,,,,,,,,,,,,,,,,,,,,,,,0,11,11,47,1,B,Y,N,o2_image,stimuli/out2.png,stimuli/out1.png,stimuli/correct_out2.png,,,,,,,,,,,,,,,,,,,,,,,,,,,,,,,,,,,,,,
,,5bf077d95fc1db0001305dd4,36,male,2024-04-16_11h21.26.971,stockport_simplified,2022.2.4,MacIntel,30.03003003,661e456ee6de07e70aa9ef7b,661e5114e993ed2a8dd64f4b,,,,,,,,,,,,,,,,,,,,,,,,,,,,,,,,,,126.8647,128.5641,"[2,3,7,6,1,4,5,8]","[[0.3,0.2],[-0.3,0.2]]","[[-0.125,-0.2],[0.125,-0.2]]",-0.118524306,-0.212838542,1,0,0,1.1651,o1_image,128.5653,1,129.0641,129.0642,131.0633,0,0,0,0,1,,,,,,,,,,,,,,,,,,,,,,,,,,,,,,,,,,,,,,,,,,,,,,,,,,
,,5bf077d95fc1db0001305dd4,36,male,2024-04-16_11h21.26.971,stockport_simplified,2022.2.4,MacIntel,30.03003003,661e456ee6de07e70aa9ef7b,661e5114e993ed2a8dd64f4b,,,,,,,,,,,,,,,,,,,,,,,,,,,,,,,,,,,,,,,,,,,,,,,,,,,,,,,,0,12,12,52,1,N,M,C,o1_image,stimuli/out1.png,stimuli/correct_out1.png,stimuli/out2.png,,,,,,,,,,,,,,,,,,,,,,,,,,,,,,,,,,,,,,
,,5bf077d95fc1db0001305dd4,36,male,2024-04-16_11h21.26.971,stockport_simplified,2022.2.4,MacIntel,30.03003003,661e456ee6de07e70aa9ef7b,661e5114e993ed2a8dd64f4b,,,,,,,,,,,,,,,,,,,,,,,,,,,,,,,,,,131.064,134.6307,"[2,3,7,6,1,4,5,8]","[[-0.3,0.2],[0.3,0.2]]","[[-0.125,-0.2],[0.125,-0.2]]",-0.118524306,-0.212838542,1,0,0,3.0324,o1_image,134.6437,1,135.1308,135.1309,137.1297,0,0,0,0,1,,,,,,,,,,,,,,,,,,,,,,,,,,,,,,,,,,,,,,,,,,,,,,,,,,
,,5bf077d95fc1db0001305dd4,36,male,2024-04-16_11h21.26.971,stockport_simplified,2022.2.4,MacIntel,30.03003003,661e456ee6de07e70aa9ef7b,661e5114e993ed2a8dd64f4b,,,,,,,,,,,,,,,,,,,,,,,,,,,,,,,,,,,,,,,,,,,,,,,,,,,,,,,,0,13,13,8,1,A,Y,N,o1_image,stimuli/out1.png,stimuli/correct_out1.png,stimuli/out2.png,,,,,,,,,,,,,,,,,,,,,,,,,,,,,,,,,,,,,,
,,5bf077d95fc1db0001305dd4,36,male,2024-04-16_11h21.26.971,stockport_simplified,2022.2.4,MacIntel,30.03003003,661e456ee6de07e70aa9ef7b,661e5114e993ed2a8dd64f4b,,,,,,,,,,,,,,,,,,,,,,,,,,,,,,,,,,137.1305,139.5645,"[2,3,7,6,1,4,5,8]","[[0.3,0.2],[-0.3,0.2]]","[[-0.125,-0.2],[0.125,-0.2]]",0.077287326,-0.190295139,1,0,0,1.9329,o2_image,139.5657,1,140.0641,140.0642,142.0632,0,0,0,0,1,,,,,,,,,,,,,,,,,,,,,,,,,,,,,,,,,,,,,,,,,,,,,,,,,,
,,5bf077d95fc1db0001305dd4,36,male,2024-04-16_11h21.26.971,stockport_simplified,2022.2.4,MacIntel,30.03003003,661e456ee6de07e70aa9ef7b,661e5114e993ed2a8dd64f4b,,,,,,,,,,,,,,,,,,,,,,,,,,,,,,,,,,,,,,,,,,,,,,,,,,,,,,,,0,14,14,44,1,B,X,N,o2_image,stimuli/out2.png,stimuli/out1.png,stimuli/correct_out2.png,,,,,,,,,,,,,,,,,,,,,,,,,,,,,,,,,,,,,,
,,5bf077d95fc1db0001305dd4,36,male,2024-04-16_11h21.26.971,stockport_simplified,2022.2.4,MacIntel,30.03003003,661e456ee6de07e70aa9ef7b,661e5114e993ed2a8dd64f4b,,,,,,,,,,,,,,,,,,,,,,,,,,,,,,,,,,142.064,144.0313,"[2,3,7,6,1,4,5,8]","[[-0.3,0.2],[0.3,0.2]]","[[0.125,-0.2],[-0.125,-0.2]]",0.08765625,-0.197144097,1,0,0,1.4329,o1_image,144.0325,0,144.5308,144.5308,146.531,0,0,0,0,1,,,,,,,,,,,,,,,,,,,,,,,,,,,,,,,,,,,,,,,,,,,,,,,,,,
,,5bf077d95fc1db0001305dd4,36,male,2024-04-16_11h21.26.971,stockport_simplified,2022.2.4,MacIntel,30.03003003,661e456ee6de07e70aa9ef7b,661e5114e993ed2a8dd64f4b,,,,,,,,,,,,,,,,,,,,,,,,,,,,,,,,,,,,,,,,,,,,,,,,,,,,,,,,0,15,15,56,1,N,M,D,o2_image,stimuli/out2.png,stimuli/out1.png,stimuli/correct_out2.png,,,,,,,,,,,,,,,,,,,,,,,,,,,,,,,,,,,,,,
,,5bf077d95fc1db0001305dd4,36,male,2024-04-16_11h21.26.971,stockport_simplified,2022.2.4,MacIntel,30.03003003,661e456ee6de07e70aa9ef7b,661e5114e993ed2a8dd64f4b,,,,,,,,,,,,,,,,,,,,,,,,,,,,,,,,,,146.5317,149.031,"[2,3,7,6,1,4,5,8]","[[-0.3,0.2],[0.3,0.2]]","[[-0.125,-0.2],[0.125,-0.2]]",0.100173611,-0.198776042,1,0,0,1.9657,o2_image,149.0321,1,149.5308,149.5309,151.5309,0,0,0,0,1,,,,,,,,,,,,,,,,,,,,,,,,,,,,,,,,,,,,,,,,,,,,,,,,,,
,,5bf077d95fc1db0001305dd4,36,male,2024-04-16_11h21.26.971,stockport_simplified,2022.2.4,MacIntel,30.03003003,661e456ee6de07e70aa9ef7b,661e5114e993ed2a8dd64f4b,,,,,,,,,,,,,,,,,,,,,,,,,,,,,,,,,,,,,,,,,,,,,,,,,,,,,,,,0,16,16,43,1,B,X,N,o2_image,stimuli/out2.png,stimuli/out1.png,stimuli/correct_out2.png,,,,,,,,,,,,,,,,,,,,,,,,,,,,,,,,,,,,,,
,,5bf077d95fc1db0001305dd4,36,male,2024-04-16_11h21.26.971,stockport_simplified,2022.2.4,MacIntel,30.03003003,661e456ee6de07e70aa9ef7b,661e5114e993ed2a8dd64f4b,,,,,,,,,,,,,,,,,,,,,,,,,,,,,,,,,,151.5315,154.8644,"[2,3,7,6,1,4,5,8]","[[-0.3,0.2],[0.3,0.2]]","[[0.125,-0.2],[-0.125,-0.2]]",-0.069114583,-0.21671875,1,0,0,2.7997,o2_image,154.8782,1,155.3642,155.3643,157.3633,0,0,0,0,1,,,,,,,,,,,,,,,,,,,,,,,,,,,,,,,,,,,,,,,,,,,,,,,,,,
,,5bf077d95fc1db0001305dd4,36,male,2024-04-16_11h21.26.971,stockport_simplified,2022.2.4,MacIntel,30.03003003,661e456ee6de07e70aa9ef7b,661e5114e993ed2a8dd64f4b,,,,,,,,,,,,,,,,,,,,,,,,,,,,,,,,,,,,,,,,,,,,,,,,,,,,,,,,0,17,17,15,1,B,Y,N,o2_image,stimuli/out2.png,stimuli/out1.png,stimuli/correct_out2.png,,,,,,,,,,,,,,,,,,,,,,,,,,,,,,,,,,,,,,
,,5bf077d95fc1db0001305dd4,36,male,2024-04-16_11h21.26.971,stockport_simplified,2022.2.4,MacIntel,30.03003003,661e456ee6de07e70aa9ef7b,661e5114e993ed2a8dd64f4b,,,,,,,,,,,,,,,,,,,,,,,,,,,,,,,,,,157.364,159.2641,"[2,3,7,6,1,4,5,8]","[[0.3,0.2],[-0.3,0.2]]","[[-0.125,-0.2],[0.125,-0.2]]",0.09233941,-0.204570312,1,0,0,1.3996,o2_image,159.2646,1,159.7643,159.7644,161.7643,0,0,0,0,1,,,,,,,,,,,,,,,,,,,,,,,,,,,,,,,,,,,,,,,,,,,,,,,,,,
,,5bf077d95fc1db0001305dd4,36,male,2024-04-16_11h21.26.971,stockport_simplified,2022.2.4,MacIntel,30.03003003,661e456ee6de07e70aa9ef7b,661e5114e993ed2a8dd64f4b,,,,,,,,,,,,,,,,,,,,,,,,,,,,,,,,,,,,,,,,,,,,,,,,,,,,,,,,0,18,18,45,1,B,Y,N,o2_image,stimuli/out2.png,stimuli/out1.png,stimuli/correct_out2.png,,,,,,,,,,,,,,,,,,,,,,,,,,,,,,,,,,,,,,
,,5bf077d95fc1db0001305dd4,36,male,2024-04-16_11h21.26.971,stockport_simplified,2022.2.4,MacIntel,30.03003003,661e456ee6de07e70aa9ef7b,661e5114e993ed2a8dd64f4b,,,,,,,,,,,,,,,,,,,,,,,,,,,,,,,,,,161.7651,163.331,"[2,3,7,6,1,4,5,8]","[[-0.3,0.2],[0.3,0.2]]","[[0.125,-0.2],[-0.125,-0.2]]",0.092894965,-0.205125868,1,0,0,1.0327,o1_image,163.3322,0,163.831,163.831,165.8309,0,0,0,0,1,,,,,,,,,,,,,,,,,,,,,,,,,,,,,,,,,,,,,,,,,,,,,,,,,,
,,5bf077d95fc1db0001305dd4,36,male,2024-04-16_11h21.26.971,stockport_simplified,2022.2.4,MacIntel,30.03003003,661e456ee6de07e70aa9ef7b,661e5114e993ed2a8dd64f4b,,,,,,,,,,,,,,,,,,,,,,,,,,,,,,,,,,,,,,,,,,,,,,,,,,,,,,,,0,19,19,27,1,N,M,D,o2_image,stimuli/out2.png,stimuli/out1.png,stimuli/correct_out2.png,,,,,,,,,,,,,,,,,,,,,,,,,,,,,,,,,,,,,,
,,5bf077d95fc1db0001305dd4,36,male,2024-04-16_11h21.26.971,stockport_simplified,2022.2.4,MacIntel,30.03003003,661e456ee6de07e70aa9ef7b,661e5114e993ed2a8dd64f4b,,,,,,,,,,,,,,,,,,,,,,,,,,,,,,,,,,165.8317,167.53,"[2,3,7,6,1,4,5,8]","[[0.3,0.2],[-0.3,0.2]]","[[0.125,-0.2],[-0.125,-0.2]]",0.092894965,-0.205125868,1,0,0,1.1654,o1_image,167.5309,0,168.0309,168.0311,170.0309,0,0,0,0,1,,,,,,,,,,,,,,,,,,,,,,,,,,,,,,,,,,,,,,,,,,,,,,,,,,
,,5bf077d95fc1db0001305dd4,36,male,2024-04-16_11h21.26.971,stockport_simplified,2022.2.4,MacIntel,30.03003003,661e456ee6de07e70aa9ef7b,661e5114e993ed2a8dd64f4b,,,,,,,,,,,,,,,,,,,,,,,,,,,,,,,,,,,,,,,,,,,,,,,,,,,,,,,,0,20,20,25,1,N,M,D,o2_image,stimuli/out2.png,stimuli/out1.png,stimuli/correct_out2.png,,,,,,,,,,,,,,,,,,,,,,,,,,,,,,,,,,,,,,
,,5bf077d95fc1db0001305dd4,36,male,2024-04-16_11h21.26.971,stockport_simplified,2022.2.4,MacIntel,30.03003003,661e456ee6de07e70aa9ef7b,661e5114e993ed2a8dd64f4b,,,,,,,,,,,,,,,,,,,,,,,,,,,,,,,,,,170.0316,173.3985,"[2,3,7,6,1,4,5,8]","[[0.3,0.2],[-0.3,0.2]]","[[0.125,-0.2],[-0.125,-0.2]]",-0.083472222,-0.204626736,1,0,0,2.8334,o2_image,173.3991,1,173.8978,173.8979,175.8989,0,0,0,0,1,,,,,,,,,,,,,,,,,,,,,,,,,,,,,,,,,,,,,,,,,,,,,,,,,,
,,5bf077d95fc1db0001305dd4,36,male,2024-04-16_11h21.26.971,stockport_simplified,2022.2.4,MacIntel,30.03003003,661e456ee6de07e70aa9ef7b,661e5114e993ed2a8dd64f4b,,,,,,,,,,,,,,,,,,,,,,,,,,,,,,,,,,,,,,,,,,,,,,,,,,,,,,,,0,21,21,13,1,B,X,N,o2_image,stimuli/out2.png,stimuli/out1.png,stimuli/correct_out2.png,,,,,,,,,,,,,,,,,,,,,,,,,,,,,,,,,,,,,,
,,5bf077d95fc1db0001305dd4,36,male,2024-04-16_11h21.26.971,stockport_simplified,2022.2.4,MacIntel,30.03003003,661e456ee6de07e70aa9ef7b,661e5114e993ed2a8dd64f4b,,,,,,,,,,,,,,,,,,,,,,,,,,,,,,,,,,175.8992,177.7647,"[2,3,7,6,1,4,5,8]","[[0.3,0.2],[-0.3,0.2]]","[[0.125,-0.2],[-0.125,-0.2]]",0.070321181,-0.184930556,1,0,0,1.3334,o1_image,177.7654,1,178.2645,178.2645,180.2637,0,0,0,0,1,,,,,,,,,,,,,,,,,,,,,,,,,,,,,,,,,,,,,,,,,,,,,,,,,,
,,5bf077d95fc1db0001305dd4,36,male,2024-04-16_11h21.26.971,stockport_simplified,2022.2.4,MacIntel,30.03003003,661e456ee6de07e70aa9ef7b,661e5114e993ed2a8dd64f4b,,,,,,,,,,,,,,,,,,,,,,,,,,,,,,,,,,,,,,,,,,,,,,,,,,,,,,,,0,22,22,3,1,A,X,N,o1_image,stimuli/out1.png,stimuli/correct_out1.png,stimuli/out2.png,,,,,,,,,,,,,,,,,,,,,,,,,,,,,,,,,,,,,,
,,5bf077d95fc1db0001305dd4,36,male,2024-04-16_11h21.26.971,stockport_simplified,2022.2.4,MacIntel,30.03003003,661e456ee6de07e70aa9ef7b,661e5114e993ed2a8dd64f4b,,,,,,,,,,,,,,,,,,,,,,,,,,,,,,,,,,180.2646,182.631,"[2,3,7,6,1,4,5,8]","[[0.3,0.2],[-0.3,0.2]]","[[0.125,-0.2],[-0.125,-0.2]]",0.070876736,-0.185486111,1,0,0,1.8324,o1_image,182.632,1,183.1311,183.1311,185.131,0,0,0,0,1,,,,,,,,,,,,,,,,,,,,,,,,,,,,,,,,,,,,,,,,,,,,,,,,,,
,,5bf077d95fc1db0001305dd4,36,male,2024-04-16_11h21.26.971,stockport_simplified,2022.2.4,MacIntel,30.03003003,661e456ee6de07e70aa9ef7b,661e5114e993ed2a8dd64f4b,,,,,,,,,,,,,,,,,,,,,,,,,,,,,,,,,,,,,,,,,,,,,,,,,,,,,,,,0,23,23,5,1,A,Y,N,o1_image,stimuli/out1.png,stimuli/correct_out1.png,stimuli/out2.png,,,,,,,,,,,,,,,,,,,,,,,,,,,,,,,,,,,,,,
,,5bf077d95fc1db0001305dd4,36,male,2024-04-16_11h21.26.971,stockport_simplified,2022.2.4,MacIntel,30.03003003,661e456ee6de07e70aa9ef7b,661e5114e993ed2a8dd64f4b,,,,,,,,,,,,,,,,,,,,,,,,,,,,,,,,,,185.1317,188.8977,"[2,3,7,6,1,4,5,8]","[[0.3,0.2],[-0.3,0.2]]","[[-0.125,-0.2],[0.125,-0.2]]",-0.097999132,-0.209253472,1,0,0,3.2327,o1_image,188.911,1,189.3989,189.3989,191.3991,0,0,0,0,1,,,,,,,,,,,,,,,,,,,,,,,,,,,,,,,,,,,,,,,,,,,,,,,,,,
,,5bf077d95fc1db0001305dd4,36,male,2024-04-16_11h21.26.971,stockport_simplified,2022.2.4,MacIntel,30.03003003,661e456ee6de07e70aa9ef7b,661e5114e993ed2a8dd64f4b,,,,,,,,,,,,,,,,,,,,,,,,,,,,,,,,,,,,,,,,,,,,,,,,,,,,,,,,0,24,24,33,1,A,X,N,o1_image,stimuli/out1.png,stimuli/correct_out1.png,stimuli/out2.png,,,,,,,,,,,,,,,,,,,,,,,,,,,,,,,,,,,,,,
,,5bf077d95fc1db0001305dd4,36,male,2024-04-16_11h21.26.971,stockport_simplified,2022.2.4,MacIntel,30.03003003,661e456ee6de07e70aa9ef7b,661e5114e993ed2a8dd64f4b,,,,,,,,,,,,,,,,,,,,,,,,,,,,,,,,,,191.3995,193.9645,"[2,3,7,6,1,4,5,8]","[[-0.3,0.2],[0.3,0.2]]","[[0.125,-0.2],[-0.125,-0.2]]",0.128763021,-0.162491319,1,0,0,2.0333,o1_image,193.9778,1,194.4644,194.4645,196.4645,0,0,0,0,1,,,,,,,,,,,,,,,,,,,,,,,,,,,,,,,,,,,,,,,,,,,,,,,,,,
,,5bf077d95fc1db0001305dd4,36,male,2024-04-16_11h21.26.971,stockport_simplified,2022.2.4,MacIntel,30.03003003,661e456ee6de07e70aa9ef7b,661e5114e993ed2a8dd64f4b,,,,,,,,,,,,,,,,,,,,,,,,,,,,,,,,,,,,,,,,,,,,,,,,,,,,,,,,0,25,25,32,1,A,X,N,o1_image,stimuli/out1.png,stimuli/correct_out1.png,stimuli/out2.png,,,,,,,,,,,,,,,,,,,,,,,,,,,,,,,,,,,,,,
,,5bf077d95fc1db0001305dd4,36,male,2024-04-16_11h21.26.971,stockport_simplified,2022.2.4,MacIntel,30.03003003,661e456ee6de07e70aa9ef7b,661e5114e993ed2a8dd64f4b,,,,,,,,,,,,,,,,,,,,,,,,,,,,,,,,,,196.4653,198.4646,"[2,3,7,6,1,4,5,8]","[[-0.3,0.2],[0.3,0.2]]","[[-0.125,-0.2],[0.125,-0.2]]",0.113763021,-0.162291667,1,0,0,1.4661,o2_image,198.4655,1,198.9645,198.9645,200.9641,0,0,0,0,1,,,,,,,,,,,,,,,,,,,,,,,,,,,,,,,,,,,,,,,,,,,,,,,,,,
,,5bf077d95fc1db0001305dd4,36,male,2024-04-16_11h21.26.971,stockport_simplified,2022.2.4,MacIntel,30.03003003,661e456ee6de07e70aa9ef7b,661e5114e993ed2a8dd64f4b,,,,,,,,,,,,,,,,,,,,,,,,,,,,,,,,,,,,,,,,,,,,,,,,,,,,,,,,0,26,26,49,1,B,Y,N,o2_image,stimuli/out2.png,stimuli/out1.png,stimuli/correct_out2.png,,,,,,,,,,,,,,,,,,,,,,,,,,,,,,,,,,,,,,
,,5bf077d95fc1db0001305dd4,36,male,2024-04-16_11h21.26.971,stockport_simplified,2022.2.4,MacIntel,30.03003003,661e456ee6de07e70aa9ef7b,661e5114e993ed2a8dd64f4b,,,,,,,,,,,,,,,,,,,,,,,,,,,,,,,,,,200.9645,202.5644,"[2,3,7,6,1,4,5,8]","[[-0.3,0.2],[0.3,0.2]]","[[-0.125,-0.2],[0.125,-0.2]]",0.114318576,-0.162291667,1,0,0,1.0665,o2_image,202.5655,1,203.0645,203.0646,205.0645,0,0,0,0,1,,,,,,,,,,,,,,,,,,,,,,,,,,,,,,,,,,,,,,,,,,,,,,,,,,
,,5bf077d95fc1db0001305dd4,36,male,2024-04-16_11h21.26.971,stockport_simplified,2022.2.4,MacIntel,30.03003003,661e456ee6de07e70aa9ef7b,661e5114e993ed2a8dd64f4b,,,,,,,,,,,,,,,,,,,,,,,,,,,,,,,,,,,,,,,,,,,,,,,,,,,,,,,,0,27,27,19,1,B,Y,N,o2_image,stimuli/out2.png,stimuli/out1.png,stimuli/correct_out2.png,,,,,,,,,,,,,,,,,,,,,,,,,,,,,,,,,,,,,,
,,5bf077d95fc1db0001305dd4,36,male,2024-04-16_11h21.26.971,stockport_simplified,2022.2.4,MacIntel,30.03003003,661e456ee6de07e70aa9ef7b,661e5114e993ed2a8dd64f4b,,,,,,,,,,,,,,,,,,,,,,,,,,,,,,,,,,205.0652,206.5977,"[2,3,7,6,1,4,5,8]","[[-0.3,0.2],[0.3,0.2]]","[[0.125,-0.2],[-0.125,-0.2]]",0.114318576,-0.162291667,1,0,0,0.9988,o1_image,206.5988,0,207.0978,207.098,209.0978,0,0,0,0,1,,,,,,,,,,,,,,,,,,,,,,,,,,,,,,,,,,,,,,,,,,,,,,,,,,
,,5bf077d95fc1db0001305dd4,36,male,2024-04-16_11h21.26.971,stockport_simplified,2022.2.4,MacIntel,30.03003003,661e456ee6de07e70aa9ef7b,661e5114e993ed2a8dd64f4b,,,,,,,,,,,,,,,,,,,,,,,,,,,,,,,,,,,,,,,,,,,,,,,,,,,,,,,,0,28,28,55,1,N,M,D,o2_image,stimuli/out2.png,stimuli/out1.png,stimuli/correct_out2.png,,,,,,,,,,,,,,,,,,,,,,,,,,,,,,,,,,,,,,
,,5bf077d95fc1db0001305dd4,36,male,2024-04-16_11h21.26.971,stockport_simplified,2022.2.4,MacIntel,30.03003003,661e456ee6de07e70aa9ef7b,661e5114e993ed2a8dd64f4b,,,,,,,,,,,,,,,,,,,,,,,,,,,,,,,,,,209.0984,212.0313,"[2,3,7,6,1,4,5,8]","[[-0.3,0.2],[0.3,0.2]]","[[0.125,-0.2],[-0.125,-0.2]]",0.113819444,-0.162291667,1,0,0,2.3994,o1_image,212.0443,0,212.5306,212.5306,214.5312,0,0,0,0,1,,,,,,,,,,,,,,,,,,,,,,,,,,,,,,,,,,,,,,,,,,,,,,,,,,
,,5bf077d95fc1db0001305dd4,36,male,2024-04-16_11h21.26.971,stockport_simplified,2022.2.4,MacIntel,30.03003003,661e456ee6de07e70aa9ef7b,661e5114e993ed2a8dd64f4b,,,,,,,,,,,,,,,,,,,,,,,,,,,,,,,,,,,,,,,,,,,,,,,,,,,,,,,,0,29,29,10,1,B,X,N,o2_image,stimuli/out2.png,stimuli/out1.png,stimuli/correct_out2.png,,,,,,,,,,,,,,,,,,,,,,,,,,,,,,,,,,,,,,
,,5bf077d95fc1db0001305dd4,36,male,2024-04-16_11h21.26.971,stockport_simplified,2022.2.4,MacIntel,30.03003003,661e456ee6de07e70aa9ef7b,661e5114e993ed2a8dd64f4b,,,,,,,,,,,,,,,,,,,,,,,,,,,,,,,,,,214.532,216.6646,"[2,3,7,6,1,4,5,8]","[[0.3,0.2],[-0.3,0.2]]","[[0.125,-0.2],[-0.125,-0.2]]",-0.060499132,-0.203537326,1,0,0,1.5993,o2_image,216.6654,0,217.1645,217.1646,219.1646,0,0,0,0,1,,,,,,,,,,,,,,,,,,,,,,,,,,,,,,,,,,,,,,,,,,,,,,,,,,
,,5bf077d95fc1db0001305dd4,36,male,2024-04-16_11h21.26.971,stockport_simplified,2022.2.4,MacIntel,30.03003003,661e456ee6de07e70aa9ef7b,661e5114e993ed2a8dd64f4b,,,,,,,,,,,,,,,,,,,,,,,,,,,,,,,,,,,,,,,,,,,,,,,,,,,,,,,,0,30,30,50,1,N,M,C,o1_image,stimuli/out1.png,stimuli/correct_out1.png,stimuli/out2.png,,,,,,,,,,,,,,,,,,,,,,,,,,,,,,,,,,,,,,
,,5bf077d95fc1db0001305dd4,36,male,2024-04-16_11h21.26.971,stockport_simplified,2022.2.4,MacIntel,30.03003003,661e456ee6de07e70aa9ef7b,661e5114e993ed2a8dd64f4b,,,,,,,,,,,,,,,,,,,,,,,,,,,,,,,,,,219.1653,221.2644,"[2,3,7,6,1,4,5,8]","[[0.3,0.2],[-0.3,0.2]]","[[-0.125,-0.2],[0.125,-0.2]]",-0.078363715,-0.208719618,1,0,0,1.5665,o1_image,221.2651,1,221.7645,221.7646,223.7647,0,0,0,0,1,,,,,,,,,,,,,,,,,,,,,,,,,,,,,,,,,,,,,,,,,,,,,,,,,,
,,5bf077d95fc1db0001305dd4,36,male,2024-04-16_11h21.26.971,stockport_simplified,2022.2.4,MacIntel,30.03003003,661e456ee6de07e70aa9ef7b,661e5114e993ed2a8dd64f4b,,,,,,,,,,,,,,,,,,,,,,,,,,,,,,,,,,,,,,,,,,,,,,,,,,,,,,,,0,31,31,21,1,N,M,C,o1_image,stimuli/out1.png,stimuli/correct_out1.png,stimuli/out2.png,,,,,,,,,,,,,,,,,,,,,,,,,,,,,,,,,,,,,,
,,5bf077d95fc1db0001305dd4,36,male,2024-04-16_11h21.26.971,stockport_simplified,2022.2.4,MacIntel,30.03003003,661e456ee6de07e70aa9ef7b,661e5114e993ed2a8dd64f4b,,,,,,,,,,,,,,,,,,,,,,,,,,,,,,,,,,223.7656,225.498,"[2,3,7,6,1,4,5,8]","[[-0.3,0.2],[0.3,0.2]]","[[-0.125,-0.2],[0.125,-0.2]]",-0.078919271,-0.208719618,1,0,0,1.1998,o1_image,225.4989,1,225.998,225.998,227.998,0,0,0,0,1,,,,,,,,,,,,,,,,,,,,,,,,,,,,,,,,,,,,,,,,,,,,,,,,,,
,,5bf077d95fc1db0001305dd4,36,male,2024-04-16_11h21.26.971,stockport_simplified,2022.2.4,MacIntel,30.03003003,661e456ee6de07e70aa9ef7b,661e5114e993ed2a8dd64f4b,,,,,,,,,,,,,,,,,,,,,,,,,,,,,,,,,,,,,,,,,,,,,,,,,,,,,,,,0,32,32,51,1,N,M,C,o1_image,stimuli/out1.png,stimuli/correct_out1.png,stimuli/out2.png,,,,,,,,,,,,,,,,,,,,,,,,,,,,,,,,,,,,,,
,,5bf077d95fc1db0001305dd4,36,male,2024-04-16_11h21.26.971,stockport_simplified,2022.2.4,MacIntel,30.03003003,661e456ee6de07e70aa9ef7b,661e5114e993ed2a8dd64f4b,,,,,,,,,,,,,,,,,,,,,,,,,,,,,,,,,,227.9987,230.098,"[2,3,7,6,1,4,5,8]","[[-0.3,0.2],[0.3,0.2]]","[[-0.125,-0.2],[0.125,-0.2]]",-0.078919271,-0.208719618,1,0,0,1.566,o1_image,230.0989,0,230.5977,230.5977,232.598,0,0,0,0,1,,,,,,,,,,,,,,,,,,,,,,,,,,,,,,,,,,,,,,,,,,,,,,,,,,
,,5bf077d95fc1db0001305dd4,36,male,2024-04-16_11h21.26.971,stockport_simplified,2022.2.4,MacIntel,30.03003003,661e456ee6de07e70aa9ef7b,661e5114e993ed2a8dd64f4b,,,,,,,,,,,,,,,,,,,,,,,,,,,,,,,,,,,,,,,,,,,,,,,,,,,,,,,,0,33,33,57,1,N,M,D,o2_image,stimuli/out2.png,stimuli/out1.png,stimuli/correct_out2.png,,,,,,,,,,,,,,,,,,,,,,,,,,,,,,,,,,,,,,
,,5bf077d95fc1db0001305dd4,36,male,2024-04-16_11h21.26.971,stockport_simplified,2022.2.4,MacIntel,30.03003003,661e456ee6de07e70aa9ef7b,661e5114e993ed2a8dd64f4b,,,,,,,,,,,,,,,,,,,,,,,,,,,,,,,,,,232.5987,235.1303,"[2,3,7,6,1,4,5,8]","[[0.3,0.2],[-0.3,0.2]]","[[0.125,-0.2],[-0.125,-0.2]]",-0.078919271,-0.208719618,1,0,0,1.9981,o2_image,235.1312,0,235.6314,235.6314,237.6314,0,0,0,0,1,,,,,,,,,,,,,,,,,,,,,,,,,,,,,,,,,,,,,,,,,,,,,,,,,,
,,5bf077d95fc1db0001305dd4,36,male,2024-04-16_11h21.26.971,stockport_simplified,2022.2.4,MacIntel,30.03003003,661e456ee6de07e70aa9ef7b,661e5114e993ed2a8dd64f4b,,,,,,,,,,,,,,,,,,,,,,,,,,,,,,,,,,,,,,,,,,,,,,,,,,,,,,,,0,34,34,2,1,A,X,N,o1_image,stimuli/out1.png,stimuli/correct_out1.png,stimuli/out2.png,,,,,,,,,,,,,,,,,,,,,,,,,,,,,,,,,,,,,,
,,5bf077d95fc1db0001305dd4,36,male,2024-04-16_11h21.26.971,stockport_simplified,2022.2.4,MacIntel,30.03003003,661e456ee6de07e70aa9ef7b,661e5114e993ed2a8dd64f4b,,,,,,,,,,,,,,,,,,,,,,,,,,,,,,,,,,237.632,240.3316,"[2,3,7,6,1,4,5,8]","[[0.3,0.2],[-0.3,0.2]]","[[-0.125,-0.2],[0.125,-0.2]]",0.091506076,-0.214782986,1,0,0,2.1662,o2_image,240.3444,0,240.8314,240.8315,242.8314,0,0,0,0,1,,,,,,,,,,,,,,,,,,,,,,,,,,,,,,,,,,,,,,,,,,,,,,,,,,
,,5bf077d95fc1db0001305dd4,36,male,2024-04-16_11h21.26.971,stockport_simplified,2022.2.4,MacIntel,30.03003003,661e456ee6de07e70aa9ef7b,661e5114e993ed2a8dd64f4b,,,,,,,,,,,,,,,,,,,,,,,,,,,,,,,,,,,,,,,,,,,,,,,,,,,,,,,,0,35,35,38,1,A,Y,N,o1_image,stimuli/out1.png,stimuli/correct_out1.png,stimuli/out2.png,,,,,,,,,,,,,,,,,,,,,,,,,,,,,,,,,,,,,,
,,5bf077d95fc1db0001305dd4,36,male,2024-04-16_11h21.26.971,stockport_simplified,2022.2.4,MacIntel,30.03003003,661e456ee6de07e70aa9ef7b,661e5114e993ed2a8dd64f4b,,,,,,,,,,,,,,,,,,,,,,,,,,,,,,,,,,242.8321,245.0315,"[2,3,7,6,1,4,5,8]","[[-0.3,0.2],[0.3,0.2]]","[[0.125,-0.2],[-0.125,-0.2]]",0.09156684,-0.215338542,1,0,0,1.666,o1_image,245.0328,0,245.5315,245.5316,247.5315,0,0,0,0,1,,,,,,,,,,,,,,,,,,,,,,,,,,,,,,,,,,,,,,,,,,,,,,,,,,
,,5bf077d95fc1db0001305dd4,36,male,2024-04-16_11h21.26.971,stockport_simplified,2022.2.4,MacIntel,30.03003003,661e456ee6de07e70aa9ef7b,661e5114e993ed2a8dd64f4b,,,,,,,,,,,,,,,,,,,,,,,,,,,,,,,,,,,,,,,,,,,,,,,,,,,,,,,,0,36,36,17,1,B,Y,N,o2_image,stimuli/out2.png,stimuli/out1.png,stimuli/correct_out2.png,,,,,,,,,,,,,,,,,,,,,,,,,,,,,,,,,,,,,,
,,5bf077d95fc1db0001305dd4,36,male,2024-04-16_11h21.26.971,stockport_simplified,2022.2.4,MacIntel,30.03003003,661e456ee6de07e70aa9ef7b,661e5114e993ed2a8dd64f4b,,,,,,,,,,,,,,,,,,,,,,,,,,,,,,,,,,247.5323,249.9312,"[2,3,7,6,1,4,5,8]","[[-0.3,0.2],[0.3,0.2]]","[[-0.125,-0.2],[0.125,-0.2]]",-0.105221354,-0.217595486,1,0,0,1.8659,o1_image,249.9462,0,250.4313,250.4313,252.4313,0,0,0,0,1,,,,,,,,,,,,,,,,,,,,,,,,,,,,,,,,,,,,,,,,,,,,,,,,,,
,,5bf077d95fc1db0001305dd4,36,male,2024-04-16_11h21.26.971,stockport_simplified,2022.2.4,MacIntel,30.03003003,661e456ee6de07e70aa9ef7b,661e5114e993ed2a8dd64f4b,,,,,,,,,,,,,,,,,,,,,,,,,,,,,,,,,,,,,,,,,,,,,,,,,,,,,,,,0,37,37,41,1,B,X,N,o2_image,stimuli/out2.png,stimuli/out1.png,stimuli/correct_out2.png,,,,,,,,,,,,,,,,,,,,,,,,,,,,,,,,,,,,,,
,,5bf077d95fc1db0001305dd4,36,male,2024-04-16_11h21.26.971,stockport_simplified,2022.2.4,MacIntel,30.03003003,661e456ee6de07e70aa9ef7b,661e5114e993ed2a8dd64f4b,,,,,,,,,,,,,,,,,,,,,,,,,,,,,,,,,,252.4318,254.0317,"[2,3,7,6,1,4,5,8]","[[0.3,0.2],[-0.3,0.2]]","[[0.125,-0.2],[-0.125,-0.2]]",0.103125,-0.193689236,1,0,0,1.066,o1_image,254.0326,1,254.5315,254.5315,256.5316,0,0,0,0,1,,,,,,,,,,,,,,,,,,,,,,,,,,,,,,,,,,,,,,,,,,,,,,,,,,
,,5bf077d95fc1db0001305dd4,36,male,2024-04-16_11h21.26.971,stockport_simplified,2022.2.4,MacIntel,30.03003003,661e456ee6de07e70aa9ef7b,661e5114e993ed2a8dd64f4b,,,,,,,,,,,,,,,,,,,,,,,,,,,,,,,,,,,,,,,,,,,,,,,,,,,,,,,,0,38,38,20,1,N,M,C,o1_image,stimuli/out1.png,stimuli/correct_out1.png,stimuli/out2.png,,,,,,,,,,,,,,,,,,,,,,,,,,,,,,,,,,,,,,
,,5bf077d95fc1db0001305dd4,36,male,2024-04-16_11h21.26.971,stockport_simplified,2022.2.4,MacIntel,30.03003003,661e456ee6de07e70aa9ef7b,661e5114e993ed2a8dd64f4b,,,,,,,,,,,,,,,,,,,,,,,,,,,,,,,,,,256.5322,259.8305,"[2,3,7,6,1,4,5,8]","[[-0.3,0.2],[0.3,0.2]]","[[-0.125,-0.2],[0.125,-0.2]]",0.085798611,-0.194657118,1,0,0,2.7646,o2_image,259.8439,0,260.3315,260.3316,262.3312,0,0,0,0,1,,,,,,,,,,,,,,,,,,,,,,,,,,,,,,,,,,,,,,,,,,,,,,,,,,
,,5bf077d95fc1db0001305dd4,36,male,2024-04-16_11h21.26.971,stockport_simplified,2022.2.4,MacIntel,30.03003003,661e456ee6de07e70aa9ef7b,661e5114e993ed2a8dd64f4b,,,,,,,,,,,,,,,,,,,,,,,,,,,,,,,,,,,,,,,,,,,,,,,,,,,,,,,,0,39,39,31,1,A,X,N,o1_image,stimuli/out1.png,stimuli/correct_out1.png,stimuli/out2.png,,,,,,,,,,,,,,,,,,,,,,,,,,,,,,,,,,,,,,
,,5bf077d95fc1db0001305dd4,36,male,2024-04-16_11h21.26.971,stockport_simplified,2022.2.4,MacIntel,30.03003003,661e456ee6de07e70aa9ef7b,661e5114e993ed2a8dd64f4b,,,,,,,,,,,,,,,,,,,,,,,,,,,,,,,,,,262.3316,264.2977,"[2,3,7,6,1,4,5,8]","[[0.3,0.2],[-0.3,0.2]]","[[-0.125,-0.2],[0.125,-0.2]]",0.085798611,-0.194657118,1,0,0,1.4324,o2_image,264.2982,1,264.7981,264.7982,266.7982,0,0,0,0,1,,,,,,,,,,,,,,,,,,,,,,,,,,,,,,,,,,,,,,,,,,,,,,,,,,
,,5bf077d95fc1db0001305dd4,36,male,2024-04-16_11h21.26.971,stockport_simplified,2022.2.4,MacIntel,30.03003003,661e456ee6de07e70aa9ef7b,661e5114e993ed2a8dd64f4b,,,,,,,,,,,,,,,,,,,,,,,,,,,,,,,,,,,,,,,,,,,,,,,,,,,,,,,,0,40,40,14,1,B,X,N,o2_image,stimuli/out2.png,stimuli/out1.png,stimuli/correct_out2.png,,,,,,,,,,,,,,,,,,,,,,,,,,,,,,,,,,,,,,
,,5bf077d95fc1db0001305dd4,36,male,2024-04-16_11h21.26.971,stockport_simplified,2022.2.4,MacIntel,30.03003003,661e456ee6de07e70aa9ef7b,661e5114e993ed2a8dd64f4b,,,,,,,,,,,,,,,,,,,,,,,,,,,,,,,,,,266.7991,268.7317,"[2,3,7,6,1,4,5,8]","[[-0.3,0.2],[0.3,0.2]]","[[0.125,-0.2],[-0.125,-0.2]]",-0.144171007,-0.228658854,1,0,0,1.3992,o2_image,268.7324,1,269.2316,269.2316,271.2307,0,0,0,0,1,,,,,,,,,,,,,,,,,,,,,,,,,,,,,,,,,,,,,,,,,,,,,,,,,,
,,5bf077d95fc1db0001305dd4,36,male,2024-04-16_11h21.26.971,stockport_simplified,2022.2.4,MacIntel,30.03003003,661e456ee6de07e70aa9ef7b,661e5114e993ed2a8dd64f4b,,,,,,,,,,,,,,,,,,,,,,,,,,,,,,,,,,,,,,,,,,,,,,,,,,,,,,,,0,41,41,28,1,N,M,D,o2_image,stimuli/out2.png,stimuli/out1.png,stimuli/correct_out2.png,,,,,,,,,,,,,,,,,,,,,,,,,,,,,,,,,,,,,,
,,5bf077d95fc1db0001305dd4,36,male,2024-04-16_11h21.26.971,stockport_simplified,2022.2.4,MacIntel,30.03003003,661e456ee6de07e70aa9ef7b,661e5114e993ed2a8dd64f4b,,,,,,,,,,,,,,,,,,,,,,,,,,,,,,,,,,271.2314,273.7314,"[2,3,7,6,1,4,5,8]","[[-0.3,0.2],[0.3,0.2]]","[[0.125,-0.2],[-0.125,-0.2]]",-0.144726562,-0.22921441,1,0,0,1.9665,o2_image,273.7324,1,274.2316,274.2317,276.2317,0,0,0,0,1,,,,,,,,,,,,,,,,,,,,,,,,,,,,,,,,,,,,,,,,,,,,,,,,,,
,,5bf077d95fc1db0001305dd4,36,male,2024-04-16_11h21.26.971,stockport_simplified,2022.2.4,MacIntel,30.03003003,661e456ee6de07e70aa9ef7b,661e5114e993ed2a8dd64f4b,,,,,,,,,,,,,,,,,,,,,,,,,,,,,,,,,,,,,,,,,,,,,,,,,,,,,,,,0,42,42,59,1,N,M,D,o2_image,stimuli/out2.png,stimuli/out1.png,stimuli/correct_out2.png,,,,,,,,,,,,,,,,,,,,,,,,,,,,,,,,,,,,,,
,,5bf077d95fc1db0001305dd4,36,male,2024-04-16_11h21.26.971,stockport_simplified,2022.2.4,MacIntel,30.03003003,661e456ee6de07e70aa9ef7b,661e5114e993ed2a8dd64f4b,,,,,,,,,,,,,,,,,,,,,,,,,,,,,,,,,,276.2324,278.3646,"[2,3,7,6,1,4,5,8]","[[0.3,0.2],[-0.3,0.2]]","[[0.125,-0.2],[-0.125,-0.2]]",0.218007813,-0.205794271,1,0,0,1.0664,o1_image,278.3652,1,278.8651,278.8651,280.8649,0,0,0,0,1,,,,,,,,,,,,,,,,,,,,,,,,,,,,,,,,,,,,,,,,,,,,,,,,,,
,,5bf077d95fc1db0001305dd4,36,male,2024-04-16_11h21.26.971,stockport_simplified,2022.2.4,MacIntel,30.03003003,661e456ee6de07e70aa9ef7b,661e5114e993ed2a8dd64f4b,,,,,,,,,,,,,,,,,,,,,,,,,,,,,,,,,,,,,,,,,,,,,,,,,,,,,,,,0,43,43,22,1,N,M,C,o1_image,stimuli/out1.png,stimuli/correct_out1.png,stimuli/out2.png,,,,,,,,,,,,,,,,,,,,,,,,,,,,,,,,,,,,,,
,,5bf077d95fc1db0001305dd4,36,male,2024-04-16_11h21.26.971,stockport_simplified,2022.2.4,MacIntel,30.03003003,661e456ee6de07e70aa9ef7b,661e5114e993ed2a8dd64f4b,,,,,,,,,,,,,,,,,,,,,,,,,,,,,,,,,,280.8656,283.4986,"[2,3,7,6,1,4,5,8]","[[0.3,0.2],[-0.3,0.2]]","[[0.125,-0.2],[-0.125,-0.2]]",-0.110664062,-0.236032986,1,0,0,2.0997,o2_image,283.4995,0,283.9984,283.9985,285.9984,0,0,0,0,1,,,,,,,,,,,,,,,,,,,,,,,,,,,,,,,,,,,,,,,,,,,,,,,,,,
,,5bf077d95fc1db0001305dd4,36,male,2024-04-16_11h21.26.971,stockport_simplified,2022.2.4,MacIntel,30.03003003,661e456ee6de07e70aa9ef7b,661e5114e993ed2a8dd64f4b,,,,,,,,,,,,,,,,,,,,,,,,,,,,,,,,,,,,,,,,,,,,,,,,,,,,,,,,0,44,44,37,1,A,Y,N,o1_image,stimuli/out1.png,stimuli/correct_out1.png,stimuli/out2.png,,,,,,,,,,,,,,,,,,,,,,,,,,,,,,,,,,,,,,
,,5bf077d95fc1db0001305dd4,36,male,2024-04-16_11h21.26.971,stockport_simplified,2022.2.4,MacIntel,30.03003003,661e456ee6de07e70aa9ef7b,661e5114e993ed2a8dd64f4b,,,,,,,,,,,,,,,,,,,,,,,,,,,,,,,,,,285.9993,287.8654,"[2,3,7,6,1,4,5,8]","[[-0.3,0.2],[0.3,0.2]]","[[0.125,-0.2],[-0.125,-0.2]]",-0.093563368,-0.22858941,1,0,0,1.3327,o2_image,287.8669,1,288.3652,288.3653,290.3653,0,0,0,0,1,,,,,,,,,,,,,,,,,,,,,,,,,,,,,,,,,,,,,,,,,,,,,,,,,,
,,5bf077d95fc1db0001305dd4,36,male,2024-04-16_11h21.26.971,stockport_simplified,2022.2.4,MacIntel,30.03003003,661e456ee6de07e70aa9ef7b,661e5114e993ed2a8dd64f4b,,,,,,,,,,,,,,,,,,,,,,,,,,,,,,,,,,,,,,,,,,,,,,,,,,,,,,,,0,45,45,48,1,B,Y,N,o2_image,stimuli/out2.png,stimuli/out1.png,stimuli/correct_out2.png,,,,,,,,,,,,,,,,,,,,,,,,,,,,,,,,,,,,,,
,,5bf077d95fc1db0001305dd4,36,male,2024-04-16_11h21.26.971,stockport_simplified,2022.2.4,MacIntel,30.03003003,661e456ee6de07e70aa9ef7b,661e5114e993ed2a8dd64f4b,,,,,,,,,,,,,,,,,,,,,,,,,,,,,,,,,,290.366,292.8653,"[2,3,7,6,1,4,5,8]","[[0.3,0.2],[-0.3,0.2]]","[[0.125,-0.2],[-0.125,-0.2]]",0.13140625,-0.181367187,1,0,0,1.9648,o1_image,292.866,1,293.365,293.365,295.365,0,0,0,0,1,,,,,,,,,,,,,,,,,,,,,,,,,,,,,,,,,,,,,,,,,,,,,,,,,,
,,5bf077d95fc1db0001305dd4,36,male,2024-04-16_11h21.26.971,stockport_simplified,2022.2.4,MacIntel,30.03003003,661e456ee6de07e70aa9ef7b,661e5114e993ed2a8dd64f4b,,,,,,,,,,,,,,,,,,,,,,,,,,,,,,,,,,,,,,,,,,,,,,,,,,,,,,,,0,46,46,9,1,A,Y,N,o1_image,stimuli/out1.png,stimuli/correct_out1.png,stimuli/out2.png,,,,,,,,,,,,,,,,,,,,,,,,,,,,,,,,,,,,,,
,,5bf077d95fc1db0001305dd4,36,male,2024-04-16_11h21.26.971,stockport_simplified,2022.2.4,MacIntel,30.03003003,661e456ee6de07e70aa9ef7b,661e5114e993ed2a8dd64f4b,,,,,,,,,,,,,,,,,,,,,,,,,,,,,,,,,,295.3657,297.1651,"[2,3,7,6,1,4,5,8]","[[0.3,0.2],[-0.3,0.2]]","[[0.125,-0.2],[-0.125,-0.2]]",0.131961806,-0.181367187,1,0,0,1.2648,o1_image,297.1665,1,297.665,297.665,299.665,0,0,0,0,1,,,,,,,,,,,,,,,,,,,,,,,,,,,,,,,,,,,,,,,,,,,,,,,,,,
,,5bf077d95fc1db0001305dd4,36,male,2024-04-16_11h21.26.971,stockport_simplified,2022.2.4,MacIntel,30.03003003,661e456ee6de07e70aa9ef7b,661e5114e993ed2a8dd64f4b,,,,,,,,,,,,,,,,,,,,,,,,,,,,,,,,,,,,,,,,,,,,,,,,,,,,,,,,0,47,47,36,1,A,Y,N,o1_image,stimuli/out1.png,stimuli/correct_out1.png,stimuli/out2.png,,,,,,,,,,,,,,,,,,,,,,,,,,,,,,,,,,,,,,
,,5bf077d95fc1db0001305dd4,36,male,2024-04-16_11h21.26.971,stockport_simplified,2022.2.4,MacIntel,30.03003003,661e456ee6de07e70aa9ef7b,661e5114e993ed2a8dd64f4b,,,,,,,,,,,,,,,,,,,,,,,,,,,,,,,,,,299.6657,302.5652,"[2,3,7,6,1,4,5,8]","[[-0.3,0.2],[0.3,0.2]]","[[-0.125,-0.2],[0.125,-0.2]]",-0.162322049,-0.209136285,1,0,0,2.3666,o1_image,302.5791,1,303.0651,303.0653,305.065,0,0,0,0,1,,,,,,,,,,,,,,,,,,,,,,,,,,,,,,,,,,,,,,,,,,,,,,,,,,
,,5bf077d95fc1db0001305dd4,36,male,2024-04-16_11h21.26.971,stockport_simplified,2022.2.4,MacIntel,30.03003003,661e456ee6de07e70aa9ef7b,661e5114e993ed2a8dd64f4b,,,,,,,,,,,,,,,,,,,,,,,,,,,,,,,,,,,,,,,,,,,,,,,,,,,,,,,,0,48,48,6,1,A,Y,N,o1_image,stimuli/out1.png,stimuli/correct_out1.png,stimuli/out2.png,,,,,,,,,,,,,,,,,,,,,,,,,,,,,,,,,,,,,,
,,5bf077d95fc1db0001305dd4,36,male,2024-04-16_11h21.26.971,stockport_simplified,2022.2.4,MacIntel,30.03003003,661e456ee6de07e70aa9ef7b,661e5114e993ed2a8dd64f4b,,,,,,,,,,,,,,,,,,,,,,,,,,,,,,,,,,305.0657,307.9319,"[2,3,7,6,1,4,5,8]","[[-0.3,0.2],[0.3,0.2]]","[[0.125,-0.2],[-0.125,-0.2]]",0.074939236,-0.185959201,1,0,0,2.3328,o1_image,307.9467,1,308.4316,308.4317,310.4314,0,0,0,0,1,,,,,,,,,,,,,,,,,,,,,,,,,,,,,,,,,,,,,,,,,,,,,,,,,,
,,5bf077d95fc1db0001305dd4,36,male,2024-04-16_11h21.26.971,stockport_simplified,2022.2.4,MacIntel,30.03003003,661e456ee6de07e70aa9ef7b,661e5114e993ed2a8dd64f4b,,,,,,,,,,,,,,,,,,,,,,,,,,,,,,,,,,,,,,,,,,,,,,,,,,,,,,,,0,49,49,0,1,A,X,N,o1_image,stimuli/out1.png,stimuli/correct_out1.png,stimuli/out2.png,,,,,,,,,,,,,,,,,,,,,,,,,,,,,,,,,,,,,,
,,5bf077d95fc1db0001305dd4,36,male,2024-04-16_11h21.26.971,stockport_simplified,2022.2.4,MacIntel,30.03003003,661e456ee6de07e70aa9ef7b,661e5114e993ed2a8dd64f4b,,,,,,,,,,,,,,,,,,,,,,,,,,,,,,,,,,310.4316,312.0643,"[2,3,7,6,1,4,5,8]","[[0.3,0.2],[-0.3,0.2]]","[[-0.125,-0.2],[0.125,-0.2]]",-0.081445313,-0.202947049,1,0,0,1.0984,o1_image,312.0651,0,312.5652,312.5652,314.5651,0,0,0,0,1,,,,,,,,,,,,,,,,,,,,,,,,,,,,,,,,,,,,,,,,,,,,,,,,,,
,,5bf077d95fc1db0001305dd4,36,male,2024-04-16_11h21.26.971,stockport_simplified,2022.2.4,MacIntel,30.03003003,661e456ee6de07e70aa9ef7b,661e5114e993ed2a8dd64f4b,,,,,,,,,,,,,,,,,,,,,,,,,,,,,,,,,,,,,,,,,,,,,,,,,,,,,,,,0,50,50,29,1,N,M,D,o2_image,stimuli/out2.png,stimuli/out1.png,stimuli/correct_out2.png,,,,,,,,,,,,,,,,,,,,,,,,,,,,,,,,,,,,,,
,,5bf077d95fc1db0001305dd4,36,male,2024-04-16_11h21.26.971,stockport_simplified,2022.2.4,MacIntel,30.03003003,661e456ee6de07e70aa9ef7b,661e5114e993ed2a8dd64f4b,,,,,,,,,,,,,,,,,,,,,,,,,,,,,,,,,,314.5658,317.2314,"[2,3,7,6,1,4,5,8]","[[0.3,0.2],[-0.3,0.2]]","[[-0.125,-0.2],[0.125,-0.2]]",-0.082000868,-0.202947049,1,0,0,2.1322,o1_image,317.2322,1,317.7314,317.7315,319.7317,0,0,0,0,1,,,,,,,,,,,,,,,,,,,,,,,,,,,,,,,,,,,,,,,,,,,,,,,,,,
,,5bf077d95fc1db0001305dd4,36,male,2024-04-16_11h21.26.971,stockport_simplified,2022.2.4,MacIntel,30.03003003,661e456ee6de07e70aa9ef7b,661e5114e993ed2a8dd64f4b,,,,,,,,,,,,,,,,,,,,,,,,,,,,,,,,,,,,,,,,,,,,,,,,,,,,,,,,0,51,51,34,1,A,X,N,o1_image,stimuli/out1.png,stimuli/correct_out1.png,stimuli/out2.png,,,,,,,,,,,,,,,,,,,,,,,,,,,,,,,,,,,,,,
,,5bf077d95fc1db0001305dd4,36,male,2024-04-16_11h21.26.971,stockport_simplified,2022.2.4,MacIntel,30.03003003,661e456ee6de07e70aa9ef7b,661e5114e993ed2a8dd64f4b,,,,,,,,,,,,,,,,,,,,,,,,,,,,,,,,,,319.7325,322.1322,"[2,3,7,6,1,4,5,8]","[[-0.3,0.2],[0.3,0.2]]","[[0.125,-0.2],[-0.125,-0.2]]",-0.088459201,-0.21516059,1,0,0,1.8667,o2_image,322.1473,0,322.6319,322.632,324.6318,0,0,0,0,1,,,,,,,,,,,,,,,,,,,,,,,,,,,,,,,,,,,,,,,,,,,,,,,,,,
,,5bf077d95fc1db0001305dd4,36,male,2024-04-16_11h21.26.971,stockport_simplified,2022.2.4,MacIntel,30.03003003,661e456ee6de07e70aa9ef7b,661e5114e993ed2a8dd64f4b,,,,,,,,,,,,,,,,,,,,,,,,,,,,,,,,,,,,,,,,,,,,,,,,,,,,,,,,0,52,52,1,1,A,X,N,o1_image,stimuli/out1.png,stimuli/correct_out1.png,stimuli/out2.png,,,,,,,,,,,,,,,,,,,,,,,,,,,,,,,,,,,,,,
,,5bf077d95fc1db0001305dd4,36,male,2024-04-16_11h21.26.971,stockport_simplified,2022.2.4,MacIntel,30.03003003,661e456ee6de07e70aa9ef7b,661e5114e993ed2a8dd64f4b,,,,,,,,,,,,,,,,,,,,,,,,,,,,,,,,,,324.6325,326.665,"[2,3,7,6,1,4,5,8]","[[0.3,0.2],[-0.3,0.2]]","[[-0.125,-0.2],[0.125,-0.2]]",-0.089014757,-0.215716146,1,0,0,1.4997,o1_image,326.6659,1,327.1653,327.1653,329.1653,0,0,0,0,1,,,,,,,,,,,,,,,,,,,,,,,,,,,,,,,,,,,,,,,,,,,,,,,,,,
,,5bf077d95fc1db0001305dd4,36,male,2024-04-16_11h21.26.971,stockport_simplified,2022.2.4,MacIntel,30.03003003,661e456ee6de07e70aa9ef7b,661e5114e993ed2a8dd64f4b,,,,,,,,,,,,,,,,,,,,,,,,,,,,,,,,,,,,,,,,,,,,,,,,,,,,,,,,0,53,53,30,1,A,X,N,o1_image,stimuli/out1.png,stimuli/correct_out1.png,stimuli/out2.png,,,,,,,,,,,,,,,,,,,,,,,,,,,,,,,,,,,,,,
,,5bf077d95fc1db0001305dd4,36,male,2024-04-16_11h21.26.971,stockport_simplified,2022.2.4,MacIntel,30.03003003,661e456ee6de07e70aa9ef7b,661e5114e993ed2a8dd64f4b,,,,,,,,,,,,,,,,,,,,,,,,,,,,,,,,,,329.1662,330.7652,"[2,3,7,6,1,4,5,8]","[[-0.3,0.2],[0.3,0.2]]","[[-0.125,-0.2],[0.125,-0.2]]",-0.089014757,-0.215716146,1,0,0,1.0661,o1_image,330.7663,0,331.2649,331.2649,333.2652,0,0,0,0,1,,,,,,,,,,,,,,,,,,,,,,,,,,,,,,,,,,,,,,,,,,,,,,,,,,
,,5bf077d95fc1db0001305dd4,36,male,2024-04-16_11h21.26.971,stockport_simplified,2022.2.4,MacIntel,30.03003003,661e456ee6de07e70aa9ef7b,661e5114e993ed2a8dd64f4b,,,,,,,,,,,,,,,,,,,,,,,,,,,,,,,,,,,,,,,,,,,,,,,,,,,,,,,,0,54,54,26,1,N,M,D,o2_image,stimuli/out2.png,stimuli/out1.png,stimuli/correct_out2.png,,,,,,,,,,,,,,,,,,,,,,,,,,,,,,,,,,,,,,
,,5bf077d95fc1db0001305dd4,36,male,2024-04-16_11h21.26.971,stockport_simplified,2022.2.4,MacIntel,30.03003003,661e456ee6de07e70aa9ef7b,661e5114e993ed2a8dd64f4b,,,,,,,,,,,,,,,,,,,,,,,,,,,,,,,,,,333.2658,335.3983,"[2,3,7,6,1,4,5,8]","[[-0.3,0.2],[0.3,0.2]]","[[-0.125,-0.2],[0.125,-0.2]]",-0.089014757,-0.215716146,1,0,0,1.5992,o1_image,335.399,1,335.9,335.9001,337.9,0,0,0,0,1,,,,,,,,,,,,,,,,,,,,,,,,,,,,,,,,,,,,,,,,,,,,,,,,,,
,,5bf077d95fc1db0001305dd4,36,male,2024-04-16_11h21.26.971,stockport_simplified,2022.2.4,MacIntel,30.03003003,661e456ee6de07e70aa9ef7b,661e5114e993ed2a8dd64f4b,,,,,,,,,,,,,,,,,,,,,,,,,,,,,,,,,,,,,,,,,,,,,,,,,,,,,,,,0,55,55,23,1,N,M,C,o1_image,stimuli/out1.png,stimuli/correct_out1.png,stimuli/out2.png,,,,,,,,,,,,,,,,,,,,,,,,,,,,,,,,,,,,,,
,,5bf077d95fc1db0001305dd4,36,male,2024-04-16_11h21.26.971,stockport_simplified,2022.2.4,MacIntel,30.03003003,661e456ee6de07e70aa9ef7b,661e5114e993ed2a8dd64f4b,,,,,,,,,,,,,,,,,,,,,,,,,,,,,,,,,,337.9004,340.2309,"[2,3,7,6,1,4,5,8]","[[0.3,0.2],[-0.3,0.2]]","[[-0.125,-0.2],[0.125,-0.2]]",-0.089014757,-0.215716146,1,0,0,1.7985,o1_image,340.2317,1,340.7319,340.732,342.7312,0,0,0,0,1,,,,,,,,,,,,,,,,,,,,,,,,,,,,,,,,,,,,,,,,,,,,,,,,,,
,,5bf077d95fc1db0001305dd4,36,male,2024-04-16_11h21.26.971,stockport_simplified,2022.2.4,MacIntel,30.03003003,661e456ee6de07e70aa9ef7b,661e5114e993ed2a8dd64f4b,,,,,,,,,,,,,,,,,,,,,,,,,,,,,,,,,,,,,,,,,,,,,,,,,,,,,,,,0,56,56,35,1,A,Y,N,o1_image,stimuli/out1.png,stimuli/correct_out1.png,stimuli/out2.png,,,,,,,,,,,,,,,,,,,,,,,,,,,,,,,,,,,,,,
,,5bf077d95fc1db0001305dd4,36,male,2024-04-16_11h21.26.971,stockport_simplified,2022.2.4,MacIntel,30.03003003,661e456ee6de07e70aa9ef7b,661e5114e993ed2a8dd64f4b,,,,,,,,,,,,,,,,,,,,,,,,,,,,,,,,,,342.7318,345.0988,"[2,3,7,6,1,4,5,8]","[[-0.3,0.2],[0.3,0.2]]","[[0.125,-0.2],[-0.125,-0.2]]",0.120247396,-0.194322917,1,0,0,1.866,o1_image,345.0995,0,345.5991,345.5992,347.5987,0,0,0,0,1,,,,,,,,,,,,,,,,,,,,,,,,,,,,,,,,,,,,,,,,,,,,,,,,,,
,,5bf077d95fc1db0001305dd4,36,male,2024-04-16_11h21.26.971,stockport_simplified,2022.2.4,MacIntel,30.03003003,661e456ee6de07e70aa9ef7b,661e5114e993ed2a8dd64f4b,,,,,,,,,,,,,,,,,,,,,,,,,,,,,,,,,,,,,,,,,,,,,,,,,,,,,,,,0,57,57,12,1,B,X,N,o2_image,stimuli/out2.png,stimuli/out1.png,stimuli/correct_out2.png,,,,,,,,,,,,,,,,,,,,,,,,,,,,,,,,,,,,,,
,,5bf077d95fc1db0001305dd4,36,male,2024-04-16_11h21.26.971,stockport_simplified,2022.2.4,MacIntel,30.03003003,661e456ee6de07e70aa9ef7b,661e5114e993ed2a8dd64f4b,,,,,,,,,,,,,,,,,,,,,,,,,,,,,,,,,,347.5995,349.8655,"[2,3,7,6,1,4,5,8]","[[0.3,0.2],[-0.3,0.2]]","[[0.125,-0.2],[-0.125,-0.2]]",0.087404514,-0.196827257,1,0,0,1.7326,o1_image,349.8789,1,350.3654,350.3655,352.3652,0,0,0,0,1,,,,,,,,,,,,,,,,,,,,,,,,,,,,,,,,,,,,,,,,,,,,,,,,,,
,,5bf077d95fc1db0001305dd4,36,male,2024-04-16_11h21.26.971,stockport_simplified,2022.2.4,MacIntel,30.03003003,661e456ee6de07e70aa9ef7b,661e5114e993ed2a8dd64f4b,,,,,,,,,,,,,,,,,,,,,,,,,,,,,,,,,,,,,,,,,,,,,,,,,,,,,,,,0,58,58,53,1,N,M,C,o1_image,stimuli/out1.png,stimuli/correct_out1.png,stimuli/out2.png,,,,,,,,,,,,,,,,,,,,,,,,,,,,,,,,,,,,,,
,,5bf077d95fc1db0001305dd4,36,male,2024-04-16_11h21.26.971,stockport_simplified,2022.2.4,MacIntel,30.03003003,661e456ee6de07e70aa9ef7b,661e5114e993ed2a8dd64f4b,,,,,,,,,,,,,,,,,,,,,,,,,,,,,,,,,,352.3658,354.6987,"[2,3,7,6,1,4,5,8]","[[0.3,0.2],[-0.3,0.2]]","[[-0.125,-0.2],[0.125,-0.2]]",-0.145815972,-0.242256944,1,0,0,1.799,o1_image,354.6995,1,355.1986,355.1986,357.1986,0,0,0,0,1,,,,,,,,,,,,,,,,,,,,,,,,,,,,,,,,,,,,,,,,,,,,,,,,,,
,,5bf077d95fc1db0001305dd4,36,male,2024-04-16_11h21.26.971,stockport_simplified,2022.2.4,MacIntel,30.03003003,661e456ee6de07e70aa9ef7b,661e5114e993ed2a8dd64f4b,,,,,,,,,,,,,,,,,,,,,,,,,,,,,,,,,,,,,,,,,,,,,,,,,,,,,,,,0,59,59,54,1,N,M,C,o1_image,stimuli/out1.png,stimuli/correct_out1.png,stimuli/out2.png,,,,,,,,,,,,,,,,,,,,,,,,,,,,,,,,,,,,,,
,,5bf077d95fc1db0001305dd4,36,male,2024-04-16_11h21.26.971,stockport_simplified,2022.2.4,MacIntel,30.03003003,661e456ee6de07e70aa9ef7b,661e5114e993ed2a8dd64f4b,,,,,,,,,,,,,,,,,,,,,,,,,,,,,,,,,,357.199,360.2987,"[2,3,7,6,1,4,5,8]","[[0.3,0.2],[-0.3,0.2]]","[[0.125,-0.2],[-0.125,-0.2]]",-0.145815972,-0.2428125,1,0,0,2.5667,o2_image,360.3117,0,360.7987,360.7987,362.7987,0,0,0,0,1,,,,,,,,,,,,,,,,,,,,,,,,,,,,,,,,,,,,,,,,,,,,,,,,,,
,,5bf077d95fc1db0001305dd4,36,male,2024-04-16_11h21.26.971,stockport_simplified,2022.2.4,MacIntel,30.03003003,661e456ee6de07e70aa9ef7b,661e5114e993ed2a8dd64f4b,,,,,,,,,,,,,,,,,,,,,,,,,,,,,,,,,,,,,,,,,,,,,,,,,,,,,,,,1,0,60,38,1,A,Y,N,o1_image,stimuli/out1.png,stimuli/correct_out1.png,stimuli/out2.png,,,,,,,,,,,,,,,,,,,,,,,,,,,,,,,,,,,,,,
,,5bf077d95fc1db0001305dd4,36,male,2024-04-16_11h21.26.971,stockport_simplified,2022.2.4,MacIntel,30.03003003,661e456ee6de07e70aa9ef7b,661e5114e993ed2a8dd64f4b,,,,,,,,,,,,,,,,,,,,,,,,,,,,,,,,,,362.7994,364.832,"[2,3,7,6,1,4,5,8]","[[-0.3,0.2],[0.3,0.2]]","[[0.125,-0.2],[-0.125,-0.2]]",-0.142721354,-0.242196181,1,0,0,1.4991,o2_image,364.8328,1,365.3322,365.3322,367.3318,0,0,0,0,1,,,,,,,,,,,,,,,,,,,,,,,,,,,,,,,,,,,,,,,,,,,,,,,,,,
,,5bf077d95fc1db0001305dd4,36,male,2024-04-16_11h21.26.971,stockport_simplified,2022.2.4,MacIntel,30.03003003,661e456ee6de07e70aa9ef7b,661e5114e993ed2a8dd64f4b,,,,,,,,,,,,,,,,,,,,,,,,,,,,,,,,,,,,,,,,,,,,,,,,,,,,,,,,1,1,61,13,1,B,X,N,o2_image,stimuli/out2.png,stimuli/out1.png,stimuli/correct_out2.png,,,,,,,,,,,,,,,,,,,,,,,,,,,,,,,,,,,,,,
,,5bf077d95fc1db0001305dd4,36,male,2024-04-16_11h21.26.971,stockport_simplified,2022.2.4,MacIntel,30.03003003,661e456ee6de07e70aa9ef7b,661e5114e993ed2a8dd64f4b,,,,,,,,,,,,,,,,,,,,,,,,,,,,,,,,,,367.3322,369.2661,"[2,3,7,6,1,4,5,8]","[[-0.3,0.2],[0.3,0.2]]","[[0.125,-0.2],[-0.125,-0.2]]",0.116037326,-0.213046875,1,0,0,1.4002,o1_image,369.2668,0,369.7656,369.7657,371.7651,0,0,0,0,1,,,,,,,,,,,,,,,,,,,,,,,,,,,,,,,,,,,,,,,,,,,,,,,,,,
,,5bf077d95fc1db0001305dd4,36,male,2024-04-16_11h21.26.971,stockport_simplified,2022.2.4,MacIntel,30.03003003,661e456ee6de07e70aa9ef7b,661e5114e993ed2a8dd64f4b,,,,,,,,,,,,,,,,,,,,,,,,,,,,,,,,,,,,,,,,,,,,,,,,,,,,,,,,1,2,62,47,1,B,Y,N,o2_image,stimuli/out2.png,stimuli/out1.png,stimuli/correct_out2.png,,,,,,,,,,,,,,,,,,,,,,,,,,,,,,,,,,,,,,
,,5bf077d95fc1db0001305dd4,36,male,2024-04-16_11h21.26.971,stockport_simplified,2022.2.4,MacIntel,30.03003003,661e456ee6de07e70aa9ef7b,661e5114e993ed2a8dd64f4b,,,,,,,,,,,,,,,,,,,,,,,,,,,,,,,,,,371.7656,373.8654,"[2,3,7,6,1,4,5,8]","[[-0.3,0.2],[0.3,0.2]]","[[-0.125,-0.2],[0.125,-0.2]]",0.116592882,-0.213602431,1,0,0,1.5664,o2_image,373.8788,1,374.3655,374.3656,376.3655,0,0,0,0,1,,,,,,,,,,,,,,,,,,,,,,,,,,,,,,,,,,,,,,,,,,,,,,,,,,
,,5bf077d95fc1db0001305dd4,36,male,2024-04-16_11h21.26.971,stockport_simplified,2022.2.4,MacIntel,30.03003003,661e456ee6de07e70aa9ef7b,661e5114e993ed2a8dd64f4b,,,,,,,,,,,,,,,,,,,,,,,,,,,,,,,,,,,,,,,,,,,,,,,,,,,,,,,,1,3,63,45,1,B,Y,N,o2_image,stimuli/out2.png,stimuli/out1.png,stimuli/correct_out2.png,,,,,,,,,,,,,,,,,,,,,,,,,,,,,,,,,,,,,,
,,5bf077d95fc1db0001305dd4,36,male,2024-04-16_11h21.26.971,stockport_simplified,2022.2.4,MacIntel,30.03003003,661e456ee6de07e70aa9ef7b,661e5114e993ed2a8dd64f4b,,,,,,,,,,,,,,,,,,,,,,,,,,,,,,,,,,376.3662,378.3324,"[2,3,7,6,1,4,5,8]","[[-0.3,0.2],[0.3,0.2]]","[[-0.125,-0.2],[0.125,-0.2]]",0.116592882,-0.213602431,1,0,0,1.4314,o2_image,378.3335,1,378.8322,378.8322,380.8323,0,0,0,0,1,,,,,,,,,,,,,,,,,,,,,,,,,,,,,,,,,,,,,,,,,,,,,,,,,,
,,5bf077d95fc1db0001305dd4,36,male,2024-04-16_11h21.26.971,stockport_simplified,2022.2.4,MacIntel,30.03003003,661e456ee6de07e70aa9ef7b,661e5114e993ed2a8dd64f4b,,,,,,,,,,,,,,,,,,,,,,,,,,,,,,,,,,,,,,,,,,,,,,,,,,,,,,,,1,4,64,44,1,B,X,N,o2_image,stimuli/out2.png,stimuli/out1.png,stimuli/correct_out2.png,,,,,,,,,,,,,,,,,,,,,,,,,,,,,,,,,,,,,,
,,5bf077d95fc1db0001305dd4,36,male,2024-04-16_11h21.26.971,stockport_simplified,2022.2.4,MacIntel,30.03003003,661e456ee6de07e70aa9ef7b,661e5114e993ed2a8dd64f4b,,,,,,,,,,,,,,,,,,,,,,,,,,,,,,,,,,380.833,386.1324,"[2,3,7,6,1,4,5,8]","[[-0.3,0.2],[0.3,0.2]]","[[-0.125,-0.2],[0.125,-0.2]]",-0.066215278,-0.202291667,1,0,0,4.7662,o1_image,386.1462,1,386.6324,386.6325,388.6322,0,0,0,0,1,,,,,,,,,,,,,,,,,,,,,,,,,,,,,,,,,,,,,,,,,,,,,,,,,,
,,5bf077d95fc1db0001305dd4,36,male,2024-04-16_11h21.26.971,stockport_simplified,2022.2.4,MacIntel,30.03003003,661e456ee6de07e70aa9ef7b,661e5114e993ed2a8dd64f4b,,,,,,,,,,,,,,,,,,,,,,,,,,,,,,,,,,,,,,,,,,,,,,,,,,,,,,,,1,5,65,39,1,A,Y,N,o1_image,stimuli/out1.png,stimuli/correct_out1.png,stimuli/out2.png,,,,,,,,,,,,,,,,,,,,,,,,,,,,,,,,,,,,,,
,,5bf077d95fc1db0001305dd4,36,male,2024-04-16_11h21.26.971,stockport_simplified,2022.2.4,MacIntel,30.03003003,661e456ee6de07e70aa9ef7b,661e5114e993ed2a8dd64f4b,,,,,,,,,,,,,,,,,,,,,,,,,,,,,,,,,,388.6328,391.2654,"[2,3,7,6,1,4,5,8]","[[0.3,0.2],[-0.3,0.2]]","[[0.125,-0.2],[-0.125,-0.2]]",0.10405816,-0.205104167,1,0,0,2.0992,o1_image,391.2661,0,391.7656,391.7656,393.7656,0,0,0,0,1,,,,,,,,,,,,,,,,,,,,,,,,,,,,,,,,,,,,,,,,,,,,,,,,,,
,,5bf077d95fc1db0001305dd4,36,male,2024-04-16_11h21.26.971,stockport_simplified,2022.2.4,MacIntel,30.03003003,661e456ee6de07e70aa9ef7b,661e5114e993ed2a8dd64f4b,,,,,,,,,,,,,,,,,,,,,,,,,,,,,,,,,,,,,,,,,,,,,,,,,,,,,,,,1,6,66,14,1,B,X,N,o2_image,stimuli/out2.png,stimuli/out1.png,stimuli/correct_out2.png,,,,,,,,,,,,,,,,,,,,,,,,,,,,,,,,,,,,,,
,,5bf077d95fc1db0001305dd4,36,male,2024-04-16_11h21.26.971,stockport_simplified,2022.2.4,MacIntel,30.03003003,661e456ee6de07e70aa9ef7b,661e5114e993ed2a8dd64f4b,,,,,,,,,,,,,,,,,,,,,,,,,,,,,,,,,,393.7663,396.6655,"[2,3,7,6,1,4,5,8]","[[0.3,0.2],[-0.3,0.2]]","[[-0.125,-0.2],[0.125,-0.2]]",0.105724826,-0.205659722,1,0,0,2.3659,o2_image,396.6796,0,397.1656,397.1657,399.1654,0,0,0,0,1,,,,,,,,,,,,,,,,,,,,,,,,,,,,,,,,,,,,,,,,,,,,,,,,,,
,,5bf077d95fc1db0001305dd4,36,male,2024-04-16_11h21.26.971,stockport_simplified,2022.2.4,MacIntel,30.03003003,661e456ee6de07e70aa9ef7b,661e5114e993ed2a8dd64f4b,,,,,,,,,,,,,,,,,,,,,,,,,,,,,,,,,,,,,,,,,,,,,,,,,,,,,,,,1,7,67,31,1,A,X,N,o1_image,stimuli/out1.png,stimuli/correct_out1.png,stimuli/out2.png,,,,,,,,,,,,,,,,,,,,,,,,,,,,,,,,,,,,,,
,,5bf077d95fc1db0001305dd4,36,male,2024-04-16_11h21.26.971,stockport_simplified,2022.2.4,MacIntel,30.03003003,661e456ee6de07e70aa9ef7b,661e5114e993ed2a8dd64f4b,,,,,,,,,,,,,,,,,,,,,,,,,,,,,,,,,,399.166,401.3657,"[2,3,7,6,1,4,5,8]","[[0.3,0.2],[-0.3,0.2]]","[[-0.125,-0.2],[0.125,-0.2]]",-0.124466146,-0.226532118,1,0,0,1.6664,o1_image,401.3665,1,401.8657,401.8658,403.8657,0,0,0,0,1,,,,,,,,,,,,,,,,,,,,,,,,,,,,,,,,,,,,,,,,,,,,,,,,,,
,,5bf077d95fc1db0001305dd4,36,male,2024-04-16_11h21.26.971,stockport_simplified,2022.2.4,MacIntel,30.03003003,661e456ee6de07e70aa9ef7b,661e5114e993ed2a8dd64f4b,,,,,,,,,,,,,,,,,,,,,,,,,,,,,,,,,,,,,,,,,,,,,,,,,,,,,,,,1,8,68,8,1,A,Y,N,o1_image,stimuli/out1.png,stimuli/correct_out1.png,stimuli/out2.png,,,,,,,,,,,,,,,,,,,,,,,,,,,,,,,,,,,,,,
,,5bf077d95fc1db0001305dd4,36,male,2024-04-16_11h21.26.971,stockport_simplified,2022.2.4,MacIntel,30.03003003,661e456ee6de07e70aa9ef7b,661e5114e993ed2a8dd64f4b,,,,,,,,,,,,,,,,,,,,,,,,,,,,,,,,,,403.8663,405.432,"[2,3,7,6,1,4,5,8]","[[0.3,0.2],[-0.3,0.2]]","[[0.125,-0.2],[-0.125,-0.2]]",-0.122486979,-0.226532118,1,0,0,1.0315,o2_image,405.4325,1,405.9322,405.9322,407.9322,0,0,0,0,1,,,,,,,,,,,,,,,,,,,,,,,,,,,,,,,,,,,,,,,,,,,,,,,,,,
,,5bf077d95fc1db0001305dd4,36,male,2024-04-16_11h21.26.971,stockport_simplified,2022.2.4,MacIntel,30.03003003,661e456ee6de07e70aa9ef7b,661e5114e993ed2a8dd64f4b,,,,,,,,,,,,,,,,,,,,,,,,,,,,,,,,,,,,,,,,,,,,,,,,,,,,,,,,1,9,69,59,1,N,M,D,o2_image,stimuli/out2.png,stimuli/out1.png,stimuli/correct_out2.png,,,,,,,,,,,,,,,,,,,,,,,,,,,,,,,,,,,,,,
,,5bf077d95fc1db0001305dd4,36,male,2024-04-16_11h21.26.971,stockport_simplified,2022.2.4,MacIntel,30.03003003,661e456ee6de07e70aa9ef7b,661e5114e993ed2a8dd64f4b,,,,,,,,,,,,,,,,,,,,,,,,,,,,,,,,,,407.9328,409.866,"[2,3,7,6,1,4,5,8]","[[-0.3,0.2],[0.3,0.2]]","[[-0.125,-0.2],[0.125,-0.2]]",-0.081901042,-0.205598958,1,0,0,1.3997,o1_image,409.8669,1,410.3658,410.3658,412.3657,0,0,0,0,1,,,,,,,,,,,,,,,,,,,,,,,,,,,,,,,,,,,,,,,,,,,,,,,,,,
,,5bf077d95fc1db0001305dd4,36,male,2024-04-16_11h21.26.971,stockport_simplified,2022.2.4,MacIntel,30.03003003,661e456ee6de07e70aa9ef7b,661e5114e993ed2a8dd64f4b,,,,,,,,,,,,,,,,,,,,,,,,,,,,,,,,,,,,,,,,,,,,,,,,,,,,,,,,1,10,70,21,1,N,M,C,o1_image,stimuli/out1.png,stimuli/correct_out1.png,stimuli/out2.png,,,,,,,,,,,,,,,,,,,,,,,,,,,,,,,,,,,,,,
,,5bf077d95fc1db0001305dd4,36,male,2024-04-16_11h21.26.971,stockport_simplified,2022.2.4,MacIntel,30.03003003,661e456ee6de07e70aa9ef7b,661e5114e993ed2a8dd64f4b,,,,,,,,,,,,,,,,,,,,,,,,,,,,,,,,,,412.3665,414.7991,"[2,3,7,6,1,4,5,8]","[[0.3,0.2],[-0.3,0.2]]","[[0.125,-0.2],[-0.125,-0.2]]",0.128528646,-0.197057292,1,0,0,1.8976,o1_image,414.8001,1,415.299,415.2991,417.2991,0,0,0,0,1,,,,,,,,,,,,,,,,,,,,,,,,,,,,,,,,,,,,,,,,,,,,,,,,,,
,,5bf077d95fc1db0001305dd4,36,male,2024-04-16_11h21.26.971,stockport_simplified,2022.2.4,MacIntel,30.03003003,661e456ee6de07e70aa9ef7b,661e5114e993ed2a8dd64f4b,,,,,,,,,,,,,,,,,,,,,,,,,,,,,,,,,,,,,,,,,,,,,,,,,,,,,,,,1,11,71,51,1,N,M,C,o1_image,stimuli/out1.png,stimuli/correct_out1.png,stimuli/out2.png,,,,,,,,,,,,,,,,,,,,,,,,,,,,,,,,,,,,,,
,,5bf077d95fc1db0001305dd4,36,male,2024-04-16_11h21.26.971,stockport_simplified,2022.2.4,MacIntel,30.03003003,661e456ee6de07e70aa9ef7b,661e5114e993ed2a8dd64f4b,,,,,,,,,,,,,,,,,,,,,,,,,,,,,,,,,,417.2997,419.166,"[2,3,7,6,1,4,5,8]","[[0.3,0.2],[-0.3,0.2]]","[[0.125,-0.2],[-0.125,-0.2]]",0.115716146,-0.197539063,1,0,0,1.333,o1_image,419.1672,0,419.6659,419.666,421.6656,0,0,0,0,1,,,,,,,,,,,,,,,,,,,,,,,,,,,,,,,,,,,,,,,,,,,,,,,,,,
,,5bf077d95fc1db0001305dd4,36,male,2024-04-16_11h21.26.971,stockport_simplified,2022.2.4,MacIntel,30.03003003,661e456ee6de07e70aa9ef7b,661e5114e993ed2a8dd64f4b,,,,,,,,,,,,,,,,,,,,,,,,,,,,,,,,,,,,,,,,,,,,,,,,,,,,,,,,1,12,72,11,1,B,X,N,o2_image,stimuli/out2.png,stimuli/out1.png,stimuli/correct_out2.png,,,,,,,,,,,,,,,,,,,,,,,,,,,,,,,,,,,,,,
,,5bf077d95fc1db0001305dd4,36,male,2024-04-16_11h21.26.971,stockport_simplified,2022.2.4,MacIntel,30.03003003,661e456ee6de07e70aa9ef7b,661e5114e993ed2a8dd64f4b,,,,,,,,,,,,,,,,,,,,,,,,,,,,,,,,,,421.6663,424.2656,"[2,3,7,6,1,4,5,8]","[[-0.3,0.2],[0.3,0.2]]","[[-0.125,-0.2],[0.125,-0.2]]",0.115716146,-0.197539063,1,0,0,2.0663,o2_image,424.2803,0,424.7658,424.7659,426.7658,0,0,0,0,1,,,,,,,,,,,,,,,,,,,,,,,,,,,,,,,,,,,,,,,,,,,,,,,,,,
,,5bf077d95fc1db0001305dd4,36,male,2024-04-16_11h21.26.971,stockport_simplified,2022.2.4,MacIntel,30.03003003,661e456ee6de07e70aa9ef7b,661e5114e993ed2a8dd64f4b,,,,,,,,,,,,,,,,,,,,,,,,,,,,,,,,,,,,,,,,,,,,,,,,,,,,,,,,1,13,73,1,1,A,X,N,o1_image,stimuli/out1.png,stimuli/correct_out1.png,stimuli/out2.png,,,,,,,,,,,,,,,,,,,,,,,,,,,,,,,,,,,,,,
,,5bf077d95fc1db0001305dd4,36,male,2024-04-16_11h21.26.971,stockport_simplified,2022.2.4,MacIntel,30.03003003,661e456ee6de07e70aa9ef7b,661e5114e993ed2a8dd64f4b,,,,,,,,,,,,,,,,,,,,,,,,,,,,,,,,,,426.7664,429.4317,"[2,3,7,6,1,4,5,8]","[[-0.3,0.2],[0.3,0.2]]","[[0.125,-0.2],[-0.125,-0.2]]",-0.062608507,-0.20375,1,0,0,2.1324,o2_image,429.4325,0,429.9322,429.9323,431.9323,0,0,0,0,1,,,,,,,,,,,,,,,,,,,,,,,,,,,,,,,,,,,,,,,,,,,,,,,,,,
,,5bf077d95fc1db0001305dd4,36,male,2024-04-16_11h21.26.971,stockport_simplified,2022.2.4,MacIntel,30.03003003,661e456ee6de07e70aa9ef7b,661e5114e993ed2a8dd64f4b,,,,,,,,,,,,,,,,,,,,,,,,,,,,,,,,,,,,,,,,,,,,,,,,,,,,,,,,1,14,74,4,1,A,X,N,o1_image,stimuli/out1.png,stimuli/correct_out1.png,stimuli/out2.png,,,,,,,,,,,,,,,,,,,,,,,,,,,,,,,,,,,,,,
,,5bf077d95fc1db0001305dd4,36,male,2024-04-16_11h21.26.971,stockport_simplified,2022.2.4,MacIntel,30.03003003,661e456ee6de07e70aa9ef7b,661e5114e993ed2a8dd64f4b,,,,,,,,,,,,,,,,,,,,,,,,,,,,,,,,,,431.9328,436.5327,"[2,3,7,6,1,4,5,8]","[[0.3,0.2],[-0.3,0.2]]","[[-0.125,-0.2],[0.125,-0.2]]",0.113897569,-0.171662326,1,0,0,4.0652,o2_image,436.546,0,437.0326,437.0326,439.0325,0,0,0,0,1,,,,,,,,,,,,,,,,,,,,,,,,,,,,,,,,,,,,,,,,,,,,,,,,,,
,,5bf077d95fc1db0001305dd4,36,male,2024-04-16_11h21.26.971,stockport_simplified,2022.2.4,MacIntel,30.03003003,661e456ee6de07e70aa9ef7b,661e5114e993ed2a8dd64f4b,,,,,,,,,,,,,,,,,,,,,,,,,,,,,,,,,,,,,,,,,,,,,,,,,,,,,,,,1,15,75,30,1,A,X,N,o1_image,stimuli/out1.png,stimuli/correct_out1.png,stimuli/out2.png,,,,,,,,,,,,,,,,,,,,,,,,,,,,,,,,,,,,,,
,,5bf077d95fc1db0001305dd4,36,male,2024-04-16_11h21.26.971,stockport_simplified,2022.2.4,MacIntel,30.03003003,661e456ee6de07e70aa9ef7b,661e5114e993ed2a8dd64f4b,,,,,,,,,,,,,,,,,,,,,,,,,,,,,,,,,,439.0333,440.7328,"[2,3,7,6,1,4,5,8]","[[0.3,0.2],[-0.3,0.2]]","[[0.125,-0.2],[-0.125,-0.2]]",-0.068125,-0.204392361,1,0,0,1.1663,o2_image,440.7337,0,441.2327,441.2327,443.2325,0,0,0,0,1,,,,,,,,,,,,,,,,,,,,,,,,,,,,,,,,,,,,,,,,,,,,,,,,,,
,,5bf077d95fc1db0001305dd4,36,male,2024-04-16_11h21.26.971,stockport_simplified,2022.2.4,MacIntel,30.03003003,661e456ee6de07e70aa9ef7b,661e5114e993ed2a8dd64f4b,,,,,,,,,,,,,,,,,,,,,,,,,,,,,,,,,,,,,,,,,,,,,,,,,,,,,,,,1,16,76,9,1,A,Y,N,o1_image,stimuli/out1.png,stimuli/correct_out1.png,stimuli/out2.png,,,,,,,,,,,,,,,,,,,,,,,,,,,,,,,,,,,,,,
,,5bf077d95fc1db0001305dd4,36,male,2024-04-16_11h21.26.971,stockport_simplified,2022.2.4,MacIntel,30.03003003,661e456ee6de07e70aa9ef7b,661e5114e993ed2a8dd64f4b,,,,,,,,,,,,,,,,,,,,,,,,,,,,,,,,,,443.2332,445.0991,"[2,3,7,6,1,4,5,8]","[[-0.3,0.2],[0.3,0.2]]","[[0.125,-0.2],[-0.125,-0.2]]",-0.068680556,-0.204947917,1,0,0,1.3326,o2_image,445.1,1,445.5992,445.5993,447.5992,0,0,0,0,1,,,,,,,,,,,,,,,,,,,,,,,,,,,,,,,,,,,,,,,,,,,,,,,,,,
,,5bf077d95fc1db0001305dd4,36,male,2024-04-16_11h21.26.971,stockport_simplified,2022.2.4,MacIntel,30.03003003,661e456ee6de07e70aa9ef7b,661e5114e993ed2a8dd64f4b,,,,,,,,,,,,,,,,,,,,,,,,,,,,,,,,,,,,,,,,,,,,,,,,,,,,,,,,1,17,77,40,1,B,X,N,o2_image,stimuli/out2.png,stimuli/out1.png,stimuli/correct_out2.png,,,,,,,,,,,,,,,,,,,,,,,,,,,,,,,,,,,,,,
,,5bf077d95fc1db0001305dd4,36,male,2024-04-16_11h21.26.971,stockport_simplified,2022.2.4,MacIntel,30.03003003,661e456ee6de07e70aa9ef7b,661e5114e993ed2a8dd64f4b,,,,,,,,,,,,,,,,,,,,,,,,,,,,,,,,,,447.5999,449.566,"[2,3,7,6,1,4,5,8]","[[0.3,0.2],[-0.3,0.2]]","[[0.125,-0.2],[-0.125,-0.2]]",-0.068680556,-0.204947917,1,0,0,1.4333,o2_image,449.5671,1,450.066,450.0661,452.0659,0,0,0,0,1,,,,,,,,,,,,,,,,,,,,,,,,,,,,,,,,,,,,,,,,,,,,,,,,,,
,,5bf077d95fc1db0001305dd4,36,male,2024-04-16_11h21.26.971,stockport_simplified,2022.2.4,MacIntel,30.03003003,661e456ee6de07e70aa9ef7b,661e5114e993ed2a8dd64f4b,,,,,,,,,,,,,,,,,,,,,,,,,,,,,,,,,,,,,,,,,,,,,,,,,,,,,,,,1,18,78,41,1,B,X,N,o2_image,stimuli/out2.png,stimuli/out1.png,stimuli/correct_out2.png,,,,,,,,,,,,,,,,,,,,,,,,,,,,,,,,,,,,,,
,,5bf077d95fc1db0001305dd4,36,male,2024-04-16_11h21.26.971,stockport_simplified,2022.2.4,MacIntel,30.03003003,661e456ee6de07e70aa9ef7b,661e5114e993ed2a8dd64f4b,,,,,,,,,,,,,,,,,,,,,,,,,,,,,,,,,,452.0666,456.2327,"[2,3,7,6,1,4,5,8]","[[0.3,0.2],[-0.3,0.2]]","[[-0.125,-0.2],[0.125,-0.2]]",-0.068680556,-0.204947917,1,0,0,3.6328,o1_image,456.2459,0,456.7325,456.7325,458.7326,0,0,0,0,1,,,,,,,,,,,,,,,,,,,,,,,,,,,,,,,,,,,,,,,,,,,,,,,,,,
,,5bf077d95fc1db0001305dd4,36,male,2024-04-16_11h21.26.971,stockport_simplified,2022.2.4,MacIntel,30.03003003,661e456ee6de07e70aa9ef7b,661e5114e993ed2a8dd64f4b,,,,,,,,,,,,,,,,,,,,,,,,,,,,,,,,,,,,,,,,,,,,,,,,,,,,,,,,1,19,79,17,1,B,Y,N,o2_image,stimuli/out2.png,stimuli/out1.png,stimuli/correct_out2.png,,,,,,,,,,,,,,,,,,,,,,,,,,,,,,,,,,,,,,
,,5bf077d95fc1db0001305dd4,36,male,2024-04-16_11h21.26.971,stockport_simplified,2022.2.4,MacIntel,30.03003003,661e456ee6de07e70aa9ef7b,661e5114e993ed2a8dd64f4b,,,,,,,,,,,,,,,,,,,,,,,,,,,,,,,,,,458.7334,461.0326,"[2,3,7,6,1,4,5,8]","[[0.3,0.2],[-0.3,0.2]]","[[-0.125,-0.2],[0.125,-0.2]]",-0.068680556,-0.204947917,1,0,0,1.766,o1_image,461.0337,1,461.5327,461.5327,463.5326,0,0,0,0,1,,,,,,,,,,,,,,,,,,,,,,,,,,,,,,,,,,,,,,,,,,,,,,,,,,
,,5bf077d95fc1db0001305dd4,36,male,2024-04-16_11h21.26.971,stockport_simplified,2022.2.4,MacIntel,30.03003003,661e456ee6de07e70aa9ef7b,661e5114e993ed2a8dd64f4b,,,,,,,,,,,,,,,,,,,,,,,,,,,,,,,,,,,,,,,,,,,,,,,,,,,,,,,,1,20,80,53,1,N,M,C,o1_image,stimuli/out1.png,stimuli/correct_out1.png,stimuli/out2.png,,,,,,,,,,,,,,,,,,,,,,,,,,,,,,,,,,,,,,
,,5bf077d95fc1db0001305dd4,36,male,2024-04-16_11h21.26.971,stockport_simplified,2022.2.4,MacIntel,30.03003003,661e456ee6de07e70aa9ef7b,661e5114e993ed2a8dd64f4b,,,,,,,,,,,,,,,,,,,,,,,,,,,,,,,,,,463.5333,466.8328,"[2,3,7,6,1,4,5,8]","[[0.3,0.2],[-0.3,0.2]]","[[0.125,-0.2],[-0.125,-0.2]]",-0.075985243,-0.20640625,1,0,0,2.766,o2_image,466.8458,1,467.3327,467.3327,469.3327,0,0,0,0,1,,,,,,,,,,,,,,,,,,,,,,,,,,,,,,,,,,,,,,,,,,,,,,,,,,
,,5bf077d95fc1db0001305dd4,36,male,2024-04-16_11h21.26.971,stockport_simplified,2022.2.4,MacIntel,30.03003003,661e456ee6de07e70aa9ef7b,661e5114e993ed2a8dd64f4b,,,,,,,,,,,,,,,,,,,,,,,,,,,,,,,,,,,,,,,,,,,,,,,,,,,,,,,,1,21,81,12,1,B,X,N,o2_image,stimuli/out2.png,stimuli/out1.png,stimuli/correct_out2.png,,,,,,,,,,,,,,,,,,,,,,,,,,,,,,,,,,,,,,
,,5bf077d95fc1db0001305dd4,36,male,2024-04-16_11h21.26.971,stockport_simplified,2022.2.4,MacIntel,30.03003003,661e456ee6de07e70aa9ef7b,661e5114e993ed2a8dd64f4b,,,,,,,,,,,,,,,,,,,,,,,,,,,,,,,,,,469.3333,471.3661,"[2,3,7,6,1,4,5,8]","[[-0.3,0.2],[0.3,0.2]]","[[0.125,-0.2],[-0.125,-0.2]]",0.050203993,-0.198632813,1,0,0,1.4996,o1_image,471.3669,1,471.866,471.866,473.866,0,0,0,0,1,,,,,,,,,,,,,,,,,,,,,,,,,,,,,,,,,,,,,,,,,,,,,,,,,,
,,5bf077d95fc1db0001305dd4,36,male,2024-04-16_11h21.26.971,stockport_simplified,2022.2.4,MacIntel,30.03003003,661e456ee6de07e70aa9ef7b,661e5114e993ed2a8dd64f4b,,,,,,,,,,,,,,,,,,,,,,,,,,,,,,,,,,,,,,,,,,,,,,,,,,,,,,,,1,22,82,32,1,A,X,N,o1_image,stimuli/out1.png,stimuli/correct_out1.png,stimuli/out2.png,,,,,,,,,,,,,,,,,,,,,,,,,,,,,,,,,,,,,,
,,5bf077d95fc1db0001305dd4,36,male,2024-04-16_11h21.26.971,stockport_simplified,2022.2.4,MacIntel,30.03003003,661e456ee6de07e70aa9ef7b,661e5114e993ed2a8dd64f4b,,,,,,,,,,,,,,,,,,,,,,,,,,,,,,,,,,473.8666,476.0332,"[2,3,7,6,1,4,5,8]","[[0.3,0.2],[-0.3,0.2]]","[[-0.125,-0.2],[0.125,-0.2]]",-0.141571181,-0.216397569,1,0,0,1.6302,o1_image,476.0474,1,476.5328,476.5329,478.5328,0,0,0,0,1,,,,,,,,,,,,,,,,,,,,,,,,,,,,,,,,,,,,,,,,,,,,,,,,,,
,,5bf077d95fc1db0001305dd4,36,male,2024-04-16_11h21.26.971,stockport_simplified,2022.2.4,MacIntel,30.03003003,661e456ee6de07e70aa9ef7b,661e5114e993ed2a8dd64f4b,,,,,,,,,,,,,,,,,,,,,,,,,,,,,,,,,,,,,,,,,,,,,,,,,,,,,,,,1,23,83,52,1,N,M,C,o1_image,stimuli/out1.png,stimuli/correct_out1.png,stimuli/out2.png,,,,,,,,,,,,,,,,,,,,,,,,,,,,,,,,,,,,,,
,,5bf077d95fc1db0001305dd4,36,male,2024-04-16_11h21.26.971,stockport_simplified,2022.2.4,MacIntel,30.03003003,661e456ee6de07e70aa9ef7b,661e5114e993ed2a8dd64f4b,,,,,,,,,,,,,,,,,,,,,,,,,,,,,,,,,,478.5336,480.2661,"[2,3,7,6,1,4,5,8]","[[-0.3,0.2],[0.3,0.2]]","[[-0.125,-0.2],[0.125,-0.2]]",-0.122421875,-0.214952257,1,0,0,1.1995,o1_image,480.267,0,480.7661,480.7661,482.7661,0,0,0,0,1,,,,,,,,,,,,,,,,,,,,,,,,,,,,,,,,,,,,,,,,,,,,,,,,,,
,,5bf077d95fc1db0001305dd4,36,male,2024-04-16_11h21.26.971,stockport_simplified,2022.2.4,MacIntel,30.03003003,661e456ee6de07e70aa9ef7b,661e5114e993ed2a8dd64f4b,,,,,,,,,,,,,,,,,,,,,,,,,,,,,,,,,,,,,,,,,,,,,,,,,,,,,,,,1,24,84,56,1,N,M,D,o2_image,stimuli/out2.png,stimuli/out1.png,stimuli/correct_out2.png,,,,,,,,,,,,,,,,,,,,,,,,,,,,,,,,,,,,,,
,,5bf077d95fc1db0001305dd4,36,male,2024-04-16_11h21.26.971,stockport_simplified,2022.2.4,MacIntel,30.03003003,661e456ee6de07e70aa9ef7b,661e5114e993ed2a8dd64f4b,,,,,,,,,,,,,,,,,,,,,,,,,,,,,,,,,,482.7668,484.9993,"[2,3,7,6,1,4,5,8]","[[0.3,0.2],[-0.3,0.2]]","[[0.125,-0.2],[-0.125,-0.2]]",-0.121866319,-0.214952257,1,0,0,1.6992,o2_image,485.0001,1,485.4994,485.4995,487.4994,0,0,0,0,1,,,,,,,,,,,,,,,,,,,,,,,,,,,,,,,,,,,,,,,,,,,,,,,,,,
,,5bf077d95fc1db0001305dd4,36,male,2024-04-16_11h21.26.971,stockport_simplified,2022.2.4,MacIntel,30.03003003,661e456ee6de07e70aa9ef7b,661e5114e993ed2a8dd64f4b,,,,,,,,,,,,,,,,,,,,,,,,,,,,,,,,,,,,,,,,,,,,,,,,,,,,,,,,1,25,85,18,1,B,Y,N,o2_image,stimuli/out2.png,stimuli/out1.png,stimuli/correct_out2.png,,,,,,,,,,,,,,,,,,,,,,,,,,,,,,,,,,,,,,
,,5bf077d95fc1db0001305dd4,36,male,2024-04-16_11h21.26.971,stockport_simplified,2022.2.4,MacIntel,30.03003003,661e456ee6de07e70aa9ef7b,661e5114e993ed2a8dd64f4b,,,,,,,,,,,,,,,,,,,,,,,,,,,,,,,,,,487.5001,489.9327,"[2,3,7,6,1,4,5,8]","[[-0.3,0.2],[0.3,0.2]]","[[0.125,-0.2],[-0.125,-0.2]]",-0.121866319,-0.214952257,1,0,0,1.8998,o2_image,489.9336,1,490.4326,490.4326,492.4323,0,0,0,0,1,,,,,,,,,,,,,,,,,,,,,,,,,,,,,,,,,,,,,,,,,,,,,,,,,,
,,5bf077d95fc1db0001305dd4,36,male,2024-04-16_11h21.26.971,stockport_simplified,2022.2.4,MacIntel,30.03003003,661e456ee6de07e70aa9ef7b,661e5114e993ed2a8dd64f4b,,,,,,,,,,,,,,,,,,,,,,,,,,,,,,,,,,,,,,,,,,,,,,,,,,,,,,,,1,26,86,15,1,B,Y,N,o2_image,stimuli/out2.png,stimuli/out1.png,stimuli/correct_out2.png,,,,,,,,,,,,,,,,,,,,,,,,,,,,,,,,,,,,,,
,,5bf077d95fc1db0001305dd4,36,male,2024-04-16_11h21.26.971,stockport_simplified,2022.2.4,MacIntel,30.03003003,661e456ee6de07e70aa9ef7b,661e5114e993ed2a8dd64f4b,,,,,,,,,,,,,,,,,,,,,,,,,,,,,,,,,,492.4326,495.1664,"[2,3,7,6,1,4,5,8]","[[0.3,0.2],[-0.3,0.2]]","[[-0.125,-0.2],[0.125,-0.2]]",0.066467014,-0.225959201,1,0,0,2.1994,o2_image,495.1673,1,495.6664,495.6664,497.6665,0,0,0,0,1,,,,,,,,,,,,,,,,,,,,,,,,,,,,,,,,,,,,,,,,,,,,,,,,,,
,,5bf077d95fc1db0001305dd4,36,male,2024-04-16_11h21.26.971,stockport_simplified,2022.2.4,MacIntel,30.03003003,661e456ee6de07e70aa9ef7b,661e5114e993ed2a8dd64f4b,,,,,,,,,,,,,,,,,,,,,,,,,,,,,,,,,,,,,,,,,,,,,,,,,,,,,,,,1,27,87,29,1,N,M,D,o2_image,stimuli/out2.png,stimuli/out1.png,stimuli/correct_out2.png,,,,,,,,,,,,,,,,,,,,,,,,,,,,,,,,,,,,,,
,,5bf077d95fc1db0001305dd4,36,male,2024-04-16_11h21.26.971,stockport_simplified,2022.2.4,MacIntel,30.03003003,661e456ee6de07e70aa9ef7b,661e5114e993ed2a8dd64f4b,,,,,,,,,,,,,,,,,,,,,,,,,,,,,,,,,,497.6674,499.2327,"[2,3,7,6,1,4,5,8]","[[0.3,0.2],[-0.3,0.2]]","[[-0.125,-0.2],[0.125,-0.2]]",0.126766493,-0.209618056,1,0,0,1.0331,o2_image,499.2334,1,499.7329,499.7329,501.7327,0,0,0,0,1,,,,,,,,,,,,,,,,,,,,,,,,,,,,,,,,,,,,,,,,,,,,,,,,,,
,,5bf077d95fc1db0001305dd4,36,male,2024-04-16_11h21.26.971,stockport_simplified,2022.2.4,MacIntel,30.03003003,661e456ee6de07e70aa9ef7b,661e5114e993ed2a8dd64f4b,,,,,,,,,,,,,,,,,,,,,,,,,,,,,,,,,,,,,,,,,,,,,,,,,,,,,,,,1,28,88,25,1,N,M,D,o2_image,stimuli/out2.png,stimuli/out1.png,stimuli/correct_out2.png,,,,,,,,,,,,,,,,,,,,,,,,,,,,,,,,,,,,,,
,,5bf077d95fc1db0001305dd4,36,male,2024-04-16_11h21.26.971,stockport_simplified,2022.2.4,MacIntel,30.03003003,661e456ee6de07e70aa9ef7b,661e5114e993ed2a8dd64f4b,,,,,,,,,,,,,,,,,,,,,,,,,,,,,,,,,,501.7332,503.4328,"[2,3,7,6,1,4,5,8]","[[0.3,0.2],[-0.3,0.2]]","[[0.125,-0.2],[-0.125,-0.2]]",-0.104305556,-0.237374132,1,0,0,1.1663,o2_image,503.4336,1,503.9327,503.9327,505.9327,0,0,0,0,1,,,,,,,,,,,,,,,,,,,,,,,,,,,,,,,,,,,,,,,,,,,,,,,,,,
,,5bf077d95fc1db0001305dd4,36,male,2024-04-16_11h21.26.971,stockport_simplified,2022.2.4,MacIntel,30.03003003,661e456ee6de07e70aa9ef7b,661e5114e993ed2a8dd64f4b,,,,,,,,,,,,,,,,,,,,,,,,,,,,,,,,,,,,,,,,,,,,,,,,,,,,,,,,1,29,89,55,1,N,M,D,o2_image,stimuli/out2.png,stimuli/out1.png,stimuli/correct_out2.png,,,,,,,,,,,,,,,,,,,,,,,,,,,,,,,,,,,,,,
,,5bf077d95fc1db0001305dd4,36,male,2024-04-16_11h21.26.971,stockport_simplified,2022.2.4,MacIntel,30.03003003,661e456ee6de07e70aa9ef7b,661e5114e993ed2a8dd64f4b,,,,,,,,,,,,,,,,,,,,,,,,,,,,,,,,,,505.9334,507.7992,"[2,3,7,6,1,4,5,8]","[[0.3,0.2],[-0.3,0.2]]","[[-0.125,-0.2],[0.125,-0.2]]",0.161866319,-0.221184896,1,0,0,1.333,o2_image,507.7999,1,508.2995,508.2996,510.2996,0,0,0,0,1,,,,,,,,,,,,,,,,,,,,,,,,,,,,,,,,,,,,,,,,,,,,,,,,,,
,,5bf077d95fc1db0001305dd4,36,male,2024-04-16_11h21.26.971,stockport_simplified,2022.2.4,MacIntel,30.03003003,661e456ee6de07e70aa9ef7b,661e5114e993ed2a8dd64f4b,,,,,,,,,,,,,,,,,,,,,,,,,,,,,,,,,,,,,,,,,,,,,,,,,,,,,,,,1,30,90,58,1,N,M,D,o2_image,stimuli/out2.png,stimuli/out1.png,stimuli/correct_out2.png,,,,,,,,,,,,,,,,,,,,,,,,,,,,,,,,,,,,,,
,,5bf077d95fc1db0001305dd4,36,male,2024-04-16_11h21.26.971,stockport_simplified,2022.2.4,MacIntel,30.03003003,661e456ee6de07e70aa9ef7b,661e5114e993ed2a8dd64f4b,,,,,,,,,,,,,,,,,,,,,,,,,,,,,,,,,,510.3003,511.8993,"[2,3,7,6,1,4,5,8]","[[0.3,0.2],[-0.3,0.2]]","[[0.125,-0.2],[-0.125,-0.2]]",-0.07593316,-0.219600694,1,0,0,1.0663,o2_image,511.8999,1,512.3995,512.3995,514.3998,0,0,0,0,1,,,,,,,,,,,,,,,,,,,,,,,,,,,,,,,,,,,,,,,,,,,,,,,,,,
,,5bf077d95fc1db0001305dd4,36,male,2024-04-16_11h21.26.971,stockport_simplified,2022.2.4,MacIntel,30.03003003,661e456ee6de07e70aa9ef7b,661e5114e993ed2a8dd64f4b,,,,,,,,,,,,,,,,,,,,,,,,,,,,,,,,,,,,,,,,,,,,,,,,,,,,,,,,1,31,91,27,1,N,M,D,o2_image,stimuli/out2.png,stimuli/out1.png,stimuli/correct_out2.png,,,,,,,,,,,,,,,,,,,,,,,,,,,,,,,,,,,,,,
,,5bf077d95fc1db0001305dd4,36,male,2024-04-16_11h21.26.971,stockport_simplified,2022.2.4,MacIntel,30.03003003,661e456ee6de07e70aa9ef7b,661e5114e993ed2a8dd64f4b,,,,,,,,,,,,,,,,,,,,,,,,,,,,,,,,,,514.4,516.0996,"[2,3,7,6,1,4,5,8]","[[-0.3,0.2],[0.3,0.2]]","[[0.125,-0.2],[-0.125,-0.2]]",0.106297743,-0.207400174,1,0,0,1.1673,o1_image,516.1003,1,516.5996,516.5997,518.5987,0,0,0,0,1,,,,,,,,,,,,,,,,,,,,,,,,,,,,,,,,,,,,,,,,,,,,,,,,,,
,,5bf077d95fc1db0001305dd4,36,male,2024-04-16_11h21.26.971,stockport_simplified,2022.2.4,MacIntel,30.03003003,661e456ee6de07e70aa9ef7b,661e5114e993ed2a8dd64f4b,,,,,,,,,,,,,,,,,,,,,,,,,,,,,,,,,,,,,,,,,,,,,,,,,,,,,,,,1,32,92,22,1,N,M,C,o1_image,stimuli/out1.png,stimuli/correct_out1.png,stimuli/out2.png,,,,,,,,,,,,,,,,,,,,,,,,,,,,,,,,,,,,,,
,,5bf077d95fc1db0001305dd4,36,male,2024-04-16_11h21.26.971,stockport_simplified,2022.2.4,MacIntel,30.03003003,661e456ee6de07e70aa9ef7b,661e5114e993ed2a8dd64f4b,,,,,,,,,,,,,,,,,,,,,,,,,,,,,,,,,,518.5995,520.2983,"[2,3,7,6,1,4,5,8]","[[-0.3,0.2],[0.3,0.2]]","[[-0.125,-0.2],[0.125,-0.2]]",-0.118211806,-0.210499132,1,0,0,1.1652,o1_image,520.2991,1,520.7995,520.7996,522.7998,0,0,0,0,1,,,,,,,,,,,,,,,,,,,,,,,,,,,,,,,,,,,,,,,,,,,,,,,,,,
,,5bf077d95fc1db0001305dd4,36,male,2024-04-16_11h21.26.971,stockport_simplified,2022.2.4,MacIntel,30.03003003,661e456ee6de07e70aa9ef7b,661e5114e993ed2a8dd64f4b,,,,,,,,,,,,,,,,,,,,,,,,,,,,,,,,,,,,,,,,,,,,,,,,,,,,,,,,1,33,93,54,1,N,M,C,o1_image,stimuli/out1.png,stimuli/correct_out1.png,stimuli/out2.png,,,,,,,,,,,,,,,,,,,,,,,,,,,,,,,,,,,,,,
,,5bf077d95fc1db0001305dd4,36,male,2024-04-16_11h21.26.971,stockport_simplified,2022.2.4,MacIntel,30.03003003,661e456ee6de07e70aa9ef7b,661e5114e993ed2a8dd64f4b,,,,,,,,,,,,,,,,,,,,,,,,,,,,,,,,,,522.8005,524.4329,"[2,3,7,6,1,4,5,8]","[[-0.3,0.2],[0.3,0.2]]","[[0.125,-0.2],[-0.125,-0.2]]",0.171440972,-0.170763889,1,0,0,1.0998,o1_image,524.4337,1,524.9328,524.9329,526.9329,0,0,0,0,1,,,,,,,,,,,,,,,,,,,,,,,,,,,,,,,,,,,,,,,,,,,,,,,,,,
,,5bf077d95fc1db0001305dd4,36,male,2024-04-16_11h21.26.971,stockport_simplified,2022.2.4,MacIntel,30.03003003,661e456ee6de07e70aa9ef7b,661e5114e993ed2a8dd64f4b,,,,,,,,,,,,,,,,,,,,,,,,,,,,,,,,,,,,,,,,,,,,,,,,,,,,,,,,1,34,94,23,1,N,M,C,o1_image,stimuli/out1.png,stimuli/correct_out1.png,stimuli/out2.png,,,,,,,,,,,,,,,,,,,,,,,,,,,,,,,,,,,,,,
,,5bf077d95fc1db0001305dd4,36,male,2024-04-16_11h21.26.971,stockport_simplified,2022.2.4,MacIntel,30.03003003,661e456ee6de07e70aa9ef7b,661e5114e993ed2a8dd64f4b,,,,,,,,,,,,,,,,,,,,,,,,,,,,,,,,,,526.9335,529.6323,"[2,3,7,6,1,4,5,8]","[[-0.3,0.2],[0.3,0.2]]","[[0.125,-0.2],[-0.125,-0.2]]",-0.062608507,-0.199192708,1,0,0,2.1652,o2_image,529.6333,1,530.1332,530.1332,532.1331,0,0,0,0,1,,,,,,,,,,,,,,,,,,,,,,,,,,,,,,,,,,,,,,,,,,,,,,,,,,
,,5bf077d95fc1db0001305dd4,36,male,2024-04-16_11h21.26.971,stockport_simplified,2022.2.4,MacIntel,30.03003003,661e456ee6de07e70aa9ef7b,661e5114e993ed2a8dd64f4b,,,,,,,,,,,,,,,,,,,,,,,,,,,,,,,,,,,,,,,,,,,,,,,,,,,,,,,,1,35,95,10,1,B,X,N,o2_image,stimuli/out2.png,stimuli/out1.png,stimuli/correct_out2.png,,,,,,,,,,,,,,,,,,,,,,,,,,,,,,,,,,,,,,
,,5bf077d95fc1db0001305dd4,36,male,2024-04-16_11h21.26.971,stockport_simplified,2022.2.4,MacIntel,30.03003003,661e456ee6de07e70aa9ef7b,661e5114e993ed2a8dd64f4b,,,,,,,,,,,,,,,,,,,,,,,,,,,,,,,,,,532.1337,533.6995,"[2,3,7,6,1,4,5,8]","[[-0.3,0.2],[0.3,0.2]]","[[-0.125,-0.2],[0.125,-0.2]]",-0.083819444,-0.203090278,1,0,0,1.0335,o1_image,533.7001,1,534.1997,534.1998,536.1996,0,0,0,0,1,,,,,,,,,,,,,,,,,,,,,,,,,,,,,,,,,,,,,,,,,,,,,,,,,,
,,5bf077d95fc1db0001305dd4,36,male,2024-04-16_11h21.26.971,stockport_simplified,2022.2.4,MacIntel,30.03003003,661e456ee6de07e70aa9ef7b,661e5114e993ed2a8dd64f4b,,,,,,,,,,,,,,,,,,,,,,,,,,,,,,,,,,,,,,,,,,,,,,,,,,,,,,,,1,36,96,20,1,N,M,C,o1_image,stimuli/out1.png,stimuli/correct_out1.png,stimuli/out2.png,,,,,,,,,,,,,,,,,,,,,,,,,,,,,,,,,,,,,,
,,5bf077d95fc1db0001305dd4,36,male,2024-04-16_11h21.26.971,stockport_simplified,2022.2.4,MacIntel,30.03003003,661e456ee6de07e70aa9ef7b,661e5114e993ed2a8dd64f4b,,,,,,,,,,,,,,,,,,,,,,,,,,,,,,,,,,536.2002,538.4329,"[2,3,7,6,1,4,5,8]","[[-0.3,0.2],[0.3,0.2]]","[[-0.125,-0.2],[0.125,-0.2]]",0.054505208,-0.215108507,1,0,0,1.6993,o2_image,538.4336,1,538.9329,538.9329,540.933,0,0,0,0,1,,,,,,,,,,,,,,,,,,,,,,,,,,,,,,,,,,,,,,,,,,,,,,,,,,
,,5bf077d95fc1db0001305dd4,36,male,2024-04-16_11h21.26.971,stockport_simplified,2022.2.4,MacIntel,30.03003003,661e456ee6de07e70aa9ef7b,661e5114e993ed2a8dd64f4b,,,,,,,,,,,,,,,,,,,,,,,,,,,,,,,,,,,,,,,,,,,,,,,,,,,,,,,,1,37,97,48,1,B,Y,N,o2_image,stimuli/out2.png,stimuli/out1.png,stimuli/correct_out2.png,,,,,,,,,,,,,,,,,,,,,,,,,,,,,,,,,,,,,,
,,5bf077d95fc1db0001305dd4,36,male,2024-04-16_11h21.26.971,stockport_simplified,2022.2.4,MacIntel,30.03003003,661e456ee6de07e70aa9ef7b,661e5114e993ed2a8dd64f4b,,,,,,,,,,,,,,,,,,,,,,,,,,,,,,,,,,540.9336,543.3664,"[2,3,7,6,1,4,5,8]","[[0.3,0.2],[-0.3,0.2]]","[[-0.125,-0.2],[0.125,-0.2]]",0.054505208,-0.215664063,1,0,0,1.8994,o2_image,543.3674,1,543.8664,543.8664,545.8664,0,0,0,0,1,,,,,,,,,,,,,,,,,,,,,,,,,,,,,,,,,,,,,,,,,,,,,,,,,,
,,5bf077d95fc1db0001305dd4,36,male,2024-04-16_11h21.26.971,stockport_simplified,2022.2.4,MacIntel,30.03003003,661e456ee6de07e70aa9ef7b,661e5114e993ed2a8dd64f4b,,,,,,,,,,,,,,,,,,,,,,,,,,,,,,,,,,,,,,,,,,,,,,,,,,,,,,,,1,38,98,43,1,B,X,N,o2_image,stimuli/out2.png,stimuli/out1.png,stimuli/correct_out2.png,,,,,,,,,,,,,,,,,,,,,,,,,,,,,,,,,,,,,,
,,5bf077d95fc1db0001305dd4,36,male,2024-04-16_11h21.26.971,stockport_simplified,2022.2.4,MacIntel,30.03003003,661e456ee6de07e70aa9ef7b,661e5114e993ed2a8dd64f4b,,,,,,,,,,,,,,,,,,,,,,,,,,,,,,,,,,545.8671,548.3996,"[2,3,7,6,1,4,5,8]","[[0.3,0.2],[-0.3,0.2]]","[[0.125,-0.2],[-0.125,-0.2]]",0.080642361,-0.213862847,1,0,0,1.9999,o1_image,548.4129,1,548.8995,548.8995,550.8995,0,0,0,0,1,,,,,,,,,,,,,,,,,,,,,,,,,,,,,,,,,,,,,,,,,,,,,,,,,,
,,5bf077d95fc1db0001305dd4,36,male,2024-04-16_11h21.26.971,stockport_simplified,2022.2.4,MacIntel,30.03003003,661e456ee6de07e70aa9ef7b,661e5114e993ed2a8dd64f4b,,,,,,,,,,,,,,,,,,,,,,,,,,,,,,,,,,,,,,,,,,,,,,,,,,,,,,,,1,39,99,24,1,N,M,C,o1_image,stimuli/out1.png,stimuli/correct_out1.png,stimuli/out2.png,,,,,,,,,,,,,,,,,,,,,,,,,,,,,,,,,,,,,,
,,5bf077d95fc1db0001305dd4,36,male,2024-04-16_11h21.26.971,stockport_simplified,2022.2.4,MacIntel,30.03003003,661e456ee6de07e70aa9ef7b,661e5114e993ed2a8dd64f4b,,,,,,,,,,,,,,,,,,,,,,,,,,,,,,,,,,550.8998,553.2334,"[2,3,7,6,1,4,5,8]","[[0.3,0.2],[-0.3,0.2]]","[[0.125,-0.2],[-0.125,-0.2]]",-0.098980035,-0.214743924,1,0,0,1.8332,o2_image,553.2344,0,553.7331,553.7332,555.7332,0,0,0,0,1,,,,,,,,,,,,,,,,,,,,,,,,,,,,,,,,,,,,,,,,,,,,,,,,,,
,,5bf077d95fc1db0001305dd4,36,male,2024-04-16_11h21.26.971,stockport_simplified,2022.2.4,MacIntel,30.03003003,661e456ee6de07e70aa9ef7b,661e5114e993ed2a8dd64f4b,,,,,,,,,,,,,,,,,,,,,,,,,,,,,,,,,,,,,,,,,,,,,,,,,,,,,,,,1,40,100,33,1,A,X,N,o1_image,stimuli/out1.png,stimuli/correct_out1.png,stimuli/out2.png,,,,,,,,,,,,,,,,,,,,,,,,,,,,,,,,,,,,,,
,,5bf077d95fc1db0001305dd4,36,male,2024-04-16_11h21.26.971,stockport_simplified,2022.2.4,MacIntel,30.03003003,661e456ee6de07e70aa9ef7b,661e5114e993ed2a8dd64f4b,,,,,,,,,,,,,,,,,,,,,,,,,,,,,,,,,,555.7339,558.2664,"[2,3,7,6,1,4,5,8]","[[-0.3,0.2],[0.3,0.2]]","[[0.125,-0.2],[-0.125,-0.2]]",-0.09953559,-0.215299479,1,0,0,1.9994,o2_image,558.2808,1,558.7666,558.7666,560.7667,0,0,0,0,1,,,,,,,,,,,,,,,,,,,,,,,,,,,,,,,,,,,,,,,,,,,,,,,,,,
,,5bf077d95fc1db0001305dd4,36,male,2024-04-16_11h21.26.971,stockport_simplified,2022.2.4,MacIntel,30.03003003,661e456ee6de07e70aa9ef7b,661e5114e993ed2a8dd64f4b,,,,,,,,,,,,,,,,,,,,,,,,,,,,,,,,,,,,,,,,,,,,,,,,,,,,,,,,1,41,101,42,1,B,X,N,o2_image,stimuli/out2.png,stimuli/out1.png,stimuli/correct_out2.png,,,,,,,,,,,,,,,,,,,,,,,,,,,,,,,,,,,,,,
,,5bf077d95fc1db0001305dd4,36,male,2024-04-16_11h21.26.971,stockport_simplified,2022.2.4,MacIntel,30.03003003,661e456ee6de07e70aa9ef7b,661e5114e993ed2a8dd64f4b,,,,,,,,,,,,,,,,,,,,,,,,,,,,,,,,,,560.7675,562.6666,"[2,3,7,6,1,4,5,8]","[[0.3,0.2],[-0.3,0.2]]","[[0.125,-0.2],[-0.125,-0.2]]",-0.09953559,-0.215299479,1,0,0,1.366,o2_image,562.6675,0,563.1665,563.1665,565.1668,0,0,0,0,1,,,,,,,,,,,,,,,,,,,,,,,,,,,,,,,,,,,,,,,,,,,,,,,,,,
,,5bf077d95fc1db0001305dd4,36,male,2024-04-16_11h21.26.971,stockport_simplified,2022.2.4,MacIntel,30.03003003,661e456ee6de07e70aa9ef7b,661e5114e993ed2a8dd64f4b,,,,,,,,,,,,,,,,,,,,,,,,,,,,,,,,,,,,,,,,,,,,,,,,,,,,,,,,1,42,102,34,1,A,X,N,o1_image,stimuli/out1.png,stimuli/correct_out1.png,stimuli/out2.png,,,,,,,,,,,,,,,,,,,,,,,,,,,,,,,,,,,,,,
,,5bf077d95fc1db0001305dd4,36,male,2024-04-16_11h21.26.971,stockport_simplified,2022.2.4,MacIntel,30.03003003,661e456ee6de07e70aa9ef7b,661e5114e993ed2a8dd64f4b,,,,,,,,,,,,,,,,,,,,,,,,,,,,,,,,,,565.1674,568.0667,"[2,3,7,6,1,4,5,8]","[[-0.3,0.2],[0.3,0.2]]","[[-0.125,-0.2],[0.125,-0.2]]",0.114353299,-0.203320312,1,0,0,2.3664,o2_image,568.0795,1,568.5665,568.5666,570.5666,0,0,0,0,1,,,,,,,,,,,,,,,,,,,,,,,,,,,,,,,,,,,,,,,,,,,,,,,,,,
,,5bf077d95fc1db0001305dd4,36,male,2024-04-16_11h21.26.971,stockport_simplified,2022.2.4,MacIntel,30.03003003,661e456ee6de07e70aa9ef7b,661e5114e993ed2a8dd64f4b,,,,,,,,,,,,,,,,,,,,,,,,,,,,,,,,,,,,,,,,,,,,,,,,,,,,,,,,1,43,103,46,1,B,Y,N,o2_image,stimuli/out2.png,stimuli/out1.png,stimuli/correct_out2.png,,,,,,,,,,,,,,,,,,,,,,,,,,,,,,,,,,,,,,
,,5bf077d95fc1db0001305dd4,36,male,2024-04-16_11h21.26.971,stockport_simplified,2022.2.4,MacIntel,30.03003003,661e456ee6de07e70aa9ef7b,661e5114e993ed2a8dd64f4b,,,,,,,,,,,,,,,,,,,,,,,,,,,,,,,,,,570.5672,572.4998,"[2,3,7,6,1,4,5,8]","[[0.3,0.2],[-0.3,0.2]]","[[0.125,-0.2],[-0.125,-0.2]]",0.111796875,-0.200993924,1,0,0,1.3993,o1_image,572.5006,0,573,573,575,0,0,0,0,1,,,,,,,,,,,,,,,,,,,,,,,,,,,,,,,,,,,,,,,,,,,,,,,,,,
,,5bf077d95fc1db0001305dd4,36,male,2024-04-16_11h21.26.971,stockport_simplified,2022.2.4,MacIntel,30.03003003,661e456ee6de07e70aa9ef7b,661e5114e993ed2a8dd64f4b,,,,,,,,,,,,,,,,,,,,,,,,,,,,,,,,,,,,,,,,,,,,,,,,,,,,,,,,1,44,104,57,1,N,M,D,o2_image,stimuli/out2.png,stimuli/out1.png,stimuli/correct_out2.png,,,,,,,,,,,,,,,,,,,,,,,,,,,,,,,,,,,,,,
,,5bf077d95fc1db0001305dd4,36,male,2024-04-16_11h21.26.971,stockport_simplified,2022.2.4,MacIntel,30.03003003,661e456ee6de07e70aa9ef7b,661e5114e993ed2a8dd64f4b,,,,,,,,,,,,,,,,,,,,,,,,,,,,,,,,,,575.0006,576.9333,"[2,3,7,6,1,4,5,8]","[[-0.3,0.2],[0.3,0.2]]","[[0.125,-0.2],[-0.125,-0.2]]",-0.104305556,-0.176866319,1,0,0,1.3998,o2_image,576.9341,1,577.4331,577.4332,579.4331,0,0,0,0,1,,,,,,,,,,,,,,,,,,,,,,,,,,,,,,,,,,,,,,,,,,,,,,,,,,
,,5bf077d95fc1db0001305dd4,36,male,2024-04-16_11h21.26.971,stockport_simplified,2022.2.4,MacIntel,30.03003003,661e456ee6de07e70aa9ef7b,661e5114e993ed2a8dd64f4b,,,,,,,,,,,,,,,,,,,,,,,,,,,,,,,,,,,,,,,,,,,,,,,,,,,,,,,,1,45,105,49,1,B,Y,N,o2_image,stimuli/out2.png,stimuli/out1.png,stimuli/correct_out2.png,,,,,,,,,,,,,,,,,,,,,,,,,,,,,,,,,,,,,,
,,5bf077d95fc1db0001305dd4,36,male,2024-04-16_11h21.26.971,stockport_simplified,2022.2.4,MacIntel,30.03003003,661e456ee6de07e70aa9ef7b,661e5114e993ed2a8dd64f4b,,,,,,,,,,,,,,,,,,,,,,,,,,,,,,,,,,579.4336,581.2664,"[2,3,7,6,1,4,5,8]","[[-0.3,0.2],[0.3,0.2]]","[[0.125,-0.2],[-0.125,-0.2]]",-0.104861111,-0.177421875,1,0,0,1.2996,o2_image,581.2671,1,581.7666,581.7667,583.7667,0,0,0,0,1,,,,,,,,,,,,,,,,,,,,,,,,,,,,,,,,,,,,,,,,,,,,,,,,,,
,,5bf077d95fc1db0001305dd4,36,male,2024-04-16_11h21.26.971,stockport_simplified,2022.2.4,MacIntel,30.03003003,661e456ee6de07e70aa9ef7b,661e5114e993ed2a8dd64f4b,,,,,,,,,,,,,,,,,,,,,,,,,,,,,,,,,,,,,,,,,,,,,,,,,,,,,,,,1,46,106,16,1,B,Y,N,o2_image,stimuli/out2.png,stimuli/out1.png,stimuli/correct_out2.png,,,,,,,,,,,,,,,,,,,,,,,,,,,,,,,,,,,,,,
,,5bf077d95fc1db0001305dd4,36,male,2024-04-16_11h21.26.971,stockport_simplified,2022.2.4,MacIntel,30.03003003,661e456ee6de07e70aa9ef7b,661e5114e993ed2a8dd64f4b,,,,,,,,,,,,,,,,,,,,,,,,,,,,,,,,,,583.7675,585.566,"[2,3,7,6,1,4,5,8]","[[0.3,0.2],[-0.3,0.2]]","[[-0.125,-0.2],[0.125,-0.2]]",-0.147530382,-0.190611979,1,0,0,1.2653,o1_image,585.5668,1,586.0667,586.0667,588.0667,0,0,0,0,1,,,,,,,,,,,,,,,,,,,,,,,,,,,,,,,,,,,,,,,,,,,,,,,,,,
,,5bf077d95fc1db0001305dd4,36,male,2024-04-16_11h21.26.971,stockport_simplified,2022.2.4,MacIntel,30.03003003,661e456ee6de07e70aa9ef7b,661e5114e993ed2a8dd64f4b,,,,,,,,,,,,,,,,,,,,,,,,,,,,,,,,,,,,,,,,,,,,,,,,,,,,,,,,1,47,107,2,1,A,X,N,o1_image,stimuli/out1.png,stimuli/correct_out1.png,stimuli/out2.png,,,,,,,,,,,,,,,,,,,,,,,,,,,,,,,,,,,,,,
,,5bf077d95fc1db0001305dd4,36,male,2024-04-16_11h21.26.971,stockport_simplified,2022.2.4,MacIntel,30.03003003,661e456ee6de07e70aa9ef7b,661e5114e993ed2a8dd64f4b,,,,,,,,,,,,,,,,,,,,,,,,,,,,,,,,,,588.0673,589.9332,"[2,3,7,6,1,4,5,8]","[[0.3,0.2],[-0.3,0.2]]","[[-0.125,-0.2],[0.125,-0.2]]",0.061657986,-0.213107639,1,0,0,1.3327,o2_image,589.934,0,590.4333,590.4333,592.4333,0,0,0,0,1,,,,,,,,,,,,,,,,,,,,,,,,,,,,,,,,,,,,,,,,,,,,,,,,,,
,,5bf077d95fc1db0001305dd4,36,male,2024-04-16_11h21.26.971,stockport_simplified,2022.2.4,MacIntel,30.03003003,661e456ee6de07e70aa9ef7b,661e5114e993ed2a8dd64f4b,,,,,,,,,,,,,,,,,,,,,,,,,,,,,,,,,,,,,,,,,,,,,,,,,,,,,,,,1,48,108,35,1,A,Y,N,o1_image,stimuli/out1.png,stimuli/correct_out1.png,stimuli/out2.png,,,,,,,,,,,,,,,,,,,,,,,,,,,,,,,,,,,,,,
,,5bf077d95fc1db0001305dd4,36,male,2024-04-16_11h21.26.971,stockport_simplified,2022.2.4,MacIntel,30.03003003,661e456ee6de07e70aa9ef7b,661e5114e993ed2a8dd64f4b,,,,,,,,,,,,,,,,,,,,,,,,,,,,,,,,,,592.4338,594.7667,"[2,3,7,6,1,4,5,8]","[[-0.3,0.2],[0.3,0.2]]","[[-0.125,-0.2],[0.125,-0.2]]",0.075260417,-0.189140625,1,0,0,1.7995,o2_image,594.7675,0,595.2668,595.2668,597.2668,0,0,0,0,1,,,,,,,,,,,,,,,,,,,,,,,,,,,,,,,,,,,,,,,,,,,,,,,,,,
,,5bf077d95fc1db0001305dd4,36,male,2024-04-16_11h21.26.971,stockport_simplified,2022.2.4,MacIntel,30.03003003,661e456ee6de07e70aa9ef7b,661e5114e993ed2a8dd64f4b,,,,,,,,,,,,,,,,,,,,,,,,,,,,,,,,,,,,,,,,,,,,,,,,,,,,,,,,1,49,109,0,1,A,X,N,o1_image,stimuli/out1.png,stimuli/correct_out1.png,stimuli/out2.png,,,,,,,,,,,,,,,,,,,,,,,,,,,,,,,,,,,,,,
,,5bf077d95fc1db0001305dd4,36,male,2024-04-16_11h21.26.971,stockport_simplified,2022.2.4,MacIntel,30.03003003,661e456ee6de07e70aa9ef7b,661e5114e993ed2a8dd64f4b,,,,,,,,,,,,,,,,,,,,,,,,,,,,,,,,,,597.2675,599.0001,"[2,3,7,6,1,4,5,8]","[[-0.3,0.2],[0.3,0.2]]","[[-0.125,-0.2],[0.125,-0.2]]",0.110755208,-0.192118056,1,0,0,1.1996,o2_image,599.001,0,599.5001,599.5002,601.5003,0,0,0,0,1,,,,,,,,,,,,,,,,,,,,,,,,,,,,,,,,,,,,,,,,,,,,,,,,,,
,,5bf077d95fc1db0001305dd4,36,male,2024-04-16_11h21.26.971,stockport_simplified,2022.2.4,MacIntel,30.03003003,661e456ee6de07e70aa9ef7b,661e5114e993ed2a8dd64f4b,,,,,,,,,,,,,,,,,,,,,,,,,,,,,,,,,,,,,,,,,,,,,,,,,,,,,,,,1,50,110,6,1,A,Y,N,o1_image,stimuli/out1.png,stimuli/correct_out1.png,stimuli/out2.png,,,,,,,,,,,,,,,,,,,,,,,,,,,,,,,,,,,,,,
,,5bf077d95fc1db0001305dd4,36,male,2024-04-16_11h21.26.971,stockport_simplified,2022.2.4,MacIntel,30.03003003,661e456ee6de07e70aa9ef7b,661e5114e993ed2a8dd64f4b,,,,,,,,,,,,,,,,,,,,,,,,,,,,,,,,,,601.5011,603.7,"[2,3,7,6,1,4,5,8]","[[0.3,0.2],[-0.3,0.2]]","[[0.125,-0.2],[-0.125,-0.2]]",0.108294271,-0.199774306,1,0,0,1.6664,o1_image,603.7009,1,604.2,604.2002,606.2001,0,0,0,0,1,,,,,,,,,,,,,,,,,,,,,,,,,,,,,,,,,,,,,,,,,,,,,,,,,,
,,5bf077d95fc1db0001305dd4,36,male,2024-04-16_11h21.26.971,stockport_simplified,2022.2.4,MacIntel,30.03003003,661e456ee6de07e70aa9ef7b,661e5114e993ed2a8dd64f4b,,,,,,,,,,,,,,,,,,,,,,,,,,,,,,,,,,,,,,,,,,,,,,,,,,,,,,,,1,51,111,7,1,A,Y,N,o1_image,stimuli/out1.png,stimuli/correct_out1.png,stimuli/out2.png,,,,,,,,,,,,,,,,,,,,,,,,,,,,,,,,,,,,,,
,,5bf077d95fc1db0001305dd4,36,male,2024-04-16_11h21.26.971,stockport_simplified,2022.2.4,MacIntel,30.03003003,661e456ee6de07e70aa9ef7b,661e5114e993ed2a8dd64f4b,,,,,,,,,,,,,,,,,,,,,,,,,,,,,,,,,,606.2006,607.9667,"[2,3,7,6,1,4,5,8]","[[-0.3,0.2],[0.3,0.2]]","[[0.125,-0.2],[-0.125,-0.2]]",0.108294271,-0.199774306,1,0,0,1.2326,o1_image,607.9676,1,608.4668,608.4668,610.4669,0,0,0,0,1,,,,,,,,,,,,,,,,,,,,,,,,,,,,,,,,,,,,,,,,,,,,,,,,,,
,,5bf077d95fc1db0001305dd4,36,male,2024-04-16_11h21.26.971,stockport_simplified,2022.2.4,MacIntel,30.03003003,661e456ee6de07e70aa9ef7b,661e5114e993ed2a8dd64f4b,,,,,,,,,,,,,,,,,,,,,,,,,,,,,,,,,,,,,,,,,,,,,,,,,,,,,,,,1,52,112,3,1,A,X,N,o1_image,stimuli/out1.png,stimuli/correct_out1.png,stimuli/out2.png,,,,,,,,,,,,,,,,,,,,,,,,,,,,,,,,,,,,,,
,,5bf077d95fc1db0001305dd4,36,male,2024-04-16_11h21.26.971,stockport_simplified,2022.2.4,MacIntel,30.03003003,661e456ee6de07e70aa9ef7b,661e5114e993ed2a8dd64f4b,,,,,,,,,,,,,,,,,,,,,,,,,,,,,,,,,,610.4675,613.1002,"[2,3,7,6,1,4,5,8]","[[-0.3,0.2],[0.3,0.2]]","[[0.125,-0.2],[-0.125,-0.2]]",-0.069396701,-0.195421007,1,0,0,2.0994,o2_image,613.101,1,613.6001,613.6002,615.6,0,0,0,0,1,,,,,,,,,,,,,,,,,,,,,,,,,,,,,,,,,,,,,,,,,,,,,,,,,,
,,5bf077d95fc1db0001305dd4,36,male,2024-04-16_11h21.26.971,stockport_simplified,2022.2.4,MacIntel,30.03003003,661e456ee6de07e70aa9ef7b,661e5114e993ed2a8dd64f4b,,,,,,,,,,,,,,,,,,,,,,,,,,,,,,,,,,,,,,,,,,,,,,,,,,,,,,,,1,53,113,26,1,N,M,D,o2_image,stimuli/out2.png,stimuli/out1.png,stimuli/correct_out2.png,,,,,,,,,,,,,,,,,,,,,,,,,,,,,,,,,,,,,,
,,5bf077d95fc1db0001305dd4,36,male,2024-04-16_11h21.26.971,stockport_simplified,2022.2.4,MacIntel,30.03003003,661e456ee6de07e70aa9ef7b,661e5114e993ed2a8dd64f4b,,,,,,,,,,,,,,,,,,,,,,,,,,,,,,,,,,615.6006,617.767,"[2,3,7,6,1,4,5,8]","[[0.3,0.2],[-0.3,0.2]]","[[0.125,-0.2],[-0.125,-0.2]]",-0.115755208,-0.200559896,1,0,0,1.633,o2_image,617.7681,0,618.2669,618.2669,620.2662,0,0,0,0,1,,,,,,,,,,,,,,,,,,,,,,,,,,,,,,,,,,,,,,,,,,,,,,,,,,
,,5bf077d95fc1db0001305dd4,36,male,2024-04-16_11h21.26.971,stockport_simplified,2022.2.4,MacIntel,30.03003003,661e456ee6de07e70aa9ef7b,661e5114e993ed2a8dd64f4b,,,,,,,,,,,,,,,,,,,,,,,,,,,,,,,,,,,,,,,,,,,,,,,,,,,,,,,,1,54,114,37,1,A,Y,N,o1_image,stimuli/out1.png,stimuli/correct_out1.png,stimuli/out2.png,,,,,,,,,,,,,,,,,,,,,,,,,,,,,,,,,,,,,,
,,5bf077d95fc1db0001305dd4,36,male,2024-04-16_11h21.26.971,stockport_simplified,2022.2.4,MacIntel,30.03003003,661e456ee6de07e70aa9ef7b,661e5114e993ed2a8dd64f4b,,,,,,,,,,,,,,,,,,,,,,,,,,,,,,,,,,620.2666,623.4337,"[2,3,7,6,1,4,5,8]","[[0.3,0.2],[-0.3,0.2]]","[[0.125,-0.2],[-0.125,-0.2]]",0.102105035,-0.195607639,1,0,0,2.6335,o1_image,623.4347,0,623.9334,623.9335,625.9335,0,0,0,0,1,,,,,,,,,,,,,,,,,,,,,,,,,,,,,,,,,,,,,,,,,,,,,,,,,,
,,5bf077d95fc1db0001305dd4,36,male,2024-04-16_11h21.26.971,stockport_simplified,2022.2.4,MacIntel,30.03003003,661e456ee6de07e70aa9ef7b,661e5114e993ed2a8dd64f4b,,,,,,,,,,,,,,,,,,,,,,,,,,,,,,,,,,,,,,,,,,,,,,,,,,,,,,,,1,55,115,19,1,B,Y,N,o2_image,stimuli/out2.png,stimuli/out1.png,stimuli/correct_out2.png,,,,,,,,,,,,,,,,,,,,,,,,,,,,,,,,,,,,,,
,,5bf077d95fc1db0001305dd4,36,male,2024-04-16_11h21.26.971,stockport_simplified,2022.2.4,MacIntel,30.03003003,661e456ee6de07e70aa9ef7b,661e5114e993ed2a8dd64f4b,,,,,,,,,,,,,,,,,,,,,,,,,,,,,,,,,,625.9341,627.8334,"[2,3,7,6,1,4,5,8]","[[0.3,0.2],[-0.3,0.2]]","[[0.125,-0.2],[-0.125,-0.2]]",-0.140802951,-0.177825521,1,0,0,1.3661,o2_image,627.8339,0,628.3335,628.3335,630.333,0,0,0,0,1,,,,,,,,,,,,,,,,,,,,,,,,,,,,,,,,,,,,,,,,,,,,,,,,,,
,,5bf077d95fc1db0001305dd4,36,male,2024-04-16_11h21.26.971,stockport_simplified,2022.2.4,MacIntel,30.03003003,661e456ee6de07e70aa9ef7b,661e5114e993ed2a8dd64f4b,,,,,,,,,,,,,,,,,,,,,,,,,,,,,,,,,,,,,,,,,,,,,,,,,,,,,,,,1,56,116,36,1,A,Y,N,o1_image,stimuli/out1.png,stimuli/correct_out1.png,stimuli/out2.png,,,,,,,,,,,,,,,,,,,,,,,,,,,,,,,,,,,,,,
,,5bf077d95fc1db0001305dd4,36,male,2024-04-16_11h21.26.971,stockport_simplified,2022.2.4,MacIntel,30.03003003,661e456ee6de07e70aa9ef7b,661e5114e993ed2a8dd64f4b,,,,,,,,,,,,,,,,,,,,,,,,,,,,,,,,,,630.3335,632.3003,"[2,3,7,6,1,4,5,8]","[[-0.3,0.2],[0.3,0.2]]","[[0.125,-0.2],[-0.125,-0.2]]",0.095190972,-0.192317708,1,0,0,1.4331,o1_image,632.301,1,632.8003,632.8003,634.8002,0,0,0,0,1,,,,,,,,,,,,,,,,,,,,,,,,,,,,,,,,,,,,,,,,,,,,,,,,,,
,,5bf077d95fc1db0001305dd4,36,male,2024-04-16_11h21.26.971,stockport_simplified,2022.2.4,MacIntel,30.03003003,661e456ee6de07e70aa9ef7b,661e5114e993ed2a8dd64f4b,,,,,,,,,,,,,,,,,,,,,,,,,,,,,,,,,,,,,,,,,,,,,,,,,,,,,,,,1,57,117,5,1,A,Y,N,o1_image,stimuli/out1.png,stimuli/correct_out1.png,stimuli/out2.png,,,,,,,,,,,,,,,,,,,,,,,,,,,,,,,,,,,,,,
,,5bf077d95fc1db0001305dd4,36,male,2024-04-16_11h21.26.971,stockport_simplified,2022.2.4,MacIntel,30.03003003,661e456ee6de07e70aa9ef7b,661e5114e993ed2a8dd64f4b,,,,,,,,,,,,,,,,,,,,,,,,,,,,,,,,,,634.801,636.9332,"[2,3,7,6,1,4,5,8]","[[0.3,0.2],[-0.3,0.2]]","[[0.125,-0.2],[-0.125,-0.2]]",-0.088650174,-0.210894097,1,0,0,1.5991,o2_image,636.9337,1,637.4336,637.4336,639.4336,0,0,0,0,1,,,,,,,,,,,,,,,,,,,,,,,,,,,,,,,,,,,,,,,,,,,,,,,,,,
,,5bf077d95fc1db0001305dd4,36,male,2024-04-16_11h21.26.971,stockport_simplified,2022.2.4,MacIntel,30.03003003,661e456ee6de07e70aa9ef7b,661e5114e993ed2a8dd64f4b,,,,,,,,,,,,,,,,,,,,,,,,,,,,,,,,,,,,,,,,,,,,,,,,,,,,,,,,1,58,118,28,1,N,M,D,o2_image,stimuli/out2.png,stimuli/out1.png,stimuli/correct_out2.png,,,,,,,,,,,,,,,,,,,,,,,,,,,,,,,,,,,,,,
,,5bf077d95fc1db0001305dd4,36,male,2024-04-16_11h21.26.971,stockport_simplified,2022.2.4,MacIntel,30.03003003,661e456ee6de07e70aa9ef7b,661e5114e993ed2a8dd64f4b,,,,,,,,,,,,,,,,,,,,,,,,,,,,,,,,,,639.4342,641.1005,"[2,3,7,6,1,4,5,8]","[[0.3,0.2],[-0.3,0.2]]","[[-0.125,-0.2],[0.125,-0.2]]",-0.099765625,-0.213975694,1,0,0,1.133,o1_image,641.1015,1,641.6004,641.6004,643.6004,0,0,0,0,1,,,,,,,,,,,,,,,,,,,,,,,,,,,,,,,,,,,,,,,,,,,,,,,,,,
,,5bf077d95fc1db0001305dd4,36,male,2024-04-16_11h21.26.971,stockport_simplified,2022.2.4,MacIntel,30.03003003,661e456ee6de07e70aa9ef7b,661e5114e993ed2a8dd64f4b,,,,,,,,,,,,,,,,,,,,,,,,,,,,,,,,,,,,,,,,,,,,,,,,,,,,,,,,1,59,119,50,1,N,M,C,o1_image,stimuli/out1.png,stimuli/correct_out1.png,stimuli/out2.png,,,,,,,,,,,,,,,,,,,,,,,,,,,,,,,,,,,,,,
,,5bf077d95fc1db0001305dd4,36,male,2024-04-16_11h21.26.971,stockport_simplified,2022.2.4,MacIntel,30.03003003,661e456ee6de07e70aa9ef7b,661e5114e993ed2a8dd64f4b,,,,,,,,,,,,,,,,,,,,,,,,,,,,,,,,,,643.6196,645.9338,"[2,3,7,6,1,4,5,8]","[[0.3,0.2],[-0.3,0.2]]","[[-0.125,-0.2],[0.125,-0.2]]",0.111046007,-0.226909722,1,0,0,1.7993,o2_image,645.9353,1,646.4336,646.4336,648.4336,,,,,,,,,,,,,,,,,,0,0,0,0,1,,,,,,,,,,,,,,,,,,,,,,,,,,,,,,,,,
,,5bf077d95fc1db0001305dd4,36,male,2024-04-16_11h21.26.971,stockport_simplified,2022.2.4,MacIntel,30.03003003,661e456ee6de07e70aa9ef7b,661e5114e993ed2a8dd64f4b,,,,,,,,,,,,,,,,,,,,,,,,,,,,,,,,,,,,,,,,,,,,,,,,,,,,,,,,,,,,,B,X,N,o2_image,stimuli/out2.png,stimuli/out1.png,stimuli/correct_out2.png,,,,,,0,0,0,24,1,,,,,,,,,,,,,,,,,,,,,,,,,,,,
,,5bf077d95fc1db0001305dd4,36,male,2024-04-16_11h21.26.971,stockport_simplified,2022.2.4,MacIntel,30.03003003,661e456ee6de07e70aa9ef7b,661e5114e993ed2a8dd64f4b,,,,,,,,,,,,,,,,,,,,,,,,,,,,,,,,,,648.4347,650.1328,"[2,3,7,6,1,4,5,8]","[[0.3,0.2],[-0.3,0.2]]","[[0.125,-0.2],[-0.125,-0.2]]",-0.11672309,-0.236519097,1,0,0,1.1653,o2_image,650.1338,1,650.6338,650.6338,652.6338,,,,,,,,,,,,,,,,,,0,0,0,0,1,,,,,,,,,,,,,,,,,,,,,,,,,,,,,,,,,
,,5bf077d95fc1db0001305dd4,36,male,2024-04-16_11h21.26.971,stockport_simplified,2022.2.4,MacIntel,30.03003003,661e456ee6de07e70aa9ef7b,661e5114e993ed2a8dd64f4b,,,,,,,,,,,,,,,,,,,,,,,,,,,,,,,,,,,,,,,,,,,,,,,,,,,,,,,,,,,,,N,M,D,o2_image,stimuli/out2.png,stimuli/out1.png,stimuli/correct_out2.png,,,,,,0,1,1,55,1,,,,,,,,,,,,,,,,,,,,,,,,,,,,
,,5bf077d95fc1db0001305dd4,36,male,2024-04-16_11h21.26.971,stockport_simplified,2022.2.4,MacIntel,30.03003003,661e456ee6de07e70aa9ef7b,661e5114e993ed2a8dd64f4b,,,,,,,,,,,,,,,,,,,,,,,,,,,,,,,,,,652.6344,654.1672,"[2,3,7,6,1,4,5,8]","[[-0.3,0.2],[0.3,0.2]]","[[-0.125,-0.2],[0.125,-0.2]]",-0.11672309,-0.236519097,1,0,0,0.9994,o1_image,654.1683,1,654.667,654.667,656.667,,,,,,,,,,,,,,,,,,0,0,0,0,1,,,,,,,,,,,,,,,,,,,,,,,,,,,,,,,,,
,,5bf077d95fc1db0001305dd4,36,male,2024-04-16_11h21.26.971,stockport_simplified,2022.2.4,MacIntel,30.03003003,661e456ee6de07e70aa9ef7b,661e5114e993ed2a8dd64f4b,,,,,,,,,,,,,,,,,,,,,,,,,,,,,,,,,,,,,,,,,,,,,,,,,,,,,,,,,,,,,N,M,C,o1_image,stimuli/out1.png,stimuli/correct_out1.png,stimuli/out2.png,,,,,,0,2,2,44,1,,,,,,,,,,,,,,,,,,,,,,,,,,,,
,,5bf077d95fc1db0001305dd4,36,male,2024-04-16_11h21.26.971,stockport_simplified,2022.2.4,MacIntel,30.03003003,661e456ee6de07e70aa9ef7b,661e5114e993ed2a8dd64f4b,,,,,,,,,,,,,,,,,,,,,,,,,,,,,,,,,,656.6677,658.7004,"[2,3,7,6,1,4,5,8]","[[-0.3,0.2],[0.3,0.2]]","[[0.125,-0.2],[-0.125,-0.2]]",-0.107925347,-0.236210937,1,0,0,1.4995,o2_image,658.7011,1,659.2004,659.2004,661.2003,,,,,,,,,,,,,,,,,,0,0,0,0,1,,,,,,,,,,,,,,,,,,,,,,,,,,,,,,,,,
