counterbalance_2.started,counterbalance_2.stopped,participant,age,gender,date,expName,psychopyVersion,OS,frameRate,STUDY_ID,SESSION_ID,information_2.started,information_2.stopped,information_loop.thisRepN,information_loop.thisTrialN,information_loop.thisN,information_loop.thisIndex,information_loop.ran,information,consent_2.started,consent_2.stopped,slider_1.response,slider_2.response,slider_3.response,slider_4.response,slider_5.response,slider_6.response,instructions.started,instructions.stopped,task1_instr.thisRepN,task1_instr.thisTrialN,task1_instr.thisN,task1_instr.thisIndex,task1_instr.ran,task1,comprehension1_2.started,comprehension1_2.stopped,comp1_mouse.x,comp1_mouse.y,comp1_mouse.leftButton,comp1_mouse.midButton,comp1_mouse.rightButton,comp1_mouse.time,comp1_mouse.clicked_name,cue_o__trial_2.started,cue_o__trial_2.stopped,order,cue_order,out_order,cue_o_mouse.x,cue_o_mouse.y,cue_o_mouse.leftButton,cue_o_mouse.midButton,cue_o_mouse.rightButton,cue_o_mouse.time,cue_o_mouse.clicked_name,cue_selection_2.started,correct_answer,cue_selection_2.stopped,feedback_2.started,feedback_2.stopped,feedback_loop.thisRepN,feedback_loop.thisTrialN,feedback_loop.thisN,feedback_loop.thisIndex,feedback_loop.ran,stage1_trials.thisRepN,stage1_trials.thisTrialN,stage1_trials.thisN,stage1_trials.thisIndex,stage1_trials.ran,cue1,cue2,cue3,outcome,correct_out,o1_feedback,o2_feedback,stage2_feedback_loop.thisRepN,stage2_feedback_loop.thisTrialN,stage2_feedback_loop.thisN,stage2_feedback_loop.thisIndex,stage2_feedback_loop.ran,stage2_trials.thisRepN,stage2_trials.thisTrialN,stage2_trials.thisN,stage2_trials.thisIndex,stage2_trials.ran,stage3_feedback_loop.thisRepN,stage3_feedback_loop.thisTrialN,stage3_feedback_loop.thisN,stage3_feedback_loop.thisIndex,stage3_feedback_loop.ran,stage3_trials.thisRepN,stage3_trials.thisTrialN,stage3_trials.thisN,stage3_trials.thisIndex,stage3_trials.ran,debrief_2.started,debrief_2.stopped,debrief_loop.thisRepN,debrief_loop.thisTrialN,debrief_loop.thisN,debrief_loop.thisIndex,debrief_loop.ran,debrief_img,compr1_completed.thisRepN,compr1_completed.thisTrialN,compr1_completed.thisN,compr1_completed.thisIndex,compr1_completed.ran,consent_loop.thisRepN,consent_loop.thisTrialN,consent_loop.thisN,consent_loop.thisIndex,consent_loop.ran
0.0005,0.0008,5dff767f69a117bc2fbd4be8,42,male,2024-04-24_11h32.06.406,stockport_simplified,2022.2.4,Win32,61.34969325,661e456ee6de07e70aa9ef7b,6628df853b5fe1a88ccc6358,,,,,,,,,,,,,,,,,,,,,,,,,,,,,,,,,,,,,,,,,,,,,,,,,,,,,,,,,,,,,,,,,,,,,,,,,,,,,,,,,,,,,,,,,,,,,,,,,,,,,,,,,
,,5dff767f69a117bc2fbd4be8,42,male,2024-04-24_11h32.06.406,stockport_simplified,2022.2.4,Win32,61.34969325,661e456ee6de07e70aa9ef7b,6628df853b5fe1a88ccc6358,0.014,7.175,0,0,0,0,1,instructions/info1.png,,,,,,,,,,,,,,,,,,,,,,,,,,,,,,,,,,,,,,,,,,,,,,,,,,,,,,,,,,,,,,,,,,,,,,,,,,,,,,,,,,,,,,,,,,,,,,,,,
,,5dff767f69a117bc2fbd4be8,42,male,2024-04-24_11h32.06.406,stockport_simplified,2022.2.4,Win32,61.34969325,661e456ee6de07e70aa9ef7b,6628df853b5fe1a88ccc6358,7.1754,10.2058,0,1,1,1,1,instructions/info2.png,,,,,,,,,,,,,,,,,,,,,,,,,,,,,,,,,,,,,,,,,,,,,,,,,,,,,,,,,,,,,,,,,,,,,,,,,,,,,,,,,,,,,,,,,,,,,,,,,
,,5dff767f69a117bc2fbd4be8,42,male,2024-04-24_11h32.06.406,stockport_simplified,2022.2.4,Win32,61.34969325,661e456ee6de07e70aa9ef7b,6628df853b5fe1a88ccc6358,10.2061,11.8546,0,2,2,2,1,instructions/info3.png,,,,,,,,,,,,,,,,,,,,,,,,,,,,,,,,,,,,,,,,,,,,,,,,,,,,,,,,,,,,,,,,,,,,,,,,,,,,,,,,,,,,,,,,,,,,,,,,,
,,5dff767f69a117bc2fbd4be8,42,male,2024-04-24_11h32.06.406,stockport_simplified,2022.2.4,Win32,61.34969325,661e456ee6de07e70aa9ef7b,6628df853b5fe1a88ccc6358,,,,,,,,,11.855,24.1072,1,1,1,1,1,1,,,,,,,,,,,,,,,,,,,,,,,,,,,,,,,,,,,,,,,,,,,,,,,,,,,,,,,,,,,,,,,,,,,,,,,,,,,,,,,,,,,,,,,,,
,,5dff767f69a117bc2fbd4be8,42,male,2024-04-24_11h32.06.406,stockport_simplified,2022.2.4,Win32,61.34969325,661e456ee6de07e70aa9ef7b,6628df853b5fe1a88ccc6358,,,,,,,,,,,,,,,,,24.1132,44.7825,0,0,0,0,1,instructions/task1_1.png,,,,,,,,,,,,,,,,,,,,,,,,,,,,,,,,,,,,,,,,,,,,,,,,,,,,,,,,,,,,,,,,,,,,,,,,,,,,,,,,,
,,5dff767f69a117bc2fbd4be8,42,male,2024-04-24_11h32.06.406,stockport_simplified,2022.2.4,Win32,61.34969325,661e456ee6de07e70aa9ef7b,6628df853b5fe1a88ccc6358,,,,,,,,,,,,,,,,,44.7829,57.9719,0,1,1,1,1,instructions/task1_2.png,,,,,,,,,,,,,,,,,,,,,,,,,,,,,,,,,,,,,,,,,,,,,,,,,,,,,,,,,,,,,,,,,,,,,,,,,,,,,,,,,
,,5dff767f69a117bc2fbd4be8,42,male,2024-04-24_11h32.06.406,stockport_simplified,2022.2.4,Win32,61.34969325,661e456ee6de07e70aa9ef7b,6628df853b5fe1a88ccc6358,,,,,,,,,,,,,,,,,57.9785,73.3714,0,2,2,2,1,instructions/task1_3.png,,,,,,,,,,,,,,,,,,,,,,,,,,,,,,,,,,,,,,,,,,,,,,,,,,,,,,,,,,,,,,,,,,,,,,,,,,,,,,,,,
,,5dff767f69a117bc2fbd4be8,42,male,2024-04-24_11h32.06.406,stockport_simplified,2022.2.4,Win32,61.34969325,661e456ee6de07e70aa9ef7b,6628df853b5fe1a88ccc6358,,,,,,,,,,,,,,,,,,,,,,,,,73.3722,88.9069,0.159259237,-0.327777846,1,0,0,15.5342,comp1_resp1,88.9223,90.9224,"[1,3,8,5,7,4,6,2]","[[0.3,0.2],[-0.3,0.2]]","[[0.125,-0.2],[-0.125,-0.2]]",0.136111111,-0.207407362,1,0,0,1.481,o1_image,90.9234,0,91.4234,91.4235,93.4221,0,0,0,0,1,,,,,,,,,,,,,,,,,,,,,,,,,,,,,,,,,,,,,,,,,,,,,,,,,,
,,5dff767f69a117bc2fbd4be8,42,male,2024-04-24_11h32.06.406,stockport_simplified,2022.2.4,Win32,61.34969325,661e456ee6de07e70aa9ef7b,6628df853b5fe1a88ccc6358,,,,,,,,,,,,,,,,,,,,,,,,,,,,,,,,,,,,,,,,,,,,,,,,,,,,,,,,0,0,0,29,1,N,M,D,o2_image,stimuli/out2.png,stimuli/out1.png,stimuli/correct_out2.png,,,,,,,,,,,,,,,,,,,,,,,,,,,,,,,,,,,,,,
,,5dff767f69a117bc2fbd4be8,42,male,2024-04-24_11h32.06.406,stockport_simplified,2022.2.4,Win32,61.34969325,661e456ee6de07e70aa9ef7b,6628df853b5fe1a88ccc6358,,,,,,,,,,,,,,,,,,,,,,,,,,,,,,,,,,93.4227,97.2389,"[1,3,8,5,7,4,6,2]","[[0.3,0.2],[-0.3,0.2]]","[[0.125,-0.2],[-0.125,-0.2]]",-0.108333266,-0.212037014,1,0,0,3.2992,o2_image,97.2451,1,97.7386,97.7386,99.7405,0,0,0,0,1,,,,,,,,,,,,,,,,,,,,,,,,,,,,,,,,,,,,,,,,,,,,,,,,,,
,,5dff767f69a117bc2fbd4be8,42,male,2024-04-24_11h32.06.406,stockport_simplified,2022.2.4,Win32,61.34969325,661e456ee6de07e70aa9ef7b,6628df853b5fe1a88ccc6358,,,,,,,,,,,,,,,,,,,,,,,,,,,,,,,,,,,,,,,,,,,,,,,,,,,,,,,,0,1,1,42,1,B,X,N,o2_image,stimuli/out2.png,stimuli/out1.png,stimuli/correct_out2.png,,,,,,,,,,,,,,,,,,,,,,,,,,,,,,,,,,,,,,
,,5dff767f69a117bc2fbd4be8,42,male,2024-04-24_11h32.06.406,stockport_simplified,2022.2.4,Win32,61.34969325,661e456ee6de07e70aa9ef7b,6628df853b5fe1a88ccc6358,,,,,,,,,,,,,,,,,,,,,,,,,,,,,,,,,,99.7408,101.872,"[1,3,8,5,7,4,6,2]","[[-0.3,0.2],[0.3,0.2]]","[[0.125,-0.2],[-0.125,-0.2]]",-0.112037014,-0.189814792,1,0,0,1.6154,o2_image,101.8731,0,102.3736,102.3736,104.3727,0,0,0,0,1,,,,,,,,,,,,,,,,,,,,,,,,,,,,,,,,,,,,,,,,,,,,,,,,,,
,,5dff767f69a117bc2fbd4be8,42,male,2024-04-24_11h32.06.406,stockport_simplified,2022.2.4,Win32,61.34969325,661e456ee6de07e70aa9ef7b,6628df853b5fe1a88ccc6358,,,,,,,,,,,,,,,,,,,,,,,,,,,,,,,,,,,,,,,,,,,,,,,,,,,,,,,,0,2,2,51,1,N,M,C,o1_image,stimuli/out1.png,stimuli/correct_out1.png,stimuli/out2.png,,,,,,,,,,,,,,,,,,,,,,,,,,,,,,,,,,,,,,
,,5dff767f69a117bc2fbd4be8,42,male,2024-04-24_11h32.06.406,stockport_simplified,2022.2.4,Win32,61.34969325,661e456ee6de07e70aa9ef7b,6628df853b5fe1a88ccc6358,,,,,,,,,,,,,,,,,,,,,,,,,,,,,,,,,,104.3732,106.6057,"[1,3,8,5,7,4,6,2]","[[0.3,0.2],[-0.3,0.2]]","[[-0.125,-0.2],[0.125,-0.2]]",-0.118518541,-0.189814792,1,0,0,1.7165,o1_image,106.6066,1,107.1055,107.1056,109.1059,0,0,0,0,1,,,,,,,,,,,,,,,,,,,,,,,,,,,,,,,,,,,,,,,,,,,,,,,,,,
,,5dff767f69a117bc2fbd4be8,42,male,2024-04-24_11h32.06.406,stockport_simplified,2022.2.4,Win32,61.34969325,661e456ee6de07e70aa9ef7b,6628df853b5fe1a88ccc6358,,,,,,,,,,,,,,,,,,,,,,,,,,,,,,,,,,,,,,,,,,,,,,,,,,,,,,,,0,3,3,50,1,N,M,C,o1_image,stimuli/out1.png,stimuli/correct_out1.png,stimuli/out2.png,,,,,,,,,,,,,,,,,,,,,,,,,,,,,,,,,,,,,,
,,5dff767f69a117bc2fbd4be8,42,male,2024-04-24_11h32.06.406,stockport_simplified,2022.2.4,Win32,61.34969325,661e456ee6de07e70aa9ef7b,6628df853b5fe1a88ccc6358,,,,,,,,,,,,,,,,,,,,,,,,,,,,,,,,,,109.1065,111.3553,"[1,3,8,5,7,4,6,2]","[[-0.3,0.2],[0.3,0.2]]","[[-0.125,-0.2],[0.125,-0.2]]",0.081481459,-0.202777778,1,0,0,1.7313,o2_image,111.3558,0,111.8552,111.8553,113.8552,0,0,0,0,1,,,,,,,,,,,,,,,,,,,,,,,,,,,,,,,,,,,,,,,,,,,,,,,,,,
,,5dff767f69a117bc2fbd4be8,42,male,2024-04-24_11h32.06.406,stockport_simplified,2022.2.4,Win32,61.34969325,661e456ee6de07e70aa9ef7b,6628df853b5fe1a88ccc6358,,,,,,,,,,,,,,,,,,,,,,,,,,,,,,,,,,,,,,,,,,,,,,,,,,,,,,,,0,4,4,5,1,A,Y,N,o1_image,stimuli/out1.png,stimuli/correct_out1.png,stimuli/out2.png,,,,,,,,,,,,,,,,,,,,,,,,,,,,,,,,,,,,,,
,,5dff767f69a117bc2fbd4be8,42,male,2024-04-24_11h32.06.406,stockport_simplified,2022.2.4,Win32,61.34969325,661e456ee6de07e70aa9ef7b,6628df853b5fe1a88ccc6358,,,,,,,,,,,,,,,,,,,,,,,,,,,,,,,,,,113.8555,115.8725,"[1,3,8,5,7,4,6,2]","[[-0.3,0.2],[0.3,0.2]]","[[0.125,-0.2],[-0.125,-0.2]]",0.122222222,-0.237962986,1,0,0,1.4992,o1_image,115.8734,1,116.3725,116.3725,118.372,0,0,0,0,1,,,,,,,,,,,,,,,,,,,,,,,,,,,,,,,,,,,,,,,,,,,,,,,,,,
,,5dff767f69a117bc2fbd4be8,42,male,2024-04-24_11h32.06.406,stockport_simplified,2022.2.4,Win32,61.34969325,661e456ee6de07e70aa9ef7b,6628df853b5fe1a88ccc6358,,,,,,,,,,,,,,,,,,,,,,,,,,,,,,,,,,,,,,,,,,,,,,,,,,,,,,,,0,5,5,37,1,A,Y,N,o1_image,stimuli/out1.png,stimuli/correct_out1.png,stimuli/out2.png,,,,,,,,,,,,,,,,,,,,,,,,,,,,,,,,,,,,,,
,,5dff767f69a117bc2fbd4be8,42,male,2024-04-24_11h32.06.406,stockport_simplified,2022.2.4,Win32,61.34969325,661e456ee6de07e70aa9ef7b,6628df853b5fe1a88ccc6358,,,,,,,,,,,,,,,,,,,,,,,,,,,,,,,,,,118.3726,120.8049,"[1,3,8,5,7,4,6,2]","[[-0.3,0.2],[0.3,0.2]]","[[0.125,-0.2],[-0.125,-0.2]]",-0.113888821,-0.179629584,1,0,0,1.9158,o2_image,120.8055,0,121.3055,121.3055,123.3061,0,0,0,0,1,,,,,,,,,,,,,,,,,,,,,,,,,,,,,,,,,,,,,,,,,,,,,,,,,,
,,5dff767f69a117bc2fbd4be8,42,male,2024-04-24_11h32.06.406,stockport_simplified,2022.2.4,Win32,61.34969325,661e456ee6de07e70aa9ef7b,6628df853b5fe1a88ccc6358,,,,,,,,,,,,,,,,,,,,,,,,,,,,,,,,,,,,,,,,,,,,,,,,,,,,,,,,0,6,6,8,1,A,Y,N,o1_image,stimuli/out1.png,stimuli/correct_out1.png,stimuli/out2.png,,,,,,,,,,,,,,,,,,,,,,,,,,,,,,,,,,,,,,
,,5dff767f69a117bc2fbd4be8,42,male,2024-04-24_11h32.06.406,stockport_simplified,2022.2.4,Win32,61.34969325,661e456ee6de07e70aa9ef7b,6628df853b5fe1a88ccc6358,,,,,,,,,,,,,,,,,,,,,,,,,,,,,,,,,,123.3066,125.9054,"[1,3,8,5,7,4,6,2]","[[0.3,0.2],[-0.3,0.2]]","[[-0.125,-0.2],[0.125,-0.2]]",-0.126851874,-0.187962918,1,0,0,2.0821,o1_image,125.9067,0,126.4076,126.4076,128.4054,0,0,0,0,1,,,,,,,,,,,,,,,,,,,,,,,,,,,,,,,,,,,,,,,,,,,,,,,,,,
,,5dff767f69a117bc2fbd4be8,42,male,2024-04-24_11h32.06.406,stockport_simplified,2022.2.4,Win32,61.34969325,661e456ee6de07e70aa9ef7b,6628df853b5fe1a88ccc6358,,,,,,,,,,,,,,,,,,,,,,,,,,,,,,,,,,,,,,,,,,,,,,,,,,,,,,,,0,7,7,59,1,N,M,D,o2_image,stimuli/out2.png,stimuli/out1.png,stimuli/correct_out2.png,,,,,,,,,,,,,,,,,,,,,,,,,,,,,,,,,,,,,,
,,5dff767f69a117bc2fbd4be8,42,male,2024-04-24_11h32.06.406,stockport_simplified,2022.2.4,Win32,61.34969325,661e456ee6de07e70aa9ef7b,6628df853b5fe1a88ccc6358,,,,,,,,,,,,,,,,,,,,,,,,,,,,,,,,,,128.4061,130.2741,"[1,3,8,5,7,4,6,2]","[[-0.3,0.2],[0.3,0.2]]","[[-0.125,-0.2],[0.125,-0.2]]",0.130555556,-0.182407362,1,0,0,1.3515,o2_image,130.2744,1,130.7726,130.7727,132.7724,0,0,0,0,1,,,,,,,,,,,,,,,,,,,,,,,,,,,,,,,,,,,,,,,,,,,,,,,,,,
,,5dff767f69a117bc2fbd4be8,42,male,2024-04-24_11h32.06.406,stockport_simplified,2022.2.4,Win32,61.34969325,661e456ee6de07e70aa9ef7b,6628df853b5fe1a88ccc6358,,,,,,,,,,,,,,,,,,,,,,,,,,,,,,,,,,,,,,,,,,,,,,,,,,,,,,,,0,8,8,57,1,N,M,D,o2_image,stimuli/out2.png,stimuli/out1.png,stimuli/correct_out2.png,,,,,,,,,,,,,,,,,,,,,,,,,,,,,,,,,,,,,,
,,5dff767f69a117bc2fbd4be8,42,male,2024-04-24_11h32.06.406,stockport_simplified,2022.2.4,Win32,61.34969325,661e456ee6de07e70aa9ef7b,6628df853b5fe1a88ccc6358,,,,,,,,,,,,,,,,,,,,,,,,,,,,,,,,,,132.7732,136.2561,"[1,3,8,5,7,4,6,2]","[[0.3,0.2],[-0.3,0.2]]","[[0.125,-0.2],[-0.125,-0.2]]",-0.134259237,-0.190740696,1,0,0,2.9664,o2_image,136.2617,0,136.756,136.756,138.7554,0,0,0,0,1,,,,,,,,,,,,,,,,,,,,,,,,,,,,,,,,,,,,,,,,,,,,,,,,,,
,,5dff767f69a117bc2fbd4be8,42,male,2024-04-24_11h32.06.406,stockport_simplified,2022.2.4,Win32,61.34969325,661e456ee6de07e70aa9ef7b,6628df853b5fe1a88ccc6358,,,,,,,,,,,,,,,,,,,,,,,,,,,,,,,,,,,,,,,,,,,,,,,,,,,,,,,,0,9,9,33,1,A,X,N,o1_image,stimuli/out1.png,stimuli/correct_out1.png,stimuli/out2.png,,,,,,,,,,,,,,,,,,,,,,,,,,,,,,,,,,,,,,
,,5dff767f69a117bc2fbd4be8,42,male,2024-04-24_11h32.06.406,stockport_simplified,2022.2.4,Win32,61.34969325,661e456ee6de07e70aa9ef7b,6628df853b5fe1a88ccc6358,,,,,,,,,,,,,,,,,,,,,,,,,,,,,,,,,,138.7559,140.9891,"[1,3,8,5,7,4,6,2]","[[0.3,0.2],[-0.3,0.2]]","[[0.125,-0.2],[-0.125,-0.2]]",0.106481459,-0.22222229,1,0,0,1.7329,o1_image,140.9951,1,141.489,141.489,143.489,0,0,0,0,1,,,,,,,,,,,,,,,,,,,,,,,,,,,,,,,,,,,,,,,,,,,,,,,,,,
,,5dff767f69a117bc2fbd4be8,42,male,2024-04-24_11h32.06.406,stockport_simplified,2022.2.4,Win32,61.34969325,661e456ee6de07e70aa9ef7b,6628df853b5fe1a88ccc6358,,,,,,,,,,,,,,,,,,,,,,,,,,,,,,,,,,,,,,,,,,,,,,,,,,,,,,,,0,10,10,34,1,A,X,N,o1_image,stimuli/out1.png,stimuli/correct_out1.png,stimuli/out2.png,,,,,,,,,,,,,,,,,,,,,,,,,,,,,,,,,,,,,,
,,5dff767f69a117bc2fbd4be8,42,male,2024-04-24_11h32.06.406,stockport_simplified,2022.2.4,Win32,61.34969325,661e456ee6de07e70aa9ef7b,6628df853b5fe1a88ccc6358,,,,,,,,,,,,,,,,,,,,,,,,,,,,,,,,,,143.4894,146.3556,"[1,3,8,5,7,4,6,2]","[[0.3,0.2],[-0.3,0.2]]","[[-0.125,-0.2],[0.125,-0.2]]",-0.112037014,-0.187037014,1,0,0,2.3654,o1_image,146.3564,1,146.8563,146.8563,148.8556,0,0,0,0,1,,,,,,,,,,,,,,,,,,,,,,,,,,,,,,,,,,,,,,,,,,,,,,,,,,
,,5dff767f69a117bc2fbd4be8,42,male,2024-04-24_11h32.06.406,stockport_simplified,2022.2.4,Win32,61.34969325,661e456ee6de07e70aa9ef7b,6628df853b5fe1a88ccc6358,,,,,,,,,,,,,,,,,,,,,,,,,,,,,,,,,,,,,,,,,,,,,,,,,,,,,,,,0,11,11,20,1,N,M,C,o1_image,stimuli/out1.png,stimuli/correct_out1.png,stimuli/out2.png,,,,,,,,,,,,,,,,,,,,,,,,,,,,,,,,,,,,,,
,,5dff767f69a117bc2fbd4be8,42,male,2024-04-24_11h32.06.406,stockport_simplified,2022.2.4,Win32,61.34969325,661e456ee6de07e70aa9ef7b,6628df853b5fe1a88ccc6358,,,,,,,,,,,,,,,,,,,,,,,,,,,,,,,,,,148.8563,151.7894,"[1,3,8,5,7,4,6,2]","[[0.3,0.2],[-0.3,0.2]]","[[0.125,-0.2],[-0.125,-0.2]]",-0.112962986,-0.220370348,1,0,0,2.4318,o2_image,151.7955,0,152.2891,152.2892,154.291,0,0,0,0,1,,,,,,,,,,,,,,,,,,,,,,,,,,,,,,,,,,,,,,,,,,,,,,,,,,
,,5dff767f69a117bc2fbd4be8,42,male,2024-04-24_11h32.06.406,stockport_simplified,2022.2.4,Win32,61.34969325,661e456ee6de07e70aa9ef7b,6628df853b5fe1a88ccc6358,,,,,,,,,,,,,,,,,,,,,,,,,,,,,,,,,,,,,,,,,,,,,,,,,,,,,,,,0,12,12,39,1,A,Y,N,o1_image,stimuli/out1.png,stimuli/correct_out1.png,stimuli/out2.png,,,,,,,,,,,,,,,,,,,,,,,,,,,,,,,,,,,,,,
,,5dff767f69a117bc2fbd4be8,42,male,2024-04-24_11h32.06.406,stockport_simplified,2022.2.4,Win32,61.34969325,661e456ee6de07e70aa9ef7b,6628df853b5fe1a88ccc6358,,,,,,,,,,,,,,,,,,,,,,,,,,,,,,,,,,154.2912,156.673,"[1,3,8,5,7,4,6,2]","[[-0.3,0.2],[0.3,0.2]]","[[-0.125,-0.2],[0.125,-0.2]]",-0.099074097,-0.189814792,1,0,0,1.8654,o1_image,156.6736,1,157.1731,157.1732,159.1731,0,0,0,0,1,,,,,,,,,,,,,,,,,,,,,,,,,,,,,,,,,,,,,,,,,,,,,,,,,,
,,5dff767f69a117bc2fbd4be8,42,male,2024-04-24_11h32.06.406,stockport_simplified,2022.2.4,Win32,61.34969325,661e456ee6de07e70aa9ef7b,6628df853b5fe1a88ccc6358,,,,,,,,,,,,,,,,,,,,,,,,,,,,,,,,,,,,,,,,,,,,,,,,,,,,,,,,0,13,13,36,1,A,Y,N,o1_image,stimuli/out1.png,stimuli/correct_out1.png,stimuli/out2.png,,,,,,,,,,,,,,,,,,,,,,,,,,,,,,,,,,,,,,
,,5dff767f69a117bc2fbd4be8,42,male,2024-04-24_11h32.06.406,stockport_simplified,2022.2.4,Win32,61.34969325,661e456ee6de07e70aa9ef7b,6628df853b5fe1a88ccc6358,,,,,,,,,,,,,,,,,,,,,,,,,,,,,,,,,,159.1734,161.8062,"[1,3,8,5,7,4,6,2]","[[0.3,0.2],[-0.3,0.2]]","[[-0.125,-0.2],[0.125,-0.2]]",0.125925903,-0.189814792,1,0,0,2.1157,o2_image,161.8072,1,162.3057,162.3058,164.3064,0,0,0,0,1,,,,,,,,,,,,,,,,,,,,,,,,,,,,,,,,,,,,,,,,,,,,,,,,,,
,,5dff767f69a117bc2fbd4be8,42,male,2024-04-24_11h32.06.406,stockport_simplified,2022.2.4,Win32,61.34969325,661e456ee6de07e70aa9ef7b,6628df853b5fe1a88ccc6358,,,,,,,,,,,,,,,,,,,,,,,,,,,,,,,,,,,,,,,,,,,,,,,,,,,,,,,,0,14,14,10,1,B,X,N,o2_image,stimuli/out2.png,stimuli/out1.png,stimuli/correct_out2.png,,,,,,,,,,,,,,,,,,,,,,,,,,,,,,,,,,,,,,
,,5dff767f69a117bc2fbd4be8,42,male,2024-04-24_11h32.06.406,stockport_simplified,2022.2.4,Win32,61.34969325,661e456ee6de07e70aa9ef7b,6628df853b5fe1a88ccc6358,,,,,,,,,,,,,,,,,,,,,,,,,,,,,,,,,,164.3072,167.9409,"[1,3,8,5,7,4,6,2]","[[0.3,0.2],[-0.3,0.2]]","[[0.125,-0.2],[-0.125,-0.2]]",-0.13240743,-0.219444512,1,0,0,3.1331,o2_image,167.9468,1,168.4392,168.4392,170.4396,0,0,0,0,1,,,,,,,,,,,,,,,,,,,,,,,,,,,,,,,,,,,,,,,,,,,,,,,,,,
,,5dff767f69a117bc2fbd4be8,42,male,2024-04-24_11h32.06.406,stockport_simplified,2022.2.4,Win32,61.34969325,661e456ee6de07e70aa9ef7b,6628df853b5fe1a88ccc6358,,,,,,,,,,,,,,,,,,,,,,,,,,,,,,,,,,,,,,,,,,,,,,,,,,,,,,,,0,15,15,27,1,N,M,D,o2_image,stimuli/out2.png,stimuli/out1.png,stimuli/correct_out2.png,,,,,,,,,,,,,,,,,,,,,,,,,,,,,,,,,,,,,,
,,5dff767f69a117bc2fbd4be8,42,male,2024-04-24_11h32.06.406,stockport_simplified,2022.2.4,Win32,61.34969325,661e456ee6de07e70aa9ef7b,6628df853b5fe1a88ccc6358,,,,,,,,,,,,,,,,,,,,,,,,,,,,,,,,,,170.4401,172.8398,"[1,3,8,5,7,4,6,2]","[[0.3,0.2],[-0.3,0.2]]","[[0.125,-0.2],[-0.125,-0.2]]",0.140740696,-0.194444444,1,0,0,1.8839,o1_image,172.8408,1,173.339,173.339,175.3389,0,0,0,0,1,,,,,,,,,,,,,,,,,,,,,,,,,,,,,,,,,,,,,,,,,,,,,,,,,,
,,5dff767f69a117bc2fbd4be8,42,male,2024-04-24_11h32.06.406,stockport_simplified,2022.2.4,Win32,61.34969325,661e456ee6de07e70aa9ef7b,6628df853b5fe1a88ccc6358,,,,,,,,,,,,,,,,,,,,,,,,,,,,,,,,,,,,,,,,,,,,,,,,,,,,,,,,0,16,16,24,1,N,M,C,o1_image,stimuli/out1.png,stimuli/correct_out1.png,stimuli/out2.png,,,,,,,,,,,,,,,,,,,,,,,,,,,,,,,,,,,,,,
,,5dff767f69a117bc2fbd4be8,42,male,2024-04-24_11h32.06.406,stockport_simplified,2022.2.4,Win32,61.34969325,661e456ee6de07e70aa9ef7b,6628df853b5fe1a88ccc6358,,,,,,,,,,,,,,,,,,,,,,,,,,,,,,,,,,175.3394,177.558,"[1,3,8,5,7,4,6,2]","[[0.3,0.2],[-0.3,0.2]]","[[0.125,-0.2],[-0.125,-0.2]]",0.132407362,-0.191666667,1,0,0,1.7019,o1_image,177.5584,1,178.0564,178.0564,180.0579,0,0,0,0,1,,,,,,,,,,,,,,,,,,,,,,,,,,,,,,,,,,,,,,,,,,,,,,,,,,
,,5dff767f69a117bc2fbd4be8,42,male,2024-04-24_11h32.06.406,stockport_simplified,2022.2.4,Win32,61.34969325,661e456ee6de07e70aa9ef7b,6628df853b5fe1a88ccc6358,,,,,,,,,,,,,,,,,,,,,,,,,,,,,,,,,,,,,,,,,,,,,,,,,,,,,,,,0,17,17,23,1,N,M,C,o1_image,stimuli/out1.png,stimuli/correct_out1.png,stimuli/out2.png,,,,,,,,,,,,,,,,,,,,,,,,,,,,,,,,,,,,,,
,,5dff767f69a117bc2fbd4be8,42,male,2024-04-24_11h32.06.406,stockport_simplified,2022.2.4,Win32,61.34969325,661e456ee6de07e70aa9ef7b,6628df853b5fe1a88ccc6358,,,,,,,,,,,,,,,,,,,,,,,,,,,,,,,,,,180.0582,183.2066,"[1,3,8,5,7,4,6,2]","[[0.3,0.2],[-0.3,0.2]]","[[0.125,-0.2],[-0.125,-0.2]]",-0.105555488,-0.165740696,1,0,0,2.6321,o2_image,183.2125,1,183.7056,183.7057,185.7065,0,0,0,0,1,,,,,,,,,,,,,,,,,,,,,,,,,,,,,,,,,,,,,,,,,,,,,,,,,,
,,5dff767f69a117bc2fbd4be8,42,male,2024-04-24_11h32.06.406,stockport_simplified,2022.2.4,Win32,61.34969325,661e456ee6de07e70aa9ef7b,6628df853b5fe1a88ccc6358,,,,,,,,,,,,,,,,,,,,,,,,,,,,,,,,,,,,,,,,,,,,,,,,,,,,,,,,0,18,18,17,1,B,Y,N,o2_image,stimuli/out2.png,stimuli/out1.png,stimuli/correct_out2.png,,,,,,,,,,,,,,,,,,,,,,,,,,,,,,,,,,,,,,
,,5dff767f69a117bc2fbd4be8,42,male,2024-04-24_11h32.06.406,stockport_simplified,2022.2.4,Win32,61.34969325,661e456ee6de07e70aa9ef7b,6628df853b5fe1a88ccc6358,,,,,,,,,,,,,,,,,,,,,,,,,,,,,,,,,,185.7069,188.0738,"[1,3,8,5,7,4,6,2]","[[0.3,0.2],[-0.3,0.2]]","[[0.125,-0.2],[-0.125,-0.2]]",0.127777778,-0.191666667,1,0,0,1.8507,o1_image,188.0742,1,188.5727,188.5727,190.5727,0,0,0,0,1,,,,,,,,,,,,,,,,,,,,,,,,,,,,,,,,,,,,,,,,,,,,,,,,,,
,,5dff767f69a117bc2fbd4be8,42,male,2024-04-24_11h32.06.406,stockport_simplified,2022.2.4,Win32,61.34969325,661e456ee6de07e70aa9ef7b,6628df853b5fe1a88ccc6358,,,,,,,,,,,,,,,,,,,,,,,,,,,,,,,,,,,,,,,,,,,,,,,,,,,,,,,,0,19,19,4,1,A,X,N,o1_image,stimuli/out1.png,stimuli/correct_out1.png,stimuli/out2.png,,,,,,,,,,,,,,,,,,,,,,,,,,,,,,,,,,,,,,
,,5dff767f69a117bc2fbd4be8,42,male,2024-04-24_11h32.06.406,stockport_simplified,2022.2.4,Win32,61.34969325,661e456ee6de07e70aa9ef7b,6628df853b5fe1a88ccc6358,,,,,,,,,,,,,,,,,,,,,,,,,,,,,,,,,,190.5732,193.806,"[1,3,8,5,7,4,6,2]","[[-0.3,0.2],[0.3,0.2]]","[[-0.125,-0.2],[0.125,-0.2]]",-0.124074097,-0.176851807,1,0,0,2.7162,o1_image,193.8119,0,194.3067,194.3067,196.3067,0,0,0,0,1,,,,,,,,,,,,,,,,,,,,,,,,,,,,,,,,,,,,,,,,,,,,,,,,,,
,,5dff767f69a117bc2fbd4be8,42,male,2024-04-24_11h32.06.406,stockport_simplified,2022.2.4,Win32,61.34969325,661e456ee6de07e70aa9ef7b,6628df853b5fe1a88ccc6358,,,,,,,,,,,,,,,,,,,,,,,,,,,,,,,,,,,,,,,,,,,,,,,,,,,,,,,,0,20,20,28,1,N,M,D,o2_image,stimuli/out2.png,stimuli/out1.png,stimuli/correct_out2.png,,,,,,,,,,,,,,,,,,,,,,,,,,,,,,,,,,,,,,
,,5dff767f69a117bc2fbd4be8,42,male,2024-04-24_11h32.06.406,stockport_simplified,2022.2.4,Win32,61.34969325,661e456ee6de07e70aa9ef7b,6628df853b5fe1a88ccc6358,,,,,,,,,,,,,,,,,,,,,,,,,,,,,,,,,,196.3073,199.856,"[1,3,8,5,7,4,6,2]","[[0.3,0.2],[-0.3,0.2]]","[[-0.125,-0.2],[0.125,-0.2]]",-0.11759257,-0.189814792,1,0,0,3.0479,o1_image,199.8627,1,200.3561,200.3561,202.3561,0,0,0,0,1,,,,,,,,,,,,,,,,,,,,,,,,,,,,,,,,,,,,,,,,,,,,,,,,,,
,,5dff767f69a117bc2fbd4be8,42,male,2024-04-24_11h32.06.406,stockport_simplified,2022.2.4,Win32,61.34969325,661e456ee6de07e70aa9ef7b,6628df853b5fe1a88ccc6358,,,,,,,,,,,,,,,,,,,,,,,,,,,,,,,,,,,,,,,,,,,,,,,,,,,,,,,,0,21,21,7,1,A,Y,N,o1_image,stimuli/out1.png,stimuli/correct_out1.png,stimuli/out2.png,,,,,,,,,,,,,,,,,,,,,,,,,,,,,,,,,,,,,,
,,5dff767f69a117bc2fbd4be8,42,male,2024-04-24_11h32.06.406,stockport_simplified,2022.2.4,Win32,61.34969325,661e456ee6de07e70aa9ef7b,6628df853b5fe1a88ccc6358,,,,,,,,,,,,,,,,,,,,,,,,,,,,,,,,,,202.3565,205.2891,"[1,3,8,5,7,4,6,2]","[[-0.3,0.2],[0.3,0.2]]","[[0.125,-0.2],[-0.125,-0.2]]",0.118518473,-0.2,1,0,0,2.4161,o1_image,205.2956,0,205.7894,205.7894,207.7912,0,0,0,0,1,,,,,,,,,,,,,,,,,,,,,,,,,,,,,,,,,,,,,,,,,,,,,,,,,,
,,5dff767f69a117bc2fbd4be8,42,male,2024-04-24_11h32.06.406,stockport_simplified,2022.2.4,Win32,61.34969325,661e456ee6de07e70aa9ef7b,6628df853b5fe1a88ccc6358,,,,,,,,,,,,,,,,,,,,,,,,,,,,,,,,,,,,,,,,,,,,,,,,,,,,,,,,0,22,22,44,1,B,X,N,o2_image,stimuli/out2.png,stimuli/out1.png,stimuli/correct_out2.png,,,,,,,,,,,,,,,,,,,,,,,,,,,,,,,,,,,,,,
,,5dff767f69a117bc2fbd4be8,42,male,2024-04-24_11h32.06.406,stockport_simplified,2022.2.4,Win32,61.34969325,661e456ee6de07e70aa9ef7b,6628df853b5fe1a88ccc6358,,,,,,,,,,,,,,,,,,,,,,,,,,,,,,,,,,207.7915,210.6917,"[1,3,8,5,7,4,6,2]","[[0.3,0.2],[-0.3,0.2]]","[[0.125,-0.2],[-0.125,-0.2]]",0.121296251,-0.213888957,1,0,0,2.3838,o1_image,210.6921,1,211.1916,211.1916,213.1915,0,0,0,0,1,,,,,,,,,,,,,,,,,,,,,,,,,,,,,,,,,,,,,,,,,,,,,,,,,,
,,5dff767f69a117bc2fbd4be8,42,male,2024-04-24_11h32.06.406,stockport_simplified,2022.2.4,Win32,61.34969325,661e456ee6de07e70aa9ef7b,6628df853b5fe1a88ccc6358,,,,,,,,,,,,,,,,,,,,,,,,,,,,,,,,,,,,,,,,,,,,,,,,,,,,,,,,0,23,23,3,1,A,X,N,o1_image,stimuli/out1.png,stimuli/correct_out1.png,stimuli/out2.png,,,,,,,,,,,,,,,,,,,,,,,,,,,,,,,,,,,,,,
,,5dff767f69a117bc2fbd4be8,42,male,2024-04-24_11h32.06.406,stockport_simplified,2022.2.4,Win32,61.34969325,661e456ee6de07e70aa9ef7b,6628df853b5fe1a88ccc6358,,,,,,,,,,,,,,,,,,,,,,,,,,,,,,,,,,213.1916,216.2918,"[1,3,8,5,7,4,6,2]","[[0.3,0.2],[-0.3,0.2]]","[[0.125,-0.2],[-0.125,-0.2]]",-0.099074097,-0.204629584,1,0,0,2.5838,o2_image,216.2975,0,216.7915,216.7916,218.7912,0,0,0,0,1,,,,,,,,,,,,,,,,,,,,,,,,,,,,,,,,,,,,,,,,,,,,,,,,,,
,,5dff767f69a117bc2fbd4be8,42,male,2024-04-24_11h32.06.406,stockport_simplified,2022.2.4,Win32,61.34969325,661e456ee6de07e70aa9ef7b,6628df853b5fe1a88ccc6358,,,,,,,,,,,,,,,,,,,,,,,,,,,,,,,,,,,,,,,,,,,,,,,,,,,,,,,,0,24,24,9,1,A,Y,N,o1_image,stimuli/out1.png,stimuli/correct_out1.png,stimuli/out2.png,,,,,,,,,,,,,,,,,,,,,,,,,,,,,,,,,,,,,,
,,5dff767f69a117bc2fbd4be8,42,male,2024-04-24_11h32.06.406,stockport_simplified,2022.2.4,Win32,61.34969325,661e456ee6de07e70aa9ef7b,6628df853b5fe1a88ccc6358,,,,,,,,,,,,,,,,,,,,,,,,,,,,,,,,,,218.7914,220.9415,"[1,3,8,5,7,4,6,2]","[[0.3,0.2],[-0.3,0.2]]","[[0.125,-0.2],[-0.125,-0.2]]",0.130555556,-0.180555556,1,0,0,1.6334,o1_image,220.9419,0,221.4415,221.4415,223.4424,0,0,0,0,1,,,,,,,,,,,,,,,,,,,,,,,,,,,,,,,,,,,,,,,,,,,,,,,,,,
,,5dff767f69a117bc2fbd4be8,42,male,2024-04-24_11h32.06.406,stockport_simplified,2022.2.4,Win32,61.34969325,661e456ee6de07e70aa9ef7b,6628df853b5fe1a88ccc6358,,,,,,,,,,,,,,,,,,,,,,,,,,,,,,,,,,,,,,,,,,,,,,,,,,,,,,,,0,25,25,49,1,B,Y,N,o2_image,stimuli/out2.png,stimuli/out1.png,stimuli/correct_out2.png,,,,,,,,,,,,,,,,,,,,,,,,,,,,,,,,,,,,,,
,,5dff767f69a117bc2fbd4be8,42,male,2024-04-24_11h32.06.406,stockport_simplified,2022.2.4,Win32,61.34969325,661e456ee6de07e70aa9ef7b,6628df853b5fe1a88ccc6358,,,,,,,,,,,,,,,,,,,,,,,,,,,,,,,,,,223.4426,226.8259,"[1,3,8,5,7,4,6,2]","[[-0.3,0.2],[0.3,0.2]]","[[-0.125,-0.2],[0.125,-0.2]]",-0.108333266,-0.173148126,1,0,0,2.8677,o1_image,226.8263,1,227.3252,227.3253,229.3237,0,0,0,0,1,,,,,,,,,,,,,,,,,,,,,,,,,,,,,,,,,,,,,,,,,,,,,,,,,,
,,5dff767f69a117bc2fbd4be8,42,male,2024-04-24_11h32.06.406,stockport_simplified,2022.2.4,Win32,61.34969325,661e456ee6de07e70aa9ef7b,6628df853b5fe1a88ccc6358,,,,,,,,,,,,,,,,,,,,,,,,,,,,,,,,,,,,,,,,,,,,,,,,,,,,,,,,0,26,26,32,1,A,X,N,o1_image,stimuli/out1.png,stimuli/correct_out1.png,stimuli/out2.png,,,,,,,,,,,,,,,,,,,,,,,,,,,,,,,,,,,,,,
,,5dff767f69a117bc2fbd4be8,42,male,2024-04-24_11h32.06.406,stockport_simplified,2022.2.4,Win32,61.34969325,661e456ee6de07e70aa9ef7b,6628df853b5fe1a88ccc6358,,,,,,,,,,,,,,,,,,,,,,,,,,,,,,,,,,229.324,231.856,"[1,3,8,5,7,4,6,2]","[[-0.3,0.2],[0.3,0.2]]","[[-0.125,-0.2],[0.125,-0.2]]",-0.119444377,-0.181481459,1,0,0,2.0162,o1_image,231.8626,0,232.3559,232.356,234.3581,0,0,0,0,1,,,,,,,,,,,,,,,,,,,,,,,,,,,,,,,,,,,,,,,,,,,,,,,,,,
,,5dff767f69a117bc2fbd4be8,42,male,2024-04-24_11h32.06.406,stockport_simplified,2022.2.4,Win32,61.34969325,661e456ee6de07e70aa9ef7b,6628df853b5fe1a88ccc6358,,,,,,,,,,,,,,,,,,,,,,,,,,,,,,,,,,,,,,,,,,,,,,,,,,,,,,,,0,27,27,11,1,B,X,N,o2_image,stimuli/out2.png,stimuli/out1.png,stimuli/correct_out2.png,,,,,,,,,,,,,,,,,,,,,,,,,,,,,,,,,,,,,,
,,5dff767f69a117bc2fbd4be8,42,male,2024-04-24_11h32.06.406,stockport_simplified,2022.2.4,Win32,61.34969325,661e456ee6de07e70aa9ef7b,6628df853b5fe1a88ccc6358,,,,,,,,,,,,,,,,,,,,,,,,,,,,,,,,,,234.3584,236.4726,"[1,3,8,5,7,4,6,2]","[[-0.3,0.2],[0.3,0.2]]","[[-0.125,-0.2],[0.125,-0.2]]",0.125925903,-0.203703681,1,0,0,1.5996,o2_image,236.473,1,236.9727,236.9728,238.9732,0,0,0,0,1,,,,,,,,,,,,,,,,,,,,,,,,,,,,,,,,,,,,,,,,,,,,,,,,,,
,,5dff767f69a117bc2fbd4be8,42,male,2024-04-24_11h32.06.406,stockport_simplified,2022.2.4,Win32,61.34969325,661e456ee6de07e70aa9ef7b,6628df853b5fe1a88ccc6358,,,,,,,,,,,,,,,,,,,,,,,,,,,,,,,,,,,,,,,,,,,,,,,,,,,,,,,,0,28,28,41,1,B,X,N,o2_image,stimuli/out2.png,stimuli/out1.png,stimuli/correct_out2.png,,,,,,,,,,,,,,,,,,,,,,,,,,,,,,,,,,,,,,
,,5dff767f69a117bc2fbd4be8,42,male,2024-04-24_11h32.06.406,stockport_simplified,2022.2.4,Win32,61.34969325,661e456ee6de07e70aa9ef7b,6628df853b5fe1a88ccc6358,,,,,,,,,,,,,,,,,,,,,,,,,,,,,,,,,,238.9736,241.9734,"[1,3,8,5,7,4,6,2]","[[-0.3,0.2],[0.3,0.2]]","[[0.125,-0.2],[-0.125,-0.2]]",-0.100925903,-0.193518473,1,0,0,2.4986,o2_image,241.9797,1,242.4736,242.4738,244.4735,0,0,0,0,1,,,,,,,,,,,,,,,,,,,,,,,,,,,,,,,,,,,,,,,,,,,,,,,,,,
,,5dff767f69a117bc2fbd4be8,42,male,2024-04-24_11h32.06.406,stockport_simplified,2022.2.4,Win32,61.34969325,661e456ee6de07e70aa9ef7b,6628df853b5fe1a88ccc6358,,,,,,,,,,,,,,,,,,,,,,,,,,,,,,,,,,,,,,,,,,,,,,,,,,,,,,,,0,29,29,46,1,B,Y,N,o2_image,stimuli/out2.png,stimuli/out1.png,stimuli/correct_out2.png,,,,,,,,,,,,,,,,,,,,,,,,,,,,,,,,,,,,,,
,,5dff767f69a117bc2fbd4be8,42,male,2024-04-24_11h32.06.406,stockport_simplified,2022.2.4,Win32,61.34969325,661e456ee6de07e70aa9ef7b,6628df853b5fe1a88ccc6358,,,,,,,,,,,,,,,,,,,,,,,,,,,,,,,,,,244.4741,247.4896,"[1,3,8,5,7,4,6,2]","[[0.3,0.2],[-0.3,0.2]]","[[0.125,-0.2],[-0.125,-0.2]]",0.129629584,-0.197222222,1,0,0,2.5146,o1_image,247.4964,0,247.9897,247.9897,249.9899,0,0,0,0,1,,,,,,,,,,,,,,,,,,,,,,,,,,,,,,,,,,,,,,,,,,,,,,,,,,
,,5dff767f69a117bc2fbd4be8,42,male,2024-04-24_11h32.06.406,stockport_simplified,2022.2.4,Win32,61.34969325,661e456ee6de07e70aa9ef7b,6628df853b5fe1a88ccc6358,,,,,,,,,,,,,,,,,,,,,,,,,,,,,,,,,,,,,,,,,,,,,,,,,,,,,,,,0,30,30,58,1,N,M,D,o2_image,stimuli/out2.png,stimuli/out1.png,stimuli/correct_out2.png,,,,,,,,,,,,,,,,,,,,,,,,,,,,,,,,,,,,,,
,,5dff767f69a117bc2fbd4be8,42,male,2024-04-24_11h32.06.406,stockport_simplified,2022.2.4,Win32,61.34969325,661e456ee6de07e70aa9ef7b,6628df853b5fe1a88ccc6358,,,,,,,,,,,,,,,,,,,,,,,,,,,,,,,,,,249.9904,254.0732,"[1,3,8,5,7,4,6,2]","[[0.3,0.2],[-0.3,0.2]]","[[-0.125,-0.2],[0.125,-0.2]]",0.074074029,-0.195370348,1,0,0,3.5666,o2_image,254.0793,0,254.5729,254.5729,256.5732,0,0,0,0,1,,,,,,,,,,,,,,,,,,,,,,,,,,,,,,,,,,,,,,,,,,,,,,,,,,
,,5dff767f69a117bc2fbd4be8,42,male,2024-04-24_11h32.06.406,stockport_simplified,2022.2.4,Win32,61.34969325,661e456ee6de07e70aa9ef7b,6628df853b5fe1a88ccc6358,,,,,,,,,,,,,,,,,,,,,,,,,,,,,,,,,,,,,,,,,,,,,,,,,,,,,,,,0,31,31,30,1,A,X,N,o1_image,stimuli/out1.png,stimuli/correct_out1.png,stimuli/out2.png,,,,,,,,,,,,,,,,,,,,,,,,,,,,,,,,,,,,,,
,,5dff767f69a117bc2fbd4be8,42,male,2024-04-24_11h32.06.406,stockport_simplified,2022.2.4,Win32,61.34969325,661e456ee6de07e70aa9ef7b,6628df853b5fe1a88ccc6358,,,,,,,,,,,,,,,,,,,,,,,,,,,,,,,,,,256.5737,259.0895,"[1,3,8,5,7,4,6,2]","[[-0.3,0.2],[0.3,0.2]]","[[-0.125,-0.2],[0.125,-0.2]]",-0.111111043,-0.198148126,1,0,0,1.9991,o1_image,259.0903,1,259.5899,259.5899,261.5899,0,0,0,0,1,,,,,,,,,,,,,,,,,,,,,,,,,,,,,,,,,,,,,,,,,,,,,,,,,,
,,5dff767f69a117bc2fbd4be8,42,male,2024-04-24_11h32.06.406,stockport_simplified,2022.2.4,Win32,61.34969325,661e456ee6de07e70aa9ef7b,6628df853b5fe1a88ccc6358,,,,,,,,,,,,,,,,,,,,,,,,,,,,,,,,,,,,,,,,,,,,,,,,,,,,,,,,0,32,32,21,1,N,M,C,o1_image,stimuli/out1.png,stimuli/correct_out1.png,stimuli/out2.png,,,,,,,,,,,,,,,,,,,,,,,,,,,,,,,,,,,,,,
,,5dff767f69a117bc2fbd4be8,42,male,2024-04-24_11h32.06.406,stockport_simplified,2022.2.4,Win32,61.34969325,661e456ee6de07e70aa9ef7b,6628df853b5fe1a88ccc6358,,,,,,,,,,,,,,,,,,,,,,,,,,,,,,,,,,261.5901,265.9235,"[1,3,8,5,7,4,6,2]","[[0.3,0.2],[-0.3,0.2]]","[[0.125,-0.2],[-0.125,-0.2]]",-0.130555488,-0.2,1,0,0,3.8166,o2_image,265.9293,1,266.4232,266.4232,268.4231,0,0,0,0,1,,,,,,,,,,,,,,,,,,,,,,,,,,,,,,,,,,,,,,,,,,,,,,,,,,
,,5dff767f69a117bc2fbd4be8,42,male,2024-04-24_11h32.06.406,stockport_simplified,2022.2.4,Win32,61.34969325,661e456ee6de07e70aa9ef7b,6628df853b5fe1a88ccc6358,,,,,,,,,,,,,,,,,,,,,,,,,,,,,,,,,,,,,,,,,,,,,,,,,,,,,,,,0,33,33,13,1,B,X,N,o2_image,stimuli/out2.png,stimuli/out1.png,stimuli/correct_out2.png,,,,,,,,,,,,,,,,,,,,,,,,,,,,,,,,,,,,,,
,,5dff767f69a117bc2fbd4be8,42,male,2024-04-24_11h32.06.406,stockport_simplified,2022.2.4,Win32,61.34969325,661e456ee6de07e70aa9ef7b,6628df853b5fe1a88ccc6358,,,,,,,,,,,,,,,,,,,,,,,,,,,,,,,,,,268.4236,271.2734,"[1,3,8,5,7,4,6,2]","[[-0.3,0.2],[0.3,0.2]]","[[-0.125,-0.2],[0.125,-0.2]]",0.106481459,-0.2,1,0,0,2.3333,o2_image,271.2741,1,271.773,271.7731,273.7736,0,0,0,0,1,,,,,,,,,,,,,,,,,,,,,,,,,,,,,,,,,,,,,,,,,,,,,,,,,,
,,5dff767f69a117bc2fbd4be8,42,male,2024-04-24_11h32.06.406,stockport_simplified,2022.2.4,Win32,61.34969325,661e456ee6de07e70aa9ef7b,6628df853b5fe1a88ccc6358,,,,,,,,,,,,,,,,,,,,,,,,,,,,,,,,,,,,,,,,,,,,,,,,,,,,,,,,0,34,34,26,1,N,M,D,o2_image,stimuli/out2.png,stimuli/out1.png,stimuli/correct_out2.png,,,,,,,,,,,,,,,,,,,,,,,,,,,,,,,,,,,,,,
,,5dff767f69a117bc2fbd4be8,42,male,2024-04-24_11h32.06.406,stockport_simplified,2022.2.4,Win32,61.34969325,661e456ee6de07e70aa9ef7b,6628df853b5fe1a88ccc6358,,,,,,,,,,,,,,,,,,,,,,,,,,,,,,,,,,273.7741,275.9403,"[1,3,8,5,7,4,6,2]","[[0.3,0.2],[-0.3,0.2]]","[[0.125,-0.2],[-0.125,-0.2]]",0.137962918,-0.175925903,1,0,0,1.6499,o1_image,275.9409,1,276.4401,276.4402,278.4401,0,0,0,0,1,,,,,,,,,,,,,,,,,,,,,,,,,,,,,,,,,,,,,,,,,,,,,,,,,,
,,5dff767f69a117bc2fbd4be8,42,male,2024-04-24_11h32.06.406,stockport_simplified,2022.2.4,Win32,61.34969325,661e456ee6de07e70aa9ef7b,6628df853b5fe1a88ccc6358,,,,,,,,,,,,,,,,,,,,,,,,,,,,,,,,,,,,,,,,,,,,,,,,,,,,,,,,0,35,35,22,1,N,M,C,o1_image,stimuli/out1.png,stimuli/correct_out1.png,stimuli/out2.png,,,,,,,,,,,,,,,,,,,,,,,,,,,,,,,,,,,,,,
,,5dff767f69a117bc2fbd4be8,42,male,2024-04-24_11h32.06.406,stockport_simplified,2022.2.4,Win32,61.34969325,661e456ee6de07e70aa9ef7b,6628df853b5fe1a88ccc6358,,,,,,,,,,,,,,,,,,,,,,,,,,,,,,,,,,278.4406,280.7234,"[1,3,8,5,7,4,6,2]","[[0.3,0.2],[-0.3,0.2]]","[[0.125,-0.2],[-0.125,-0.2]]",-0.094444377,-0.186111111,1,0,0,1.7664,o2_image,280.7242,1,281.2234,281.2234,283.2229,0,0,0,0,1,,,,,,,,,,,,,,,,,,,,,,,,,,,,,,,,,,,,,,,,,,,,,,,,,,
,,5dff767f69a117bc2fbd4be8,42,male,2024-04-24_11h32.06.406,stockport_simplified,2022.2.4,Win32,61.34969325,661e456ee6de07e70aa9ef7b,6628df853b5fe1a88ccc6358,,,,,,,,,,,,,,,,,,,,,,,,,,,,,,,,,,,,,,,,,,,,,,,,,,,,,,,,0,36,36,56,1,N,M,D,o2_image,stimuli/out2.png,stimuli/out1.png,stimuli/correct_out2.png,,,,,,,,,,,,,,,,,,,,,,,,,,,,,,,,,,,,,,
,,5dff767f69a117bc2fbd4be8,42,male,2024-04-24_11h32.06.406,stockport_simplified,2022.2.4,Win32,61.34969325,661e456ee6de07e70aa9ef7b,6628df853b5fe1a88ccc6358,,,,,,,,,,,,,,,,,,,,,,,,,,,,,,,,,,283.2232,287.7736,"[1,3,8,5,7,4,6,2]","[[-0.3,0.2],[0.3,0.2]]","[[0.125,-0.2],[-0.125,-0.2]]",-0.079629652,-0.206481459,1,0,0,4.0497,o2_image,287.7802,0,288.2734,288.2735,290.273,0,0,0,0,1,,,,,,,,,,,,,,,,,,,,,,,,,,,,,,,,,,,,,,,,,,,,,,,,,,
,,5dff767f69a117bc2fbd4be8,42,male,2024-04-24_11h32.06.406,stockport_simplified,2022.2.4,Win32,61.34969325,661e456ee6de07e70aa9ef7b,6628df853b5fe1a88ccc6358,,,,,,,,,,,,,,,,,,,,,,,,,,,,,,,,,,,,,,,,,,,,,,,,,,,,,,,,0,37,37,6,1,A,Y,N,o1_image,stimuli/out1.png,stimuli/correct_out1.png,stimuli/out2.png,,,,,,,,,,,,,,,,,,,,,,,,,,,,,,,,,,,,,,
,,5dff767f69a117bc2fbd4be8,42,male,2024-04-24_11h32.06.406,stockport_simplified,2022.2.4,Win32,61.34969325,661e456ee6de07e70aa9ef7b,6628df853b5fe1a88ccc6358,,,,,,,,,,,,,,,,,,,,,,,,,,,,,,,,,,290.2736,293.9903,"[1,3,8,5,7,4,6,2]","[[0.3,0.2],[-0.3,0.2]]","[[-0.125,-0.2],[0.125,-0.2]]",-0.162962986,-0.2,1,0,0,3.2159,o1_image,293.9966,0,294.4905,294.4906,296.4903,0,0,0,0,1,,,,,,,,,,,,,,,,,,,,,,,,,,,,,,,,,,,,,,,,,,,,,,,,,,
,,5dff767f69a117bc2fbd4be8,42,male,2024-04-24_11h32.06.406,stockport_simplified,2022.2.4,Win32,61.34969325,661e456ee6de07e70aa9ef7b,6628df853b5fe1a88ccc6358,,,,,,,,,,,,,,,,,,,,,,,,,,,,,,,,,,,,,,,,,,,,,,,,,,,,,,,,0,38,38,15,1,B,Y,N,o2_image,stimuli/out2.png,stimuli/out1.png,stimuli/correct_out2.png,,,,,,,,,,,,,,,,,,,,,,,,,,,,,,,,,,,,,,
,,5dff767f69a117bc2fbd4be8,42,male,2024-04-24_11h32.06.406,stockport_simplified,2022.2.4,Win32,61.34969325,661e456ee6de07e70aa9ef7b,6628df853b5fe1a88ccc6358,,,,,,,,,,,,,,,,,,,,,,,,,,,,,,,,,,296.4907,300.1404,"[1,3,8,5,7,4,6,2]","[[-0.3,0.2],[0.3,0.2]]","[[-0.125,-0.2],[0.125,-0.2]]",0.122222222,-0.2,1,0,0,3.1336,o2_image,300.1466,1,300.6402,300.6402,302.6404,0,0,0,0,1,,,,,,,,,,,,,,,,,,,,,,,,,,,,,,,,,,,,,,,,,,,,,,,,,,
,,5dff767f69a117bc2fbd4be8,42,male,2024-04-24_11h32.06.406,stockport_simplified,2022.2.4,Win32,61.34969325,661e456ee6de07e70aa9ef7b,6628df853b5fe1a88ccc6358,,,,,,,,,,,,,,,,,,,,,,,,,,,,,,,,,,,,,,,,,,,,,,,,,,,,,,,,0,39,39,48,1,B,Y,N,o2_image,stimuli/out2.png,stimuli/out1.png,stimuli/correct_out2.png,,,,,,,,,,,,,,,,,,,,,,,,,,,,,,,,,,,,,,
,,5dff767f69a117bc2fbd4be8,42,male,2024-04-24_11h32.06.406,stockport_simplified,2022.2.4,Win32,61.34969325,661e456ee6de07e70aa9ef7b,6628df853b5fe1a88ccc6358,,,,,,,,,,,,,,,,,,,,,,,,,,,,,,,,,,302.6409,305.4405,"[1,3,8,5,7,4,6,2]","[[-0.3,0.2],[0.3,0.2]]","[[0.125,-0.2],[-0.125,-0.2]]",-0.118518541,-0.212962986,1,0,0,2.2831,o2_image,305.4468,1,305.9402,305.9402,307.9401,0,0,0,0,1,,,,,,,,,,,,,,,,,,,,,,,,,,,,,,,,,,,,,,,,,,,,,,,,,,
,,5dff767f69a117bc2fbd4be8,42,male,2024-04-24_11h32.06.406,stockport_simplified,2022.2.4,Win32,61.34969325,661e456ee6de07e70aa9ef7b,6628df853b5fe1a88ccc6358,,,,,,,,,,,,,,,,,,,,,,,,,,,,,,,,,,,,,,,,,,,,,,,,,,,,,,,,0,40,40,19,1,B,Y,N,o2_image,stimuli/out2.png,stimuli/out1.png,stimuli/correct_out2.png,,,,,,,,,,,,,,,,,,,,,,,,,,,,,,,,,,,,,,
,,5dff767f69a117bc2fbd4be8,42,male,2024-04-24_11h32.06.406,stockport_simplified,2022.2.4,Win32,61.34969325,661e456ee6de07e70aa9ef7b,6628df853b5fe1a88ccc6358,,,,,,,,,,,,,,,,,,,,,,,,,,,,,,,,,,307.9407,310.857,"[1,3,8,5,7,4,6,2]","[[-0.3,0.2],[0.3,0.2]]","[[-0.125,-0.2],[0.125,-0.2]]",0.134259237,-0.206481459,1,0,0,2.4001,o2_image,310.8576,1,311.3567,311.3567,313.3573,0,0,0,0,1,,,,,,,,,,,,,,,,,,,,,,,,,,,,,,,,,,,,,,,,,,,,,,,,,,
,,5dff767f69a117bc2fbd4be8,42,male,2024-04-24_11h32.06.406,stockport_simplified,2022.2.4,Win32,61.34969325,661e456ee6de07e70aa9ef7b,6628df853b5fe1a88ccc6358,,,,,,,,,,,,,,,,,,,,,,,,,,,,,,,,,,,,,,,,,,,,,,,,,,,,,,,,0,41,41,45,1,B,Y,N,o2_image,stimuli/out2.png,stimuli/out1.png,stimuli/correct_out2.png,,,,,,,,,,,,,,,,,,,,,,,,,,,,,,,,,,,,,,
,,5dff767f69a117bc2fbd4be8,42,male,2024-04-24_11h32.06.406,stockport_simplified,2022.2.4,Win32,61.34969325,661e456ee6de07e70aa9ef7b,6628df853b5fe1a88ccc6358,,,,,,,,,,,,,,,,,,,,,,,,,,,,,,,,,,313.3576,316.4237,"[1,3,8,5,7,4,6,2]","[[0.3,0.2],[-0.3,0.2]]","[[-0.125,-0.2],[0.125,-0.2]]",-0.119444377,-0.162037014,1,0,0,2.5498,o1_image,316.4303,0,316.9237,316.9237,318.9239,0,0,0,0,1,,,,,,,,,,,,,,,,,,,,,,,,,,,,,,,,,,,,,,,,,,,,,,,,,,
,,5dff767f69a117bc2fbd4be8,42,male,2024-04-24_11h32.06.406,stockport_simplified,2022.2.4,Win32,61.34969325,661e456ee6de07e70aa9ef7b,6628df853b5fe1a88ccc6358,,,,,,,,,,,,,,,,,,,,,,,,,,,,,,,,,,,,,,,,,,,,,,,,,,,,,,,,0,42,42,43,1,B,X,N,o2_image,stimuli/out2.png,stimuli/out1.png,stimuli/correct_out2.png,,,,,,,,,,,,,,,,,,,,,,,,,,,,,,,,,,,,,,
,,5dff767f69a117bc2fbd4be8,42,male,2024-04-24_11h32.06.406,stockport_simplified,2022.2.4,Win32,61.34969325,661e456ee6de07e70aa9ef7b,6628df853b5fe1a88ccc6358,,,,,,,,,,,,,,,,,,,,,,,,,,,,,,,,,,318.9242,322.1736,"[1,3,8,5,7,4,6,2]","[[0.3,0.2],[-0.3,0.2]]","[[0.125,-0.2],[-0.125,-0.2]]",0.138888889,-0.189814792,1,0,0,2.733,o1_image,322.1795,1,322.6747,322.6747,324.6734,0,0,0,0,1,,,,,,,,,,,,,,,,,,,,,,,,,,,,,,,,,,,,,,,,,,,,,,,,,,
,,5dff767f69a117bc2fbd4be8,42,male,2024-04-24_11h32.06.406,stockport_simplified,2022.2.4,Win32,61.34969325,661e456ee6de07e70aa9ef7b,6628df853b5fe1a88ccc6358,,,,,,,,,,,,,,,,,,,,,,,,,,,,,,,,,,,,,,,,,,,,,,,,,,,,,,,,0,43,43,1,1,A,X,N,o1_image,stimuli/out1.png,stimuli/correct_out1.png,stimuli/out2.png,,,,,,,,,,,,,,,,,,,,,,,,,,,,,,,,,,,,,,
,,5dff767f69a117bc2fbd4be8,42,male,2024-04-24_11h32.06.406,stockport_simplified,2022.2.4,Win32,61.34969325,661e456ee6de07e70aa9ef7b,6628df853b5fe1a88ccc6358,,,,,,,,,,,,,,,,,,,,,,,,,,,,,,,,,,324.6736,327.7407,"[1,3,8,5,7,4,6,2]","[[0.3,0.2],[-0.3,0.2]]","[[0.125,-0.2],[-0.125,-0.2]]",-0.095370348,-0.18518514,1,0,0,2.5499,o2_image,327.7466,1,328.2405,328.2406,330.2398,0,0,0,0,1,,,,,,,,,,,,,,,,,,,,,,,,,,,,,,,,,,,,,,,,,,,,,,,,,,
,,5dff767f69a117bc2fbd4be8,42,male,2024-04-24_11h32.06.406,stockport_simplified,2022.2.4,Win32,61.34969325,661e456ee6de07e70aa9ef7b,6628df853b5fe1a88ccc6358,,,,,,,,,,,,,,,,,,,,,,,,,,,,,,,,,,,,,,,,,,,,,,,,,,,,,,,,0,44,44,55,1,N,M,D,o2_image,stimuli/out2.png,stimuli/out1.png,stimuli/correct_out2.png,,,,,,,,,,,,,,,,,,,,,,,,,,,,,,,,,,,,,,
,,5dff767f69a117bc2fbd4be8,42,male,2024-04-24_11h32.06.406,stockport_simplified,2022.2.4,Win32,61.34969325,661e456ee6de07e70aa9ef7b,6628df853b5fe1a88ccc6358,,,,,,,,,,,,,,,,,,,,,,,,,,,,,,,,,,330.2401,332.4071,"[1,3,8,5,7,4,6,2]","[[0.3,0.2],[-0.3,0.2]]","[[0.125,-0.2],[-0.125,-0.2]]",0.153703681,-0.184259237,1,0,0,1.6661,o1_image,332.4078,1,332.9071,332.9071,334.907,0,0,0,0,1,,,,,,,,,,,,,,,,,,,,,,,,,,,,,,,,,,,,,,,,,,,,,,,,,,
,,5dff767f69a117bc2fbd4be8,42,male,2024-04-24_11h32.06.406,stockport_simplified,2022.2.4,Win32,61.34969325,661e456ee6de07e70aa9ef7b,6628df853b5fe1a88ccc6358,,,,,,,,,,,,,,,,,,,,,,,,,,,,,,,,,,,,,,,,,,,,,,,,,,,,,,,,0,45,45,53,1,N,M,C,o1_image,stimuli/out1.png,stimuli/correct_out1.png,stimuli/out2.png,,,,,,,,,,,,,,,,,,,,,,,,,,,,,,,,,,,,,,
,,5dff767f69a117bc2fbd4be8,42,male,2024-04-24_11h32.06.406,stockport_simplified,2022.2.4,Win32,61.34969325,661e456ee6de07e70aa9ef7b,6628df853b5fe1a88ccc6358,,,,,,,,,,,,,,,,,,,,,,,,,,,,,,,,,,334.9072,338.4233,"[1,3,8,5,7,4,6,2]","[[-0.3,0.2],[0.3,0.2]]","[[0.125,-0.2],[-0.125,-0.2]]",0.139814792,-0.186111111,1,0,0,2.9997,o1_image,338.4292,1,338.9236,338.9236,340.9232,0,0,0,0,1,,,,,,,,,,,,,,,,,,,,,,,,,,,,,,,,,,,,,,,,,,,,,,,,,,
,,5dff767f69a117bc2fbd4be8,42,male,2024-04-24_11h32.06.406,stockport_simplified,2022.2.4,Win32,61.34969325,661e456ee6de07e70aa9ef7b,6628df853b5fe1a88ccc6358,,,,,,,,,,,,,,,,,,,,,,,,,,,,,,,,,,,,,,,,,,,,,,,,,,,,,,,,0,46,46,31,1,A,X,N,o1_image,stimuli/out1.png,stimuli/correct_out1.png,stimuli/out2.png,,,,,,,,,,,,,,,,,,,,,,,,,,,,,,,,,,,,,,
,,5dff767f69a117bc2fbd4be8,42,male,2024-04-24_11h32.06.406,stockport_simplified,2022.2.4,Win32,61.34969325,661e456ee6de07e70aa9ef7b,6628df853b5fe1a88ccc6358,,,,,,,,,,,,,,,,,,,,,,,,,,,,,,,,,,340.9235,343.2734,"[1,3,8,5,7,4,6,2]","[[-0.3,0.2],[0.3,0.2]]","[[-0.125,-0.2],[0.125,-0.2]]",-0.106481459,-0.173148126,1,0,0,1.8494,o1_image,343.2741,1,343.7738,343.7738,345.7737,0,0,0,0,1,,,,,,,,,,,,,,,,,,,,,,,,,,,,,,,,,,,,,,,,,,,,,,,,,,
,,5dff767f69a117bc2fbd4be8,42,male,2024-04-24_11h32.06.406,stockport_simplified,2022.2.4,Win32,61.34969325,661e456ee6de07e70aa9ef7b,6628df853b5fe1a88ccc6358,,,,,,,,,,,,,,,,,,,,,,,,,,,,,,,,,,,,,,,,,,,,,,,,,,,,,,,,0,47,47,52,1,N,M,C,o1_image,stimuli/out1.png,stimuli/correct_out1.png,stimuli/out2.png,,,,,,,,,,,,,,,,,,,,,,,,,,,,,,,,,,,,,,
,,5dff767f69a117bc2fbd4be8,42,male,2024-04-24_11h32.06.406,stockport_simplified,2022.2.4,Win32,61.34969325,661e456ee6de07e70aa9ef7b,6628df853b5fe1a88ccc6358,,,,,,,,,,,,,,,,,,,,,,,,,,,,,,,,,,345.774,349.59,"[1,3,8,5,7,4,6,2]","[[0.3,0.2],[-0.3,0.2]]","[[-0.125,-0.2],[0.125,-0.2]]",0.111111111,-0.196296251,1,0,0,3.2993,o2_image,349.5969,1,350.09,350.09,352.0934,0,0,0,0,1,,,,,,,,,,,,,,,,,,,,,,,,,,,,,,,,,,,,,,,,,,,,,,,,,,
,,5dff767f69a117bc2fbd4be8,42,male,2024-04-24_11h32.06.406,stockport_simplified,2022.2.4,Win32,61.34969325,661e456ee6de07e70aa9ef7b,6628df853b5fe1a88ccc6358,,,,,,,,,,,,,,,,,,,,,,,,,,,,,,,,,,,,,,,,,,,,,,,,,,,,,,,,0,48,48,47,1,B,Y,N,o2_image,stimuli/out2.png,stimuli/out1.png,stimuli/correct_out2.png,,,,,,,,,,,,,,,,,,,,,,,,,,,,,,,,,,,,,,
,,5dff767f69a117bc2fbd4be8,42,male,2024-04-24_11h32.06.406,stockport_simplified,2022.2.4,Win32,61.34969325,661e456ee6de07e70aa9ef7b,6628df853b5fe1a88ccc6358,,,,,,,,,,,,,,,,,,,,,,,,,,,,,,,,,,352.0937,355.7067,"[1,3,8,5,7,4,6,2]","[[-0.3,0.2],[0.3,0.2]]","[[0.125,-0.2],[-0.125,-0.2]]",0.128703681,-0.177777778,1,0,0,3.0981,o1_image,355.7137,0,356.2069,356.2069,358.2069,0,0,0,0,1,,,,,,,,,,,,,,,,,,,,,,,,,,,,,,,,,,,,,,,,,,,,,,,,,,
,,5dff767f69a117bc2fbd4be8,42,male,2024-04-24_11h32.06.406,stockport_simplified,2022.2.4,Win32,61.34969325,661e456ee6de07e70aa9ef7b,6628df853b5fe1a88ccc6358,,,,,,,,,,,,,,,,,,,,,,,,,,,,,,,,,,,,,,,,,,,,,,,,,,,,,,,,0,49,49,40,1,B,X,N,o2_image,stimuli/out2.png,stimuli/out1.png,stimuli/correct_out2.png,,,,,,,,,,,,,,,,,,,,,,,,,,,,,,,,,,,,,,
,,5dff767f69a117bc2fbd4be8,42,male,2024-04-24_11h32.06.406,stockport_simplified,2022.2.4,Win32,61.34969325,661e456ee6de07e70aa9ef7b,6628df853b5fe1a88ccc6358,,,,,,,,,,,,,,,,,,,,,,,,,,,,,,,,,,358.2072,361.0737,"[1,3,8,5,7,4,6,2]","[[-0.3,0.2],[0.3,0.2]]","[[0.125,-0.2],[-0.125,-0.2]]",-0.123148126,-0.172222222,1,0,0,2.3497,o2_image,361.074,1,361.5734,361.5734,363.5736,0,0,0,0,1,,,,,,,,,,,,,,,,,,,,,,,,,,,,,,,,,,,,,,,,,,,,,,,,,,
,,5dff767f69a117bc2fbd4be8,42,male,2024-04-24_11h32.06.406,stockport_simplified,2022.2.4,Win32,61.34969325,661e456ee6de07e70aa9ef7b,6628df853b5fe1a88ccc6358,,,,,,,,,,,,,,,,,,,,,,,,,,,,,,,,,,,,,,,,,,,,,,,,,,,,,,,,0,50,50,25,1,N,M,D,o2_image,stimuli/out2.png,stimuli/out1.png,stimuli/correct_out2.png,,,,,,,,,,,,,,,,,,,,,,,,,,,,,,,,,,,,,,
,,5dff767f69a117bc2fbd4be8,42,male,2024-04-24_11h32.06.406,stockport_simplified,2022.2.4,Win32,61.34969325,661e456ee6de07e70aa9ef7b,6628df853b5fe1a88ccc6358,,,,,,,,,,,,,,,,,,,,,,,,,,,,,,,,,,363.5741,367.34,"[1,3,8,5,7,4,6,2]","[[-0.3,0.2],[0.3,0.2]]","[[0.125,-0.2],[-0.125,-0.2]]",0.143518473,-0.155555556,1,0,0,3.2495,o1_image,367.3407,1,367.8401,367.8401,369.8405,0,0,0,0,1,,,,,,,,,,,,,,,,,,,,,,,,,,,,,,,,,,,,,,,,,,,,,,,,,,
,,5dff767f69a117bc2fbd4be8,42,male,2024-04-24_11h32.06.406,stockport_simplified,2022.2.4,Win32,61.34969325,661e456ee6de07e70aa9ef7b,6628df853b5fe1a88ccc6358,,,,,,,,,,,,,,,,,,,,,,,,,,,,,,,,,,,,,,,,,,,,,,,,,,,,,,,,0,51,51,0,1,A,X,N,o1_image,stimuli/out1.png,stimuli/correct_out1.png,stimuli/out2.png,,,,,,,,,,,,,,,,,,,,,,,,,,,,,,,,,,,,,,
,,5dff767f69a117bc2fbd4be8,42,male,2024-04-24_11h32.06.406,stockport_simplified,2022.2.4,Win32,61.34969325,661e456ee6de07e70aa9ef7b,6628df853b5fe1a88ccc6358,,,,,,,,,,,,,,,,,,,,,,,,,,,,,,,,,,369.8408,372.3738,"[1,3,8,5,7,4,6,2]","[[0.3,0.2],[-0.3,0.2]]","[[0.125,-0.2],[-0.125,-0.2]]",-0.114814792,-0.202777778,1,0,0,2.0162,o2_image,372.3744,1,372.874,372.874,374.8734,0,0,0,0,1,,,,,,,,,,,,,,,,,,,,,,,,,,,,,,,,,,,,,,,,,,,,,,,,,,
,,5dff767f69a117bc2fbd4be8,42,male,2024-04-24_11h32.06.406,stockport_simplified,2022.2.4,Win32,61.34969325,661e456ee6de07e70aa9ef7b,6628df853b5fe1a88ccc6358,,,,,,,,,,,,,,,,,,,,,,,,,,,,,,,,,,,,,,,,,,,,,,,,,,,,,,,,0,52,52,18,1,B,Y,N,o2_image,stimuli/out2.png,stimuli/out1.png,stimuli/correct_out2.png,,,,,,,,,,,,,,,,,,,,,,,,,,,,,,,,,,,,,,
,,5dff767f69a117bc2fbd4be8,42,male,2024-04-24_11h32.06.406,stockport_simplified,2022.2.4,Win32,61.34969325,661e456ee6de07e70aa9ef7b,6628df853b5fe1a88ccc6358,,,,,,,,,,,,,,,,,,,,,,,,,,,,,,,,,,374.8738,377.2737,"[1,3,8,5,7,4,6,2]","[[-0.3,0.2],[0.3,0.2]]","[[-0.125,-0.2],[0.125,-0.2]]",-0.108333266,-0.205555556,1,0,0,1.8827,o1_image,377.2745,1,377.7736,377.7736,379.7765,0,0,0,0,1,,,,,,,,,,,,,,,,,,,,,,,,,,,,,,,,,,,,,,,,,,,,,,,,,,
,,5dff767f69a117bc2fbd4be8,42,male,2024-04-24_11h32.06.406,stockport_simplified,2022.2.4,Win32,61.34969325,661e456ee6de07e70aa9ef7b,6628df853b5fe1a88ccc6358,,,,,,,,,,,,,,,,,,,,,,,,,,,,,,,,,,,,,,,,,,,,,,,,,,,,,,,,0,53,53,54,1,N,M,C,o1_image,stimuli/out1.png,stimuli/correct_out1.png,stimuli/out2.png,,,,,,,,,,,,,,,,,,,,,,,,,,,,,,,,,,,,,,
,,5dff767f69a117bc2fbd4be8,42,male,2024-04-24_11h32.06.406,stockport_simplified,2022.2.4,Win32,61.34969325,661e456ee6de07e70aa9ef7b,6628df853b5fe1a88ccc6358,,,,,,,,,,,,,,,,,,,,,,,,,,,,,,,,,,379.7769,382.2313,"[1,3,8,5,7,4,6,2]","[[0.3,0.2],[-0.3,0.2]]","[[-0.125,-0.2],[0.125,-0.2]]",0.112037014,-0.175925903,1,0,0,1.9407,o2_image,382.2319,0,382.7235,382.7236,384.7235,0,0,0,0,1,,,,,,,,,,,,,,,,,,,,,,,,,,,,,,,,,,,,,,,,,,,,,,,,,,
,,5dff767f69a117bc2fbd4be8,42,male,2024-04-24_11h32.06.406,stockport_simplified,2022.2.4,Win32,61.34969325,661e456ee6de07e70aa9ef7b,6628df853b5fe1a88ccc6358,,,,,,,,,,,,,,,,,,,,,,,,,,,,,,,,,,,,,,,,,,,,,,,,,,,,,,,,0,54,54,35,1,A,Y,N,o1_image,stimuli/out1.png,stimuli/correct_out1.png,stimuli/out2.png,,,,,,,,,,,,,,,,,,,,,,,,,,,,,,,,,,,,,,
,,5dff767f69a117bc2fbd4be8,42,male,2024-04-24_11h32.06.406,stockport_simplified,2022.2.4,Win32,61.34969325,661e456ee6de07e70aa9ef7b,6628df853b5fe1a88ccc6358,,,,,,,,,,,,,,,,,,,,,,,,,,,,,,,,,,384.7239,388.3077,"[1,3,8,5,7,4,6,2]","[[-0.3,0.2],[0.3,0.2]]","[[-0.125,-0.2],[0.125,-0.2]]",0.096296251,-0.168518473,1,0,0,3.0828,o2_image,388.3137,0,388.8074,388.8074,390.8074,0,0,0,0,1,,,,,,,,,,,,,,,,,,,,,,,,,,,,,,,,,,,,,,,,,,,,,,,,,,
,,5dff767f69a117bc2fbd4be8,42,male,2024-04-24_11h32.06.406,stockport_simplified,2022.2.4,Win32,61.34969325,661e456ee6de07e70aa9ef7b,6628df853b5fe1a88ccc6358,,,,,,,,,,,,,,,,,,,,,,,,,,,,,,,,,,,,,,,,,,,,,,,,,,,,,,,,0,55,55,2,1,A,X,N,o1_image,stimuli/out1.png,stimuli/correct_out1.png,stimuli/out2.png,,,,,,,,,,,,,,,,,,,,,,,,,,,,,,,,,,,,,,
,,5dff767f69a117bc2fbd4be8,42,male,2024-04-24_11h32.06.406,stockport_simplified,2022.2.4,Win32,61.34969325,661e456ee6de07e70aa9ef7b,6628df853b5fe1a88ccc6358,,,,,,,,,,,,,,,,,,,,,,,,,,,,,,,,,,390.808,393.4261,"[1,3,8,5,7,4,6,2]","[[-0.3,0.2],[0.3,0.2]]","[[-0.125,-0.2],[0.125,-0.2]]",-0.094444377,-0.194444444,1,0,0,2.1176,o1_image,393.4265,0,393.9238,393.9238,395.9246,0,0,0,0,1,,,,,,,,,,,,,,,,,,,,,,,,,,,,,,,,,,,,,,,,,,,,,,,,,,
,,5dff767f69a117bc2fbd4be8,42,male,2024-04-24_11h32.06.406,stockport_simplified,2022.2.4,Win32,61.34969325,661e456ee6de07e70aa9ef7b,6628df853b5fe1a88ccc6358,,,,,,,,,,,,,,,,,,,,,,,,,,,,,,,,,,,,,,,,,,,,,,,,,,,,,,,,0,56,56,14,1,B,X,N,o2_image,stimuli/out2.png,stimuli/out1.png,stimuli/correct_out2.png,,,,,,,,,,,,,,,,,,,,,,,,,,,,,,,,,,,,,,
,,5dff767f69a117bc2fbd4be8,42,male,2024-04-24_11h32.06.406,stockport_simplified,2022.2.4,Win32,61.34969325,661e456ee6de07e70aa9ef7b,6628df853b5fe1a88ccc6358,,,,,,,,,,,,,,,,,,,,,,,,,,,,,,,,,,395.9249,398.6269,"[1,3,8,5,7,4,6,2]","[[0.3,0.2],[-0.3,0.2]]","[[0.125,-0.2],[-0.125,-0.2]]",-0.093518541,-0.178703681,1,0,0,2.1856,o2_image,398.6272,0,399.1241,399.1241,401.1239,0,0,0,0,1,,,,,,,,,,,,,,,,,,,,,,,,,,,,,,,,,,,,,,,,,,,,,,,,,,
,,5dff767f69a117bc2fbd4be8,42,male,2024-04-24_11h32.06.406,stockport_simplified,2022.2.4,Win32,61.34969325,661e456ee6de07e70aa9ef7b,6628df853b5fe1a88ccc6358,,,,,,,,,,,,,,,,,,,,,,,,,,,,,,,,,,,,,,,,,,,,,,,,,,,,,,,,0,57,57,38,1,A,Y,N,o1_image,stimuli/out1.png,stimuli/correct_out1.png,stimuli/out2.png,,,,,,,,,,,,,,,,,,,,,,,,,,,,,,,,,,,,,,
,,5dff767f69a117bc2fbd4be8,42,male,2024-04-24_11h32.06.406,stockport_simplified,2022.2.4,Win32,61.34969325,661e456ee6de07e70aa9ef7b,6628df853b5fe1a88ccc6358,,,,,,,,,,,,,,,,,,,,,,,,,,,,,,,,,,401.1243,404.0237,"[1,3,8,5,7,4,6,2]","[[-0.3,0.2],[0.3,0.2]]","[[0.125,-0.2],[-0.125,-0.2]]",-0.109259237,-0.183333333,1,0,0,2.3825,o2_image,404.0305,1,404.5246,404.5246,406.5239,0,0,0,0,1,,,,,,,,,,,,,,,,,,,,,,,,,,,,,,,,,,,,,,,,,,,,,,,,,,
,,5dff767f69a117bc2fbd4be8,42,male,2024-04-24_11h32.06.406,stockport_simplified,2022.2.4,Win32,61.34969325,661e456ee6de07e70aa9ef7b,6628df853b5fe1a88ccc6358,,,,,,,,,,,,,,,,,,,,,,,,,,,,,,,,,,,,,,,,,,,,,,,,,,,,,,,,0,58,58,16,1,B,Y,N,o2_image,stimuli/out2.png,stimuli/out1.png,stimuli/correct_out2.png,,,,,,,,,,,,,,,,,,,,,,,,,,,,,,,,,,,,,,
,,5dff767f69a117bc2fbd4be8,42,male,2024-04-24_11h32.06.406,stockport_simplified,2022.2.4,Win32,61.34969325,661e456ee6de07e70aa9ef7b,6628df853b5fe1a88ccc6358,,,,,,,,,,,,,,,,,,,,,,,,,,,,,,,,,,406.5242,408.9236,"[1,3,8,5,7,4,6,2]","[[0.3,0.2],[-0.3,0.2]]","[[0.125,-0.2],[-0.125,-0.2]]",0.153703681,-0.179629584,1,0,0,1.8809,o1_image,408.9241,0,409.4237,409.4237,411.4239,0,0,0,0,1,,,,,,,,,,,,,,,,,,,,,,,,,,,,,,,,,,,,,,,,,,,,,,,,,,
,,5dff767f69a117bc2fbd4be8,42,male,2024-04-24_11h32.06.406,stockport_simplified,2022.2.4,Win32,61.34969325,661e456ee6de07e70aa9ef7b,6628df853b5fe1a88ccc6358,,,,,,,,,,,,,,,,,,,,,,,,,,,,,,,,,,,,,,,,,,,,,,,,,,,,,,,,0,59,59,12,1,B,X,N,o2_image,stimuli/out2.png,stimuli/out1.png,stimuli/correct_out2.png,,,,,,,,,,,,,,,,,,,,,,,,,,,,,,,,,,,,,,
,,5dff767f69a117bc2fbd4be8,42,male,2024-04-24_11h32.06.406,stockport_simplified,2022.2.4,Win32,61.34969325,661e456ee6de07e70aa9ef7b,6628df853b5fe1a88ccc6358,,,,,,,,,,,,,,,,,,,,,,,,,,,,,,,,,,411.4243,413.9147,"[1,3,8,5,7,4,6,2]","[[-0.3,0.2],[0.3,0.2]]","[[0.125,-0.2],[-0.125,-0.2]]",0.11759257,-0.190740696,1,0,0,1.9738,o1_image,413.921,1,414.424,414.424,416.4237,0,0,0,0,1,,,,,,,,,,,,,,,,,,,,,,,,,,,,,,,,,,,,,,,,,,,,,,,,,,
,,5dff767f69a117bc2fbd4be8,42,male,2024-04-24_11h32.06.406,stockport_simplified,2022.2.4,Win32,61.34969325,661e456ee6de07e70aa9ef7b,6628df853b5fe1a88ccc6358,,,,,,,,,,,,,,,,,,,,,,,,,,,,,,,,,,,,,,,,,,,,,,,,,,,,,,,,1,0,60,5,1,A,Y,N,o1_image,stimuli/out1.png,stimuli/correct_out1.png,stimuli/out2.png,,,,,,,,,,,,,,,,,,,,,,,,,,,,,,,,,,,,,,
,,5dff767f69a117bc2fbd4be8,42,male,2024-04-24_11h32.06.406,stockport_simplified,2022.2.4,Win32,61.34969325,661e456ee6de07e70aa9ef7b,6628df853b5fe1a88ccc6358,,,,,,,,,,,,,,,,,,,,,,,,,,,,,,,,,,416.4242,419.6906,"[1,3,8,5,7,4,6,2]","[[-0.3,0.2],[0.3,0.2]]","[[-0.125,-0.2],[0.125,-0.2]]",-0.131481459,-0.165740696,1,0,0,2.7497,o1_image,419.6965,0,420.1904,420.1905,422.1905,0,0,0,0,1,,,,,,,,,,,,,,,,,,,,,,,,,,,,,,,,,,,,,,,,,,,,,,,,,,
,,5dff767f69a117bc2fbd4be8,42,male,2024-04-24_11h32.06.406,stockport_simplified,2022.2.4,Win32,61.34969325,661e456ee6de07e70aa9ef7b,6628df853b5fe1a88ccc6358,,,,,,,,,,,,,,,,,,,,,,,,,,,,,,,,,,,,,,,,,,,,,,,,,,,,,,,,1,1,61,42,1,B,X,N,o2_image,stimuli/out2.png,stimuli/out1.png,stimuli/correct_out2.png,,,,,,,,,,,,,,,,,,,,,,,,,,,,,,,,,,,,,,
,,5dff767f69a117bc2fbd4be8,42,male,2024-04-24_11h32.06.406,stockport_simplified,2022.2.4,Win32,61.34969325,661e456ee6de07e70aa9ef7b,6628df853b5fe1a88ccc6358,,,,,,,,,,,,,,,,,,,,,,,,,,,,,,,,,,422.1907,424.51,"[1,3,8,5,7,4,6,2]","[[0.3,0.2],[-0.3,0.2]]","[[-0.125,-0.2],[0.125,-0.2]]",-0.126851874,-0.212962986,1,0,0,1.8023,o1_image,424.5104,0,425.0146,425.0146,427.0101,0,0,0,0,1,,,,,,,,,,,,,,,,,,,,,,,,,,,,,,,,,,,,,,,,,,,,,,,,,,
,,5dff767f69a117bc2fbd4be8,42,male,2024-04-24_11h32.06.406,stockport_simplified,2022.2.4,Win32,61.34969325,661e456ee6de07e70aa9ef7b,6628df853b5fe1a88ccc6358,,,,,,,,,,,,,,,,,,,,,,,,,,,,,,,,,,,,,,,,,,,,,,,,,,,,,,,,1,2,62,12,1,B,X,N,o2_image,stimuli/out2.png,stimuli/out1.png,stimuli/correct_out2.png,,,,,,,,,,,,,,,,,,,,,,,,,,,,,,,,,,,,,,
,,5dff767f69a117bc2fbd4be8,42,male,2024-04-24_11h32.06.406,stockport_simplified,2022.2.4,Win32,61.34969325,661e456ee6de07e70aa9ef7b,6628df853b5fe1a88ccc6358,,,,,,,,,,,,,,,,,,,,,,,,,,,,,,,,,,427.0104,429.2241,"[1,3,8,5,7,4,6,2]","[[-0.3,0.2],[0.3,0.2]]","[[-0.125,-0.2],[0.125,-0.2]]",0.141666667,-0.177777778,1,0,0,1.6948,o2_image,429.2248,0,429.7249,429.725,431.724,0,0,0,0,1,,,,,,,,,,,,,,,,,,,,,,,,,,,,,,,,,,,,,,,,,,,,,,,,,,
,,5dff767f69a117bc2fbd4be8,42,male,2024-04-24_11h32.06.406,stockport_simplified,2022.2.4,Win32,61.34969325,661e456ee6de07e70aa9ef7b,6628df853b5fe1a88ccc6358,,,,,,,,,,,,,,,,,,,,,,,,,,,,,,,,,,,,,,,,,,,,,,,,,,,,,,,,1,3,63,39,1,A,Y,N,o1_image,stimuli/out1.png,stimuli/correct_out1.png,stimuli/out2.png,,,,,,,,,,,,,,,,,,,,,,,,,,,,,,,,,,,,,,
,,5dff767f69a117bc2fbd4be8,42,male,2024-04-24_11h32.06.406,stockport_simplified,2022.2.4,Win32,61.34969325,661e456ee6de07e70aa9ef7b,6628df853b5fe1a88ccc6358,,,,,,,,,,,,,,,,,,,,,,,,,,,,,,,,,,431.7244,433.8908,"[1,3,8,5,7,4,6,2]","[[0.3,0.2],[-0.3,0.2]]","[[0.125,-0.2],[-0.125,-0.2]]",0.133333333,-0.199074029,1,0,0,1.6646,o1_image,433.8912,0,434.3909,434.3909,436.3906,0,0,0,0,1,,,,,,,,,,,,,,,,,,,,,,,,,,,,,,,,,,,,,,,,,,,,,,,,,,
,,5dff767f69a117bc2fbd4be8,42,male,2024-04-24_11h32.06.406,stockport_simplified,2022.2.4,Win32,61.34969325,661e456ee6de07e70aa9ef7b,6628df853b5fe1a88ccc6358,,,,,,,,,,,,,,,,,,,,,,,,,,,,,,,,,,,,,,,,,,,,,,,,,,,,,,,,1,4,64,14,1,B,X,N,o2_image,stimuli/out2.png,stimuli/out1.png,stimuli/correct_out2.png,,,,,,,,,,,,,,,,,,,,,,,,,,,,,,,,,,,,,,
,,5dff767f69a117bc2fbd4be8,42,male,2024-04-24_11h32.06.406,stockport_simplified,2022.2.4,Win32,61.34969325,661e456ee6de07e70aa9ef7b,6628df853b5fe1a88ccc6358,,,,,,,,,,,,,,,,,,,,,,,,,,,,,,,,,,436.391,438.375,"[1,3,8,5,7,4,6,2]","[[0.3,0.2],[-0.3,0.2]]","[[-0.125,-0.2],[0.125,-0.2]]",0.149074029,-0.198148126,1,0,0,1.4673,o2_image,438.3754,1,438.8743,438.8744,440.8797,0,0,0,0,1,,,,,,,,,,,,,,,,,,,,,,,,,,,,,,,,,,,,,,,,,,,,,,,,,,
,,5dff767f69a117bc2fbd4be8,42,male,2024-04-24_11h32.06.406,stockport_simplified,2022.2.4,Win32,61.34969325,661e456ee6de07e70aa9ef7b,6628df853b5fe1a88ccc6358,,,,,,,,,,,,,,,,,,,,,,,,,,,,,,,,,,,,,,,,,,,,,,,,,,,,,,,,1,5,65,10,1,B,X,N,o2_image,stimuli/out2.png,stimuli/out1.png,stimuli/correct_out2.png,,,,,,,,,,,,,,,,,,,,,,,,,,,,,,,,,,,,,,
,,5dff767f69a117bc2fbd4be8,42,male,2024-04-24_11h32.06.406,stockport_simplified,2022.2.4,Win32,61.34969325,661e456ee6de07e70aa9ef7b,6628df853b5fe1a88ccc6358,,,,,,,,,,,,,,,,,,,,,,,,,,,,,,,,,,440.8801,444.0241,"[1,3,8,5,7,4,6,2]","[[-0.3,0.2],[0.3,0.2]]","[[-0.125,-0.2],[0.125,-0.2]]",-0.112037014,-0.180555556,1,0,0,2.6327,o1_image,444.0307,1,444.5248,444.5248,446.5246,0,0,0,0,1,,,,,,,,,,,,,,,,,,,,,,,,,,,,,,,,,,,,,,,,,,,,,,,,,,
,,5dff767f69a117bc2fbd4be8,42,male,2024-04-24_11h32.06.406,stockport_simplified,2022.2.4,Win32,61.34969325,661e456ee6de07e70aa9ef7b,6628df853b5fe1a88ccc6358,,,,,,,,,,,,,,,,,,,,,,,,,,,,,,,,,,,,,,,,,,,,,,,,,,,,,,,,1,6,66,34,1,A,X,N,o1_image,stimuli/out1.png,stimuli/correct_out1.png,stimuli/out2.png,,,,,,,,,,,,,,,,,,,,,,,,,,,,,,,,,,,,,,
,,5dff767f69a117bc2fbd4be8,42,male,2024-04-24_11h32.06.406,stockport_simplified,2022.2.4,Win32,61.34969325,661e456ee6de07e70aa9ef7b,6628df853b5fe1a88ccc6358,,,,,,,,,,,,,,,,,,,,,,,,,,,,,,,,,,446.5254,450.2908,"[1,3,8,5,7,4,6,2]","[[-0.3,0.2],[0.3,0.2]]","[[0.125,-0.2],[-0.125,-0.2]]",0.158333333,-0.187037014,1,0,0,3.2444,o1_image,450.2973,0,450.7914,450.7914,452.7914,0,0,0,0,1,,,,,,,,,,,,,,,,,,,,,,,,,,,,,,,,,,,,,,,,,,,,,,,,,,
,,5dff767f69a117bc2fbd4be8,42,male,2024-04-24_11h32.06.406,stockport_simplified,2022.2.4,Win32,61.34969325,661e456ee6de07e70aa9ef7b,6628df853b5fe1a88ccc6358,,,,,,,,,,,,,,,,,,,,,,,,,,,,,,,,,,,,,,,,,,,,,,,,,,,,,,,,1,7,67,43,1,B,X,N,o2_image,stimuli/out2.png,stimuli/out1.png,stimuli/correct_out2.png,,,,,,,,,,,,,,,,,,,,,,,,,,,,,,,,,,,,,,
,,5dff767f69a117bc2fbd4be8,42,male,2024-04-24_11h32.06.406,stockport_simplified,2022.2.4,Win32,61.34969325,661e456ee6de07e70aa9ef7b,6628df853b5fe1a88ccc6358,,,,,,,,,,,,,,,,,,,,,,,,,,,,,,,,,,452.7918,455.5408,"[1,3,8,5,7,4,6,2]","[[-0.3,0.2],[0.3,0.2]]","[[0.125,-0.2],[-0.125,-0.2]]",0.137037014,-0.194444444,1,0,0,2.2332,o1_image,455.5415,1,456.0443,456.0443,458.0409,0,0,0,0,1,,,,,,,,,,,,,,,,,,,,,,,,,,,,,,,,,,,,,,,,,,,,,,,,,,
,,5dff767f69a117bc2fbd4be8,42,male,2024-04-24_11h32.06.406,stockport_simplified,2022.2.4,Win32,61.34969325,661e456ee6de07e70aa9ef7b,6628df853b5fe1a88ccc6358,,,,,,,,,,,,,,,,,,,,,,,,,,,,,,,,,,,,,,,,,,,,,,,,,,,,,,,,1,8,68,30,1,A,X,N,o1_image,stimuli/out1.png,stimuli/correct_out1.png,stimuli/out2.png,,,,,,,,,,,,,,,,,,,,,,,,,,,,,,,,,,,,,,
,,5dff767f69a117bc2fbd4be8,42,male,2024-04-24_11h32.06.406,stockport_simplified,2022.2.4,Win32,61.34969325,661e456ee6de07e70aa9ef7b,6628df853b5fe1a88ccc6358,,,,,,,,,,,,,,,,,,,,,,,,,,,,,,,,,,458.0412,460.658,"[1,3,8,5,7,4,6,2]","[[-0.3,0.2],[0.3,0.2]]","[[-0.125,-0.2],[0.125,-0.2]]",-0.163888821,-0.194444444,1,0,0,2.1003,o1_image,460.6594,1,461.1578,461.1578,463.1578,0,0,0,0,1,,,,,,,,,,,,,,,,,,,,,,,,,,,,,,,,,,,,,,,,,,,,,,,,,,
,,5dff767f69a117bc2fbd4be8,42,male,2024-04-24_11h32.06.406,stockport_simplified,2022.2.4,Win32,61.34969325,661e456ee6de07e70aa9ef7b,6628df853b5fe1a88ccc6358,,,,,,,,,,,,,,,,,,,,,,,,,,,,,,,,,,,,,,,,,,,,,,,,,,,,,,,,1,9,69,33,1,A,X,N,o1_image,stimuli/out1.png,stimuli/correct_out1.png,stimuli/out2.png,,,,,,,,,,,,,,,,,,,,,,,,,,,,,,,,,,,,,,
,,5dff767f69a117bc2fbd4be8,42,male,2024-04-24_11h32.06.406,stockport_simplified,2022.2.4,Win32,61.34969325,661e456ee6de07e70aa9ef7b,6628df853b5fe1a88ccc6358,,,,,,,,,,,,,,,,,,,,,,,,,,,,,,,,,,463.1581,465.691,"[1,3,8,5,7,4,6,2]","[[0.3,0.2],[-0.3,0.2]]","[[0.125,-0.2],[-0.125,-0.2]]",-0.101851874,-0.207407362,1,0,0,2.0166,o2_image,465.6973,1,466.1906,466.1907,468.1915,0,0,0,0,1,,,,,,,,,,,,,,,,,,,,,,,,,,,,,,,,,,,,,,,,,,,,,,,,,,
,,5dff767f69a117bc2fbd4be8,42,male,2024-04-24_11h32.06.406,stockport_simplified,2022.2.4,Win32,61.34969325,661e456ee6de07e70aa9ef7b,6628df853b5fe1a88ccc6358,,,,,,,,,,,,,,,,,,,,,,,,,,,,,,,,,,,,,,,,,,,,,,,,,,,,,,,,1,10,70,13,1,B,X,N,o2_image,stimuli/out2.png,stimuli/out1.png,stimuli/correct_out2.png,,,,,,,,,,,,,,,,,,,,,,,,,,,,,,,,,,,,,,
,,5dff767f69a117bc2fbd4be8,42,male,2024-04-24_11h32.06.406,stockport_simplified,2022.2.4,Win32,61.34969325,661e456ee6de07e70aa9ef7b,6628df853b5fe1a88ccc6358,,,,,,,,,,,,,,,,,,,,,,,,,,,,,,,,,,468.1919,470.9909,"[1,3,8,5,7,4,6,2]","[[-0.3,0.2],[0.3,0.2]]","[[-0.125,-0.2],[0.125,-0.2]]",0.125,-0.166666667,1,0,0,2.2824,o2_image,470.9916,1,471.4909,471.4909,473.4912,0,0,0,0,1,,,,,,,,,,,,,,,,,,,,,,,,,,,,,,,,,,,,,,,,,,,,,,,,,,
,,5dff767f69a117bc2fbd4be8,42,male,2024-04-24_11h32.06.406,stockport_simplified,2022.2.4,Win32,61.34969325,661e456ee6de07e70aa9ef7b,6628df853b5fe1a88ccc6358,,,,,,,,,,,,,,,,,,,,,,,,,,,,,,,,,,,,,,,,,,,,,,,,,,,,,,,,1,11,71,17,1,B,Y,N,o2_image,stimuli/out2.png,stimuli/out1.png,stimuli/correct_out2.png,,,,,,,,,,,,,,,,,,,,,,,,,,,,,,,,,,,,,,
,,5dff767f69a117bc2fbd4be8,42,male,2024-04-24_11h32.06.406,stockport_simplified,2022.2.4,Win32,61.34969325,661e456ee6de07e70aa9ef7b,6628df853b5fe1a88ccc6358,,,,,,,,,,,,,,,,,,,,,,,,,,,,,,,,,,473.4918,475.9075,"[1,3,8,5,7,4,6,2]","[[-0.3,0.2],[0.3,0.2]]","[[-0.125,-0.2],[0.125,-0.2]]",0.129629584,-0.193518473,1,0,0,1.9148,o2_image,475.9147,0,476.4076,476.4077,478.4076,0,0,0,0,1,,,,,,,,,,,,,,,,,,,,,,,,,,,,,,,,,,,,,,,,,,,,,,,,,,
,,5dff767f69a117bc2fbd4be8,42,male,2024-04-24_11h32.06.406,stockport_simplified,2022.2.4,Win32,61.34969325,661e456ee6de07e70aa9ef7b,6628df853b5fe1a88ccc6358,,,,,,,,,,,,,,,,,,,,,,,,,,,,,,,,,,,,,,,,,,,,,,,,,,,,,,,,1,12,72,8,1,A,Y,N,o1_image,stimuli/out1.png,stimuli/correct_out1.png,stimuli/out2.png,,,,,,,,,,,,,,,,,,,,,,,,,,,,,,,,,,,,,,
,,5dff767f69a117bc2fbd4be8,42,male,2024-04-24_11h32.06.406,stockport_simplified,2022.2.4,Win32,61.34969325,661e456ee6de07e70aa9ef7b,6628df853b5fe1a88ccc6358,,,,,,,,,,,,,,,,,,,,,,,,,,,,,,,,,,478.4079,481.0286,"[1,3,8,5,7,4,6,2]","[[-0.3,0.2],[0.3,0.2]]","[[0.125,-0.2],[-0.125,-0.2]]",-0.099074097,-0.161111111,1,0,0,2.1039,o2_image,481.029,1,481.5247,481.5247,483.5244,0,0,0,0,1,,,,,,,,,,,,,,,,,,,,,,,,,,,,,,,,,,,,,,,,,,,,,,,,,,
,,5dff767f69a117bc2fbd4be8,42,male,2024-04-24_11h32.06.406,stockport_simplified,2022.2.4,Win32,61.34969325,661e456ee6de07e70aa9ef7b,6628df853b5fe1a88ccc6358,,,,,,,,,,,,,,,,,,,,,,,,,,,,,,,,,,,,,,,,,,,,,,,,,,,,,,,,1,13,73,26,1,N,M,D,o2_image,stimuli/out2.png,stimuli/out1.png,stimuli/correct_out2.png,,,,,,,,,,,,,,,,,,,,,,,,,,,,,,,,,,,,,,
,,5dff767f69a117bc2fbd4be8,42,male,2024-04-24_11h32.06.406,stockport_simplified,2022.2.4,Win32,61.34969325,661e456ee6de07e70aa9ef7b,6628df853b5fe1a88ccc6358,,,,,,,,,,,,,,,,,,,,,,,,,,,,,,,,,,483.5247,487.2911,"[1,3,8,5,7,4,6,2]","[[-0.3,0.2],[0.3,0.2]]","[[-0.125,-0.2],[0.125,-0.2]]",-0.099999932,-0.201851807,1,0,0,3.2495,o1_image,487.2971,1,487.7909,487.7909,489.791,0,0,0,0,1,,,,,,,,,,,,,,,,,,,,,,,,,,,,,,,,,,,,,,,,,,,,,,,,,,
,,5dff767f69a117bc2fbd4be8,42,male,2024-04-24_11h32.06.406,stockport_simplified,2022.2.4,Win32,61.34969325,661e456ee6de07e70aa9ef7b,6628df853b5fe1a88ccc6358,,,,,,,,,,,,,,,,,,,,,,,,,,,,,,,,,,,,,,,,,,,,,,,,,,,,,,,,1,14,74,1,1,A,X,N,o1_image,stimuli/out1.png,stimuli/correct_out1.png,stimuli/out2.png,,,,,,,,,,,,,,,,,,,,,,,,,,,,,,,,,,,,,,
,,5dff767f69a117bc2fbd4be8,42,male,2024-04-24_11h32.06.406,stockport_simplified,2022.2.4,Win32,61.34969325,661e456ee6de07e70aa9ef7b,6628df853b5fe1a88ccc6358,,,,,,,,,,,,,,,,,,,,,,,,,,,,,,,,,,489.7914,493.4408,"[1,3,8,5,7,4,6,2]","[[0.3,0.2],[-0.3,0.2]]","[[0.125,-0.2],[-0.125,-0.2]]",-0.138888821,-0.207407362,1,0,0,3.1331,o2_image,493.4413,0,493.9411,493.9411,495.9411,0,0,0,0,1,,,,,,,,,,,,,,,,,,,,,,,,,,,,,,,,,,,,,,,,,,,,,,,,,,
,,5dff767f69a117bc2fbd4be8,42,male,2024-04-24_11h32.06.406,stockport_simplified,2022.2.4,Win32,61.34969325,661e456ee6de07e70aa9ef7b,6628df853b5fe1a88ccc6358,,,,,,,,,,,,,,,,,,,,,,,,,,,,,,,,,,,,,,,,,,,,,,,,,,,,,,,,1,15,75,4,1,A,X,N,o1_image,stimuli/out1.png,stimuli/correct_out1.png,stimuli/out2.png,,,,,,,,,,,,,,,,,,,,,,,,,,,,,,,,,,,,,,
,,5dff767f69a117bc2fbd4be8,42,male,2024-04-24_11h32.06.406,stockport_simplified,2022.2.4,Win32,61.34969325,661e456ee6de07e70aa9ef7b,6628df853b5fe1a88ccc6358,,,,,,,,,,,,,,,,,,,,,,,,,,,,,,,,,,495.9413,498.2587,"[1,3,8,5,7,4,6,2]","[[0.3,0.2],[-0.3,0.2]]","[[-0.125,-0.2],[0.125,-0.2]]",-0.130555488,-0.180555556,1,0,0,1.8006,o1_image,498.2593,1,498.7577,498.7577,500.7579,0,0,0,0,1,,,,,,,,,,,,,,,,,,,,,,,,,,,,,,,,,,,,,,,,,,,,,,,,,,
,,5dff767f69a117bc2fbd4be8,42,male,2024-04-24_11h32.06.406,stockport_simplified,2022.2.4,Win32,61.34969325,661e456ee6de07e70aa9ef7b,6628df853b5fe1a88ccc6358,,,,,,,,,,,,,,,,,,,,,,,,,,,,,,,,,,,,,,,,,,,,,,,,,,,,,,,,1,16,76,50,1,N,M,C,o1_image,stimuli/out1.png,stimuli/correct_out1.png,stimuli/out2.png,,,,,,,,,,,,,,,,,,,,,,,,,,,,,,,,,,,,,,
,,5dff767f69a117bc2fbd4be8,42,male,2024-04-24_11h32.06.406,stockport_simplified,2022.2.4,Win32,61.34969325,661e456ee6de07e70aa9ef7b,6628df853b5fe1a88ccc6358,,,,,,,,,,,,,,,,,,,,,,,,,,,,,,,,,,500.7584,504.9579,"[1,3,8,5,7,4,6,2]","[[-0.3,0.2],[0.3,0.2]]","[[0.125,-0.2],[-0.125,-0.2]]",-0.09259257,-0.202777778,1,0,0,3.6829,o2_image,504.9644,1,505.4577,505.4577,507.458,0,0,0,0,1,,,,,,,,,,,,,,,,,,,,,,,,,,,,,,,,,,,,,,,,,,,,,,,,,,
,,5dff767f69a117bc2fbd4be8,42,male,2024-04-24_11h32.06.406,stockport_simplified,2022.2.4,Win32,61.34969325,661e456ee6de07e70aa9ef7b,6628df853b5fe1a88ccc6358,,,,,,,,,,,,,,,,,,,,,,,,,,,,,,,,,,,,,,,,,,,,,,,,,,,,,,,,1,17,77,11,1,B,X,N,o2_image,stimuli/out2.png,stimuli/out1.png,stimuli/correct_out2.png,,,,,,,,,,,,,,,,,,,,,,,,,,,,,,,,,,,,,,
,,5dff767f69a117bc2fbd4be8,42,male,2024-04-24_11h32.06.406,stockport_simplified,2022.2.4,Win32,61.34969325,661e456ee6de07e70aa9ef7b,6628df853b5fe1a88ccc6358,,,,,,,,,,,,,,,,,,,,,,,,,,,,,,,,,,507.4584,510.2579,"[1,3,8,5,7,4,6,2]","[[0.3,0.2],[-0.3,0.2]]","[[0.125,-0.2],[-0.125,-0.2]]",0.134259237,-0.2,1,0,0,2.2833,o1_image,510.2638,0,510.758,510.7581,512.758,0,0,0,0,1,,,,,,,,,,,,,,,,,,,,,,,,,,,,,,,,,,,,,,,,,,,,,,,,,,
,,5dff767f69a117bc2fbd4be8,42,male,2024-04-24_11h32.06.406,stockport_simplified,2022.2.4,Win32,61.34969325,661e456ee6de07e70aa9ef7b,6628df853b5fe1a88ccc6358,,,,,,,,,,,,,,,,,,,,,,,,,,,,,,,,,,,,,,,,,,,,,,,,,,,,,,,,1,18,78,40,1,B,X,N,o2_image,stimuli/out2.png,stimuli/out1.png,stimuli/correct_out2.png,,,,,,,,,,,,,,,,,,,,,,,,,,,,,,,,,,,,,,
,,5dff767f69a117bc2fbd4be8,42,male,2024-04-24_11h32.06.406,stockport_simplified,2022.2.4,Win32,61.34969325,661e456ee6de07e70aa9ef7b,6628df853b5fe1a88ccc6358,,,,,,,,,,,,,,,,,,,,,,,,,,,,,,,,,,512.7586,515.2747,"[1,3,8,5,7,4,6,2]","[[0.3,0.2],[-0.3,0.2]]","[[0.125,-0.2],[-0.125,-0.2]]",-0.114814792,-0.179629584,1,0,0,2.0156,o2_image,515.2756,1,515.7751,515.7752,517.7753,0,0,0,0,1,,,,,,,,,,,,,,,,,,,,,,,,,,,,,,,,,,,,,,,,,,,,,,,,,,
,,5dff767f69a117bc2fbd4be8,42,male,2024-04-24_11h32.06.406,stockport_simplified,2022.2.4,Win32,61.34969325,661e456ee6de07e70aa9ef7b,6628df853b5fe1a88ccc6358,,,,,,,,,,,,,,,,,,,,,,,,,,,,,,,,,,,,,,,,,,,,,,,,,,,,,,,,1,19,79,59,1,N,M,D,o2_image,stimuli/out2.png,stimuli/out1.png,stimuli/correct_out2.png,,,,,,,,,,,,,,,,,,,,,,,,,,,,,,,,,,,,,,
,,5dff767f69a117bc2fbd4be8,42,male,2024-04-24_11h32.06.406,stockport_simplified,2022.2.4,Win32,61.34969325,661e456ee6de07e70aa9ef7b,6628df853b5fe1a88ccc6358,,,,,,,,,,,,,,,,,,,,,,,,,,,,,,,,,,517.7758,520.0077,"[1,3,8,5,7,4,6,2]","[[0.3,0.2],[-0.3,0.2]]","[[-0.125,-0.2],[0.125,-0.2]]",0.122222222,-0.168518473,1,0,0,1.7155,o2_image,520.0082,1,520.5088,520.5088,522.508,0,0,0,0,1,,,,,,,,,,,,,,,,,,,,,,,,,,,,,,,,,,,,,,,,,,,,,,,,,,
,,5dff767f69a117bc2fbd4be8,42,male,2024-04-24_11h32.06.406,stockport_simplified,2022.2.4,Win32,61.34969325,661e456ee6de07e70aa9ef7b,6628df853b5fe1a88ccc6358,,,,,,,,,,,,,,,,,,,,,,,,,,,,,,,,,,,,,,,,,,,,,,,,,,,,,,,,1,20,80,16,1,B,Y,N,o2_image,stimuli/out2.png,stimuli/out1.png,stimuli/correct_out2.png,,,,,,,,,,,,,,,,,,,,,,,,,,,,,,,,,,,,,,
,,5dff767f69a117bc2fbd4be8,42,male,2024-04-24_11h32.06.406,stockport_simplified,2022.2.4,Win32,61.34969325,661e456ee6de07e70aa9ef7b,6628df853b5fe1a88ccc6358,,,,,,,,,,,,,,,,,,,,,,,,,,,,,,,,,,522.5082,525.1647,"[1,3,8,5,7,4,6,2]","[[-0.3,0.2],[0.3,0.2]]","[[-0.125,-0.2],[0.125,-0.2]]",-0.113888821,-0.175925903,1,0,0,2.1399,o1_image,525.165,1,525.6613,525.6613,527.6581,0,0,0,0,1,,,,,,,,,,,,,,,,,,,,,,,,,,,,,,,,,,,,,,,,,,,,,,,,,,
,,5dff767f69a117bc2fbd4be8,42,male,2024-04-24_11h32.06.406,stockport_simplified,2022.2.4,Win32,61.34969325,661e456ee6de07e70aa9ef7b,6628df853b5fe1a88ccc6358,,,,,,,,,,,,,,,,,,,,,,,,,,,,,,,,,,,,,,,,,,,,,,,,,,,,,,,,1,21,81,6,1,A,Y,N,o1_image,stimuli/out1.png,stimuli/correct_out1.png,stimuli/out2.png,,,,,,,,,,,,,,,,,,,,,,,,,,,,,,,,,,,,,,
,,5dff767f69a117bc2fbd4be8,42,male,2024-04-24_11h32.06.406,stockport_simplified,2022.2.4,Win32,61.34969325,661e456ee6de07e70aa9ef7b,6628df853b5fe1a88ccc6358,,,,,,,,,,,,,,,,,,,,,,,,,,,,,,,,,,527.6585,531.2747,"[1,3,8,5,7,4,6,2]","[[-0.3,0.2],[0.3,0.2]]","[[0.125,-0.2],[-0.125,-0.2]]",0.123148126,-0.19259257,1,0,0,3.0996,o1_image,531.2812,0,531.7752,531.7752,533.7746,0,0,0,0,1,,,,,,,,,,,,,,,,,,,,,,,,,,,,,,,,,,,,,,,,,,,,,,,,,,
,,5dff767f69a117bc2fbd4be8,42,male,2024-04-24_11h32.06.406,stockport_simplified,2022.2.4,Win32,61.34969325,661e456ee6de07e70aa9ef7b,6628df853b5fe1a88ccc6358,,,,,,,,,,,,,,,,,,,,,,,,,,,,,,,,,,,,,,,,,,,,,,,,,,,,,,,,1,22,82,19,1,B,Y,N,o2_image,stimuli/out2.png,stimuli/out1.png,stimuli/correct_out2.png,,,,,,,,,,,,,,,,,,,,,,,,,,,,,,,,,,,,,,
,,5dff767f69a117bc2fbd4be8,42,male,2024-04-24_11h32.06.406,stockport_simplified,2022.2.4,Win32,61.34969325,661e456ee6de07e70aa9ef7b,6628df853b5fe1a88ccc6358,,,,,,,,,,,,,,,,,,,,,,,,,,,,,,,,,,533.775,535.775,"[1,3,8,5,7,4,6,2]","[[-0.3,0.2],[0.3,0.2]]","[[-0.125,-0.2],[0.125,-0.2]]",-0.13240743,-0.182407362,1,0,0,1.4826,o1_image,535.7758,1,536.2752,536.2752,538.2748,0,0,0,0,1,,,,,,,,,,,,,,,,,,,,,,,,,,,,,,,,,,,,,,,,,,,,,,,,,,
,,5dff767f69a117bc2fbd4be8,42,male,2024-04-24_11h32.06.406,stockport_simplified,2022.2.4,Win32,61.34969325,661e456ee6de07e70aa9ef7b,6628df853b5fe1a88ccc6358,,,,,,,,,,,,,,,,,,,,,,,,,,,,,,,,,,,,,,,,,,,,,,,,,,,,,,,,1,23,83,20,1,N,M,C,o1_image,stimuli/out1.png,stimuli/correct_out1.png,stimuli/out2.png,,,,,,,,,,,,,,,,,,,,,,,,,,,,,,,,,,,,,,
,,5dff767f69a117bc2fbd4be8,42,male,2024-04-24_11h32.06.406,stockport_simplified,2022.2.4,Win32,61.34969325,661e456ee6de07e70aa9ef7b,6628df853b5fe1a88ccc6358,,,,,,,,,,,,,,,,,,,,,,,,,,,,,,,,,,538.2751,541.675,"[1,3,8,5,7,4,6,2]","[[0.3,0.2],[-0.3,0.2]]","[[0.125,-0.2],[-0.125,-0.2]]",0.129629584,-0.197222222,1,0,0,2.8828,o1_image,541.6757,1,542.1755,542.1755,544.1753,0,0,0,0,1,,,,,,,,,,,,,,,,,,,,,,,,,,,,,,,,,,,,,,,,,,,,,,,,,,
,,5dff767f69a117bc2fbd4be8,42,male,2024-04-24_11h32.06.406,stockport_simplified,2022.2.4,Win32,61.34969325,661e456ee6de07e70aa9ef7b,6628df853b5fe1a88ccc6358,,,,,,,,,,,,,,,,,,,,,,,,,,,,,,,,,,,,,,,,,,,,,,,,,,,,,,,,1,24,84,31,1,A,X,N,o1_image,stimuli/out1.png,stimuli/correct_out1.png,stimuli/out2.png,,,,,,,,,,,,,,,,,,,,,,,,,,,,,,,,,,,,,,
,,5dff767f69a117bc2fbd4be8,42,male,2024-04-24_11h32.06.406,stockport_simplified,2022.2.4,Win32,61.34969325,661e456ee6de07e70aa9ef7b,6628df853b5fe1a88ccc6358,,,,,,,,,,,,,,,,,,,,,,,,,,,,,,,,,,544.1758,547.3751,"[1,3,8,5,7,4,6,2]","[[-0.3,0.2],[0.3,0.2]]","[[-0.125,-0.2],[0.125,-0.2]]",0.182407362,-0.171296251,1,0,0,2.6832,o2_image,547.3758,1,547.8747,547.8747,549.8751,0,0,0,0,1,,,,,,,,,,,,,,,,,,,,,,,,,,,,,,,,,,,,,,,,,,,,,,,,,,
,,5dff767f69a117bc2fbd4be8,42,male,2024-04-24_11h32.06.406,stockport_simplified,2022.2.4,Win32,61.34969325,661e456ee6de07e70aa9ef7b,6628df853b5fe1a88ccc6358,,,,,,,,,,,,,,,,,,,,,,,,,,,,,,,,,,,,,,,,,,,,,,,,,,,,,,,,1,25,85,44,1,B,X,N,o2_image,stimuli/out2.png,stimuli/out1.png,stimuli/correct_out2.png,,,,,,,,,,,,,,,,,,,,,,,,,,,,,,,,,,,,,,
,,5dff767f69a117bc2fbd4be8,42,male,2024-04-24_11h32.06.406,stockport_simplified,2022.2.4,Win32,61.34969325,661e456ee6de07e70aa9ef7b,6628df853b5fe1a88ccc6358,,,,,,,,,,,,,,,,,,,,,,,,,,,,,,,,,,549.8755,552.2752,"[1,3,8,5,7,4,6,2]","[[0.3,0.2],[-0.3,0.2]]","[[-0.125,-0.2],[0.125,-0.2]]",0.162037014,-0.138888889,1,0,0,1.883,o2_image,552.2757,1,552.775,552.7751,554.7754,0,0,0,0,1,,,,,,,,,,,,,,,,,,,,,,,,,,,,,,,,,,,,,,,,,,,,,,,,,,
,,5dff767f69a117bc2fbd4be8,42,male,2024-04-24_11h32.06.406,stockport_simplified,2022.2.4,Win32,61.34969325,661e456ee6de07e70aa9ef7b,6628df853b5fe1a88ccc6358,,,,,,,,,,,,,,,,,,,,,,,,,,,,,,,,,,,,,,,,,,,,,,,,,,,,,,,,1,26,86,25,1,N,M,D,o2_image,stimuli/out2.png,stimuli/out1.png,stimuli/correct_out2.png,,,,,,,,,,,,,,,,,,,,,,,,,,,,,,,,,,,,,,
,,5dff767f69a117bc2fbd4be8,42,male,2024-04-24_11h32.06.406,stockport_simplified,2022.2.4,Win32,61.34969325,661e456ee6de07e70aa9ef7b,6628df853b5fe1a88ccc6358,,,,,,,,,,,,,,,,,,,,,,,,,,,,,,,,,,554.7758,557.6752,"[1,3,8,5,7,4,6,2]","[[-0.3,0.2],[0.3,0.2]]","[[0.125,-0.2],[-0.125,-0.2]]",-0.139814792,-0.191666667,1,0,0,2.3825,o2_image,557.6765,1,558.175,558.175,560.1752,0,0,0,0,1,,,,,,,,,,,,,,,,,,,,,,,,,,,,,,,,,,,,,,,,,,,,,,,,,,
,,5dff767f69a117bc2fbd4be8,42,male,2024-04-24_11h32.06.406,stockport_simplified,2022.2.4,Win32,61.34969325,661e456ee6de07e70aa9ef7b,6628df853b5fe1a88ccc6358,,,,,,,,,,,,,,,,,,,,,,,,,,,,,,,,,,,,,,,,,,,,,,,,,,,,,,,,1,27,87,46,1,B,Y,N,o2_image,stimuli/out2.png,stimuli/out1.png,stimuli/correct_out2.png,,,,,,,,,,,,,,,,,,,,,,,,,,,,,,,,,,,,,,
,,5dff767f69a117bc2fbd4be8,42,male,2024-04-24_11h32.06.406,stockport_simplified,2022.2.4,Win32,61.34969325,661e456ee6de07e70aa9ef7b,6628df853b5fe1a88ccc6358,,,,,,,,,,,,,,,,,,,,,,,,,,,,,,,,,,560.1755,563.2088,"[1,3,8,5,7,4,6,2]","[[0.3,0.2],[-0.3,0.2]]","[[-0.125,-0.2],[0.125,-0.2]]",0.131481459,-0.194444444,1,0,0,2.5168,o2_image,563.2095,1,563.6974,563.6974,565.6915,0,0,0,0,1,,,,,,,,,,,,,,,,,,,,,,,,,,,,,,,,,,,,,,,,,,,,,,,,,,
,,5dff767f69a117bc2fbd4be8,42,male,2024-04-24_11h32.06.406,stockport_simplified,2022.2.4,Win32,61.34969325,661e456ee6de07e70aa9ef7b,6628df853b5fe1a88ccc6358,,,,,,,,,,,,,,,,,,,,,,,,,,,,,,,,,,,,,,,,,,,,,,,,,,,,,,,,1,28,88,18,1,B,Y,N,o2_image,stimuli/out2.png,stimuli/out1.png,stimuli/correct_out2.png,,,,,,,,,,,,,,,,,,,,,,,,,,,,,,,,,,,,,,
,,5dff767f69a117bc2fbd4be8,42,male,2024-04-24_11h32.06.406,stockport_simplified,2022.2.4,Win32,61.34969325,661e456ee6de07e70aa9ef7b,6628df853b5fe1a88ccc6358,,,,,,,,,,,,,,,,,,,,,,,,,,,,,,,,,,565.6918,568.5086,"[1,3,8,5,7,4,6,2]","[[0.3,0.2],[-0.3,0.2]]","[[-0.125,-0.2],[0.125,-0.2]]",-0.124999932,-0.208333333,1,0,0,2.316,o1_image,568.5149,1,569.0085,569.0085,571.0084,0,0,0,0,1,,,,,,,,,,,,,,,,,,,,,,,,,,,,,,,,,,,,,,,,,,,,,,,,,,
,,5dff767f69a117bc2fbd4be8,42,male,2024-04-24_11h32.06.406,stockport_simplified,2022.2.4,Win32,61.34969325,661e456ee6de07e70aa9ef7b,6628df853b5fe1a88ccc6358,,,,,,,,,,,,,,,,,,,,,,,,,,,,,,,,,,,,,,,,,,,,,,,,,,,,,,,,1,29,89,52,1,N,M,C,o1_image,stimuli/out1.png,stimuli/correct_out1.png,stimuli/out2.png,,,,,,,,,,,,,,,,,,,,,,,,,,,,,,,,,,,,,,
,,5dff767f69a117bc2fbd4be8,42,male,2024-04-24_11h32.06.406,stockport_simplified,2022.2.4,Win32,61.34969325,661e456ee6de07e70aa9ef7b,6628df853b5fe1a88ccc6358,,,,,,,,,,,,,,,,,,,,,,,,,,,,,,,,,,571.0087,573.5252,"[1,3,8,5,7,4,6,2]","[[0.3,0.2],[-0.3,0.2]]","[[-0.125,-0.2],[0.125,-0.2]]",0.136111111,-0.179629584,1,0,0,1.9996,o2_image,573.5258,1,574.0252,574.0253,576.0252,0,0,0,0,1,,,,,,,,,,,,,,,,,,,,,,,,,,,,,,,,,,,,,,,,,,,,,,,,,,
,,5dff767f69a117bc2fbd4be8,42,male,2024-04-24_11h32.06.406,stockport_simplified,2022.2.4,Win32,61.34969325,661e456ee6de07e70aa9ef7b,6628df853b5fe1a88ccc6358,,,,,,,,,,,,,,,,,,,,,,,,,,,,,,,,,,,,,,,,,,,,,,,,,,,,,,,,1,30,90,56,1,N,M,D,o2_image,stimuli/out2.png,stimuli/out1.png,stimuli/correct_out2.png,,,,,,,,,,,,,,,,,,,,,,,,,,,,,,,,,,,,,,
,,5dff767f69a117bc2fbd4be8,42,male,2024-04-24_11h32.06.406,stockport_simplified,2022.2.4,Win32,61.34969325,661e456ee6de07e70aa9ef7b,6628df853b5fe1a88ccc6358,,,,,,,,,,,,,,,,,,,,,,,,,,,,,,,,,,576.0256,578.2252,"[1,3,8,5,7,4,6,2]","[[0.3,0.2],[-0.3,0.2]]","[[-0.125,-0.2],[0.125,-0.2]]",0.162962918,-0.165740696,1,0,0,1.6833,o2_image,578.2258,1,578.725,578.725,580.7251,0,0,0,0,1,,,,,,,,,,,,,,,,,,,,,,,,,,,,,,,,,,,,,,,,,,,,,,,,,,
,,5dff767f69a117bc2fbd4be8,42,male,2024-04-24_11h32.06.406,stockport_simplified,2022.2.4,Win32,61.34969325,661e456ee6de07e70aa9ef7b,6628df853b5fe1a88ccc6358,,,,,,,,,,,,,,,,,,,,,,,,,,,,,,,,,,,,,,,,,,,,,,,,,,,,,,,,1,31,91,58,1,N,M,D,o2_image,stimuli/out2.png,stimuli/out1.png,stimuli/correct_out2.png,,,,,,,,,,,,,,,,,,,,,,,,,,,,,,,,,,,,,,
,,5dff767f69a117bc2fbd4be8,42,male,2024-04-24_11h32.06.406,stockport_simplified,2022.2.4,Win32,61.34969325,661e456ee6de07e70aa9ef7b,6628df853b5fe1a88ccc6358,,,,,,,,,,,,,,,,,,,,,,,,,,,,,,,,,,580.7254,583.1418,"[1,3,8,5,7,4,6,2]","[[-0.3,0.2],[0.3,0.2]]","[[0.125,-0.2],[-0.125,-0.2]]",-0.115740763,-0.196296251,1,0,0,1.8997,o2_image,583.1426,0,583.6416,583.6416,585.6421,0,0,0,0,1,,,,,,,,,,,,,,,,,,,,,,,,,,,,,,,,,,,,,,,,,,,,,,,,,,
,,5dff767f69a117bc2fbd4be8,42,male,2024-04-24_11h32.06.406,stockport_simplified,2022.2.4,Win32,61.34969325,661e456ee6de07e70aa9ef7b,6628df853b5fe1a88ccc6358,,,,,,,,,,,,,,,,,,,,,,,,,,,,,,,,,,,,,,,,,,,,,,,,,,,,,,,,1,32,92,9,1,A,Y,N,o1_image,stimuli/out1.png,stimuli/correct_out1.png,stimuli/out2.png,,,,,,,,,,,,,,,,,,,,,,,,,,,,,,,,,,,,,,
,,5dff767f69a117bc2fbd4be8,42,male,2024-04-24_11h32.06.406,stockport_simplified,2022.2.4,Win32,61.34969325,661e456ee6de07e70aa9ef7b,6628df853b5fe1a88ccc6358,,,,,,,,,,,,,,,,,,,,,,,,,,,,,,,,,,585.6425,587.7419,"[1,3,8,5,7,4,6,2]","[[-0.3,0.2],[0.3,0.2]]","[[0.125,-0.2],[-0.125,-0.2]]",0.131481459,-0.190740696,1,0,0,1.5832,o1_image,587.7422,1,588.2417,588.2418,590.2455,0,0,0,0,1,,,,,,,,,,,,,,,,,,,,,,,,,,,,,,,,,,,,,,,,,,,,,,,,,,
,,5dff767f69a117bc2fbd4be8,42,male,2024-04-24_11h32.06.406,stockport_simplified,2022.2.4,Win32,61.34969325,661e456ee6de07e70aa9ef7b,6628df853b5fe1a88ccc6358,,,,,,,,,,,,,,,,,,,,,,,,,,,,,,,,,,,,,,,,,,,,,,,,,,,,,,,,1,33,93,53,1,N,M,C,o1_image,stimuli/out1.png,stimuli/correct_out1.png,stimuli/out2.png,,,,,,,,,,,,,,,,,,,,,,,,,,,,,,,,,,,,,,
,,5dff767f69a117bc2fbd4be8,42,male,2024-04-24_11h32.06.406,stockport_simplified,2022.2.4,Win32,61.34969325,661e456ee6de07e70aa9ef7b,6628df853b5fe1a88ccc6358,,,,,,,,,,,,,,,,,,,,,,,,,,,,,,,,,,590.2457,592.8279,"[1,3,8,5,7,4,6,2]","[[0.3,0.2],[-0.3,0.2]]","[[0.125,-0.2],[-0.125,-0.2]]",-0.076851874,-0.197222222,1,0,0,2.0678,o2_image,592.8283,1,593.3254,593.3254,595.3252,0,0,0,0,1,,,,,,,,,,,,,,,,,,,,,,,,,,,,,,,,,,,,,,,,,,,,,,,,,,
,,5dff767f69a117bc2fbd4be8,42,male,2024-04-24_11h32.06.406,stockport_simplified,2022.2.4,Win32,61.34969325,661e456ee6de07e70aa9ef7b,6628df853b5fe1a88ccc6358,,,,,,,,,,,,,,,,,,,,,,,,,,,,,,,,,,,,,,,,,,,,,,,,,,,,,,,,1,34,94,45,1,B,Y,N,o2_image,stimuli/out2.png,stimuli/out1.png,stimuli/correct_out2.png,,,,,,,,,,,,,,,,,,,,,,,,,,,,,,,,,,,,,,
,,5dff767f69a117bc2fbd4be8,42,male,2024-04-24_11h32.06.406,stockport_simplified,2022.2.4,Win32,61.34969325,661e456ee6de07e70aa9ef7b,6628df853b5fe1a88ccc6358,,,,,,,,,,,,,,,,,,,,,,,,,,,,,,,,,,595.3255,598.4251,"[1,3,8,5,7,4,6,2]","[[-0.3,0.2],[0.3,0.2]]","[[0.125,-0.2],[-0.125,-0.2]]",-0.14259257,-0.190740696,1,0,0,2.5968,o2_image,598.4317,0,598.9253,598.9254,600.9254,0,0,0,0,1,,,,,,,,,,,,,,,,,,,,,,,,,,,,,,,,,,,,,,,,,,,,,,,,,,
,,5dff767f69a117bc2fbd4be8,42,male,2024-04-24_11h32.06.406,stockport_simplified,2022.2.4,Win32,61.34969325,661e456ee6de07e70aa9ef7b,6628df853b5fe1a88ccc6358,,,,,,,,,,,,,,,,,,,,,,,,,,,,,,,,,,,,,,,,,,,,,,,,,,,,,,,,1,35,95,37,1,A,Y,N,o1_image,stimuli/out1.png,stimuli/correct_out1.png,stimuli/out2.png,,,,,,,,,,,,,,,,,,,,,,,,,,,,,,,,,,,,,,
,,5dff767f69a117bc2fbd4be8,42,male,2024-04-24_11h32.06.406,stockport_simplified,2022.2.4,Win32,61.34969325,661e456ee6de07e70aa9ef7b,6628df853b5fe1a88ccc6358,,,,,,,,,,,,,,,,,,,,,,,,,,,,,,,,,,600.9259,603.0089,"[1,3,8,5,7,4,6,2]","[[-0.3,0.2],[0.3,0.2]]","[[-0.125,-0.2],[0.125,-0.2]]",-0.100925903,-0.202777778,1,0,0,1.5651,o1_image,603.0094,1,603.5091,603.5091,605.5084,0,0,0,0,1,,,,,,,,,,,,,,,,,,,,,,,,,,,,,,,,,,,,,,,,,,,,,,,,,,
,,5dff767f69a117bc2fbd4be8,42,male,2024-04-24_11h32.06.406,stockport_simplified,2022.2.4,Win32,61.34969325,661e456ee6de07e70aa9ef7b,6628df853b5fe1a88ccc6358,,,,,,,,,,,,,,,,,,,,,,,,,,,,,,,,,,,,,,,,,,,,,,,,,,,,,,,,1,36,96,24,1,N,M,C,o1_image,stimuli/out1.png,stimuli/correct_out1.png,stimuli/out2.png,,,,,,,,,,,,,,,,,,,,,,,,,,,,,,,,,,,,,,
,,5dff767f69a117bc2fbd4be8,42,male,2024-04-24_11h32.06.406,stockport_simplified,2022.2.4,Win32,61.34969325,661e456ee6de07e70aa9ef7b,6628df853b5fe1a88ccc6358,,,,,,,,,,,,,,,,,,,,,,,,,,,,,,,,,,605.5088,607.3919,"[1,3,8,5,7,4,6,2]","[[-0.3,0.2],[0.3,0.2]]","[[0.125,-0.2],[-0.125,-0.2]]",0.076851807,-0.218518541,1,0,0,1.367,o1_image,607.3925,1,607.892,607.892,609.8918,0,0,0,0,1,,,,,,,,,,,,,,,,,,,,,,,,,,,,,,,,,,,,,,,,,,,,,,,,,,
,,5dff767f69a117bc2fbd4be8,42,male,2024-04-24_11h32.06.406,stockport_simplified,2022.2.4,Win32,61.34969325,661e456ee6de07e70aa9ef7b,6628df853b5fe1a88ccc6358,,,,,,,,,,,,,,,,,,,,,,,,,,,,,,,,,,,,,,,,,,,,,,,,,,,,,,,,1,37,97,21,1,N,M,C,o1_image,stimuli/out1.png,stimuli/correct_out1.png,stimuli/out2.png,,,,,,,,,,,,,,,,,,,,,,,,,,,,,,,,,,,,,,
,,5dff767f69a117bc2fbd4be8,42,male,2024-04-24_11h32.06.406,stockport_simplified,2022.2.4,Win32,61.34969325,661e456ee6de07e70aa9ef7b,6628df853b5fe1a88ccc6358,,,,,,,,,,,,,,,,,,,,,,,,,,,,,,,,,,609.892,611.8086,"[1,3,8,5,7,4,6,2]","[[-0.3,0.2],[0.3,0.2]]","[[0.125,-0.2],[-0.125,-0.2]]",0.157407362,-0.208333333,1,0,0,1.4002,o1_image,611.809,1,612.3089,612.3089,614.3087,0,0,0,0,1,,,,,,,,,,,,,,,,,,,,,,,,,,,,,,,,,,,,,,,,,,,,,,,,,,
,,5dff767f69a117bc2fbd4be8,42,male,2024-04-24_11h32.06.406,stockport_simplified,2022.2.4,Win32,61.34969325,661e456ee6de07e70aa9ef7b,6628df853b5fe1a88ccc6358,,,,,,,,,,,,,,,,,,,,,,,,,,,,,,,,,,,,,,,,,,,,,,,,,,,,,,,,1,38,98,22,1,N,M,C,o1_image,stimuli/out1.png,stimuli/correct_out1.png,stimuli/out2.png,,,,,,,,,,,,,,,,,,,,,,,,,,,,,,,,,,,,,,
,,5dff767f69a117bc2fbd4be8,42,male,2024-04-24_11h32.06.406,stockport_simplified,2022.2.4,Win32,61.34969325,661e456ee6de07e70aa9ef7b,6628df853b5fe1a88ccc6358,,,,,,,,,,,,,,,,,,,,,,,,,,,,,,,,,,614.3089,617.5757,"[1,3,8,5,7,4,6,2]","[[0.3,0.2],[-0.3,0.2]]","[[0.125,-0.2],[-0.125,-0.2]]",-0.136111043,-0.163888889,1,0,0,2.7503,o2_image,617.576,0,618.0753,618.0753,620.0764,0,0,0,0,1,,,,,,,,,,,,,,,,,,,,,,,,,,,,,,,,,,,,,,,,,,,,,,,,,,
,,5dff767f69a117bc2fbd4be8,42,male,2024-04-24_11h32.06.406,stockport_simplified,2022.2.4,Win32,61.34969325,661e456ee6de07e70aa9ef7b,6628df853b5fe1a88ccc6358,,,,,,,,,,,,,,,,,,,,,,,,,,,,,,,,,,,,,,,,,,,,,,,,,,,,,,,,1,39,99,38,1,A,Y,N,o1_image,stimuli/out1.png,stimuli/correct_out1.png,stimuli/out2.png,,,,,,,,,,,,,,,,,,,,,,,,,,,,,,,,,,,,,,
,,5dff767f69a117bc2fbd4be8,42,male,2024-04-24_11h32.06.406,stockport_simplified,2022.2.4,Win32,61.34969325,661e456ee6de07e70aa9ef7b,6628df853b5fe1a88ccc6358,,,,,,,,,,,,,,,,,,,,,,,,,,,,,,,,,,620.0765,624.1799,"[1,3,8,5,7,4,6,2]","[[0.3,0.2],[-0.3,0.2]]","[[0.125,-0.2],[-0.125,-0.2]]",-0.136111043,-0.164814792,1,0,0,3.5867,o2_image,624.1859,0,624.6762,624.6762,626.676,0,0,0,0,1,,,,,,,,,,,,,,,,,,,,,,,,,,,,,,,,,,,,,,,,,,,,,,,,,,
,,5dff767f69a117bc2fbd4be8,42,male,2024-04-24_11h32.06.406,stockport_simplified,2022.2.4,Win32,61.34969325,661e456ee6de07e70aa9ef7b,6628df853b5fe1a88ccc6358,,,,,,,,,,,,,,,,,,,,,,,,,,,,,,,,,,,,,,,,,,,,,,,,,,,,,,,,1,40,100,2,1,A,X,N,o1_image,stimuli/out1.png,stimuli/correct_out1.png,stimuli/out2.png,,,,,,,,,,,,,,,,,,,,,,,,,,,,,,,,,,,,,,
,,5dff767f69a117bc2fbd4be8,42,male,2024-04-24_11h32.06.406,stockport_simplified,2022.2.4,Win32,61.34969325,661e456ee6de07e70aa9ef7b,6628df853b5fe1a88ccc6358,,,,,,,,,,,,,,,,,,,,,,,,,,,,,,,,,,626.6763,628.5757,"[1,3,8,5,7,4,6,2]","[[-0.3,0.2],[0.3,0.2]]","[[0.125,-0.2],[-0.125,-0.2]]",0.1,-0.175925903,1,0,0,1.3835,o1_image,628.5764,1,629.0756,629.0757,631.0757,0,0,0,0,1,,,,,,,,,,,,,,,,,,,,,,,,,,,,,,,,,,,,,,,,,,,,,,,,,,
,,5dff767f69a117bc2fbd4be8,42,male,2024-04-24_11h32.06.406,stockport_simplified,2022.2.4,Win32,61.34969325,661e456ee6de07e70aa9ef7b,6628df853b5fe1a88ccc6358,,,,,,,,,,,,,,,,,,,,,,,,,,,,,,,,,,,,,,,,,,,,,,,,,,,,,,,,1,41,101,54,1,N,M,C,o1_image,stimuli/out1.png,stimuli/correct_out1.png,stimuli/out2.png,,,,,,,,,,,,,,,,,,,,,,,,,,,,,,,,,,,,,,
,,5dff767f69a117bc2fbd4be8,42,male,2024-04-24_11h32.06.406,stockport_simplified,2022.2.4,Win32,61.34969325,661e456ee6de07e70aa9ef7b,6628df853b5fe1a88ccc6358,,,,,,,,,,,,,,,,,,,,,,,,,,,,,,,,,,631.0762,634.009,"[1,3,8,5,7,4,6,2]","[[-0.3,0.2],[0.3,0.2]]","[[-0.125,-0.2],[0.125,-0.2]]",-0.103703681,-0.189814792,1,0,0,2.4164,o1_image,634.0156,0,634.5086,634.5087,636.5086,0,0,0,0,1,,,,,,,,,,,,,,,,,,,,,,,,,,,,,,,,,,,,,,,,,,,,,,,,,,
,,5dff767f69a117bc2fbd4be8,42,male,2024-04-24_11h32.06.406,stockport_simplified,2022.2.4,Win32,61.34969325,661e456ee6de07e70aa9ef7b,6628df853b5fe1a88ccc6358,,,,,,,,,,,,,,,,,,,,,,,,,,,,,,,,,,,,,,,,,,,,,,,,,,,,,,,,1,42,102,41,1,B,X,N,o2_image,stimuli/out2.png,stimuli/out1.png,stimuli/correct_out2.png,,,,,,,,,,,,,,,,,,,,,,,,,,,,,,,,,,,,,,
,,5dff767f69a117bc2fbd4be8,42,male,2024-04-24_11h32.06.406,stockport_simplified,2022.2.4,Win32,61.34969325,661e456ee6de07e70aa9ef7b,6628df853b5fe1a88ccc6358,,,,,,,,,,,,,,,,,,,,,,,,,,,,,,,,,,636.5091,639.2254,"[1,3,8,5,7,4,6,2]","[[0.3,0.2],[-0.3,0.2]]","[[-0.125,-0.2],[0.125,-0.2]]",0.136111111,-0.158333333,1,0,0,2.1997,o2_image,639.2258,0,639.7254,639.7254,641.7253,0,0,0,0,1,,,,,,,,,,,,,,,,,,,,,,,,,,,,,,,,,,,,,,,,,,,,,,,,,,
,,5dff767f69a117bc2fbd4be8,42,male,2024-04-24_11h32.06.406,stockport_simplified,2022.2.4,Win32,61.34969325,661e456ee6de07e70aa9ef7b,6628df853b5fe1a88ccc6358,,,,,,,,,,,,,,,,,,,,,,,,,,,,,,,,,,,,,,,,,,,,,,,,,,,,,,,,1,43,103,36,1,A,Y,N,o1_image,stimuli/out1.png,stimuli/correct_out1.png,stimuli/out2.png,,,,,,,,,,,,,,,,,,,,,,,,,,,,,,,,,,,,,,
,,5dff767f69a117bc2fbd4be8,42,male,2024-04-24_11h32.06.406,stockport_simplified,2022.2.4,Win32,61.34969325,661e456ee6de07e70aa9ef7b,6628df853b5fe1a88ccc6358,,,,,,,,,,,,,,,,,,,,,,,,,,,,,,,,,,641.7255,643.6428,"[1,3,8,5,7,4,6,2]","[[-0.3,0.2],[0.3,0.2]]","[[-0.125,-0.2],[0.125,-0.2]]",0.096296251,-0.191666667,1,0,0,1.4,o2_image,643.6432,1,644.1426,644.1426,646.1431,0,0,0,0,1,,,,,,,,,,,,,,,,,,,,,,,,,,,,,,,,,,,,,,,,,,,,,,,,,,
,,5dff767f69a117bc2fbd4be8,42,male,2024-04-24_11h32.06.406,stockport_simplified,2022.2.4,Win32,61.34969325,661e456ee6de07e70aa9ef7b,6628df853b5fe1a88ccc6358,,,,,,,,,,,,,,,,,,,,,,,,,,,,,,,,,,,,,,,,,,,,,,,,,,,,,,,,1,44,104,28,1,N,M,D,o2_image,stimuli/out2.png,stimuli/out1.png,stimuli/correct_out2.png,,,,,,,,,,,,,,,,,,,,,,,,,,,,,,,,,,,,,,
,,5dff767f69a117bc2fbd4be8,42,male,2024-04-24_11h32.06.406,stockport_simplified,2022.2.4,Win32,61.34969325,661e456ee6de07e70aa9ef7b,6628df853b5fe1a88ccc6358,,,,,,,,,,,,,,,,,,,,,,,,,,,,,,,,,,646.1433,648.4922,"[1,3,8,5,7,4,6,2]","[[-0.3,0.2],[0.3,0.2]]","[[0.125,-0.2],[-0.125,-0.2]]",-0.105555556,-0.215740763,1,0,0,1.8329,o2_image,648.4929,1,648.9785,648.9785,650.976,0,0,0,0,1,,,,,,,,,,,,,,,,,,,,,,,,,,,,,,,,,,,,,,,,,,,,,,,,,,
,,5dff767f69a117bc2fbd4be8,42,male,2024-04-24_11h32.06.406,stockport_simplified,2022.2.4,Win32,61.34969325,661e456ee6de07e70aa9ef7b,6628df853b5fe1a88ccc6358,,,,,,,,,,,,,,,,,,,,,,,,,,,,,,,,,,,,,,,,,,,,,,,,,,,,,,,,1,45,105,57,1,N,M,D,o2_image,stimuli/out2.png,stimuli/out1.png,stimuli/correct_out2.png,,,,,,,,,,,,,,,,,,,,,,,,,,,,,,,,,,,,,,
,,5dff767f69a117bc2fbd4be8,42,male,2024-04-24_11h32.06.406,stockport_simplified,2022.2.4,Win32,61.34969325,661e456ee6de07e70aa9ef7b,6628df853b5fe1a88ccc6358,,,,,,,,,,,,,,,,,,,,,,,,,,,,,,,,,,650.9765,653.8593,"[1,3,8,5,7,4,6,2]","[[-0.3,0.2],[0.3,0.2]]","[[-0.125,-0.2],[0.125,-0.2]]",-0.119444444,-0.200925903,1,0,0,2.3659,o1_image,653.8598,1,654.3632,654.3632,656.3597,0,0,0,0,1,,,,,,,,,,,,,,,,,,,,,,,,,,,,,,,,,,,,,,,,,,,,,,,,,,
,,5dff767f69a117bc2fbd4be8,42,male,2024-04-24_11h32.06.406,stockport_simplified,2022.2.4,Win32,61.34969325,661e456ee6de07e70aa9ef7b,6628df853b5fe1a88ccc6358,,,,,,,,,,,,,,,,,,,,,,,,,,,,,,,,,,,,,,,,,,,,,,,,,,,,,,,,1,46,106,7,1,A,Y,N,o1_image,stimuli/out1.png,stimuli/correct_out1.png,stimuli/out2.png,,,,,,,,,,,,,,,,,,,,,,,,,,,,,,,,,,,,,,
,,5dff767f69a117bc2fbd4be8,42,male,2024-04-24_11h32.06.406,stockport_simplified,2022.2.4,Win32,61.34969325,661e456ee6de07e70aa9ef7b,6628df853b5fe1a88ccc6358,,,,,,,,,,,,,,,,,,,,,,,,,,,,,,,,,,656.3599,658.3942,"[1,3,8,5,7,4,6,2]","[[-0.3,0.2],[0.3,0.2]]","[[0.125,-0.2],[-0.125,-0.2]]",-0.098148126,-0.212962986,1,0,0,1.5184,o2_image,658.3947,1,658.8922,658.8923,660.8922,0,0,0,0,1,,,,,,,,,,,,,,,,,,,,,,,,,,,,,,,,,,,,,,,,,,,,,,,,,,
,,5dff767f69a117bc2fbd4be8,42,male,2024-04-24_11h32.06.406,stockport_simplified,2022.2.4,Win32,61.34969325,661e456ee6de07e70aa9ef7b,6628df853b5fe1a88ccc6358,,,,,,,,,,,,,,,,,,,,,,,,,,,,,,,,,,,,,,,,,,,,,,,,,,,,,,,,1,47,107,29,1,N,M,D,o2_image,stimuli/out2.png,stimuli/out1.png,stimuli/correct_out2.png,,,,,,,,,,,,,,,,,,,,,,,,,,,,,,,,,,,,,,
,,5dff767f69a117bc2fbd4be8,42,male,2024-04-24_11h32.06.406,stockport_simplified,2022.2.4,Win32,61.34969325,661e456ee6de07e70aa9ef7b,6628df853b5fe1a88ccc6358,,,,,,,,,,,,,,,,,,,,,,,,,,,,,,,,,,660.8925,664.1423,"[1,3,8,5,7,4,6,2]","[[-0.3,0.2],[0.3,0.2]]","[[-0.125,-0.2],[0.125,-0.2]]",0.119444444,-0.191666667,1,0,0,2.7331,o2_image,664.1492,1,664.6424,664.6425,666.6427,0,0,0,0,1,,,,,,,,,,,,,,,,,,,,,,,,,,,,,,,,,,,,,,,,,,,,,,,,,,
,,5dff767f69a117bc2fbd4be8,42,male,2024-04-24_11h32.06.406,stockport_simplified,2022.2.4,Win32,61.34969325,661e456ee6de07e70aa9ef7b,6628df853b5fe1a88ccc6358,,,,,,,,,,,,,,,,,,,,,,,,,,,,,,,,,,,,,,,,,,,,,,,,,,,,,,,,1,48,108,47,1,B,Y,N,o2_image,stimuli/out2.png,stimuli/out1.png,stimuli/correct_out2.png,,,,,,,,,,,,,,,,,,,,,,,,,,,,,,,,,,,,,,
,,5dff767f69a117bc2fbd4be8,42,male,2024-04-24_11h32.06.406,stockport_simplified,2022.2.4,Win32,61.34969325,661e456ee6de07e70aa9ef7b,6628df853b5fe1a88ccc6358,,,,,,,,,,,,,,,,,,,,,,,,,,,,,,,,,,666.6432,668.9449,"[1,3,8,5,7,4,6,2]","[[0.3,0.2],[-0.3,0.2]]","[[-0.125,-0.2],[0.125,-0.2]]",-0.125925903,-0.235185208,1,0,0,1.7859,o1_image,668.9452,0,669.4422,669.4422,671.4457,0,0,0,0,1,,,,,,,,,,,,,,,,,,,,,,,,,,,,,,,,,,,,,,,,,,,,,,,,,,
,,5dff767f69a117bc2fbd4be8,42,male,2024-04-24_11h32.06.406,stockport_simplified,2022.2.4,Win32,61.34969325,661e456ee6de07e70aa9ef7b,6628df853b5fe1a88ccc6358,,,,,,,,,,,,,,,,,,,,,,,,,,,,,,,,,,,,,,,,,,,,,,,,,,,,,,,,1,49,109,49,1,B,Y,N,o2_image,stimuli/out2.png,stimuli/out1.png,stimuli/correct_out2.png,,,,,,,,,,,,,,,,,,,,,,,,,,,,,,,,,,,,,,
,,5dff767f69a117bc2fbd4be8,42,male,2024-04-24_11h32.06.406,stockport_simplified,2022.2.4,Win32,61.34969325,661e456ee6de07e70aa9ef7b,6628df853b5fe1a88ccc6358,,,,,,,,,,,,,,,,,,,,,,,,,,,,,,,,,,671.446,673.9964,"[1,3,8,5,7,4,6,2]","[[-0.3,0.2],[0.3,0.2]]","[[0.125,-0.2],[-0.125,-0.2]]",-0.109259237,-0.194444444,1,0,0,2.0374,o2_image,673.9969,1,674.4922,674.4922,676.4935,0,0,0,0,1,,,,,,,,,,,,,,,,,,,,,,,,,,,,,,,,,,,,,,,,,,,,,,,,,,
,,5dff767f69a117bc2fbd4be8,42,male,2024-04-24_11h32.06.406,stockport_simplified,2022.2.4,Win32,61.34969325,661e456ee6de07e70aa9ef7b,6628df853b5fe1a88ccc6358,,,,,,,,,,,,,,,,,,,,,,,,,,,,,,,,,,,,,,,,,,,,,,,,,,,,,,,,1,50,110,15,1,B,Y,N,o2_image,stimuli/out2.png,stimuli/out1.png,stimuli/correct_out2.png,,,,,,,,,,,,,,,,,,,,,,,,,,,,,,,,,,,,,,
,,5dff767f69a117bc2fbd4be8,42,male,2024-04-24_11h32.06.406,stockport_simplified,2022.2.4,Win32,61.34969325,661e456ee6de07e70aa9ef7b,6628df853b5fe1a88ccc6358,,,,,,,,,,,,,,,,,,,,,,,,,,,,,,,,,,676.4939,678.6965,"[1,3,8,5,7,4,6,2]","[[0.3,0.2],[-0.3,0.2]]","[[0.125,-0.2],[-0.125,-0.2]]",-0.101851874,-0.221296319,1,0,0,1.6863,o2_image,678.6972,1,679.1957,679.1957,681.1949,0,0,0,0,1,,,,,,,,,,,,,,,,,,,,,,,,,,,,,,,,,,,,,,,,,,,,,,,,,,
,,5dff767f69a117bc2fbd4be8,42,male,2024-04-24_11h32.06.406,stockport_simplified,2022.2.4,Win32,61.34969325,661e456ee6de07e70aa9ef7b,6628df853b5fe1a88ccc6358,,,,,,,,,,,,,,,,,,,,,,,,,,,,,,,,,,,,,,,,,,,,,,,,,,,,,,,,1,51,111,55,1,N,M,D,o2_image,stimuli/out2.png,stimuli/out1.png,stimuli/correct_out2.png,,,,,,,,,,,,,,,,,,,,,,,,,,,,,,,,,,,,,,
,,5dff767f69a117bc2fbd4be8,42,male,2024-04-24_11h32.06.406,stockport_simplified,2022.2.4,Win32,61.34969325,661e456ee6de07e70aa9ef7b,6628df853b5fe1a88ccc6358,,,,,,,,,,,,,,,,,,,,,,,,,,,,,,,,,,681.1952,684.5429,"[1,3,8,5,7,4,6,2]","[[-0.3,0.2],[0.3,0.2]]","[[0.125,-0.2],[-0.125,-0.2]]",-0.098148126,-0.209259237,1,0,0,2.8333,o2_image,684.5491,1,685.0429,685.0429,687.0426,0,0,0,0,1,,,,,,,,,,,,,,,,,,,,,,,,,,,,,,,,,,,,,,,,,,,,,,,,,,
,,5dff767f69a117bc2fbd4be8,42,male,2024-04-24_11h32.06.406,stockport_simplified,2022.2.4,Win32,61.34969325,661e456ee6de07e70aa9ef7b,6628df853b5fe1a88ccc6358,,,,,,,,,,,,,,,,,,,,,,,,,,,,,,,,,,,,,,,,,,,,,,,,,,,,,,,,1,52,112,48,1,B,Y,N,o2_image,stimuli/out2.png,stimuli/out1.png,stimuli/correct_out2.png,,,,,,,,,,,,,,,,,,,,,,,,,,,,,,,,,,,,,,
,,5dff767f69a117bc2fbd4be8,42,male,2024-04-24_11h32.06.406,stockport_simplified,2022.2.4,Win32,61.34969325,661e456ee6de07e70aa9ef7b,6628df853b5fe1a88ccc6358,,,,,,,,,,,,,,,,,,,,,,,,,,,,,,,,,,687.0428,689.4433,"[1,3,8,5,7,4,6,2]","[[0.3,0.2],[-0.3,0.2]]","[[0.125,-0.2],[-0.125,-0.2]]",-0.078703681,-0.209259237,1,0,0,1.9001,o2_image,689.444,1,689.9463,689.9464,691.9428,0,0,0,0,1,,,,,,,,,,,,,,,,,,,,,,,,,,,,,,,,,,,,,,,,,,,,,,,,,,
,,5dff767f69a117bc2fbd4be8,42,male,2024-04-24_11h32.06.406,stockport_simplified,2022.2.4,Win32,61.34969325,661e456ee6de07e70aa9ef7b,6628df853b5fe1a88ccc6358,,,,,,,,,,,,,,,,,,,,,,,,,,,,,,,,,,,,,,,,,,,,,,,,,,,,,,,,1,53,113,27,1,N,M,D,o2_image,stimuli/out2.png,stimuli/out1.png,stimuli/correct_out2.png,,,,,,,,,,,,,,,,,,,,,,,,,,,,,,,,,,,,,,
,,5dff767f69a117bc2fbd4be8,42,male,2024-04-24_11h32.06.406,stockport_simplified,2022.2.4,Win32,61.34969325,661e456ee6de07e70aa9ef7b,6628df853b5fe1a88ccc6358,,,,,,,,,,,,,,,,,,,,,,,,,,,,,,,,,,691.9433,694.8589,"[1,3,8,5,7,4,6,2]","[[-0.3,0.2],[0.3,0.2]]","[[-0.125,-0.2],[0.125,-0.2]]",0.111111111,-0.212962986,1,0,0,2.3997,o2_image,694.8655,0,695.3628,695.3628,697.3597,0,0,0,0,1,,,,,,,,,,,,,,,,,,,,,,,,,,,,,,,,,,,,,,,,,,,,,,,,,,
,,5dff767f69a117bc2fbd4be8,42,male,2024-04-24_11h32.06.406,stockport_simplified,2022.2.4,Win32,61.34969325,661e456ee6de07e70aa9ef7b,6628df853b5fe1a88ccc6358,,,,,,,,,,,,,,,,,,,,,,,,,,,,,,,,,,,,,,,,,,,,,,,,,,,,,,,,1,54,114,35,1,A,Y,N,o1_image,stimuli/out1.png,stimuli/correct_out1.png,stimuli/out2.png,,,,,,,,,,,,,,,,,,,,,,,,,,,,,,,,,,,,,,
,,5dff767f69a117bc2fbd4be8,42,male,2024-04-24_11h32.06.406,stockport_simplified,2022.2.4,Win32,61.34969325,661e456ee6de07e70aa9ef7b,6628df853b5fe1a88ccc6358,,,,,,,,,,,,,,,,,,,,,,,,,,,,,,,,,,697.3603,699.3263,"[1,3,8,5,7,4,6,2]","[[-0.3,0.2],[0.3,0.2]]","[[-0.125,-0.2],[0.125,-0.2]]",-0.088888889,-0.196296251,1,0,0,1.4497,o1_image,699.3267,1,699.8103,699.8103,701.8097,0,0,0,0,1,,,,,,,,,,,,,,,,,,,,,,,,,,,,,,,,,,,,,,,,,,,,,,,,,,
,,5dff767f69a117bc2fbd4be8,42,male,2024-04-24_11h32.06.406,stockport_simplified,2022.2.4,Win32,61.34969325,661e456ee6de07e70aa9ef7b,6628df853b5fe1a88ccc6358,,,,,,,,,,,,,,,,,,,,,,,,,,,,,,,,,,,,,,,,,,,,,,,,,,,,,,,,1,55,115,0,1,A,X,N,o1_image,stimuli/out1.png,stimuli/correct_out1.png,stimuli/out2.png,,,,,,,,,,,,,,,,,,,,,,,,,,,,,,,,,,,,,,
,,5dff767f69a117bc2fbd4be8,42,male,2024-04-24_11h32.06.406,stockport_simplified,2022.2.4,Win32,61.34969325,661e456ee6de07e70aa9ef7b,6628df853b5fe1a88ccc6358,,,,,,,,,,,,,,,,,,,,,,,,,,,,,,,,,,701.8102,703.5609,"[1,3,8,5,7,4,6,2]","[[0.3,0.2],[-0.3,0.2]]","[[0.125,-0.2],[-0.125,-0.2]]",0.105555556,-0.230555556,1,0,0,1.2338,o1_image,703.5614,1,704.0792,704.0792,706.0764,0,0,0,0,1,,,,,,,,,,,,,,,,,,,,,,,,,,,,,,,,,,,,,,,,,,,,,,,,,,
,,5dff767f69a117bc2fbd4be8,42,male,2024-04-24_11h32.06.406,stockport_simplified,2022.2.4,Win32,61.34969325,661e456ee6de07e70aa9ef7b,6628df853b5fe1a88ccc6358,,,,,,,,,,,,,,,,,,,,,,,,,,,,,,,,,,,,,,,,,,,,,,,,,,,,,,,,1,56,116,51,1,N,M,C,o1_image,stimuli/out1.png,stimuli/correct_out1.png,stimuli/out2.png,,,,,,,,,,,,,,,,,,,,,,,,,,,,,,,,,,,,,,
,,5dff767f69a117bc2fbd4be8,42,male,2024-04-24_11h32.06.406,stockport_simplified,2022.2.4,Win32,61.34969325,661e456ee6de07e70aa9ef7b,6628df853b5fe1a88ccc6358,,,,,,,,,,,,,,,,,,,,,,,,,,,,,,,,,,706.0767,708.9595,"[1,3,8,5,7,4,6,2]","[[0.3,0.2],[-0.3,0.2]]","[[0.125,-0.2],[-0.125,-0.2]]",0.131481459,-0.225925903,1,0,0,2.3661,o1_image,708.9662,1,709.463,709.463,711.4595,0,0,0,0,1,,,,,,,,,,,,,,,,,,,,,,,,,,,,,,,,,,,,,,,,,,,,,,,,,,
,,5dff767f69a117bc2fbd4be8,42,male,2024-04-24_11h32.06.406,stockport_simplified,2022.2.4,Win32,61.34969325,661e456ee6de07e70aa9ef7b,6628df853b5fe1a88ccc6358,,,,,,,,,,,,,,,,,,,,,,,,,,,,,,,,,,,,,,,,,,,,,,,,,,,,,,,,1,57,117,32,1,A,X,N,o1_image,stimuli/out1.png,stimuli/correct_out1.png,stimuli/out2.png,,,,,,,,,,,,,,,,,,,,,,,,,,,,,,,,,,,,,,
,,5dff767f69a117bc2fbd4be8,42,male,2024-04-24_11h32.06.406,stockport_simplified,2022.2.4,Win32,61.34969325,661e456ee6de07e70aa9ef7b,6628df853b5fe1a88ccc6358,,,,,,,,,,,,,,,,,,,,,,,,,,,,,,,,,,711.4598,713.1273,"[1,3,8,5,7,4,6,2]","[[0.3,0.2],[-0.3,0.2]]","[[0.125,-0.2],[-0.125,-0.2]]",0.119444444,-0.223148126,1,0,0,1.1506,o1_image,713.1277,1,713.6102,713.6102,715.6101,0,0,0,0,1,,,,,,,,,,,,,,,,,,,,,,,,,,,,,,,,,,,,,,,,,,,,,,,,,,
,,5dff767f69a117bc2fbd4be8,42,male,2024-04-24_11h32.06.406,stockport_simplified,2022.2.4,Win32,61.34969325,661e456ee6de07e70aa9ef7b,6628df853b5fe1a88ccc6358,,,,,,,,,,,,,,,,,,,,,,,,,,,,,,,,,,,,,,,,,,,,,,,,,,,,,,,,1,58,118,23,1,N,M,C,o1_image,stimuli/out1.png,stimuli/correct_out1.png,stimuli/out2.png,,,,,,,,,,,,,,,,,,,,,,,,,,,,,,,,,,,,,,
,,5dff767f69a117bc2fbd4be8,42,male,2024-04-24_11h32.06.406,stockport_simplified,2022.2.4,Win32,61.34969325,661e456ee6de07e70aa9ef7b,6628df853b5fe1a88ccc6358,,,,,,,,,,,,,,,,,,,,,,,,,,,,,,,,,,715.6106,717.5431,"[1,3,8,5,7,4,6,2]","[[-0.3,0.2],[0.3,0.2]]","[[-0.125,-0.2],[0.125,-0.2]]",-0.138888889,-0.213888889,1,0,0,1.416,o1_image,717.5436,1,718.0457,718.0457,720.0431,0,0,0,0,1,,,,,,,,,,,,,,,,,,,,,,,,,,,,,,,,,,,,,,,,,,,,,,,,,,
,,5dff767f69a117bc2fbd4be8,42,male,2024-04-24_11h32.06.406,stockport_simplified,2022.2.4,Win32,61.34969325,661e456ee6de07e70aa9ef7b,6628df853b5fe1a88ccc6358,,,,,,,,,,,,,,,,,,,,,,,,,,,,,,,,,,,,,,,,,,,,,,,,,,,,,,,,1,59,119,3,1,A,X,N,o1_image,stimuli/out1.png,stimuli/correct_out1.png,stimuli/out2.png,,,,,,,,,,,,,,,,,,,,,,,,,,,,,,,,,,,,,,
,,5dff767f69a117bc2fbd4be8,42,male,2024-04-24_11h32.06.406,stockport_simplified,2022.2.4,Win32,61.34969325,661e456ee6de07e70aa9ef7b,6628df853b5fe1a88ccc6358,,,,,,,,,,,,,,,,,,,,,,,,,,,,,,,,,,720.0536,722.9964,"[1,3,8,5,7,4,6,2]","[[0.3,0.2],[-0.3,0.2]]","[[0.125,-0.2],[-0.125,-0.2]]",-0.108333333,-0.209259237,1,0,0,2.436,o2_image,723.0025,0,723.4929,723.4929,725.4934,,,,,,,,,,,,,,,,,,0,0,0,0,1,,,,,,,,,,,,,,,,,,,,,,,,,,,,,,,,,
,,5dff767f69a117bc2fbd4be8,42,male,2024-04-24_11h32.06.406,stockport_simplified,2022.2.4,Win32,61.34969325,661e456ee6de07e70aa9ef7b,6628df853b5fe1a88ccc6358,,,,,,,,,,,,,,,,,,,,,,,,,,,,,,,,,,,,,,,,,,,,,,,,,,,,,,,,,,,,,B,X,N,o1_image,stimuli/out1.png,stimuli/correct_out1.png,stimuli/out2.png,,,,,,0,0,0,25,1,,,,,,,,,,,,,,,,,,,,,,,,,,,,
,,5dff767f69a117bc2fbd4be8,42,male,2024-04-24_11h32.06.406,stockport_simplified,2022.2.4,Win32,61.34969325,661e456ee6de07e70aa9ef7b,6628df853b5fe1a88ccc6358,,,,,,,,,,,,,,,,,,,,,,,,,,,,,,,,,,725.4943,728.9765,"[1,3,8,5,7,4,6,2]","[[-0.3,0.2],[0.3,0.2]]","[[0.125,-0.2],[-0.125,-0.2]]",-0.110185208,-0.227777778,1,0,0,2.9672,o2_image,728.9837,0,729.4798,729.4798,731.4767,,,,,,,,,,,,,,,,,,0,0,0,0,1,,,,,,,,,,,,,,,,,,,,,,,,,,,,,,,,,
,,5dff767f69a117bc2fbd4be8,42,male,2024-04-24_11h32.06.406,stockport_simplified,2022.2.4,Win32,61.34969325,661e456ee6de07e70aa9ef7b,6628df853b5fe1a88ccc6358,,,,,,,,,,,,,,,,,,,,,,,,,,,,,,,,,,,,,,,,,,,,,,,,,,,,,,,,,,,,,B,X,N,o1_image,stimuli/out1.png,stimuli/correct_out1.png,stimuli/out2.png,,,,,,0,1,1,29,1,,,,,,,,,,,,,,,,,,,,,,,,,,,,
,,5dff767f69a117bc2fbd4be8,42,male,2024-04-24_11h32.06.406,stockport_simplified,2022.2.4,Win32,61.34969325,661e456ee6de07e70aa9ef7b,6628df853b5fe1a88ccc6358,,,,,,,,,,,,,,,,,,,,,,,,,,,,,,,,,,731.4773,733.4432,"[1,3,8,5,7,4,6,2]","[[0.3,0.2],[-0.3,0.2]]","[[-0.125,-0.2],[0.125,-0.2]]",0.115740696,-0.182407362,1,0,0,1.4496,o2_image,733.4439,0,733.9462,733.9462,735.9429,,,,,,,,,,,,,,,,,,0,0,0,0,1,,,,,,,,,,,,,,,,,,,,,,,,,,,,,,,,,
,,5dff767f69a117bc2fbd4be8,42,male,2024-04-24_11h32.06.406,stockport_simplified,2022.2.4,Win32,61.34969325,661e456ee6de07e70aa9ef7b,6628df853b5fe1a88ccc6358,,,,,,,,,,,,,,,,,,,,,,,,,,,,,,,,,,,,,,,,,,,,,,,,,,,,,,,,,,,,,A,Y,N,o1_image,stimuli/out1.png,stimuli/correct_out1.png,stimuli/out2.png,,,,,,0,2,2,16,1,,,,,,,,,,,,,,,,,,,,,,,,,,,,
,,5dff767f69a117bc2fbd4be8,42,male,2024-04-24_11h32.06.406,stockport_simplified,2022.2.4,Win32,61.34969325,661e456ee6de07e70aa9ef7b,6628df853b5fe1a88ccc6358,,,,,,,,,,,,,,,,,,,,,,,,,,,,,,,,,,735.9431,738.1266,"[1,3,8,5,7,4,6,2]","[[0.3,0.2],[-0.3,0.2]]","[[-0.125,-0.2],[0.125,-0.2]]",-0.11759257,-0.218518541,1,0,0,1.6664,o1_image,738.1274,0,738.6292,738.6292,740.6266,,,,,,,,,,,,,,,,,,0,0,0,0,1,,,,,,,,,,,,,,,,,,,,,,,,,,,,,,,,,
,,5dff767f69a117bc2fbd4be8,42,male,2024-04-24_11h32.06.406,stockport_simplified,2022.2.4,Win32,61.34969325,661e456ee6de07e70aa9ef7b,6628df853b5fe1a88ccc6358,,,,,,,,,,,,,,,,,,,,,,,,,,,,,,,,,,,,,,,,,,,,,,,,,,,,,,,,,,,,,A,X,N,o2_image,stimuli/out2.png,stimuli/out1.png,stimuli/correct_out2.png,,,,,,0,3,3,6,1,,,,,,,,,,,,,,,,,,,,,,,,,,,,
,,5dff767f69a117bc2fbd4be8,42,male,2024-04-24_11h32.06.406,stockport_simplified,2022.2.4,Win32,61.34969325,661e456ee6de07e70aa9ef7b,6628df853b5fe1a88ccc6358,,,,,,,,,,,,,,,,,,,,,,,,,,,,,,,,,,740.6273,742.5435,"[1,3,8,5,7,4,6,2]","[[0.3,0.2],[-0.3,0.2]]","[[0.125,-0.2],[-0.125,-0.2]]",-0.1,-0.237962986,1,0,0,1.4,o2_image,742.5443,1,743.0453,743.0453,745.0432,,,,,,,,,,,,,,,,,,0,0,0,0,1,,,,,,,,,,,,,,,,,,,,,,,,,,,,,,,,,
