counterbalance_2.started,counterbalance_2.stopped,participant,age,gender,date,expName,psychopyVersion,OS,frameRate,STUDY_ID,SESSION_ID,information_2.started,information_2.stopped,information_loop.thisRepN,information_loop.thisTrialN,information_loop.thisN,information_loop.thisIndex,information_loop.ran,information,consent_2.started,consent_2.stopped,slider_1.response,slider_2.response,slider_3.response,slider_4.response,slider_5.response,slider_6.response,instructions.started,instructions.stopped,task1_instr.thisRepN,task1_instr.thisTrialN,task1_instr.thisN,task1_instr.thisIndex,task1_instr.ran,task1,comprehension1_2.started,comprehension1_2.stopped,comp1_mouse.x,comp1_mouse.y,comp1_mouse.leftButton,comp1_mouse.midButton,comp1_mouse.rightButton,comp1_mouse.time,comp1_mouse.clicked_name,cue_o__trial_2.started,cue_o__trial_2.stopped,order,cue_order,out_order,cue_o_mouse.x,cue_o_mouse.y,cue_o_mouse.leftButton,cue_o_mouse.midButton,cue_o_mouse.rightButton,cue_o_mouse.time,cue_o_mouse.clicked_name,cue_selection_2.started,correct_answer,cue_selection_2.stopped,feedback_2.started,feedback_2.stopped,feedback_loop.thisRepN,feedback_loop.thisTrialN,feedback_loop.thisN,feedback_loop.thisIndex,feedback_loop.ran,stage1_trials.thisRepN,stage1_trials.thisTrialN,stage1_trials.thisN,stage1_trials.thisIndex,stage1_trials.ran,cue1,cue2,cue3,outcome,correct_out,o1_feedback,o2_feedback,stage2_feedback_loop.thisRepN,stage2_feedback_loop.thisTrialN,stage2_feedback_loop.thisN,stage2_feedback_loop.thisIndex,stage2_feedback_loop.ran,stage2_trials.thisRepN,stage2_trials.thisTrialN,stage2_trials.thisN,stage2_trials.thisIndex,stage2_trials.ran,stage3_feedback_loop.thisRepN,stage3_feedback_loop.thisTrialN,stage3_feedback_loop.thisN,stage3_feedback_loop.thisIndex,stage3_feedback_loop.ran,stage3_trials.thisRepN,stage3_trials.thisTrialN,stage3_trials.thisN,stage3_trials.thisIndex,stage3_trials.ran,debrief_2.started,debrief_2.stopped,debrief_loop.thisRepN,debrief_loop.thisTrialN,debrief_loop.thisN,debrief_loop.thisIndex,debrief_loop.ran,debrief_img,compr1_completed.thisRepN,compr1_completed.thisTrialN,compr1_completed.thisN,compr1_completed.thisIndex,compr1_completed.ran,consent_loop.thisRepN,consent_loop.thisTrialN,consent_loop.thisN,consent_loop.thisIndex,consent_loop.ran
0.0006,0.0011,5ef0a0fbcb93ea5e9a7d3460,50,female,2024-04-16_12h21.54.371,stockport_simplified,2022.2.4,Win32,47.84688995,661e456ee6de07e70aa9ef7b,661e5126e993ed2a8dd64f51,,,,,,,,,,,,,,,,,,,,,,,,,,,,,,,,,,,,,,,,,,,,,,,,,,,,,,,,,,,,,,,,,,,,,,,,,,,,,,,,,,,,,,,,,,,,,,,,,,,,,,,,,
,,5ef0a0fbcb93ea5e9a7d3460,50,female,2024-04-16_12h21.54.371,stockport_simplified,2022.2.4,Win32,47.84688995,661e456ee6de07e70aa9ef7b,661e5126e993ed2a8dd64f51,0.0432,18.3283,0,0,0,0,1,instructions/info1.png,,,,,,,,,,,,,,,,,,,,,,,,,,,,,,,,,,,,,,,,,,,,,,,,,,,,,,,,,,,,,,,,,,,,,,,,,,,,,,,,,,,,,,,,,,,,,,,,,
,,5ef0a0fbcb93ea5e9a7d3460,50,female,2024-04-16_12h21.54.371,stockport_simplified,2022.2.4,Win32,47.84688995,661e456ee6de07e70aa9ef7b,661e5126e993ed2a8dd64f51,18.3291,27.6742,0,1,1,1,1,instructions/info2.png,,,,,,,,,,,,,,,,,,,,,,,,,,,,,,,,,,,,,,,,,,,,,,,,,,,,,,,,,,,,,,,,,,,,,,,,,,,,,,,,,,,,,,,,,,,,,,,,,
,,5ef0a0fbcb93ea5e9a7d3460,50,female,2024-04-16_12h21.54.371,stockport_simplified,2022.2.4,Win32,47.84688995,661e456ee6de07e70aa9ef7b,661e5126e993ed2a8dd64f51,27.675,39.2105,0,2,2,2,1,instructions/info3.png,,,,,,,,,,,,,,,,,,,,,,,,,,,,,,,,,,,,,,,,,,,,,,,,,,,,,,,,,,,,,,,,,,,,,,,,,,,,,,,,,,,,,,,,,,,,,,,,,
,,5ef0a0fbcb93ea5e9a7d3460,50,female,2024-04-16_12h21.54.371,stockport_simplified,2022.2.4,Win32,47.84688995,661e456ee6de07e70aa9ef7b,661e5126e993ed2a8dd64f51,,,,,,,,,39.2112,94.8032,1,1,1,1,1,1,,,,,,,,,,,,,,,,,,,,,,,,,,,,,,,,,,,,,,,,,,,,,,,,,,,,,,,,,,,,,,,,,,,,,,,,,,,,,,,,,,,,,,,,,
,,5ef0a0fbcb93ea5e9a7d3460,50,female,2024-04-16_12h21.54.371,stockport_simplified,2022.2.4,Win32,47.84688995,661e456ee6de07e70aa9ef7b,661e5126e993ed2a8dd64f51,,,,,,,,,,,,,,,,,94.8431,115.1087,0,0,0,0,1,instructions/task1_1.png,,,,,,,,,,,,,,,,,,,,,,,,,,,,,,,,,,,,,,,,,,,,,,,,,,,,,,,,,,,,,,,,,,,,,,,,,,,,,,,,,
,,5ef0a0fbcb93ea5e9a7d3460,50,female,2024-04-16_12h21.54.371,stockport_simplified,2022.2.4,Win32,47.84688995,661e456ee6de07e70aa9ef7b,661e5126e993ed2a8dd64f51,,,,,,,,,,,,,,,,,115.1371,198.9474,0,1,1,1,1,instructions/task1_2.png,,,,,,,,,,,,,,,,,,,,,,,,,,,,,,,,,,,,,,,,,,,,,,,,,,,,,,,,,,,,,,,,,,,,,,,,,,,,,,,,,
,,5ef0a0fbcb93ea5e9a7d3460,50,female,2024-04-16_12h21.54.371,stockport_simplified,2022.2.4,Win32,47.84688995,661e456ee6de07e70aa9ef7b,661e5126e993ed2a8dd64f51,,,,,,,,,,,,,,,,,198.9658,215.9209,0,2,2,2,1,instructions/task1_3.png,,,,,,,,,,,,,,,,,,,,,,,,,,,,,,,,,,,,,,,,,,,,,,,,,,,,,,,,,,,,,,,,,,,,,,,,,,,,,,,,,
,,5ef0a0fbcb93ea5e9a7d3460,50,female,2024-04-16_12h21.54.371,stockport_simplified,2022.2.4,Win32,47.84688995,661e456ee6de07e70aa9ef7b,661e5126e993ed2a8dd64f51,,,,,,,,,,,,,,,,,,,,,,,,,215.9373,233.5213,-0.096296268,-0.319444444,1,0,0,17.5821,comp1_resp1,233.577,237.6379,"[4,5,3,2,6,7,1,8]","[[0.3,0.2],[-0.3,0.2]]","[[-0.125,-0.2],[0.125,-0.2]]",-0.113888889,-0.180555556,1,0,0,3.5394,o1_image,237.6629,1,238.1577,238.159,240.1587,0,0,0,0,1,,,,,,,,,,,,,,,,,,,,,,,,,,,,,,,,,,,,,,,,,,,,,,,,,,
,,5ef0a0fbcb93ea5e9a7d3460,50,female,2024-04-16_12h21.54.371,stockport_simplified,2022.2.4,Win32,47.84688995,661e456ee6de07e70aa9ef7b,661e5126e993ed2a8dd64f51,,,,,,,,,,,,,,,,,,,,,,,,,,,,,,,,,,,,,,,,,,,,,,,,,,,,,,,,0,0,0,52,1,N,M,C,o1_image,stimuli/out1.png,stimuli/correct_out1.png,stimuli/out2.png,,,,,,,,,,,,,,,,,,,,,,,,,,,,,,,,,,,,,,
,,5ef0a0fbcb93ea5e9a7d3460,50,female,2024-04-16_12h21.54.371,stockport_simplified,2022.2.4,Win32,47.84688995,661e456ee6de07e70aa9ef7b,661e5126e993ed2a8dd64f51,,,,,,,,,,,,,,,,,,,,,,,,,,,,,,,,,,240.1609,244.0542,"[4,5,3,2,6,7,1,8]","[[-0.3,0.2],[0.3,0.2]]","[[-0.125,-0.2],[0.125,-0.2]]",-0.121296268,-0.240740797,1,0,0,3.3725,o1_image,244.0665,0,244.5521,244.5522,246.5522,0,0,0,0,1,,,,,,,,,,,,,,,,,,,,,,,,,,,,,,,,,,,,,,,,,,,,,,,,,,
,,5ef0a0fbcb93ea5e9a7d3460,50,female,2024-04-16_12h21.54.371,stockport_simplified,2022.2.4,Win32,47.84688995,661e456ee6de07e70aa9ef7b,661e5126e993ed2a8dd64f51,,,,,,,,,,,,,,,,,,,,,,,,,,,,,,,,,,,,,,,,,,,,,,,,,,,,,,,,0,1,1,11,1,B,X,N,o2_image,stimuli/out2.png,stimuli/out1.png,stimuli/correct_out2.png,,,,,,,,,,,,,,,,,,,,,,,,,,,,,,,,,,,,,,
,,5ef0a0fbcb93ea5e9a7d3460,50,female,2024-04-16_12h21.54.371,stockport_simplified,2022.2.4,Win32,47.84688995,661e456ee6de07e70aa9ef7b,661e5126e993ed2a8dd64f51,,,,,,,,,,,,,,,,,,,,,,,,,,,,,,,,,,246.5535,250.7088,"[4,5,3,2,6,7,1,8]","[[0.3,0.2],[-0.3,0.2]]","[[-0.125,-0.2],[0.125,-0.2]]",-0.121296268,-0.228703732,1,0,0,3.6347,o1_image,250.7351,1,251.2397,251.2399,253.2492,0,0,0,0,1,,,,,,,,,,,,,,,,,,,,,,,,,,,,,,,,,,,,,,,,,,,,,,,,,,
,,5ef0a0fbcb93ea5e9a7d3460,50,female,2024-04-16_12h21.54.371,stockport_simplified,2022.2.4,Win32,47.84688995,661e456ee6de07e70aa9ef7b,661e5126e993ed2a8dd64f51,,,,,,,,,,,,,,,,,,,,,,,,,,,,,,,,,,,,,,,,,,,,,,,,,,,,,,,,0,2,2,21,1,N,M,C,o1_image,stimuli/out1.png,stimuli/correct_out1.png,stimuli/out2.png,,,,,,,,,,,,,,,,,,,,,,,,,,,,,,,,,,,,,,
,,5ef0a0fbcb93ea5e9a7d3460,50,female,2024-04-16_12h21.54.371,stockport_simplified,2022.2.4,Win32,47.84688995,661e456ee6de07e70aa9ef7b,661e5126e993ed2a8dd64f51,,,,,,,,,,,,,,,,,,,,,,,,,,,,,,,,,,253.2503,255.43,"[4,5,3,2,6,7,1,8]","[[0.3,0.2],[-0.3,0.2]]","[[0.125,-0.2],[-0.125,-0.2]]",-0.114814758,-0.203703732,1,0,0,1.6654,o2_image,255.4322,1,255.9269,255.927,257.928,0,0,0,0,1,,,,,,,,,,,,,,,,,,,,,,,,,,,,,,,,,,,,,,,,,,,,,,,,,,
,,5ef0a0fbcb93ea5e9a7d3460,50,female,2024-04-16_12h21.54.371,stockport_simplified,2022.2.4,Win32,47.84688995,661e456ee6de07e70aa9ef7b,661e5126e993ed2a8dd64f51,,,,,,,,,,,,,,,,,,,,,,,,,,,,,,,,,,,,,,,,,,,,,,,,,,,,,,,,0,3,3,27,1,N,M,D,o2_image,stimuli/out2.png,stimuli/out1.png,stimuli/correct_out2.png,,,,,,,,,,,,,,,,,,,,,,,,,,,,,,,,,,,,,,
,,5ef0a0fbcb93ea5e9a7d3460,50,female,2024-04-16_12h21.54.371,stockport_simplified,2022.2.4,Win32,47.84688995,661e456ee6de07e70aa9ef7b,661e5126e993ed2a8dd64f51,,,,,,,,,,,,,,,,,,,,,,,,,,,,,,,,,,257.9305,262.3649,"[4,5,3,2,6,7,1,8]","[[0.3,0.2],[-0.3,0.2]]","[[0.125,-0.2],[-0.125,-0.2]]",-0.114814758,-0.202777778,1,0,0,3.9135,o2_image,262.3805,0,262.8851,262.8852,264.8851,0,0,0,0,1,,,,,,,,,,,,,,,,,,,,,,,,,,,,,,,,,,,,,,,,,,,,,,,,,,
,,5ef0a0fbcb93ea5e9a7d3460,50,female,2024-04-16_12h21.54.371,stockport_simplified,2022.2.4,Win32,47.84688995,661e456ee6de07e70aa9ef7b,661e5126e993ed2a8dd64f51,,,,,,,,,,,,,,,,,,,,,,,,,,,,,,,,,,,,,,,,,,,,,,,,,,,,,,,,0,4,4,3,1,A,X,N,o1_image,stimuli/out1.png,stimuli/correct_out1.png,stimuli/out2.png,,,,,,,,,,,,,,,,,,,,,,,,,,,,,,,,,,,,,,
,,5ef0a0fbcb93ea5e9a7d3460,50,female,2024-04-16_12h21.54.371,stockport_simplified,2022.2.4,Win32,47.84688995,661e456ee6de07e70aa9ef7b,661e5126e993ed2a8dd64f51,,,,,,,,,,,,,,,,,,,,,,,,,,,,,,,,,,264.8859,268.2493,"[4,5,3,2,6,7,1,8]","[[0.3,0.2],[-0.3,0.2]]","[[0.125,-0.2],[-0.125,-0.2]]",0.107407464,-0.212963019,1,0,0,2.8416,o1_image,268.2783,1,268.7817,268.7818,270.7815,0,0,0,0,1,,,,,,,,,,,,,,,,,,,,,,,,,,,,,,,,,,,,,,,,,,,,,,,,,,
,,5ef0a0fbcb93ea5e9a7d3460,50,female,2024-04-16_12h21.54.371,stockport_simplified,2022.2.4,Win32,47.84688995,661e456ee6de07e70aa9ef7b,661e5126e993ed2a8dd64f51,,,,,,,,,,,,,,,,,,,,,,,,,,,,,,,,,,,,,,,,,,,,,,,,,,,,,,,,0,5,5,7,1,A,Y,N,o1_image,stimuli/out1.png,stimuli/correct_out1.png,stimuli/out2.png,,,,,,,,,,,,,,,,,,,,,,,,,,,,,,,,,,,,,,
,,5ef0a0fbcb93ea5e9a7d3460,50,female,2024-04-16_12h21.54.371,stockport_simplified,2022.2.4,Win32,47.84688995,661e456ee6de07e70aa9ef7b,661e5126e993ed2a8dd64f51,,,,,,,,,,,,,,,,,,,,,,,,,,,,,,,,,,270.7828,274.9696,"[4,5,3,2,6,7,1,8]","[[0.3,0.2],[-0.3,0.2]]","[[-0.125,-0.2],[0.125,-0.2]]",-0.117592536,-0.242592621,1,0,0,3.6666,o1_image,274.998,1,275.4919,275.4924,277.4913,0,0,0,0,1,,,,,,,,,,,,,,,,,,,,,,,,,,,,,,,,,,,,,,,,,,,,,,,,,,
,,5ef0a0fbcb93ea5e9a7d3460,50,female,2024-04-16_12h21.54.371,stockport_simplified,2022.2.4,Win32,47.84688995,661e456ee6de07e70aa9ef7b,661e5126e993ed2a8dd64f51,,,,,,,,,,,,,,,,,,,,,,,,,,,,,,,,,,,,,,,,,,,,,,,,,,,,,,,,0,6,6,38,1,A,Y,N,o1_image,stimuli/out1.png,stimuli/correct_out1.png,stimuli/out2.png,,,,,,,,,,,,,,,,,,,,,,,,,,,,,,,,,,,,,,
,,5ef0a0fbcb93ea5e9a7d3460,50,female,2024-04-16_12h21.54.371,stockport_simplified,2022.2.4,Win32,47.84688995,661e456ee6de07e70aa9ef7b,661e5126e993ed2a8dd64f51,,,,,,,,,,,,,,,,,,,,,,,,,,,,,,,,,,277.4937,282.2848,"[4,5,3,2,6,7,1,8]","[[0.3,0.2],[-0.3,0.2]]","[[0.125,-0.2],[-0.125,-0.2]]",0.107407464,-0.197222222,1,0,0,4.2687,o1_image,282.3078,0,282.8024,282.8024,284.8028,0,0,0,0,1,,,,,,,,,,,,,,,,,,,,,,,,,,,,,,,,,,,,,,,,,,,,,,,,,,
,,5ef0a0fbcb93ea5e9a7d3460,50,female,2024-04-16_12h21.54.371,stockport_simplified,2022.2.4,Win32,47.84688995,661e456ee6de07e70aa9ef7b,661e5126e993ed2a8dd64f51,,,,,,,,,,,,,,,,,,,,,,,,,,,,,,,,,,,,,,,,,,,,,,,,,,,,,,,,0,7,7,59,1,N,M,D,o2_image,stimuli/out2.png,stimuli/out1.png,stimuli/correct_out2.png,,,,,,,,,,,,,,,,,,,,,,,,,,,,,,,,,,,,,,
,,5ef0a0fbcb93ea5e9a7d3460,50,female,2024-04-16_12h21.54.371,stockport_simplified,2022.2.4,Win32,47.84688995,661e456ee6de07e70aa9ef7b,661e5126e993ed2a8dd64f51,,,,,,,,,,,,,,,,,,,,,,,,,,,,,,,,,,284.8042,290.157,"[4,5,3,2,6,7,1,8]","[[-0.3,0.2],[0.3,0.2]]","[[-0.125,-0.2],[0.125,-0.2]]",-0.144444444,-0.211111111,1,0,0,4.8287,o1_image,290.1855,1,290.6776,290.6777,292.6775,0,0,0,0,1,,,,,,,,,,,,,,,,,,,,,,,,,,,,,,,,,,,,,,,,,,,,,,,,,,
,,5ef0a0fbcb93ea5e9a7d3460,50,female,2024-04-16_12h21.54.371,stockport_simplified,2022.2.4,Win32,47.84688995,661e456ee6de07e70aa9ef7b,661e5126e993ed2a8dd64f51,,,,,,,,,,,,,,,,,,,,,,,,,,,,,,,,,,,,,,,,,,,,,,,,,,,,,,,,0,8,8,5,1,A,Y,N,o1_image,stimuli/out1.png,stimuli/correct_out1.png,stimuli/out2.png,,,,,,,,,,,,,,,,,,,,,,,,,,,,,,,,,,,,,,
,,5ef0a0fbcb93ea5e9a7d3460,50,female,2024-04-16_12h21.54.371,stockport_simplified,2022.2.4,Win32,47.84688995,661e456ee6de07e70aa9ef7b,661e5126e993ed2a8dd64f51,,,,,,,,,,,,,,,,,,,,,,,,,,,,,,,,,,292.6788,294.6781,"[4,5,3,2,6,7,1,8]","[[-0.3,0.2],[0.3,0.2]]","[[0.125,-0.2],[-0.125,-0.2]]",0.126851908,-0.189814843,1,0,0,1.479,o1_image,294.6815,1,295.178,295.1781,297.1777,0,0,0,0,1,,,,,,,,,,,,,,,,,,,,,,,,,,,,,,,,,,,,,,,,,,,,,,,,,,
,,5ef0a0fbcb93ea5e9a7d3460,50,female,2024-04-16_12h21.54.371,stockport_simplified,2022.2.4,Win32,47.84688995,661e456ee6de07e70aa9ef7b,661e5126e993ed2a8dd64f51,,,,,,,,,,,,,,,,,,,,,,,,,,,,,,,,,,,,,,,,,,,,,,,,,,,,,,,,0,9,9,36,1,A,Y,N,o1_image,stimuli/out1.png,stimuli/correct_out1.png,stimuli/out2.png,,,,,,,,,,,,,,,,,,,,,,,,,,,,,,,,,,,,,,
,,5ef0a0fbcb93ea5e9a7d3460,50,female,2024-04-16_12h21.54.371,stockport_simplified,2022.2.4,Win32,47.84688995,661e456ee6de07e70aa9ef7b,661e5126e993ed2a8dd64f51,,,,,,,,,,,,,,,,,,,,,,,,,,,,,,,,,,297.179,299.5426,"[4,5,3,2,6,7,1,8]","[[0.3,0.2],[-0.3,0.2]]","[[-0.125,-0.2],[0.125,-0.2]]",0.104629686,-0.194444444,1,0,0,1.8424,o2_image,299.5448,1,300.033,300.0332,302.0316,0,0,0,0,1,,,,,,,,,,,,,,,,,,,,,,,,,,,,,,,,,,,,,,,,,,,,,,,,,,
,,5ef0a0fbcb93ea5e9a7d3460,50,female,2024-04-16_12h21.54.371,stockport_simplified,2022.2.4,Win32,47.84688995,661e456ee6de07e70aa9ef7b,661e5126e993ed2a8dd64f51,,,,,,,,,,,,,,,,,,,,,,,,,,,,,,,,,,,,,,,,,,,,,,,,,,,,,,,,0,10,10,19,1,B,Y,N,o2_image,stimuli/out2.png,stimuli/out1.png,stimuli/correct_out2.png,,,,,,,,,,,,,,,,,,,,,,,,,,,,,,,,,,,,,,
,,5ef0a0fbcb93ea5e9a7d3460,50,female,2024-04-16_12h21.54.371,stockport_simplified,2022.2.4,Win32,47.84688995,661e456ee6de07e70aa9ef7b,661e5126e993ed2a8dd64f51,,,,,,,,,,,,,,,,,,,,,,,,,,,,,,,,,,302.0324,306.1782,"[4,5,3,2,6,7,1,8]","[[0.3,0.2],[-0.3,0.2]]","[[-0.125,-0.2],[0.125,-0.2]]",0.201851908,-0.227777778,1,0,0,3.6241,o2_image,306.2069,0,306.7028,306.7028,308.6994,0,0,0,0,1,,,,,,,,,,,,,,,,,,,,,,,,,,,,,,,,,,,,,,,,,,,,,,,,,,
,,5ef0a0fbcb93ea5e9a7d3460,50,female,2024-04-16_12h21.54.371,stockport_simplified,2022.2.4,Win32,47.84688995,661e456ee6de07e70aa9ef7b,661e5126e993ed2a8dd64f51,,,,,,,,,,,,,,,,,,,,,,,,,,,,,,,,,,,,,,,,,,,,,,,,,,,,,,,,0,11,11,0,1,A,X,N,o1_image,stimuli/out1.png,stimuli/correct_out1.png,stimuli/out2.png,,,,,,,,,,,,,,,,,,,,,,,,,,,,,,,,,,,,,,
,,5ef0a0fbcb93ea5e9a7d3460,50,female,2024-04-16_12h21.54.371,stockport_simplified,2022.2.4,Win32,47.84688995,661e456ee6de07e70aa9ef7b,661e5126e993ed2a8dd64f51,,,,,,,,,,,,,,,,,,,,,,,,,,,,,,,,,,308.7016,314.2625,"[4,5,3,2,6,7,1,8]","[[-0.3,0.2],[0.3,0.2]]","[[0.125,-0.2],[-0.125,-0.2]]",-0.129629601,-0.202777778,1,0,0,5.0388,o2_image,314.2862,0,314.7817,314.7817,316.7821,0,0,0,0,1,,,,,,,,,,,,,,,,,,,,,,,,,,,,,,,,,,,,,,,,,,,,,,,,,,
,,5ef0a0fbcb93ea5e9a7d3460,50,female,2024-04-16_12h21.54.371,stockport_simplified,2022.2.4,Win32,47.84688995,661e456ee6de07e70aa9ef7b,661e5126e993ed2a8dd64f51,,,,,,,,,,,,,,,,,,,,,,,,,,,,,,,,,,,,,,,,,,,,,,,,,,,,,,,,0,12,12,6,1,A,Y,N,o1_image,stimuli/out1.png,stimuli/correct_out1.png,stimuli/out2.png,,,,,,,,,,,,,,,,,,,,,,,,,,,,,,,,,,,,,,
,,5ef0a0fbcb93ea5e9a7d3460,50,female,2024-04-16_12h21.54.371,stockport_simplified,2022.2.4,Win32,47.84688995,661e456ee6de07e70aa9ef7b,661e5126e993ed2a8dd64f51,,,,,,,,,,,,,,,,,,,,,,,,,,,,,,,,,,316.7832,319.1575,"[4,5,3,2,6,7,1,8]","[[0.3,0.2],[-0.3,0.2]]","[[0.125,-0.2],[-0.125,-0.2]]",0.110185242,-0.198148176,1,0,0,1.8534,o1_image,319.1601,1,319.6588,319.6591,321.6566,0,0,0,0,1,,,,,,,,,,,,,,,,,,,,,,,,,,,,,,,,,,,,,,,,,,,,,,,,,,
,,5ef0a0fbcb93ea5e9a7d3460,50,female,2024-04-16_12h21.54.371,stockport_simplified,2022.2.4,Win32,47.84688995,661e456ee6de07e70aa9ef7b,661e5126e993ed2a8dd64f51,,,,,,,,,,,,,,,,,,,,,,,,,,,,,,,,,,,,,,,,,,,,,,,,,,,,,,,,0,13,13,32,1,A,X,N,o1_image,stimuli/out1.png,stimuli/correct_out1.png,stimuli/out2.png,,,,,,,,,,,,,,,,,,,,,,,,,,,,,,,,,,,,,,
,,5ef0a0fbcb93ea5e9a7d3460,50,female,2024-04-16_12h21.54.371,stockport_simplified,2022.2.4,Win32,47.84688995,661e456ee6de07e70aa9ef7b,661e5126e993ed2a8dd64f51,,,,,,,,,,,,,,,,,,,,,,,,,,,,,,,,,,321.6572,324.7937,"[4,5,3,2,6,7,1,8]","[[0.3,0.2],[-0.3,0.2]]","[[-0.125,-0.2],[0.125,-0.2]]",0.087037065,-0.2,1,0,0,2.6144,o2_image,324.7957,1,325.2823,325.2823,327.2833,0,0,0,0,1,,,,,,,,,,,,,,,,,,,,,,,,,,,,,,,,,,,,,,,,,,,,,,,,,,
,,5ef0a0fbcb93ea5e9a7d3460,50,female,2024-04-16_12h21.54.371,stockport_simplified,2022.2.4,Win32,47.84688995,661e456ee6de07e70aa9ef7b,661e5126e993ed2a8dd64f51,,,,,,,,,,,,,,,,,,,,,,,,,,,,,,,,,,,,,,,,,,,,,,,,,,,,,,,,0,14,14,41,1,B,X,N,o2_image,stimuli/out2.png,stimuli/out1.png,stimuli/correct_out2.png,,,,,,,,,,,,,,,,,,,,,,,,,,,,,,,,,,,,,,
,,5ef0a0fbcb93ea5e9a7d3460,50,female,2024-04-16_12h21.54.371,stockport_simplified,2022.2.4,Win32,47.84688995,661e456ee6de07e70aa9ef7b,661e5126e993ed2a8dd64f51,,,,,,,,,,,,,,,,,,,,,,,,,,,,,,,,,,327.2856,330.532,"[4,5,3,2,6,7,1,8]","[[-0.3,0.2],[0.3,0.2]]","[[0.125,-0.2],[-0.125,-0.2]]",-0.11851849,-0.200925954,1,0,0,2.7404,o2_image,330.5459,1,331.0335,331.0337,333.0344,0,0,0,0,1,,,,,,,,,,,,,,,,,,,,,,,,,,,,,,,,,,,,,,,,,,,,,,,,,,
,,5ef0a0fbcb93ea5e9a7d3460,50,female,2024-04-16_12h21.54.371,stockport_simplified,2022.2.4,Win32,47.84688995,661e456ee6de07e70aa9ef7b,661e5126e993ed2a8dd64f51,,,,,,,,,,,,,,,,,,,,,,,,,,,,,,,,,,,,,,,,,,,,,,,,,,,,,,,,0,15,15,47,1,B,Y,N,o2_image,stimuli/out2.png,stimuli/out1.png,stimuli/correct_out2.png,,,,,,,,,,,,,,,,,,,,,,,,,,,,,,,,,,,,,,
,,5ef0a0fbcb93ea5e9a7d3460,50,female,2024-04-16_12h21.54.371,stockport_simplified,2022.2.4,Win32,47.84688995,661e456ee6de07e70aa9ef7b,661e5126e993ed2a8dd64f51,,,,,,,,,,,,,,,,,,,,,,,,,,,,,,,,,,333.0363,335.5336,"[4,5,3,2,6,7,1,8]","[[-0.3,0.2],[0.3,0.2]]","[[-0.125,-0.2],[0.125,-0.2]]",0.112037065,-0.199074088,1,0,0,1.9777,o2_image,335.5363,1,336.034,336.0343,338.0345,0,0,0,0,1,,,,,,,,,,,,,,,,,,,,,,,,,,,,,,,,,,,,,,,,,,,,,,,,,,
,,5ef0a0fbcb93ea5e9a7d3460,50,female,2024-04-16_12h21.54.371,stockport_simplified,2022.2.4,Win32,47.84688995,661e456ee6de07e70aa9ef7b,661e5126e993ed2a8dd64f51,,,,,,,,,,,,,,,,,,,,,,,,,,,,,,,,,,,,,,,,,,,,,,,,,,,,,,,,0,16,16,12,1,B,X,N,o2_image,stimuli/out2.png,stimuli/out1.png,stimuli/correct_out2.png,,,,,,,,,,,,,,,,,,,,,,,,,,,,,,,,,,,,,,
,,5ef0a0fbcb93ea5e9a7d3460,50,female,2024-04-16_12h21.54.371,stockport_simplified,2022.2.4,Win32,47.84688995,661e456ee6de07e70aa9ef7b,661e5126e993ed2a8dd64f51,,,,,,,,,,,,,,,,,,,,,,,,,,,,,,,,,,338.0361,341.1155,"[4,5,3,2,6,7,1,8]","[[-0.3,0.2],[0.3,0.2]]","[[-0.125,-0.2],[0.125,-0.2]]",0.112037065,-0.199074088,1,0,0,2.5574,o2_image,341.1172,1,341.6157,341.6157,343.6167,0,0,0,0,1,,,,,,,,,,,,,,,,,,,,,,,,,,,,,,,,,,,,,,,,,,,,,,,,,,
,,5ef0a0fbcb93ea5e9a7d3460,50,female,2024-04-16_12h21.54.371,stockport_simplified,2022.2.4,Win32,47.84688995,661e456ee6de07e70aa9ef7b,661e5126e993ed2a8dd64f51,,,,,,,,,,,,,,,,,,,,,,,,,,,,,,,,,,,,,,,,,,,,,,,,,,,,,,,,0,17,17,26,1,N,M,D,o2_image,stimuli/out2.png,stimuli/out1.png,stimuli/correct_out2.png,,,,,,,,,,,,,,,,,,,,,,,,,,,,,,,,,,,,,,
,,5ef0a0fbcb93ea5e9a7d3460,50,female,2024-04-16_12h21.54.371,stockport_simplified,2022.2.4,Win32,47.84688995,661e456ee6de07e70aa9ef7b,661e5126e993ed2a8dd64f51,,,,,,,,,,,,,,,,,,,,,,,,,,,,,,,,,,343.6193,348.512,"[4,5,3,2,6,7,1,8]","[[-0.3,0.2],[0.3,0.2]]","[[0.125,-0.2],[-0.125,-0.2]]",0.123148176,-0.220370399,1,0,0,4.3856,o1_image,348.5374,1,349.0325,349.0326,351.0319,0,0,0,0,1,,,,,,,,,,,,,,,,,,,,,,,,,,,,,,,,,,,,,,,,,,,,,,,,,,
,,5ef0a0fbcb93ea5e9a7d3460,50,female,2024-04-16_12h21.54.371,stockport_simplified,2022.2.4,Win32,47.84688995,661e456ee6de07e70aa9ef7b,661e5126e993ed2a8dd64f51,,,,,,,,,,,,,,,,,,,,,,,,,,,,,,,,,,,,,,,,,,,,,,,,,,,,,,,,0,18,18,9,1,A,Y,N,o1_image,stimuli/out1.png,stimuli/correct_out1.png,stimuli/out2.png,,,,,,,,,,,,,,,,,,,,,,,,,,,,,,,,,,,,,,
,,5ef0a0fbcb93ea5e9a7d3460,50,female,2024-04-16_12h21.54.371,stockport_simplified,2022.2.4,Win32,47.84688995,661e456ee6de07e70aa9ef7b,661e5126e993ed2a8dd64f51,,,,,,,,,,,,,,,,,,,,,,,,,,,,,,,,,,351.0326,353.1178,"[4,5,3,2,6,7,1,8]","[[0.3,0.2],[-0.3,0.2]]","[[0.125,-0.2],[-0.125,-0.2]]",-0.066666667,-0.225,1,0,0,1.5628,o2_image,353.1201,1,353.6162,353.6164,355.6172,0,0,0,0,1,,,,,,,,,,,,,,,,,,,,,,,,,,,,,,,,,,,,,,,,,,,,,,,,,,
,,5ef0a0fbcb93ea5e9a7d3460,50,female,2024-04-16_12h21.54.371,stockport_simplified,2022.2.4,Win32,47.84688995,661e456ee6de07e70aa9ef7b,661e5126e993ed2a8dd64f51,,,,,,,,,,,,,,,,,,,,,,,,,,,,,,,,,,,,,,,,,,,,,,,,,,,,,,,,0,19,19,10,1,B,X,N,o2_image,stimuli/out2.png,stimuli/out1.png,stimuli/correct_out2.png,,,,,,,,,,,,,,,,,,,,,,,,,,,,,,,,,,,,,,
,,5ef0a0fbcb93ea5e9a7d3460,50,female,2024-04-16_12h21.54.371,stockport_simplified,2022.2.4,Win32,47.84688995,661e456ee6de07e70aa9ef7b,661e5126e993ed2a8dd64f51,,,,,,,,,,,,,,,,,,,,,,,,,,,,,,,,,,355.6195,357.9282,"[4,5,3,2,6,7,1,8]","[[-0.3,0.2],[0.3,0.2]]","[[-0.125,-0.2],[0.125,-0.2]]",0.101851908,-0.232407464,1,0,0,1.8034,o2_image,357.9422,0,358.4284,358.4285,360.4278,0,0,0,0,1,,,,,,,,,,,,,,,,,,,,,,,,,,,,,,,,,,,,,,,,,,,,,,,,,,
,,5ef0a0fbcb93ea5e9a7d3460,50,female,2024-04-16_12h21.54.371,stockport_simplified,2022.2.4,Win32,47.84688995,661e456ee6de07e70aa9ef7b,661e5126e993ed2a8dd64f51,,,,,,,,,,,,,,,,,,,,,,,,,,,,,,,,,,,,,,,,,,,,,,,,,,,,,,,,0,20,20,39,1,A,Y,N,o1_image,stimuli/out1.png,stimuli/correct_out1.png,stimuli/out2.png,,,,,,,,,,,,,,,,,,,,,,,,,,,,,,,,,,,,,,
,,5ef0a0fbcb93ea5e9a7d3460,50,female,2024-04-16_12h21.54.371,stockport_simplified,2022.2.4,Win32,47.84688995,661e456ee6de07e70aa9ef7b,661e5126e993ed2a8dd64f51,,,,,,,,,,,,,,,,,,,,,,,,,,,,,,,,,,360.4283,363.8265,"[4,5,3,2,6,7,1,8]","[[-0.3,0.2],[0.3,0.2]]","[[0.125,-0.2],[-0.125,-0.2]]",-0.082407379,-0.228703732,1,0,0,2.8753,o2_image,363.842,0,364.3449,364.3449,366.3458,0,0,0,0,1,,,,,,,,,,,,,,,,,,,,,,,,,,,,,,,,,,,,,,,,,,,,,,,,,,
,,5ef0a0fbcb93ea5e9a7d3460,50,female,2024-04-16_12h21.54.371,stockport_simplified,2022.2.4,Win32,47.84688995,661e456ee6de07e70aa9ef7b,661e5126e993ed2a8dd64f51,,,,,,,,,,,,,,,,,,,,,,,,,,,,,,,,,,,,,,,,,,,,,,,,,,,,,,,,0,21,21,31,1,A,X,N,o1_image,stimuli/out1.png,stimuli/correct_out1.png,stimuli/out2.png,,,,,,,,,,,,,,,,,,,,,,,,,,,,,,,,,,,,,,
,,5ef0a0fbcb93ea5e9a7d3460,50,female,2024-04-16_12h21.54.371,stockport_simplified,2022.2.4,Win32,47.84688995,661e456ee6de07e70aa9ef7b,661e5126e993ed2a8dd64f51,,,,,,,,,,,,,,,,,,,,,,,,,,,,,,,,,,366.3486,368.8064,"[4,5,3,2,6,7,1,8]","[[0.3,0.2],[-0.3,0.2]]","[[0.125,-0.2],[-0.125,-0.2]]",0.112963019,-0.201851866,1,0,0,1.9363,o1_image,368.8087,1,369.3129,369.313,371.3045,0,0,0,0,1,,,,,,,,,,,,,,,,,,,,,,,,,,,,,,,,,,,,,,,,,,,,,,,,,,
,,5ef0a0fbcb93ea5e9a7d3460,50,female,2024-04-16_12h21.54.371,stockport_simplified,2022.2.4,Win32,47.84688995,661e456ee6de07e70aa9ef7b,661e5126e993ed2a8dd64f51,,,,,,,,,,,,,,,,,,,,,,,,,,,,,,,,,,,,,,,,,,,,,,,,,,,,,,,,0,22,22,33,1,A,X,N,o1_image,stimuli/out1.png,stimuli/correct_out1.png,stimuli/out2.png,,,,,,,,,,,,,,,,,,,,,,,,,,,,,,,,,,,,,,
,,5ef0a0fbcb93ea5e9a7d3460,50,female,2024-04-16_12h21.54.371,stockport_simplified,2022.2.4,Win32,47.84688995,661e456ee6de07e70aa9ef7b,661e5126e993ed2a8dd64f51,,,,,,,,,,,,,,,,,,,,,,,,,,,,,,,,,,371.3072,374.3663,"[4,5,3,2,6,7,1,8]","[[0.3,0.2],[-0.3,0.2]]","[[0.125,-0.2],[-0.125,-0.2]]",0.117592621,-0.211111111,1,0,0,2.538,o1_image,374.3955,0,374.8868,374.8869,376.8871,0,0,0,0,1,,,,,,,,,,,,,,,,,,,,,,,,,,,,,,,,,,,,,,,,,,,,,,,,,,
,,5ef0a0fbcb93ea5e9a7d3460,50,female,2024-04-16_12h21.54.371,stockport_simplified,2022.2.4,Win32,47.84688995,661e456ee6de07e70aa9ef7b,661e5126e993ed2a8dd64f51,,,,,,,,,,,,,,,,,,,,,,,,,,,,,,,,,,,,,,,,,,,,,,,,,,,,,,,,0,23,23,45,1,B,Y,N,o2_image,stimuli/out2.png,stimuli/out1.png,stimuli/correct_out2.png,,,,,,,,,,,,,,,,,,,,,,,,,,,,,,,,,,,,,,
,,5ef0a0fbcb93ea5e9a7d3460,50,female,2024-04-16_12h21.54.371,stockport_simplified,2022.2.4,Win32,47.84688995,661e456ee6de07e70aa9ef7b,661e5126e993ed2a8dd64f51,,,,,,,,,,,,,,,,,,,,,,,,,,,,,,,,,,376.8884,379.9115,"[4,5,3,2,6,7,1,8]","[[-0.3,0.2],[0.3,0.2]]","[[-0.125,-0.2],[0.125,-0.2]]",0.117592621,-0.211111111,1,0,0,2.5029,o2_image,379.9249,1,380.4289,380.4289,382.4289,0,0,0,0,1,,,,,,,,,,,,,,,,,,,,,,,,,,,,,,,,,,,,,,,,,,,,,,,,,,
,,5ef0a0fbcb93ea5e9a7d3460,50,female,2024-04-16_12h21.54.371,stockport_simplified,2022.2.4,Win32,47.84688995,661e456ee6de07e70aa9ef7b,661e5126e993ed2a8dd64f51,,,,,,,,,,,,,,,,,,,,,,,,,,,,,,,,,,,,,,,,,,,,,,,,,,,,,,,,0,24,24,44,1,B,X,N,o2_image,stimuli/out2.png,stimuli/out1.png,stimuli/correct_out2.png,,,,,,,,,,,,,,,,,,,,,,,,,,,,,,,,,,,,,,
,,5ef0a0fbcb93ea5e9a7d3460,50,female,2024-04-16_12h21.54.371,stockport_simplified,2022.2.4,Win32,47.84688995,661e456ee6de07e70aa9ef7b,661e5126e993ed2a8dd64f51,,,,,,,,,,,,,,,,,,,,,,,,,,,,,,,,,,382.4301,384.3251,"[4,5,3,2,6,7,1,8]","[[-0.3,0.2],[0.3,0.2]]","[[-0.125,-0.2],[0.125,-0.2]]",0.117592621,-0.219444444,1,0,0,1.375,o2_image,384.3278,1,384.8245,384.8246,386.8246,0,0,0,0,1,,,,,,,,,,,,,,,,,,,,,,,,,,,,,,,,,,,,,,,,,,,,,,,,,,
,,5ef0a0fbcb93ea5e9a7d3460,50,female,2024-04-16_12h21.54.371,stockport_simplified,2022.2.4,Win32,47.84688995,661e456ee6de07e70aa9ef7b,661e5126e993ed2a8dd64f51,,,,,,,,,,,,,,,,,,,,,,,,,,,,,,,,,,,,,,,,,,,,,,,,,,,,,,,,0,25,25,14,1,B,X,N,o2_image,stimuli/out2.png,stimuli/out1.png,stimuli/correct_out2.png,,,,,,,,,,,,,,,,,,,,,,,,,,,,,,,,,,,,,,
,,5ef0a0fbcb93ea5e9a7d3460,50,female,2024-04-16_12h21.54.371,stockport_simplified,2022.2.4,Win32,47.84688995,661e456ee6de07e70aa9ef7b,661e5126e993ed2a8dd64f51,,,,,,,,,,,,,,,,,,,,,,,,,,,,,,,,,,386.8258,388.8249,"[4,5,3,2,6,7,1,8]","[[-0.3,0.2],[0.3,0.2]]","[[-0.125,-0.2],[0.125,-0.2]]",-0.154629601,-0.20648151,1,0,0,1.4783,o1_image,388.8274,1,389.3251,389.3252,391.3272,0,0,0,0,1,,,,,,,,,,,,,,,,,,,,,,,,,,,,,,,,,,,,,,,,,,,,,,,,,,
,,5ef0a0fbcb93ea5e9a7d3460,50,female,2024-04-16_12h21.54.371,stockport_simplified,2022.2.4,Win32,47.84688995,661e456ee6de07e70aa9ef7b,661e5126e993ed2a8dd64f51,,,,,,,,,,,,,,,,,,,,,,,,,,,,,,,,,,,,,,,,,,,,,,,,,,,,,,,,0,26,26,1,1,A,X,N,o1_image,stimuli/out1.png,stimuli/correct_out1.png,stimuli/out2.png,,,,,,,,,,,,,,,,,,,,,,,,,,,,,,,,,,,,,,
,,5ef0a0fbcb93ea5e9a7d3460,50,female,2024-04-16_12h21.54.371,stockport_simplified,2022.2.4,Win32,47.84688995,661e456ee6de07e70aa9ef7b,661e5126e993ed2a8dd64f51,,,,,,,,,,,,,,,,,,,,,,,,,,,,,,,,,,391.329,395.0982,"[4,5,3,2,6,7,1,8]","[[-0.3,0.2],[0.3,0.2]]","[[-0.125,-0.2],[0.125,-0.2]]",-0.105555556,-0.225,1,0,0,3.2484,o1_image,395.1241,0,395.6164,395.6165,397.6178,0,0,0,0,1,,,,,,,,,,,,,,,,,,,,,,,,,,,,,,,,,,,,,,,,,,,,,,,,,,
,,5ef0a0fbcb93ea5e9a7d3460,50,female,2024-04-16_12h21.54.371,stockport_simplified,2022.2.4,Win32,47.84688995,661e456ee6de07e70aa9ef7b,661e5126e993ed2a8dd64f51,,,,,,,,,,,,,,,,,,,,,,,,,,,,,,,,,,,,,,,,,,,,,,,,,,,,,,,,0,27,27,18,1,B,Y,N,o2_image,stimuli/out2.png,stimuli/out1.png,stimuli/correct_out2.png,,,,,,,,,,,,,,,,,,,,,,,,,,,,,,,,,,,,,,
,,5ef0a0fbcb93ea5e9a7d3460,50,female,2024-04-16_12h21.54.371,stockport_simplified,2022.2.4,Win32,47.84688995,661e456ee6de07e70aa9ef7b,661e5126e993ed2a8dd64f51,,,,,,,,,,,,,,,,,,,,,,,,,,,,,,,,,,397.62,400.2926,"[4,5,3,2,6,7,1,8]","[[-0.3,0.2],[0.3,0.2]]","[[0.125,-0.2],[-0.125,-0.2]]",-0.070370314,-0.236111111,1,0,0,2.1517,o2_image,400.3069,0,400.805,400.8053,402.8042,0,0,0,0,1,,,,,,,,,,,,,,,,,,,,,,,,,,,,,,,,,,,,,,,,,,,,,,,,,,
,,5ef0a0fbcb93ea5e9a7d3460,50,female,2024-04-16_12h21.54.371,stockport_simplified,2022.2.4,Win32,47.84688995,661e456ee6de07e70aa9ef7b,661e5126e993ed2a8dd64f51,,,,,,,,,,,,,,,,,,,,,,,,,,,,,,,,,,,,,,,,,,,,,,,,,,,,,,,,0,28,28,4,1,A,X,N,o1_image,stimuli/out1.png,stimuli/correct_out1.png,stimuli/out2.png,,,,,,,,,,,,,,,,,,,,,,,,,,,,,,,,,,,,,,
,,5ef0a0fbcb93ea5e9a7d3460,50,female,2024-04-16_12h21.54.371,stockport_simplified,2022.2.4,Win32,47.84688995,661e456ee6de07e70aa9ef7b,661e5126e993ed2a8dd64f51,,,,,,,,,,,,,,,,,,,,,,,,,,,,,,,,,,402.8054,404.639,"[4,5,3,2,6,7,1,8]","[[-0.3,0.2],[0.3,0.2]]","[[-0.125,-0.2],[0.125,-0.2]]",-0.117592536,-0.239814843,1,0,0,1.3119,o1_image,404.6414,0,405.1372,405.1373,407.1373,0,0,0,0,1,,,,,,,,,,,,,,,,,,,,,,,,,,,,,,,,,,,,,,,,,,,,,,,,,,
,,5ef0a0fbcb93ea5e9a7d3460,50,female,2024-04-16_12h21.54.371,stockport_simplified,2022.2.4,Win32,47.84688995,661e456ee6de07e70aa9ef7b,661e5126e993ed2a8dd64f51,,,,,,,,,,,,,,,,,,,,,,,,,,,,,,,,,,,,,,,,,,,,,,,,,,,,,,,,0,29,29,28,1,N,M,D,o2_image,stimuli/out2.png,stimuli/out1.png,stimuli/correct_out2.png,,,,,,,,,,,,,,,,,,,,,,,,,,,,,,,,,,,,,,
,,5ef0a0fbcb93ea5e9a7d3460,50,female,2024-04-16_12h21.54.371,stockport_simplified,2022.2.4,Win32,47.84688995,661e456ee6de07e70aa9ef7b,661e5126e993ed2a8dd64f51,,,,,,,,,,,,,,,,,,,,,,,,,,,,,,,,,,407.1385,412.9108,"[4,5,3,2,6,7,1,8]","[[0.3,0.2],[-0.3,0.2]]","[[0.125,-0.2],[-0.125,-0.2]]",0.144444444,-0.232407464,1,0,0,5.2511,o1_image,412.9399,1,413.4291,413.4291,415.4295,0,0,0,0,1,,,,,,,,,,,,,,,,,,,,,,,,,,,,,,,,,,,,,,,,,,,,,,,,,,
,,5ef0a0fbcb93ea5e9a7d3460,50,female,2024-04-16_12h21.54.371,stockport_simplified,2022.2.4,Win32,47.84688995,661e456ee6de07e70aa9ef7b,661e5126e993ed2a8dd64f51,,,,,,,,,,,,,,,,,,,,,,,,,,,,,,,,,,,,,,,,,,,,,,,,,,,,,,,,0,30,30,23,1,N,M,C,o1_image,stimuli/out1.png,stimuli/correct_out1.png,stimuli/out2.png,,,,,,,,,,,,,,,,,,,,,,,,,,,,,,,,,,,,,,
,,5ef0a0fbcb93ea5e9a7d3460,50,female,2024-04-16_12h21.54.371,stockport_simplified,2022.2.4,Win32,47.84688995,661e456ee6de07e70aa9ef7b,661e5126e993ed2a8dd64f51,,,,,,,,,,,,,,,,,,,,,,,,,,,,,,,,,,415.4307,420.9921,"[4,5,3,2,6,7,1,8]","[[-0.3,0.2],[0.3,0.2]]","[[-0.125,-0.2],[0.125,-0.2]]",0.089814843,-0.228703732,1,0,0,5.0394,o2_image,421.0188,1,421.513,421.5131,423.5125,0,0,0,0,1,,,,,,,,,,,,,,,,,,,,,,,,,,,,,,,,,,,,,,,,,,,,,,,,,,
,,5ef0a0fbcb93ea5e9a7d3460,50,female,2024-04-16_12h21.54.371,stockport_simplified,2022.2.4,Win32,47.84688995,661e456ee6de07e70aa9ef7b,661e5126e993ed2a8dd64f51,,,,,,,,,,,,,,,,,,,,,,,,,,,,,,,,,,,,,,,,,,,,,,,,,,,,,,,,0,31,31,42,1,B,X,N,o2_image,stimuli/out2.png,stimuli/out1.png,stimuli/correct_out2.png,,,,,,,,,,,,,,,,,,,,,,,,,,,,,,,,,,,,,,
,,5ef0a0fbcb93ea5e9a7d3460,50,female,2024-04-16_12h21.54.371,stockport_simplified,2022.2.4,Win32,47.84688995,661e456ee6de07e70aa9ef7b,661e5126e993ed2a8dd64f51,,,,,,,,,,,,,,,,,,,,,,,,,,,,,,,,,,423.5136,427.4514,"[4,5,3,2,6,7,1,8]","[[0.3,0.2],[-0.3,0.2]]","[[-0.125,-0.2],[0.125,-0.2]]",0.090740797,-0.228703732,1,0,0,3.4178,o2_image,427.4801,0,427.9712,427.9713,429.9708,0,0,0,0,1,,,,,,,,,,,,,,,,,,,,,,,,,,,,,,,,,,,,,,,,,,,,,,,,,,
,,5ef0a0fbcb93ea5e9a7d3460,50,female,2024-04-16_12h21.54.371,stockport_simplified,2022.2.4,Win32,47.84688995,661e456ee6de07e70aa9ef7b,661e5126e993ed2a8dd64f51,,,,,,,,,,,,,,,,,,,,,,,,,,,,,,,,,,,,,,,,,,,,,,,,,,,,,,,,0,32,32,51,1,N,M,C,o1_image,stimuli/out1.png,stimuli/correct_out1.png,stimuli/out2.png,,,,,,,,,,,,,,,,,,,,,,,,,,,,,,,,,,,,,,
,,5ef0a0fbcb93ea5e9a7d3460,50,female,2024-04-16_12h21.54.371,stockport_simplified,2022.2.4,Win32,47.84688995,661e456ee6de07e70aa9ef7b,661e5126e993ed2a8dd64f51,,,,,,,,,,,,,,,,,,,,,,,,,,,,,,,,,,429.9721,436.7422,"[4,5,3,2,6,7,1,8]","[[0.3,0.2],[-0.3,0.2]]","[[0.125,-0.2],[-0.125,-0.2]]",-0.103703647,-0.242592621,1,0,0,6.25,o2_image,436.7682,0,437.2632,437.2633,439.2638,0,0,0,0,1,,,,,,,,,,,,,,,,,,,,,,,,,,,,,,,,,,,,,,,,,,,,,,,,,,
,,5ef0a0fbcb93ea5e9a7d3460,50,female,2024-04-16_12h21.54.371,stockport_simplified,2022.2.4,Win32,47.84688995,661e456ee6de07e70aa9ef7b,661e5126e993ed2a8dd64f51,,,,,,,,,,,,,,,,,,,,,,,,,,,,,,,,,,,,,,,,,,,,,,,,,,,,,,,,0,33,33,20,1,N,M,C,o1_image,stimuli/out1.png,stimuli/correct_out1.png,stimuli/out2.png,,,,,,,,,,,,,,,,,,,,,,,,,,,,,,,,,,,,,,
,,5ef0a0fbcb93ea5e9a7d3460,50,female,2024-04-16_12h21.54.371,stockport_simplified,2022.2.4,Win32,47.84688995,661e456ee6de07e70aa9ef7b,661e5126e993ed2a8dd64f51,,,,,,,,,,,,,,,,,,,,,,,,,,,,,,,,,,439.2661,442.2231,"[4,5,3,2,6,7,1,8]","[[-0.3,0.2],[0.3,0.2]]","[[0.125,-0.2],[-0.125,-0.2]]",-0.103703647,-0.242592621,1,0,0,2.4296,o2_image,442.2408,1,442.7419,442.7421,444.7418,0,0,0,0,1,,,,,,,,,,,,,,,,,,,,,,,,,,,,,,,,,,,,,,,,,,,,,,,,,,
,,5ef0a0fbcb93ea5e9a7d3460,50,female,2024-04-16_12h21.54.371,stockport_simplified,2022.2.4,Win32,47.84688995,661e456ee6de07e70aa9ef7b,661e5126e993ed2a8dd64f51,,,,,,,,,,,,,,,,,,,,,,,,,,,,,,,,,,,,,,,,,,,,,,,,,,,,,,,,0,34,34,13,1,B,X,N,o2_image,stimuli/out2.png,stimuli/out1.png,stimuli/correct_out2.png,,,,,,,,,,,,,,,,,,,,,,,,,,,,,,,,,,,,,,
,,5ef0a0fbcb93ea5e9a7d3460,50,female,2024-04-16_12h21.54.371,stockport_simplified,2022.2.4,Win32,47.84688995,661e456ee6de07e70aa9ef7b,661e5126e993ed2a8dd64f51,,,,,,,,,,,,,,,,,,,,,,,,,,,,,,,,,,444.7431,447.0155,"[4,5,3,2,6,7,1,8]","[[-0.3,0.2],[0.3,0.2]]","[[-0.125,-0.2],[0.125,-0.2]]",-0.103703647,-0.241666667,1,0,0,1.7503,o1_image,447.0177,1,447.5128,447.5129,449.5128,0,0,0,0,1,,,,,,,,,,,,,,,,,,,,,,,,,,,,,,,,,,,,,,,,,,,,,,,,,,
,,5ef0a0fbcb93ea5e9a7d3460,50,female,2024-04-16_12h21.54.371,stockport_simplified,2022.2.4,Win32,47.84688995,661e456ee6de07e70aa9ef7b,661e5126e993ed2a8dd64f51,,,,,,,,,,,,,,,,,,,,,,,,,,,,,,,,,,,,,,,,,,,,,,,,,,,,,,,,0,35,35,24,1,N,M,C,o1_image,stimuli/out1.png,stimuli/correct_out1.png,stimuli/out2.png,,,,,,,,,,,,,,,,,,,,,,,,,,,,,,,,,,,,,,
,,5ef0a0fbcb93ea5e9a7d3460,50,female,2024-04-16_12h21.54.371,stockport_simplified,2022.2.4,Win32,47.84688995,661e456ee6de07e70aa9ef7b,661e5126e993ed2a8dd64f51,,,,,,,,,,,,,,,,,,,,,,,,,,,,,,,,,,449.514,450.8257,"[4,5,3,2,6,7,1,8]","[[0.3,0.2],[-0.3,0.2]]","[[-0.125,-0.2],[0.125,-0.2]]",-0.103703647,-0.241666667,1,0,0,0.7915,o1_image,450.8282,1,451.3249,451.325,453.3255,0,0,0,0,1,,,,,,,,,,,,,,,,,,,,,,,,,,,,,,,,,,,,,,,,,,,,,,,,,,
,,5ef0a0fbcb93ea5e9a7d3460,50,female,2024-04-16_12h21.54.371,stockport_simplified,2022.2.4,Win32,47.84688995,661e456ee6de07e70aa9ef7b,661e5126e993ed2a8dd64f51,,,,,,,,,,,,,,,,,,,,,,,,,,,,,,,,,,,,,,,,,,,,,,,,,,,,,,,,0,36,36,50,1,N,M,C,o1_image,stimuli/out1.png,stimuli/correct_out1.png,stimuli/out2.png,,,,,,,,,,,,,,,,,,,,,,,,,,,,,,,,,,,,,,
,,5ef0a0fbcb93ea5e9a7d3460,50,female,2024-04-16_12h21.54.371,stockport_simplified,2022.2.4,Win32,47.84688995,661e456ee6de07e70aa9ef7b,661e5126e993ed2a8dd64f51,,,,,,,,,,,,,,,,,,,,,,,,,,,,,,,,,,453.3267,458.8252,"[4,5,3,2,6,7,1,8]","[[-0.3,0.2],[0.3,0.2]]","[[0.125,-0.2],[-0.125,-0.2]]",0.129629686,-0.233333333,1,0,0,4.9773,o1_image,458.8376,0,459.3281,459.3282,461.3254,0,0,0,0,1,,,,,,,,,,,,,,,,,,,,,,,,,,,,,,,,,,,,,,,,,,,,,,,,,,
,,5ef0a0fbcb93ea5e9a7d3460,50,female,2024-04-16_12h21.54.371,stockport_simplified,2022.2.4,Win32,47.84688995,661e456ee6de07e70aa9ef7b,661e5126e993ed2a8dd64f51,,,,,,,,,,,,,,,,,,,,,,,,,,,,,,,,,,,,,,,,,,,,,,,,,,,,,,,,0,37,37,49,1,B,Y,N,o2_image,stimuli/out2.png,stimuli/out1.png,stimuli/correct_out2.png,,,,,,,,,,,,,,,,,,,,,,,,,,,,,,,,,,,,,,
,,5ef0a0fbcb93ea5e9a7d3460,50,female,2024-04-16_12h21.54.371,stockport_simplified,2022.2.4,Win32,47.84688995,661e456ee6de07e70aa9ef7b,661e5126e993ed2a8dd64f51,,,,,,,,,,,,,,,,,,,,,,,,,,,,,,,,,,461.3267,463.0344,"[4,5,3,2,6,7,1,8]","[[-0.3,0.2],[0.3,0.2]]","[[0.125,-0.2],[-0.125,-0.2]]",0.125,-0.233333333,1,0,0,1.1882,o1_image,463.0364,0,463.5338,463.534,465.5384,0,0,0,0,1,,,,,,,,,,,,,,,,,,,,,,,,,,,,,,,,,,,,,,,,,,,,,,,,,,
,,5ef0a0fbcb93ea5e9a7d3460,50,female,2024-04-16_12h21.54.371,stockport_simplified,2022.2.4,Win32,47.84688995,661e456ee6de07e70aa9ef7b,661e5126e993ed2a8dd64f51,,,,,,,,,,,,,,,,,,,,,,,,,,,,,,,,,,,,,,,,,,,,,,,,,,,,,,,,0,38,38,43,1,B,X,N,o2_image,stimuli/out2.png,stimuli/out1.png,stimuli/correct_out2.png,,,,,,,,,,,,,,,,,,,,,,,,,,,,,,,,,,,,,,
,,5ef0a0fbcb93ea5e9a7d3460,50,female,2024-04-16_12h21.54.371,stockport_simplified,2022.2.4,Win32,47.84688995,661e456ee6de07e70aa9ef7b,661e5126e993ed2a8dd64f51,,,,,,,,,,,,,,,,,,,,,,,,,,,,,,,,,,465.5395,468.6585,"[4,5,3,2,6,7,1,8]","[[0.3,0.2],[-0.3,0.2]]","[[0.125,-0.2],[-0.125,-0.2]]",0.097222222,-0.210185199,1,0,0,2.5939,o1_image,468.6708,1,469.1617,469.1619,471.1604,0,0,0,0,1,,,,,,,,,,,,,,,,,,,,,,,,,,,,,,,,,,,,,,,,,,,,,,,,,,
,,5ef0a0fbcb93ea5e9a7d3460,50,female,2024-04-16_12h21.54.371,stockport_simplified,2022.2.4,Win32,47.84688995,661e456ee6de07e70aa9ef7b,661e5126e993ed2a8dd64f51,,,,,,,,,,,,,,,,,,,,,,,,,,,,,,,,,,,,,,,,,,,,,,,,,,,,,,,,0,39,39,22,1,N,M,C,o1_image,stimuli/out1.png,stimuli/correct_out1.png,stimuli/out2.png,,,,,,,,,,,,,,,,,,,,,,,,,,,,,,,,,,,,,,
,,5ef0a0fbcb93ea5e9a7d3460,50,female,2024-04-16_12h21.54.371,stockport_simplified,2022.2.4,Win32,47.84688995,661e456ee6de07e70aa9ef7b,661e5126e993ed2a8dd64f51,,,,,,,,,,,,,,,,,,,,,,,,,,,,,,,,,,471.1626,474.1386,"[4,5,3,2,6,7,1,8]","[[0.3,0.2],[-0.3,0.2]]","[[-0.125,-0.2],[0.125,-0.2]]",0.092592621,-0.219444444,1,0,0,2.4545,o2_image,474.1672,0,474.6587,474.6588,476.6599,0,0,0,0,1,,,,,,,,,,,,,,,,,,,,,,,,,,,,,,,,,,,,,,,,,,,,,,,,,,
,,5ef0a0fbcb93ea5e9a7d3460,50,female,2024-04-16_12h21.54.371,stockport_simplified,2022.2.4,Win32,47.84688995,661e456ee6de07e70aa9ef7b,661e5126e993ed2a8dd64f51,,,,,,,,,,,,,,,,,,,,,,,,,,,,,,,,,,,,,,,,,,,,,,,,,,,,,,,,0,40,40,30,1,A,X,N,o1_image,stimuli/out1.png,stimuli/correct_out1.png,stimuli/out2.png,,,,,,,,,,,,,,,,,,,,,,,,,,,,,,,,,,,,,,
,,5ef0a0fbcb93ea5e9a7d3460,50,female,2024-04-16_12h21.54.371,stockport_simplified,2022.2.4,Win32,47.84688995,661e456ee6de07e70aa9ef7b,661e5126e993ed2a8dd64f51,,,,,,,,,,,,,,,,,,,,,,,,,,,,,,,,,,476.6621,478.2742,"[4,5,3,2,6,7,1,8]","[[0.3,0.2],[-0.3,0.2]]","[[-0.125,-0.2],[0.125,-0.2]]",0.091666667,-0.222222222,1,0,0,1.0905,o2_image,478.2757,1,478.7632,478.7632,480.7632,0,0,0,0,1,,,,,,,,,,,,,,,,,,,,,,,,,,,,,,,,,,,,,,,,,,,,,,,,,,
,,5ef0a0fbcb93ea5e9a7d3460,50,female,2024-04-16_12h21.54.371,stockport_simplified,2022.2.4,Win32,47.84688995,661e456ee6de07e70aa9ef7b,661e5126e993ed2a8dd64f51,,,,,,,,,,,,,,,,,,,,,,,,,,,,,,,,,,,,,,,,,,,,,,,,,,,,,,,,0,41,41,16,1,B,Y,N,o2_image,stimuli/out2.png,stimuli/out1.png,stimuli/correct_out2.png,,,,,,,,,,,,,,,,,,,,,,,,,,,,,,,,,,,,,,
,,5ef0a0fbcb93ea5e9a7d3460,50,female,2024-04-16_12h21.54.371,stockport_simplified,2022.2.4,Win32,47.84688995,661e456ee6de07e70aa9ef7b,661e5126e993ed2a8dd64f51,,,,,,,,,,,,,,,,,,,,,,,,,,,,,,,,,,480.7643,484.9723,"[4,5,3,2,6,7,1,8]","[[0.3,0.2],[-0.3,0.2]]","[[-0.125,-0.2],[0.125,-0.2]]",0.107407464,-0.225925954,1,0,0,3.6862,o2_image,485.0005,1,485.4919,485.4919,487.4926,0,0,0,0,1,,,,,,,,,,,,,,,,,,,,,,,,,,,,,,,,,,,,,,,,,,,,,,,,,,
,,5ef0a0fbcb93ea5e9a7d3460,50,female,2024-04-16_12h21.54.371,stockport_simplified,2022.2.4,Win32,47.84688995,661e456ee6de07e70aa9ef7b,661e5126e993ed2a8dd64f51,,,,,,,,,,,,,,,,,,,,,,,,,,,,,,,,,,,,,,,,,,,,,,,,,,,,,,,,0,42,42,57,1,N,M,D,o2_image,stimuli/out2.png,stimuli/out1.png,stimuli/correct_out2.png,,,,,,,,,,,,,,,,,,,,,,,,,,,,,,,,,,,,,,
,,5ef0a0fbcb93ea5e9a7d3460,50,female,2024-04-16_12h21.54.371,stockport_simplified,2022.2.4,Win32,47.84688995,661e456ee6de07e70aa9ef7b,661e5126e993ed2a8dd64f51,,,,,,,,,,,,,,,,,,,,,,,,,,,,,,,,,,487.4938,489.6802,"[4,5,3,2,6,7,1,8]","[[0.3,0.2],[-0.3,0.2]]","[[0.125,-0.2],[-0.125,-0.2]]",-0.088888889,-0.230555556,1,0,0,1.6666,o2_image,489.683,1,490.18,490.1801,492.18,0,0,0,0,1,,,,,,,,,,,,,,,,,,,,,,,,,,,,,,,,,,,,,,,,,,,,,,,,,,
,,5ef0a0fbcb93ea5e9a7d3460,50,female,2024-04-16_12h21.54.371,stockport_simplified,2022.2.4,Win32,47.84688995,661e456ee6de07e70aa9ef7b,661e5126e993ed2a8dd64f51,,,,,,,,,,,,,,,,,,,,,,,,,,,,,,,,,,,,,,,,,,,,,,,,,,,,,,,,0,43,43,58,1,N,M,D,o2_image,stimuli/out2.png,stimuli/out1.png,stimuli/correct_out2.png,,,,,,,,,,,,,,,,,,,,,,,,,,,,,,,,,,,,,,
,,5ef0a0fbcb93ea5e9a7d3460,50,female,2024-04-16_12h21.54.371,stockport_simplified,2022.2.4,Win32,47.84688995,661e456ee6de07e70aa9ef7b,661e5126e993ed2a8dd64f51,,,,,,,,,,,,,,,,,,,,,,,,,,,,,,,,,,492.1812,495.9307,"[4,5,3,2,6,7,1,8]","[[0.3,0.2],[-0.3,0.2]]","[[0.125,-0.2],[-0.125,-0.2]]",0.104629686,-0.23148151,1,0,0,3.2279,o1_image,495.9333,1,496.4299,496.43,498.43,0,0,0,0,1,,,,,,,,,,,,,,,,,,,,,,,,,,,,,,,,,,,,,,,,,,,,,,,,,,
,,5ef0a0fbcb93ea5e9a7d3460,50,female,2024-04-16_12h21.54.371,stockport_simplified,2022.2.4,Win32,47.84688995,661e456ee6de07e70aa9ef7b,661e5126e993ed2a8dd64f51,,,,,,,,,,,,,,,,,,,,,,,,,,,,,,,,,,,,,,,,,,,,,,,,,,,,,,,,0,44,44,2,1,A,X,N,o1_image,stimuli/out1.png,stimuli/correct_out1.png,stimuli/out2.png,,,,,,,,,,,,,,,,,,,,,,,,,,,,,,,,,,,,,,
,,5ef0a0fbcb93ea5e9a7d3460,50,female,2024-04-16_12h21.54.371,stockport_simplified,2022.2.4,Win32,47.84688995,661e456ee6de07e70aa9ef7b,661e5126e993ed2a8dd64f51,,,,,,,,,,,,,,,,,,,,,,,,,,,,,,,,,,498.431,499.9723,"[4,5,3,2,6,7,1,8]","[[0.3,0.2],[-0.3,0.2]]","[[0.125,-0.2],[-0.125,-0.2]]",0.105555556,-0.23148151,1,0,0,1.0197,o1_image,499.9759,0,500.4714,500.4715,502.472,0,0,0,0,1,,,,,,,,,,,,,,,,,,,,,,,,,,,,,,,,,,,,,,,,,,,,,,,,,,
,,5ef0a0fbcb93ea5e9a7d3460,50,female,2024-04-16_12h21.54.371,stockport_simplified,2022.2.4,Win32,47.84688995,661e456ee6de07e70aa9ef7b,661e5126e993ed2a8dd64f51,,,,,,,,,,,,,,,,,,,,,,,,,,,,,,,,,,,,,,,,,,,,,,,,,,,,,,,,0,45,45,29,1,N,M,D,o2_image,stimuli/out2.png,stimuli/out1.png,stimuli/correct_out2.png,,,,,,,,,,,,,,,,,,,,,,,,,,,,,,,,,,,,,,
,,5ef0a0fbcb93ea5e9a7d3460,50,female,2024-04-16_12h21.54.371,stockport_simplified,2022.2.4,Win32,47.84688995,661e456ee6de07e70aa9ef7b,661e5126e993ed2a8dd64f51,,,,,,,,,,,,,,,,,,,,,,,,,,,,,,,,,,502.4732,503.5142,"[4,5,3,2,6,7,1,8]","[[0.3,0.2],[-0.3,0.2]]","[[-0.125,-0.2],[0.125,-0.2]]",-0.045370314,-0.223148176,1,0,0,0.5199,o1_image,503.5167,0,504.0134,504.0135,506.0135,0,0,0,0,1,,,,,,,,,,,,,,,,,,,,,,,,,,,,,,,,,,,,,,,,,,,,,,,,,,
,,5ef0a0fbcb93ea5e9a7d3460,50,female,2024-04-16_12h21.54.371,stockport_simplified,2022.2.4,Win32,47.84688995,661e456ee6de07e70aa9ef7b,661e5126e993ed2a8dd64f51,,,,,,,,,,,,,,,,,,,,,,,,,,,,,,,,,,,,,,,,,,,,,,,,,,,,,,,,0,46,46,55,1,N,M,D,o2_image,stimuli/out2.png,stimuli/out1.png,stimuli/correct_out2.png,,,,,,,,,,,,,,,,,,,,,,,,,,,,,,,,,,,,,,
,,5ef0a0fbcb93ea5e9a7d3460,50,female,2024-04-16_12h21.54.371,stockport_simplified,2022.2.4,Win32,47.84688995,661e456ee6de07e70aa9ef7b,661e5126e993ed2a8dd64f51,,,,,,,,,,,,,,,,,,,,,,,,,,,,,,,,,,506.0146,508.8888,"[4,5,3,2,6,7,1,8]","[[-0.3,0.2],[0.3,0.2]]","[[-0.125,-0.2],[0.125,-0.2]]",-0.087962935,-0.198148176,1,0,0,2.353,o1_image,508.9167,1,509.4104,509.4105,511.4108,0,0,0,0,1,,,,,,,,,,,,,,,,,,,,,,,,,,,,,,,,,,,,,,,,,,,,,,,,,,
,,5ef0a0fbcb93ea5e9a7d3460,50,female,2024-04-16_12h21.54.371,stockport_simplified,2022.2.4,Win32,47.84688995,661e456ee6de07e70aa9ef7b,661e5126e993ed2a8dd64f51,,,,,,,,,,,,,,,,,,,,,,,,,,,,,,,,,,,,,,,,,,,,,,,,,,,,,,,,0,47,47,35,1,A,Y,N,o1_image,stimuli/out1.png,stimuli/correct_out1.png,stimuli/out2.png,,,,,,,,,,,,,,,,,,,,,,,,,,,,,,,,,,,,,,
,,5ef0a0fbcb93ea5e9a7d3460,50,female,2024-04-16_12h21.54.371,stockport_simplified,2022.2.4,Win32,47.84688995,661e456ee6de07e70aa9ef7b,661e5126e993ed2a8dd64f51,,,,,,,,,,,,,,,,,,,,,,,,,,,,,,,,,,511.4131,513.264,"[4,5,3,2,6,7,1,8]","[[-0.3,0.2],[0.3,0.2]]","[[0.125,-0.2],[-0.125,-0.2]]",-0.129629601,-0.2,1,0,0,1.3293,o2_image,513.2663,1,513.7632,513.7632,515.7647,0,0,0,0,1,,,,,,,,,,,,,,,,,,,,,,,,,,,,,,,,,,,,,,,,,,,,,,,,,,
,,5ef0a0fbcb93ea5e9a7d3460,50,female,2024-04-16_12h21.54.371,stockport_simplified,2022.2.4,Win32,47.84688995,661e456ee6de07e70aa9ef7b,661e5126e993ed2a8dd64f51,,,,,,,,,,,,,,,,,,,,,,,,,,,,,,,,,,,,,,,,,,,,,,,,,,,,,,,,0,48,48,25,1,N,M,D,o2_image,stimuli/out2.png,stimuli/out1.png,stimuli/correct_out2.png,,,,,,,,,,,,,,,,,,,,,,,,,,,,,,,,,,,,,,
,,5ef0a0fbcb93ea5e9a7d3460,50,female,2024-04-16_12h21.54.371,stockport_simplified,2022.2.4,Win32,47.84688995,661e456ee6de07e70aa9ef7b,661e5126e993ed2a8dd64f51,,,,,,,,,,,,,,,,,,,,,,,,,,,,,,,,,,515.767,519.2223,"[4,5,3,2,6,7,1,8]","[[-0.3,0.2],[0.3,0.2]]","[[0.125,-0.2],[-0.125,-0.2]]",0.109259288,-0.211111111,1,0,0,2.9336,o1_image,519.2452,0,519.7429,519.743,521.7429,0,0,0,0,1,,,,,,,,,,,,,,,,,,,,,,,,,,,,,,,,,,,,,,,,,,,,,,,,,,
,,5ef0a0fbcb93ea5e9a7d3460,50,female,2024-04-16_12h21.54.371,stockport_simplified,2022.2.4,Win32,47.84688995,661e456ee6de07e70aa9ef7b,661e5126e993ed2a8dd64f51,,,,,,,,,,,,,,,,,,,,,,,,,,,,,,,,,,,,,,,,,,,,,,,,,,,,,,,,0,49,49,15,1,B,Y,N,o2_image,stimuli/out2.png,stimuli/out1.png,stimuli/correct_out2.png,,,,,,,,,,,,,,,,,,,,,,,,,,,,,,,,,,,,,,
,,5ef0a0fbcb93ea5e9a7d3460,50,female,2024-04-16_12h21.54.371,stockport_simplified,2022.2.4,Win32,47.84688995,661e456ee6de07e70aa9ef7b,661e5126e993ed2a8dd64f51,,,,,,,,,,,,,,,,,,,,,,,,,,,,,,,,,,521.7441,523.9119,"[4,5,3,2,6,7,1,8]","[[0.3,0.2],[-0.3,0.2]]","[[0.125,-0.2],[-0.125,-0.2]]",0.13148151,-0.197222222,1,0,0,1.6467,o1_image,523.9149,1,524.4099,524.41,526.4097,0,0,0,0,1,,,,,,,,,,,,,,,,,,,,,,,,,,,,,,,,,,,,,,,,,,,,,,,,,,
,,5ef0a0fbcb93ea5e9a7d3460,50,female,2024-04-16_12h21.54.371,stockport_simplified,2022.2.4,Win32,47.84688995,661e456ee6de07e70aa9ef7b,661e5126e993ed2a8dd64f51,,,,,,,,,,,,,,,,,,,,,,,,,,,,,,,,,,,,,,,,,,,,,,,,,,,,,,,,0,50,50,37,1,A,Y,N,o1_image,stimuli/out1.png,stimuli/correct_out1.png,stimuli/out2.png,,,,,,,,,,,,,,,,,,,,,,,,,,,,,,,,,,,,,,
,,5ef0a0fbcb93ea5e9a7d3460,50,female,2024-04-16_12h21.54.371,stockport_simplified,2022.2.4,Win32,47.84688995,661e456ee6de07e70aa9ef7b,661e5126e993ed2a8dd64f51,,,,,,,,,,,,,,,,,,,,,,,,,,,,,,,,,,526.4108,528.1404,"[4,5,3,2,6,7,1,8]","[[0.3,0.2],[-0.3,0.2]]","[[0.125,-0.2],[-0.125,-0.2]]",0.132407464,-0.2,1,0,0,1.21,o1_image,528.1435,1,528.6388,528.639,530.6385,0,0,0,0,1,,,,,,,,,,,,,,,,,,,,,,,,,,,,,,,,,,,,,,,,,,,,,,,,,,
,,5ef0a0fbcb93ea5e9a7d3460,50,female,2024-04-16_12h21.54.371,stockport_simplified,2022.2.4,Win32,47.84688995,661e456ee6de07e70aa9ef7b,661e5126e993ed2a8dd64f51,,,,,,,,,,,,,,,,,,,,,,,,,,,,,,,,,,,,,,,,,,,,,,,,,,,,,,,,0,51,51,8,1,A,Y,N,o1_image,stimuli/out1.png,stimuli/correct_out1.png,stimuli/out2.png,,,,,,,,,,,,,,,,,,,,,,,,,,,,,,,,,,,,,,
,,5ef0a0fbcb93ea5e9a7d3460,50,female,2024-04-16_12h21.54.371,stockport_simplified,2022.2.4,Win32,47.84688995,661e456ee6de07e70aa9ef7b,661e5126e993ed2a8dd64f51,,,,,,,,,,,,,,,,,,,,,,,,,,,,,,,,,,530.6392,532.912,"[4,5,3,2,6,7,1,8]","[[0.3,0.2],[-0.3,0.2]]","[[0.125,-0.2],[-0.125,-0.2]]",-0.092592536,-0.222222222,1,0,0,1.751,o2_image,532.9139,1,533.4111,533.4114,535.41,0,0,0,0,1,,,,,,,,,,,,,,,,,,,,,,,,,,,,,,,,,,,,,,,,,,,,,,,,,,
,,5ef0a0fbcb93ea5e9a7d3460,50,female,2024-04-16_12h21.54.371,stockport_simplified,2022.2.4,Win32,47.84688995,661e456ee6de07e70aa9ef7b,661e5126e993ed2a8dd64f51,,,,,,,,,,,,,,,,,,,,,,,,,,,,,,,,,,,,,,,,,,,,,,,,,,,,,,,,0,52,52,46,1,B,Y,N,o2_image,stimuli/out2.png,stimuli/out1.png,stimuli/correct_out2.png,,,,,,,,,,,,,,,,,,,,,,,,,,,,,,,,,,,,,,
,,5ef0a0fbcb93ea5e9a7d3460,50,female,2024-04-16_12h21.54.371,stockport_simplified,2022.2.4,Win32,47.84688995,661e456ee6de07e70aa9ef7b,661e5126e993ed2a8dd64f51,,,,,,,,,,,,,,,,,,,,,,,,,,,,,,,,,,535.4113,538.7434,"[4,5,3,2,6,7,1,8]","[[-0.3,0.2],[0.3,0.2]]","[[0.125,-0.2],[-0.125,-0.2]]",-0.171296268,-0.212963019,1,0,0,2.8127,o2_image,538.7724,1,539.2639,539.2639,541.2638,0,0,0,0,1,,,,,,,,,,,,,,,,,,,,,,,,,,,,,,,,,,,,,,,,,,,,,,,,,,
,,5ef0a0fbcb93ea5e9a7d3460,50,female,2024-04-16_12h21.54.371,stockport_simplified,2022.2.4,Win32,47.84688995,661e456ee6de07e70aa9ef7b,661e5126e993ed2a8dd64f51,,,,,,,,,,,,,,,,,,,,,,,,,,,,,,,,,,,,,,,,,,,,,,,,,,,,,,,,0,53,53,56,1,N,M,D,o2_image,stimuli/out2.png,stimuli/out1.png,stimuli/correct_out2.png,,,,,,,,,,,,,,,,,,,,,,,,,,,,,,,,,,,,,,
,,5ef0a0fbcb93ea5e9a7d3460,50,female,2024-04-16_12h21.54.371,stockport_simplified,2022.2.4,Win32,47.84688995,661e456ee6de07e70aa9ef7b,661e5126e993ed2a8dd64f51,,,,,,,,,,,,,,,,,,,,,,,,,,,,,,,,,,541.2651,544.6062,"[4,5,3,2,6,7,1,8]","[[0.3,0.2],[-0.3,0.2]]","[[-0.125,-0.2],[0.125,-0.2]]",-0.062962935,-0.229629686,1,0,0,2.8207,o1_image,544.6252,1,545.1194,545.1197,547.1184,0,0,0,0,1,,,,,,,,,,,,,,,,,,,,,,,,,,,,,,,,,,,,,,,,,,,,,,,,,,
,,5ef0a0fbcb93ea5e9a7d3460,50,female,2024-04-16_12h21.54.371,stockport_simplified,2022.2.4,Win32,47.84688995,661e456ee6de07e70aa9ef7b,661e5126e993ed2a8dd64f51,,,,,,,,,,,,,,,,,,,,,,,,,,,,,,,,,,,,,,,,,,,,,,,,,,,,,,,,0,54,54,53,1,N,M,C,o1_image,stimuli/out1.png,stimuli/correct_out1.png,stimuli/out2.png,,,,,,,,,,,,,,,,,,,,,,,,,,,,,,,,,,,,,,
,,5ef0a0fbcb93ea5e9a7d3460,50,female,2024-04-16_12h21.54.371,stockport_simplified,2022.2.4,Win32,47.84688995,661e456ee6de07e70aa9ef7b,661e5126e993ed2a8dd64f51,,,,,,,,,,,,,,,,,,,,,,,,,,,,,,,,,,547.1196,549.0977,"[4,5,3,2,6,7,1,8]","[[0.3,0.2],[-0.3,0.2]]","[[-0.125,-0.2],[0.125,-0.2]]",0.096296353,-0.221296353,1,0,0,1.4571,o2_image,549.1002,1,549.5973,549.5974,551.5975,0,0,0,0,1,,,,,,,,,,,,,,,,,,,,,,,,,,,,,,,,,,,,,,,,,,,,,,,,,,
,,5ef0a0fbcb93ea5e9a7d3460,50,female,2024-04-16_12h21.54.371,stockport_simplified,2022.2.4,Win32,47.84688995,661e456ee6de07e70aa9ef7b,661e5126e993ed2a8dd64f51,,,,,,,,,,,,,,,,,,,,,,,,,,,,,,,,,,,,,,,,,,,,,,,,,,,,,,,,0,55,55,17,1,B,Y,N,o2_image,stimuli/out2.png,stimuli/out1.png,stimuli/correct_out2.png,,,,,,,,,,,,,,,,,,,,,,,,,,,,,,,,,,,,,,
,,5ef0a0fbcb93ea5e9a7d3460,50,female,2024-04-16_12h21.54.371,stockport_simplified,2022.2.4,Win32,47.84688995,661e456ee6de07e70aa9ef7b,661e5126e993ed2a8dd64f51,,,,,,,,,,,,,,,,,,,,,,,,,,,,,,,,,,551.5989,555.2537,"[4,5,3,2,6,7,1,8]","[[0.3,0.2],[-0.3,0.2]]","[[0.125,-0.2],[-0.125,-0.2]]",-0.102777778,-0.235185242,1,0,0,3.1348,o2_image,555.2746,1,555.7649,555.7652,557.7647,0,0,0,0,1,,,,,,,,,,,,,,,,,,,,,,,,,,,,,,,,,,,,,,,,,,,,,,,,,,
,,5ef0a0fbcb93ea5e9a7d3460,50,female,2024-04-16_12h21.54.371,stockport_simplified,2022.2.4,Win32,47.84688995,661e456ee6de07e70aa9ef7b,661e5126e993ed2a8dd64f51,,,,,,,,,,,,,,,,,,,,,,,,,,,,,,,,,,,,,,,,,,,,,,,,,,,,,,,,0,56,56,40,1,B,X,N,o2_image,stimuli/out2.png,stimuli/out1.png,stimuli/correct_out2.png,,,,,,,,,,,,,,,,,,,,,,,,,,,,,,,,,,,,,,
,,5ef0a0fbcb93ea5e9a7d3460,50,female,2024-04-16_12h21.54.371,stockport_simplified,2022.2.4,Win32,47.84688995,661e456ee6de07e70aa9ef7b,661e5126e993ed2a8dd64f51,,,,,,,,,,,,,,,,,,,,,,,,,,,,,,,,,,557.7668,559.827,"[4,5,3,2,6,7,1,8]","[[0.3,0.2],[-0.3,0.2]]","[[-0.125,-0.2],[0.125,-0.2]]",-0.096296268,-0.195370399,1,0,0,1.5386,o1_image,559.8301,1,560.3266,560.3267,562.3152,0,0,0,0,1,,,,,,,,,,,,,,,,,,,,,,,,,,,,,,,,,,,,,,,,,,,,,,,,,,
,,5ef0a0fbcb93ea5e9a7d3460,50,female,2024-04-16_12h21.54.371,stockport_simplified,2022.2.4,Win32,47.84688995,661e456ee6de07e70aa9ef7b,661e5126e993ed2a8dd64f51,,,,,,,,,,,,,,,,,,,,,,,,,,,,,,,,,,,,,,,,,,,,,,,,,,,,,,,,0,57,57,54,1,N,M,C,o1_image,stimuli/out1.png,stimuli/correct_out1.png,stimuli/out2.png,,,,,,,,,,,,,,,,,,,,,,,,,,,,,,,,,,,,,,
,,5ef0a0fbcb93ea5e9a7d3460,50,female,2024-04-16_12h21.54.371,stockport_simplified,2022.2.4,Win32,47.84688995,661e456ee6de07e70aa9ef7b,661e5126e993ed2a8dd64f51,,,,,,,,,,,,,,,,,,,,,,,,,,,,,,,,,,562.3161,564.6813,"[4,5,3,2,6,7,1,8]","[[0.3,0.2],[-0.3,0.2]]","[[0.125,-0.2],[-0.125,-0.2]]",-0.145370314,-0.226851908,1,0,0,1.8503,o2_image,564.6841,0,565.1808,565.1809,567.1803,0,0,0,0,1,,,,,,,,,,,,,,,,,,,,,,,,,,,,,,,,,,,,,,,,,,,,,,,,,,
,,5ef0a0fbcb93ea5e9a7d3460,50,female,2024-04-16_12h21.54.371,stockport_simplified,2022.2.4,Win32,47.84688995,661e456ee6de07e70aa9ef7b,661e5126e993ed2a8dd64f51,,,,,,,,,,,,,,,,,,,,,,,,,,,,,,,,,,,,,,,,,,,,,,,,,,,,,,,,0,58,58,34,1,A,X,N,o1_image,stimuli/out1.png,stimuli/correct_out1.png,stimuli/out2.png,,,,,,,,,,,,,,,,,,,,,,,,,,,,,,,,,,,,,,
,,5ef0a0fbcb93ea5e9a7d3460,50,female,2024-04-16_12h21.54.371,stockport_simplified,2022.2.4,Win32,47.84688995,661e456ee6de07e70aa9ef7b,661e5126e993ed2a8dd64f51,,,,,,,,,,,,,,,,,,,,,,,,,,,,,,,,,,567.1808,571.5785,"[4,5,3,2,6,7,1,8]","[[-0.3,0.2],[0.3,0.2]]","[[0.125,-0.2],[-0.125,-0.2]]",-0.087962935,-0.241666667,1,0,0,3.8757,o2_image,571.6082,1,572.0971,572.0972,574.0976,0,0,0,0,1,,,,,,,,,,,,,,,,,,,,,,,,,,,,,,,,,,,,,,,,,,,,,,,,,,
,,5ef0a0fbcb93ea5e9a7d3460,50,female,2024-04-16_12h21.54.371,stockport_simplified,2022.2.4,Win32,47.84688995,661e456ee6de07e70aa9ef7b,661e5126e993ed2a8dd64f51,,,,,,,,,,,,,,,,,,,,,,,,,,,,,,,,,,,,,,,,,,,,,,,,,,,,,,,,0,59,59,48,1,B,Y,N,o2_image,stimuli/out2.png,stimuli/out1.png,stimuli/correct_out2.png,,,,,,,,,,,,,,,,,,,,,,,,,,,,,,,,,,,,,,
,,5ef0a0fbcb93ea5e9a7d3460,50,female,2024-04-16_12h21.54.371,stockport_simplified,2022.2.4,Win32,47.84688995,661e456ee6de07e70aa9ef7b,661e5126e993ed2a8dd64f51,,,,,,,,,,,,,,,,,,,,,,,,,,,,,,,,,,574.0988,576.2055,"[4,5,3,2,6,7,1,8]","[[0.3,0.2],[-0.3,0.2]]","[[-0.125,-0.2],[0.125,-0.2]]",-0.087962935,-0.241666667,1,0,0,1.5843,o1_image,576.235,1,576.7227,576.7228,578.7226,0,0,0,0,1,,,,,,,,,,,,,,,,,,,,,,,,,,,,,,,,,,,,,,,,,,,,,,,,,,
,,5ef0a0fbcb93ea5e9a7d3460,50,female,2024-04-16_12h21.54.371,stockport_simplified,2022.2.4,Win32,47.84688995,661e456ee6de07e70aa9ef7b,661e5126e993ed2a8dd64f51,,,,,,,,,,,,,,,,,,,,,,,,,,,,,,,,,,,,,,,,,,,,,,,,,,,,,,,,1,0,60,24,1,N,M,C,o1_image,stimuli/out1.png,stimuli/correct_out1.png,stimuli/out2.png,,,,,,,,,,,,,,,,,,,,,,,,,,,,,,,,,,,,,,
,,5ef0a0fbcb93ea5e9a7d3460,50,female,2024-04-16_12h21.54.371,stockport_simplified,2022.2.4,Win32,47.84688995,661e456ee6de07e70aa9ef7b,661e5126e993ed2a8dd64f51,,,,,,,,,,,,,,,,,,,,,,,,,,,,,,,,,,578.7241,580.7244,"[4,5,3,2,6,7,1,8]","[[-0.3,0.2],[0.3,0.2]]","[[0.125,-0.2],[-0.125,-0.2]]",0.105555556,-0.199074088,1,0,0,1.4792,o1_image,580.7272,1,581.2225,581.2227,583.2243,0,0,0,0,1,,,,,,,,,,,,,,,,,,,,,,,,,,,,,,,,,,,,,,,,,,,,,,,,,,
,,5ef0a0fbcb93ea5e9a7d3460,50,female,2024-04-16_12h21.54.371,stockport_simplified,2022.2.4,Win32,47.84688995,661e456ee6de07e70aa9ef7b,661e5126e993ed2a8dd64f51,,,,,,,,,,,,,,,,,,,,,,,,,,,,,,,,,,,,,,,,,,,,,,,,,,,,,,,,1,1,61,9,1,A,Y,N,o1_image,stimuli/out1.png,stimuli/correct_out1.png,stimuli/out2.png,,,,,,,,,,,,,,,,,,,,,,,,,,,,,,,,,,,,,,
,,5ef0a0fbcb93ea5e9a7d3460,50,female,2024-04-16_12h21.54.371,stockport_simplified,2022.2.4,Win32,47.84688995,661e456ee6de07e70aa9ef7b,661e5126e993ed2a8dd64f51,,,,,,,,,,,,,,,,,,,,,,,,,,,,,,,,,,583.2263,584.9731,"[4,5,3,2,6,7,1,8]","[[0.3,0.2],[-0.3,0.2]]","[[0.125,-0.2],[-0.125,-0.2]]",-0.1,-0.20648151,1,0,0,1.2408,o2_image,584.9757,1,585.4723,585.4723,587.4739,0,0,0,0,1,,,,,,,,,,,,,,,,,,,,,,,,,,,,,,,,,,,,,,,,,,,,,,,,,,
,,5ef0a0fbcb93ea5e9a7d3460,50,female,2024-04-16_12h21.54.371,stockport_simplified,2022.2.4,Win32,47.84688995,661e456ee6de07e70aa9ef7b,661e5126e993ed2a8dd64f51,,,,,,,,,,,,,,,,,,,,,,,,,,,,,,,,,,,,,,,,,,,,,,,,,,,,,,,,1,2,62,28,1,N,M,D,o2_image,stimuli/out2.png,stimuli/out1.png,stimuli/correct_out2.png,,,,,,,,,,,,,,,,,,,,,,,,,,,,,,,,,,,,,,
,,5ef0a0fbcb93ea5e9a7d3460,50,female,2024-04-16_12h21.54.371,stockport_simplified,2022.2.4,Win32,47.84688995,661e456ee6de07e70aa9ef7b,661e5126e993ed2a8dd64f51,,,,,,,,,,,,,,,,,,,,,,,,,,,,,,,,,,587.4761,590.8794,"[4,5,3,2,6,7,1,8]","[[0.3,0.2],[-0.3,0.2]]","[[-0.125,-0.2],[0.125,-0.2]]",0.1,-0.198148176,1,0,0,2.8821,o2_image,590.8975,1,591.3896,591.3898,593.3897,0,0,0,0,1,,,,,,,,,,,,,,,,,,,,,,,,,,,,,,,,,,,,,,,,,,,,,,,,,,
,,5ef0a0fbcb93ea5e9a7d3460,50,female,2024-04-16_12h21.54.371,stockport_simplified,2022.2.4,Win32,47.84688995,661e456ee6de07e70aa9ef7b,661e5126e993ed2a8dd64f51,,,,,,,,,,,,,,,,,,,,,,,,,,,,,,,,,,,,,,,,,,,,,,,,,,,,,,,,1,3,63,41,1,B,X,N,o2_image,stimuli/out2.png,stimuli/out1.png,stimuli/correct_out2.png,,,,,,,,,,,,,,,,,,,,,,,,,,,,,,,,,,,,,,
,,5ef0a0fbcb93ea5e9a7d3460,50,female,2024-04-16_12h21.54.371,stockport_simplified,2022.2.4,Win32,47.84688995,661e456ee6de07e70aa9ef7b,661e5126e993ed2a8dd64f51,,,,,,,,,,,,,,,,,,,,,,,,,,,,,,,,,,593.3908,595.0984,"[4,5,3,2,6,7,1,8]","[[0.3,0.2],[-0.3,0.2]]","[[-0.125,-0.2],[0.125,-0.2]]",-0.109259203,-0.214814843,1,0,0,1.1864,o1_image,595.1009,1,595.598,595.5981,597.5978,0,0,0,0,1,,,,,,,,,,,,,,,,,,,,,,,,,,,,,,,,,,,,,,,,,,,,,,,,,,
,,5ef0a0fbcb93ea5e9a7d3460,50,female,2024-04-16_12h21.54.371,stockport_simplified,2022.2.4,Win32,47.84688995,661e456ee6de07e70aa9ef7b,661e5126e993ed2a8dd64f51,,,,,,,,,,,,,,,,,,,,,,,,,,,,,,,,,,,,,,,,,,,,,,,,,,,,,,,,1,4,64,22,1,N,M,C,o1_image,stimuli/out1.png,stimuli/correct_out1.png,stimuli/out2.png,,,,,,,,,,,,,,,,,,,,,,,,,,,,,,,,,,,,,,
,,5ef0a0fbcb93ea5e9a7d3460,50,female,2024-04-16_12h21.54.371,stockport_simplified,2022.2.4,Win32,47.84688995,661e456ee6de07e70aa9ef7b,661e5126e993ed2a8dd64f51,,,,,,,,,,,,,,,,,,,,,,,,,,,,,,,,,,597.599,599.786,"[4,5,3,2,6,7,1,8]","[[0.3,0.2],[-0.3,0.2]]","[[0.125,-0.2],[-0.125,-0.2]]",-0.109259203,-0.214814843,1,0,0,1.6651,o2_image,599.7885,1,600.2865,600.2867,602.2851,0,0,0,0,1,,,,,,,,,,,,,,,,,,,,,,,,,,,,,,,,,,,,,,,,,,,,,,,,,,
,,5ef0a0fbcb93ea5e9a7d3460,50,female,2024-04-16_12h21.54.371,stockport_simplified,2022.2.4,Win32,47.84688995,661e456ee6de07e70aa9ef7b,661e5126e993ed2a8dd64f51,,,,,,,,,,,,,,,,,,,,,,,,,,,,,,,,,,,,,,,,,,,,,,,,,,,,,,,,1,5,65,14,1,B,X,N,o2_image,stimuli/out2.png,stimuli/out1.png,stimuli/correct_out2.png,,,,,,,,,,,,,,,,,,,,,,,,,,,,,,,,,,,,,,
,,5ef0a0fbcb93ea5e9a7d3460,50,female,2024-04-16_12h21.54.371,stockport_simplified,2022.2.4,Win32,47.84688995,661e456ee6de07e70aa9ef7b,661e5126e993ed2a8dd64f51,,,,,,,,,,,,,,,,,,,,,,,,,,,,,,,,,,602.2858,603.7651,"[4,5,3,2,6,7,1,8]","[[-0.3,0.2],[0.3,0.2]]","[[-0.125,-0.2],[0.125,-0.2]]",-0.109259203,-0.214814843,1,0,0,0.9588,o1_image,603.7685,0,604.2649,604.2649,606.2646,0,0,0,0,1,,,,,,,,,,,,,,,,,,,,,,,,,,,,,,,,,,,,,,,,,,,,,,,,,,
,,5ef0a0fbcb93ea5e9a7d3460,50,female,2024-04-16_12h21.54.371,stockport_simplified,2022.2.4,Win32,47.84688995,661e456ee6de07e70aa9ef7b,661e5126e993ed2a8dd64f51,,,,,,,,,,,,,,,,,,,,,,,,,,,,,,,,,,,,,,,,,,,,,,,,,,,,,,,,1,6,66,10,1,B,X,N,o2_image,stimuli/out2.png,stimuli/out1.png,stimuli/correct_out2.png,,,,,,,,,,,,,,,,,,,,,,,,,,,,,,,,,,,,,,
,,5ef0a0fbcb93ea5e9a7d3460,50,female,2024-04-16_12h21.54.371,stockport_simplified,2022.2.4,Win32,47.84688995,661e456ee6de07e70aa9ef7b,661e5126e993ed2a8dd64f51,,,,,,,,,,,,,,,,,,,,,,,,,,,,,,,,,,606.2659,609.2234,"[4,5,3,2,6,7,1,8]","[[-0.3,0.2],[0.3,0.2]]","[[0.125,-0.2],[-0.125,-0.2]]",-0.09351849,-0.208333333,1,0,0,2.4364,o2_image,609.2259,0,609.723,609.7231,611.7242,0,0,0,0,1,,,,,,,,,,,,,,,,,,,,,,,,,,,,,,,,,,,,,,,,,,,,,,,,,,
,,5ef0a0fbcb93ea5e9a7d3460,50,female,2024-04-16_12h21.54.371,stockport_simplified,2022.2.4,Win32,47.84688995,661e456ee6de07e70aa9ef7b,661e5126e993ed2a8dd64f51,,,,,,,,,,,,,,,,,,,,,,,,,,,,,,,,,,,,,,,,,,,,,,,,,,,,,,,,1,7,67,8,1,A,Y,N,o1_image,stimuli/out1.png,stimuli/correct_out1.png,stimuli/out2.png,,,,,,,,,,,,,,,,,,,,,,,,,,,,,,,,,,,,,,
,,5ef0a0fbcb93ea5e9a7d3460,50,female,2024-04-16_12h21.54.371,stockport_simplified,2022.2.4,Win32,47.84688995,661e456ee6de07e70aa9ef7b,661e5126e993ed2a8dd64f51,,,,,,,,,,,,,,,,,,,,,,,,,,,,,,,,,,611.7267,613.8064,"[4,5,3,2,6,7,1,8]","[[-0.3,0.2],[0.3,0.2]]","[[0.125,-0.2],[-0.125,-0.2]]",-0.105555556,-0.209259288,1,0,0,1.5587,o2_image,613.8086,1,614.3078,614.3081,616.3066,0,0,0,0,1,,,,,,,,,,,,,,,,,,,,,,,,,,,,,,,,,,,,,,,,,,,,,,,,,,
,,5ef0a0fbcb93ea5e9a7d3460,50,female,2024-04-16_12h21.54.371,stockport_simplified,2022.2.4,Win32,47.84688995,661e456ee6de07e70aa9ef7b,661e5126e993ed2a8dd64f51,,,,,,,,,,,,,,,,,,,,,,,,,,,,,,,,,,,,,,,,,,,,,,,,,,,,,,,,1,8,68,13,1,B,X,N,o2_image,stimuli/out2.png,stimuli/out1.png,stimuli/correct_out2.png,,,,,,,,,,,,,,,,,,,,,,,,,,,,,,,,,,,,,,
,,5ef0a0fbcb93ea5e9a7d3460,50,female,2024-04-16_12h21.54.371,stockport_simplified,2022.2.4,Win32,47.84688995,661e456ee6de07e70aa9ef7b,661e5126e993ed2a8dd64f51,,,,,,,,,,,,,,,,,,,,,,,,,,,,,,,,,,616.3077,618.5176,"[4,5,3,2,6,7,1,8]","[[-0.3,0.2],[0.3,0.2]]","[[-0.125,-0.2],[0.125,-0.2]]",-0.105555556,-0.209259288,1,0,0,1.689,o1_image,618.5197,1,619.0148,619.0149,621.016,0,0,0,0,1,,,,,,,,,,,,,,,,,,,,,,,,,,,,,,,,,,,,,,,,,,,,,,,,,,
,,5ef0a0fbcb93ea5e9a7d3460,50,female,2024-04-16_12h21.54.371,stockport_simplified,2022.2.4,Win32,47.84688995,661e456ee6de07e70aa9ef7b,661e5126e993ed2a8dd64f51,,,,,,,,,,,,,,,,,,,,,,,,,,,,,,,,,,,,,,,,,,,,,,,,,,,,,,,,1,9,69,23,1,N,M,C,o1_image,stimuli/out1.png,stimuli/correct_out1.png,stimuli/out2.png,,,,,,,,,,,,,,,,,,,,,,,,,,,,,,,,,,,,,,
,,5ef0a0fbcb93ea5e9a7d3460,50,female,2024-04-16_12h21.54.371,stockport_simplified,2022.2.4,Win32,47.84688995,661e456ee6de07e70aa9ef7b,661e5126e993ed2a8dd64f51,,,,,,,,,,,,,,,,,,,,,,,,,,,,,,,,,,621.0183,622.8366,"[4,5,3,2,6,7,1,8]","[[-0.3,0.2],[0.3,0.2]]","[[-0.125,-0.2],[0.125,-0.2]]",-0.105555556,-0.209259288,1,0,0,1.3171,o1_image,622.8381,1,623.3278,623.3279,625.3288,0,0,0,0,1,,,,,,,,,,,,,,,,,,,,,,,,,,,,,,,,,,,,,,,,,,,,,,,,,,
,,5ef0a0fbcb93ea5e9a7d3460,50,female,2024-04-16_12h21.54.371,stockport_simplified,2022.2.4,Win32,47.84688995,661e456ee6de07e70aa9ef7b,661e5126e993ed2a8dd64f51,,,,,,,,,,,,,,,,,,,,,,,,,,,,,,,,,,,,,,,,,,,,,,,,,,,,,,,,1,10,70,51,1,N,M,C,o1_image,stimuli/out1.png,stimuli/correct_out1.png,stimuli/out2.png,,,,,,,,,,,,,,,,,,,,,,,,,,,,,,,,,,,,,,
,,5ef0a0fbcb93ea5e9a7d3460,50,female,2024-04-16_12h21.54.371,stockport_simplified,2022.2.4,Win32,47.84688995,661e456ee6de07e70aa9ef7b,661e5126e993ed2a8dd64f51,,,,,,,,,,,,,,,,,,,,,,,,,,,,,,,,,,625.3311,629.328,"[4,5,3,2,6,7,1,8]","[[0.3,0.2],[-0.3,0.2]]","[[-0.125,-0.2],[0.125,-0.2]]",-0.105555556,-0.209259288,1,0,0,3.4735,o1_image,629.3566,0,629.8479,629.8479,631.8483,0,0,0,0,1,,,,,,,,,,,,,,,,,,,,,,,,,,,,,,,,,,,,,,,,,,,,,,,,,,
,,5ef0a0fbcb93ea5e9a7d3460,50,female,2024-04-16_12h21.54.371,stockport_simplified,2022.2.4,Win32,47.84688995,661e456ee6de07e70aa9ef7b,661e5126e993ed2a8dd64f51,,,,,,,,,,,,,,,,,,,,,,,,,,,,,,,,,,,,,,,,,,,,,,,,,,,,,,,,1,11,71,47,1,B,Y,N,o2_image,stimuli/out2.png,stimuli/out1.png,stimuli/correct_out2.png,,,,,,,,,,,,,,,,,,,,,,,,,,,,,,,,,,,,,,
,,5ef0a0fbcb93ea5e9a7d3460,50,female,2024-04-16_12h21.54.371,stockport_simplified,2022.2.4,Win32,47.84688995,661e456ee6de07e70aa9ef7b,661e5126e993ed2a8dd64f51,,,,,,,,,,,,,,,,,,,,,,,,,,,,,,,,,,631.8496,633.1008,"[4,5,3,2,6,7,1,8]","[[-0.3,0.2],[0.3,0.2]]","[[-0.125,-0.2],[0.125,-0.2]]",-0.105555556,-0.209259288,1,0,0,0.7299,o1_image,633.1027,1,633.5984,633.5986,635.5983,0,0,0,0,1,,,,,,,,,,,,,,,,,,,,,,,,,,,,,,,,,,,,,,,,,,,,,,,,,,
,,5ef0a0fbcb93ea5e9a7d3460,50,female,2024-04-16_12h21.54.371,stockport_simplified,2022.2.4,Win32,47.84688995,661e456ee6de07e70aa9ef7b,661e5126e993ed2a8dd64f51,,,,,,,,,,,,,,,,,,,,,,,,,,,,,,,,,,,,,,,,,,,,,,,,,,,,,,,,1,12,72,53,1,N,M,C,o1_image,stimuli/out1.png,stimuli/correct_out1.png,stimuli/out2.png,,,,,,,,,,,,,,,,,,,,,,,,,,,,,,,,,,,,,,
,,5ef0a0fbcb93ea5e9a7d3460,50,female,2024-04-16_12h21.54.371,stockport_simplified,2022.2.4,Win32,47.84688995,661e456ee6de07e70aa9ef7b,661e5126e993ed2a8dd64f51,,,,,,,,,,,,,,,,,,,,,,,,,,,,,,,,,,635.5995,638.1436,"[4,5,3,2,6,7,1,8]","[[0.3,0.2],[-0.3,0.2]]","[[0.125,-0.2],[-0.125,-0.2]]",-0.105555556,-0.209259288,1,0,0,2.0222,o2_image,638.1456,1,638.6403,638.6404,640.64,0,0,0,0,1,,,,,,,,,,,,,,,,,,,,,,,,,,,,,,,,,,,,,,,,,,,,,,,,,,
,,5ef0a0fbcb93ea5e9a7d3460,50,female,2024-04-16_12h21.54.371,stockport_simplified,2022.2.4,Win32,47.84688995,661e456ee6de07e70aa9ef7b,661e5126e993ed2a8dd64f51,,,,,,,,,,,,,,,,,,,,,,,,,,,,,,,,,,,,,,,,,,,,,,,,,,,,,,,,1,13,73,44,1,B,X,N,o2_image,stimuli/out2.png,stimuli/out1.png,stimuli/correct_out2.png,,,,,,,,,,,,,,,,,,,,,,,,,,,,,,,,,,,,,,
,,5ef0a0fbcb93ea5e9a7d3460,50,female,2024-04-16_12h21.54.371,stockport_simplified,2022.2.4,Win32,47.84688995,661e456ee6de07e70aa9ef7b,661e5126e993ed2a8dd64f51,,,,,,,,,,,,,,,,,,,,,,,,,,,,,,,,,,640.6411,642.8707,"[4,5,3,2,6,7,1,8]","[[-0.3,0.2],[0.3,0.2]]","[[-0.125,-0.2],[0.125,-0.2]]",-0.16851849,-0.240740797,1,0,0,1.7082,o1_image,642.8736,1,643.3698,643.3698,645.3702,0,0,0,0,1,,,,,,,,,,,,,,,,,,,,,,,,,,,,,,,,,,,,,,,,,,,,,,,,,,
,,5ef0a0fbcb93ea5e9a7d3460,50,female,2024-04-16_12h21.54.371,stockport_simplified,2022.2.4,Win32,47.84688995,661e456ee6de07e70aa9ef7b,661e5126e993ed2a8dd64f51,,,,,,,,,,,,,,,,,,,,,,,,,,,,,,,,,,,,,,,,,,,,,,,,,,,,,,,,1,14,74,50,1,N,M,C,o1_image,stimuli/out1.png,stimuli/correct_out1.png,stimuli/out2.png,,,,,,,,,,,,,,,,,,,,,,,,,,,,,,,,,,,,,,
,,5ef0a0fbcb93ea5e9a7d3460,50,female,2024-04-16_12h21.54.371,stockport_simplified,2022.2.4,Win32,47.84688995,661e456ee6de07e70aa9ef7b,661e5126e993ed2a8dd64f51,,,,,,,,,,,,,,,,,,,,,,,,,,,,,,,,,,645.3726,648.0365,"[4,5,3,2,6,7,1,8]","[[0.3,0.2],[-0.3,0.2]]","[[0.125,-0.2],[-0.125,-0.2]]",-0.157407379,-0.2,1,0,0,2.142,o2_image,648.0399,0,648.5248,648.5248,650.5153,0,0,0,0,1,,,,,,,,,,,,,,,,,,,,,,,,,,,,,,,,,,,,,,,,,,,,,,,,,,
,,5ef0a0fbcb93ea5e9a7d3460,50,female,2024-04-16_12h21.54.371,stockport_simplified,2022.2.4,Win32,47.84688995,661e456ee6de07e70aa9ef7b,661e5126e993ed2a8dd64f51,,,,,,,,,,,,,,,,,,,,,,,,,,,,,,,,,,,,,,,,,,,,,,,,,,,,,,,,1,15,75,34,1,A,X,N,o1_image,stimuli/out1.png,stimuli/correct_out1.png,stimuli/out2.png,,,,,,,,,,,,,,,,,,,,,,,,,,,,,,,,,,,,,,
,,5ef0a0fbcb93ea5e9a7d3460,50,female,2024-04-16_12h21.54.371,stockport_simplified,2022.2.4,Win32,47.84688995,661e456ee6de07e70aa9ef7b,661e5126e993ed2a8dd64f51,,,,,,,,,,,,,,,,,,,,,,,,,,,,,,,,,,650.5168,653.2747,"[4,5,3,2,6,7,1,8]","[[0.3,0.2],[-0.3,0.2]]","[[0.125,-0.2],[-0.125,-0.2]]",-0.1,-0.212037065,1,0,0,2.2378,o2_image,653.2763,0,653.7647,653.7647,655.7654,0,0,0,0,1,,,,,,,,,,,,,,,,,,,,,,,,,,,,,,,,,,,,,,,,,,,,,,,,,,
,,5ef0a0fbcb93ea5e9a7d3460,50,female,2024-04-16_12h21.54.371,stockport_simplified,2022.2.4,Win32,47.84688995,661e456ee6de07e70aa9ef7b,661e5126e993ed2a8dd64f51,,,,,,,,,,,,,,,,,,,,,,,,,,,,,,,,,,,,,,,,,,,,,,,,,,,,,,,,1,16,76,37,1,A,Y,N,o1_image,stimuli/out1.png,stimuli/correct_out1.png,stimuli/out2.png,,,,,,,,,,,,,,,,,,,,,,,,,,,,,,,,,,,,,,
,,5ef0a0fbcb93ea5e9a7d3460,50,female,2024-04-16_12h21.54.371,stockport_simplified,2022.2.4,Win32,47.84688995,661e456ee6de07e70aa9ef7b,661e5126e993ed2a8dd64f51,,,,,,,,,,,,,,,,,,,,,,,,,,,,,,,,,,655.7665,657.6497,"[4,5,3,2,6,7,1,8]","[[0.3,0.2],[-0.3,0.2]]","[[-0.125,-0.2],[0.125,-0.2]]",-0.117592536,-0.197222222,1,0,0,1.362,o1_image,657.6514,1,658.1416,658.1417,660.1402,0,0,0,0,1,,,,,,,,,,,,,,,,,,,,,,,,,,,,,,,,,,,,,,,,,,,,,,,,,,
,,5ef0a0fbcb93ea5e9a7d3460,50,female,2024-04-16_12h21.54.371,stockport_simplified,2022.2.4,Win32,47.84688995,661e456ee6de07e70aa9ef7b,661e5126e993ed2a8dd64f51,,,,,,,,,,,,,,,,,,,,,,,,,,,,,,,,,,,,,,,,,,,,,,,,,,,,,,,,1,17,77,21,1,N,M,C,o1_image,stimuli/out1.png,stimuli/correct_out1.png,stimuli/out2.png,,,,,,,,,,,,,,,,,,,,,,,,,,,,,,,,,,,,,,
,,5ef0a0fbcb93ea5e9a7d3460,50,female,2024-04-16_12h21.54.371,stockport_simplified,2022.2.4,Win32,47.84688995,661e456ee6de07e70aa9ef7b,661e5126e993ed2a8dd64f51,,,,,,,,,,,,,,,,,,,,,,,,,,,,,,,,,,660.1413,662.6924,"[4,5,3,2,6,7,1,8]","[[-0.3,0.2],[0.3,0.2]]","[[-0.125,-0.2],[0.125,-0.2]]",0.171296353,-0.19629631,1,0,0,2.0296,o2_image,662.7209,0,663.2243,663.2244,665.2241,0,0,0,0,1,,,,,,,,,,,,,,,,,,,,,,,,,,,,,,,,,,,,,,,,,,,,,,,,,,
,,5ef0a0fbcb93ea5e9a7d3460,50,female,2024-04-16_12h21.54.371,stockport_simplified,2022.2.4,Win32,47.84688995,661e456ee6de07e70aa9ef7b,661e5126e993ed2a8dd64f51,,,,,,,,,,,,,,,,,,,,,,,,,,,,,,,,,,,,,,,,,,,,,,,,,,,,,,,,1,18,78,35,1,A,Y,N,o1_image,stimuli/out1.png,stimuli/correct_out1.png,stimuli/out2.png,,,,,,,,,,,,,,,,,,,,,,,,,,,,,,,,,,,,,,
,,5ef0a0fbcb93ea5e9a7d3460,50,female,2024-04-16_12h21.54.371,stockport_simplified,2022.2.4,Win32,47.84688995,661e456ee6de07e70aa9ef7b,661e5126e993ed2a8dd64f51,,,,,,,,,,,,,,,,,,,,,,,,,,,,,,,,,,665.2262,667.9979,"[4,5,3,2,6,7,1,8]","[[0.3,0.2],[-0.3,0.2]]","[[-0.125,-0.2],[0.125,-0.2]]",0.121296353,-0.245370399,1,0,0,2.2527,o2_image,667.9999,0,668.4984,668.4985,670.4949,0,0,0,0,1,,,,,,,,,,,,,,,,,,,,,,,,,,,,,,,,,,,,,,,,,,,,,,,,,,
,,5ef0a0fbcb93ea5e9a7d3460,50,female,2024-04-16_12h21.54.371,stockport_simplified,2022.2.4,Win32,47.84688995,661e456ee6de07e70aa9ef7b,661e5126e993ed2a8dd64f51,,,,,,,,,,,,,,,,,,,,,,,,,,,,,,,,,,,,,,,,,,,,,,,,,,,,,,,,1,19,79,36,1,A,Y,N,o1_image,stimuli/out1.png,stimuli/correct_out1.png,stimuli/out2.png,,,,,,,,,,,,,,,,,,,,,,,,,,,,,,,,,,,,,,
,,5ef0a0fbcb93ea5e9a7d3460,50,female,2024-04-16_12h21.54.371,stockport_simplified,2022.2.4,Win32,47.84688995,661e456ee6de07e70aa9ef7b,661e5126e993ed2a8dd64f51,,,,,,,,,,,,,,,,,,,,,,,,,,,,,,,,,,670.4972,673.4327,"[4,5,3,2,6,7,1,8]","[[-0.3,0.2],[0.3,0.2]]","[[0.125,-0.2],[-0.125,-0.2]]",0.094444444,-0.166666667,1,0,0,2.4157,o1_image,673.4363,0,673.9325,673.9326,675.9322,0,0,0,0,1,,,,,,,,,,,,,,,,,,,,,,,,,,,,,,,,,,,,,,,,,,,,,,,,,,
,,5ef0a0fbcb93ea5e9a7d3460,50,female,2024-04-16_12h21.54.371,stockport_simplified,2022.2.4,Win32,47.84688995,661e456ee6de07e70aa9ef7b,661e5126e993ed2a8dd64f51,,,,,,,,,,,,,,,,,,,,,,,,,,,,,,,,,,,,,,,,,,,,,,,,,,,,,,,,1,20,80,49,1,B,Y,N,o2_image,stimuli/out2.png,stimuli/out1.png,stimuli/correct_out2.png,,,,,,,,,,,,,,,,,,,,,,,,,,,,,,,,,,,,,,
,,5ef0a0fbcb93ea5e9a7d3460,50,female,2024-04-16_12h21.54.371,stockport_simplified,2022.2.4,Win32,47.84688995,661e456ee6de07e70aa9ef7b,661e5126e993ed2a8dd64f51,,,,,,,,,,,,,,,,,,,,,,,,,,,,,,,,,,675.9333,677.932,"[4,5,3,2,6,7,1,8]","[[0.3,0.2],[-0.3,0.2]]","[[-0.125,-0.2],[0.125,-0.2]]",0.143518575,-0.179629644,1,0,0,1.4777,o2_image,677.9339,1,678.4318,678.4318,680.4328,0,0,0,0,1,,,,,,,,,,,,,,,,,,,,,,,,,,,,,,,,,,,,,,,,,,,,,,,,,,
,,5ef0a0fbcb93ea5e9a7d3460,50,female,2024-04-16_12h21.54.371,stockport_simplified,2022.2.4,Win32,47.84688995,661e456ee6de07e70aa9ef7b,661e5126e993ed2a8dd64f51,,,,,,,,,,,,,,,,,,,,,,,,,,,,,,,,,,,,,,,,,,,,,,,,,,,,,,,,1,21,81,59,1,N,M,D,o2_image,stimuli/out2.png,stimuli/out1.png,stimuli/correct_out2.png,,,,,,,,,,,,,,,,,,,,,,,,,,,,,,,,,,,,,,
,,5ef0a0fbcb93ea5e9a7d3460,50,female,2024-04-16_12h21.54.371,stockport_simplified,2022.2.4,Win32,47.84688995,661e456ee6de07e70aa9ef7b,661e5126e993ed2a8dd64f51,,,,,,,,,,,,,,,,,,,,,,,,,,,,,,,,,,680.435,682.2039,"[4,5,3,2,6,7,1,8]","[[-0.3,0.2],[0.3,0.2]]","[[0.125,-0.2],[-0.125,-0.2]]",0.15648151,-0.224074131,1,0,0,1.2491,o1_image,682.2075,1,682.7044,682.7045,684.7035,0,0,0,0,1,,,,,,,,,,,,,,,,,,,,,,,,,,,,,,,,,,,,,,,,,,,,,,,,,,
,,5ef0a0fbcb93ea5e9a7d3460,50,female,2024-04-16_12h21.54.371,stockport_simplified,2022.2.4,Win32,47.84688995,661e456ee6de07e70aa9ef7b,661e5126e993ed2a8dd64f51,,,,,,,,,,,,,,,,,,,,,,,,,,,,,,,,,,,,,,,,,,,,,,,,,,,,,,,,1,22,82,52,1,N,M,C,o1_image,stimuli/out1.png,stimuli/correct_out1.png,stimuli/out2.png,,,,,,,,,,,,,,,,,,,,,,,,,,,,,,,,,,,,,,
,,5ef0a0fbcb93ea5e9a7d3460,50,female,2024-04-16_12h21.54.371,stockport_simplified,2022.2.4,Win32,47.84688995,661e456ee6de07e70aa9ef7b,661e5126e993ed2a8dd64f51,,,,,,,,,,,,,,,,,,,,,,,,,,,,,,,,,,684.7058,687.6407,"[4,5,3,2,6,7,1,8]","[[0.3,0.2],[-0.3,0.2]]","[[0.125,-0.2],[-0.125,-0.2]]",-0.107407379,-0.173148176,1,0,0,2.4138,o2_image,687.6425,0,688.1406,688.1407,690.1407,0,0,0,0,1,,,,,,,,,,,,,,,,,,,,,,,,,,,,,,,,,,,,,,,,,,,,,,,,,,
,,5ef0a0fbcb93ea5e9a7d3460,50,female,2024-04-16_12h21.54.371,stockport_simplified,2022.2.4,Win32,47.84688995,661e456ee6de07e70aa9ef7b,661e5126e993ed2a8dd64f51,,,,,,,,,,,,,,,,,,,,,,,,,,,,,,,,,,,,,,,,,,,,,,,,,,,,,,,,1,23,83,0,1,A,X,N,o1_image,stimuli/out1.png,stimuli/correct_out1.png,stimuli/out2.png,,,,,,,,,,,,,,,,,,,,,,,,,,,,,,,,,,,,,,
,,5ef0a0fbcb93ea5e9a7d3460,50,female,2024-04-16_12h21.54.371,stockport_simplified,2022.2.4,Win32,47.84688995,661e456ee6de07e70aa9ef7b,661e5126e993ed2a8dd64f51,,,,,,,,,,,,,,,,,,,,,,,,,,,,,,,,,,690.1418,693.5997,"[4,5,3,2,6,7,1,8]","[[-0.3,0.2],[0.3,0.2]]","[[-0.125,-0.2],[0.125,-0.2]]",-0.088888889,-0.190740755,1,0,0,2.937,o1_image,693.6271,0,694.1193,694.1194,696.1293,0,0,0,0,1,,,,,,,,,,,,,,,,,,,,,,,,,,,,,,,,,,,,,,,,,,,,,,,,,,
,,5ef0a0fbcb93ea5e9a7d3460,50,female,2024-04-16_12h21.54.371,stockport_simplified,2022.2.4,Win32,47.84688995,661e456ee6de07e70aa9ef7b,661e5126e993ed2a8dd64f51,,,,,,,,,,,,,,,,,,,,,,,,,,,,,,,,,,,,,,,,,,,,,,,,,,,,,,,,1,24,84,16,1,B,Y,N,o2_image,stimuli/out2.png,stimuli/out1.png,stimuli/correct_out2.png,,,,,,,,,,,,,,,,,,,,,,,,,,,,,,,,,,,,,,
,,5ef0a0fbcb93ea5e9a7d3460,50,female,2024-04-16_12h21.54.371,stockport_simplified,2022.2.4,Win32,47.84688995,661e456ee6de07e70aa9ef7b,661e5126e993ed2a8dd64f51,,,,,,,,,,,,,,,,,,,,,,,,,,,,,,,,,,696.1305,699.2451,"[4,5,3,2,6,7,1,8]","[[-0.3,0.2],[0.3,0.2]]","[[-0.125,-0.2],[0.125,-0.2]]",-0.084259203,-0.175925954,1,0,0,2.5952,o1_image,699.2702,0,699.7655,699.7656,701.7654,0,0,0,0,1,,,,,,,,,,,,,,,,,,,,,,,,,,,,,,,,,,,,,,,,,,,,,,,,,,
,,5ef0a0fbcb93ea5e9a7d3460,50,female,2024-04-16_12h21.54.371,stockport_simplified,2022.2.4,Win32,47.84688995,661e456ee6de07e70aa9ef7b,661e5126e993ed2a8dd64f51,,,,,,,,,,,,,,,,,,,,,,,,,,,,,,,,,,,,,,,,,,,,,,,,,,,,,,,,1,25,85,25,1,N,M,D,o2_image,stimuli/out2.png,stimuli/out1.png,stimuli/correct_out2.png,,,,,,,,,,,,,,,,,,,,,,,,,,,,,,,,,,,,,,
,,5ef0a0fbcb93ea5e9a7d3460,50,female,2024-04-16_12h21.54.371,stockport_simplified,2022.2.4,Win32,47.84688995,661e456ee6de07e70aa9ef7b,661e5126e993ed2a8dd64f51,,,,,,,,,,,,,,,,,,,,,,,,,,,,,,,,,,701.7661,704.7878,"[4,5,3,2,6,7,1,8]","[[0.3,0.2],[-0.3,0.2]]","[[-0.125,-0.2],[0.125,-0.2]]",0.099074131,-0.195370399,1,0,0,2.4998,o2_image,704.8155,1,705.3166,705.3167,707.3077,0,0,0,0,1,,,,,,,,,,,,,,,,,,,,,,,,,,,,,,,,,,,,,,,,,,,,,,,,,,
,,5ef0a0fbcb93ea5e9a7d3460,50,female,2024-04-16_12h21.54.371,stockport_simplified,2022.2.4,Win32,47.84688995,661e456ee6de07e70aa9ef7b,661e5126e993ed2a8dd64f51,,,,,,,,,,,,,,,,,,,,,,,,,,,,,,,,,,,,,,,,,,,,,,,,,,,,,,,,1,26,86,40,1,B,X,N,o2_image,stimuli/out2.png,stimuli/out1.png,stimuli/correct_out2.png,,,,,,,,,,,,,,,,,,,,,,,,,,,,,,,,,,,,,,
,,5ef0a0fbcb93ea5e9a7d3460,50,female,2024-04-16_12h21.54.371,stockport_simplified,2022.2.4,Win32,47.84688995,661e456ee6de07e70aa9ef7b,661e5126e993ed2a8dd64f51,,,,,,,,,,,,,,,,,,,,,,,,,,,,,,,,,,707.3089,709.955,"[4,5,3,2,6,7,1,8]","[[0.3,0.2],[-0.3,0.2]]","[[0.125,-0.2],[-0.125,-0.2]]",-0.150925869,-0.215740797,1,0,0,2.1255,o2_image,709.958,1,710.454,710.4541,712.4545,0,0,0,0,1,,,,,,,,,,,,,,,,,,,,,,,,,,,,,,,,,,,,,,,,,,,,,,,,,,
,,5ef0a0fbcb93ea5e9a7d3460,50,female,2024-04-16_12h21.54.371,stockport_simplified,2022.2.4,Win32,47.84688995,661e456ee6de07e70aa9ef7b,661e5126e993ed2a8dd64f51,,,,,,,,,,,,,,,,,,,,,,,,,,,,,,,,,,,,,,,,,,,,,,,,,,,,,,,,1,27,87,48,1,B,Y,N,o2_image,stimuli/out2.png,stimuli/out1.png,stimuli/correct_out2.png,,,,,,,,,,,,,,,,,,,,,,,,,,,,,,,,,,,,,,
,,5ef0a0fbcb93ea5e9a7d3460,50,female,2024-04-16_12h21.54.371,stockport_simplified,2022.2.4,Win32,47.84688995,661e456ee6de07e70aa9ef7b,661e5126e993ed2a8dd64f51,,,,,,,,,,,,,,,,,,,,,,,,,,,,,,,,,,712.4569,716.0293,"[4,5,3,2,6,7,1,8]","[[-0.3,0.2],[0.3,0.2]]","[[0.125,-0.2],[-0.125,-0.2]]",-0.115740712,-0.209259288,1,0,0,3.0532,o2_image,716.0309,1,716.516,716.5161,718.5166,0,0,0,0,1,,,,,,,,,,,,,,,,,,,,,,,,,,,,,,,,,,,,,,,,,,,,,,,,,,
,,5ef0a0fbcb93ea5e9a7d3460,50,female,2024-04-16_12h21.54.371,stockport_simplified,2022.2.4,Win32,47.84688995,661e456ee6de07e70aa9ef7b,661e5126e993ed2a8dd64f51,,,,,,,,,,,,,,,,,,,,,,,,,,,,,,,,,,,,,,,,,,,,,,,,,,,,,,,,1,28,88,43,1,B,X,N,o2_image,stimuli/out2.png,stimuli/out1.png,stimuli/correct_out2.png,,,,,,,,,,,,,,,,,,,,,,,,,,,,,,,,,,,,,,
,,5ef0a0fbcb93ea5e9a7d3460,50,female,2024-04-16_12h21.54.371,stockport_simplified,2022.2.4,Win32,47.84688995,661e456ee6de07e70aa9ef7b,661e5126e993ed2a8dd64f51,,,,,,,,,,,,,,,,,,,,,,,,,,,,,,,,,,718.5186,721.1102,"[4,5,3,2,6,7,1,8]","[[0.3,0.2],[-0.3,0.2]]","[[0.125,-0.2],[-0.125,-0.2]]",-0.158333333,-0.175925954,1,0,0,2.0709,o2_image,721.1119,1,721.5996,721.5997,723.6014,0,0,0,0,1,,,,,,,,,,,,,,,,,,,,,,,,,,,,,,,,,,,,,,,,,,,,,,,,,,
,,5ef0a0fbcb93ea5e9a7d3460,50,female,2024-04-16_12h21.54.371,stockport_simplified,2022.2.4,Win32,47.84688995,661e456ee6de07e70aa9ef7b,661e5126e993ed2a8dd64f51,,,,,,,,,,,,,,,,,,,,,,,,,,,,,,,,,,,,,,,,,,,,,,,,,,,,,,,,1,29,89,45,1,B,Y,N,o2_image,stimuli/out2.png,stimuli/out1.png,stimuli/correct_out2.png,,,,,,,,,,,,,,,,,,,,,,,,,,,,,,,,,,,,,,
,,5ef0a0fbcb93ea5e9a7d3460,50,female,2024-04-16_12h21.54.371,stockport_simplified,2022.2.4,Win32,47.84688995,661e456ee6de07e70aa9ef7b,661e5126e993ed2a8dd64f51,,,,,,,,,,,,,,,,,,,,,,,,,,,,,,,,,,723.6035,726.8922,"[4,5,3,2,6,7,1,8]","[[-0.3,0.2],[0.3,0.2]]","[[-0.125,-0.2],[0.125,-0.2]]",0.13148151,-0.2,1,0,0,2.7697,o2_image,726.9066,1,727.3925,727.3927,729.392,0,0,0,0,1,,,,,,,,,,,,,,,,,,,,,,,,,,,,,,,,,,,,,,,,,,,,,,,,,,
,,5ef0a0fbcb93ea5e9a7d3460,50,female,2024-04-16_12h21.54.371,stockport_simplified,2022.2.4,Win32,47.84688995,661e456ee6de07e70aa9ef7b,661e5126e993ed2a8dd64f51,,,,,,,,,,,,,,,,,,,,,,,,,,,,,,,,,,,,,,,,,,,,,,,,,,,,,,,,1,30,90,18,1,B,Y,N,o2_image,stimuli/out2.png,stimuli/out1.png,stimuli/correct_out2.png,,,,,,,,,,,,,,,,,,,,,,,,,,,,,,,,,,,,,,
,,5ef0a0fbcb93ea5e9a7d3460,50,female,2024-04-16_12h21.54.371,stockport_simplified,2022.2.4,Win32,47.84688995,661e456ee6de07e70aa9ef7b,661e5126e993ed2a8dd64f51,,,,,,,,,,,,,,,,,,,,,,,,,,,,,,,,,,729.3945,732.8731,"[4,5,3,2,6,7,1,8]","[[0.3,0.2],[-0.3,0.2]]","[[-0.125,-0.2],[0.125,-0.2]]",-0.115740712,-0.183333333,1,0,0,2.9571,o1_image,732.898,1,733.3912,733.3912,735.3912,0,0,0,0,1,,,,,,,,,,,,,,,,,,,,,,,,,,,,,,,,,,,,,,,,,,,,,,,,,,
,,5ef0a0fbcb93ea5e9a7d3460,50,female,2024-04-16_12h21.54.371,stockport_simplified,2022.2.4,Win32,47.84688995,661e456ee6de07e70aa9ef7b,661e5126e993ed2a8dd64f51,,,,,,,,,,,,,,,,,,,,,,,,,,,,,,,,,,,,,,,,,,,,,,,,,,,,,,,,1,31,91,3,1,A,X,N,o1_image,stimuli/out1.png,stimuli/correct_out1.png,stimuli/out2.png,,,,,,,,,,,,,,,,,,,,,,,,,,,,,,,,,,,,,,
,,5ef0a0fbcb93ea5e9a7d3460,50,female,2024-04-16_12h21.54.371,stockport_simplified,2022.2.4,Win32,47.84688995,661e456ee6de07e70aa9ef7b,661e5126e993ed2a8dd64f51,,,,,,,,,,,,,,,,,,,,,,,,,,,,,,,,,,735.3923,737.3083,"[4,5,3,2,6,7,1,8]","[[0.3,0.2],[-0.3,0.2]]","[[0.125,-0.2],[-0.125,-0.2]]",-0.15,-0.183333333,1,0,0,1.3953,o2_image,737.3107,1,737.8079,737.808,739.8074,0,0,0,0,1,,,,,,,,,,,,,,,,,,,,,,,,,,,,,,,,,,,,,,,,,,,,,,,,,,
,,5ef0a0fbcb93ea5e9a7d3460,50,female,2024-04-16_12h21.54.371,stockport_simplified,2022.2.4,Win32,47.84688995,661e456ee6de07e70aa9ef7b,661e5126e993ed2a8dd64f51,,,,,,,,,,,,,,,,,,,,,,,,,,,,,,,,,,,,,,,,,,,,,,,,,,,,,,,,1,32,92,57,1,N,M,D,o2_image,stimuli/out2.png,stimuli/out1.png,stimuli/correct_out2.png,,,,,,,,,,,,,,,,,,,,,,,,,,,,,,,,,,,,,,
,,5ef0a0fbcb93ea5e9a7d3460,50,female,2024-04-16_12h21.54.371,stockport_simplified,2022.2.4,Win32,47.84688995,661e456ee6de07e70aa9ef7b,661e5126e993ed2a8dd64f51,,,,,,,,,,,,,,,,,,,,,,,,,,,,,,,,,,739.8079,742.9335,"[4,5,3,2,6,7,1,8]","[[0.3,0.2],[-0.3,0.2]]","[[0.125,-0.2],[-0.125,-0.2]]",-0.158333333,-0.168518533,1,0,0,2.6035,o2_image,742.9562,1,743.4538,743.4538,745.454,0,0,0,0,1,,,,,,,,,,,,,,,,,,,,,,,,,,,,,,,,,,,,,,,,,,,,,,,,,,
,,5ef0a0fbcb93ea5e9a7d3460,50,female,2024-04-16_12h21.54.371,stockport_simplified,2022.2.4,Win32,47.84688995,661e456ee6de07e70aa9ef7b,661e5126e993ed2a8dd64f51,,,,,,,,,,,,,,,,,,,,,,,,,,,,,,,,,,,,,,,,,,,,,,,,,,,,,,,,1,33,93,42,1,B,X,N,o2_image,stimuli/out2.png,stimuli/out1.png,stimuli/correct_out2.png,,,,,,,,,,,,,,,,,,,,,,,,,,,,,,,,,,,,,,
,,5ef0a0fbcb93ea5e9a7d3460,50,female,2024-04-16_12h21.54.371,stockport_simplified,2022.2.4,Win32,47.84688995,661e456ee6de07e70aa9ef7b,661e5126e993ed2a8dd64f51,,,,,,,,,,,,,,,,,,,,,,,,,,,,,,,,,,745.4552,748.1106,"[4,5,3,2,6,7,1,8]","[[-0.3,0.2],[0.3,0.2]]","[[0.125,-0.2],[-0.125,-0.2]]",-0.11851849,-0.20648151,1,0,0,2.1351,o2_image,748.112,0,748.5999,748.6,750.5999,0,0,0,0,1,,,,,,,,,,,,,,,,,,,,,,,,,,,,,,,,,,,,,,,,,,,,,,,,,,
,,5ef0a0fbcb93ea5e9a7d3460,50,female,2024-04-16_12h21.54.371,stockport_simplified,2022.2.4,Win32,47.84688995,661e456ee6de07e70aa9ef7b,661e5126e993ed2a8dd64f51,,,,,,,,,,,,,,,,,,,,,,,,,,,,,,,,,,,,,,,,,,,,,,,,,,,,,,,,1,34,94,30,1,A,X,N,o1_image,stimuli/out1.png,stimuli/correct_out1.png,stimuli/out2.png,,,,,,,,,,,,,,,,,,,,,,,,,,,,,,,,,,,,,,
,,5ef0a0fbcb93ea5e9a7d3460,50,female,2024-04-16_12h21.54.371,stockport_simplified,2022.2.4,Win32,47.84688995,661e456ee6de07e70aa9ef7b,661e5126e993ed2a8dd64f51,,,,,,,,,,,,,,,,,,,,,,,,,,,,,,,,,,750.601,753.4957,"[4,5,3,2,6,7,1,8]","[[-0.3,0.2],[0.3,0.2]]","[[0.125,-0.2],[-0.125,-0.2]]",-0.102777778,-0.198148176,1,0,0,2.3752,o2_image,753.4976,0,753.9977,753.998,755.9837,0,0,0,0,1,,,,,,,,,,,,,,,,,,,,,,,,,,,,,,,,,,,,,,,,,,,,,,,,,,
,,5ef0a0fbcb93ea5e9a7d3460,50,female,2024-04-16_12h21.54.371,stockport_simplified,2022.2.4,Win32,47.84688995,661e456ee6de07e70aa9ef7b,661e5126e993ed2a8dd64f51,,,,,,,,,,,,,,,,,,,,,,,,,,,,,,,,,,,,,,,,,,,,,,,,,,,,,,,,1,35,95,5,1,A,Y,N,o1_image,stimuli/out1.png,stimuli/correct_out1.png,stimuli/out2.png,,,,,,,,,,,,,,,,,,,,,,,,,,,,,,,,,,,,,,
,,5ef0a0fbcb93ea5e9a7d3460,50,female,2024-04-16_12h21.54.371,stockport_simplified,2022.2.4,Win32,47.84688995,661e456ee6de07e70aa9ef7b,661e5126e993ed2a8dd64f51,,,,,,,,,,,,,,,,,,,,,,,,,,,,,,,,,,755.9841,757.9746,"[4,5,3,2,6,7,1,8]","[[0.3,0.2],[-0.3,0.2]]","[[-0.125,-0.2],[0.125,-0.2]]",0.107407464,-0.218518575,1,0,0,1.4696,o2_image,757.9778,1,758.4748,758.475,760.475,0,0,0,0,1,,,,,,,,,,,,,,,,,,,,,,,,,,,,,,,,,,,,,,,,,,,,,,,,,,
,,5ef0a0fbcb93ea5e9a7d3460,50,female,2024-04-16_12h21.54.371,stockport_simplified,2022.2.4,Win32,47.84688995,661e456ee6de07e70aa9ef7b,661e5126e993ed2a8dd64f51,,,,,,,,,,,,,,,,,,,,,,,,,,,,,,,,,,,,,,,,,,,,,,,,,,,,,,,,1,36,96,58,1,N,M,D,o2_image,stimuli/out2.png,stimuli/out1.png,stimuli/correct_out2.png,,,,,,,,,,,,,,,,,,,,,,,,,,,,,,,,,,,,,,
,,5ef0a0fbcb93ea5e9a7d3460,50,female,2024-04-16_12h21.54.371,stockport_simplified,2022.2.4,Win32,47.84688995,661e456ee6de07e70aa9ef7b,661e5126e993ed2a8dd64f51,,,,,,,,,,,,,,,,,,,,,,,,,,,,,,,,,,760.4761,763.0817,"[4,5,3,2,6,7,1,8]","[[0.3,0.2],[-0.3,0.2]]","[[-0.125,-0.2],[0.125,-0.2]]",-0.116666667,-0.187962977,1,0,0,2.0846,o1_image,763.084,0,763.5792,763.5792,765.5785,0,0,0,0,1,,,,,,,,,,,,,,,,,,,,,,,,,,,,,,,,,,,,,,,,,,,,,,,,,,
,,5ef0a0fbcb93ea5e9a7d3460,50,female,2024-04-16_12h21.54.371,stockport_simplified,2022.2.4,Win32,47.84688995,661e456ee6de07e70aa9ef7b,661e5126e993ed2a8dd64f51,,,,,,,,,,,,,,,,,,,,,,,,,,,,,,,,,,,,,,,,,,,,,,,,,,,,,,,,1,37,97,17,1,B,Y,N,o2_image,stimuli/out2.png,stimuli/out1.png,stimuli/correct_out2.png,,,,,,,,,,,,,,,,,,,,,,,,,,,,,,,,,,,,,,
,,5ef0a0fbcb93ea5e9a7d3460,50,female,2024-04-16_12h21.54.371,stockport_simplified,2022.2.4,Win32,47.84688995,661e456ee6de07e70aa9ef7b,661e5126e993ed2a8dd64f51,,,,,,,,,,,,,,,,,,,,,,,,,,,,,,,,,,765.5791,768.0167,"[4,5,3,2,6,7,1,8]","[[0.3,0.2],[-0.3,0.2]]","[[-0.125,-0.2],[0.125,-0.2]]",0.103703732,-0.174074088,1,0,0,1.9159,o2_image,768.0189,0,768.5166,768.5167,770.517,0,0,0,0,1,,,,,,,,,,,,,,,,,,,,,,,,,,,,,,,,,,,,,,,,,,,,,,,,,,
,,5ef0a0fbcb93ea5e9a7d3460,50,female,2024-04-16_12h21.54.371,stockport_simplified,2022.2.4,Win32,47.84688995,661e456ee6de07e70aa9ef7b,661e5126e993ed2a8dd64f51,,,,,,,,,,,,,,,,,,,,,,,,,,,,,,,,,,,,,,,,,,,,,,,,,,,,,,,,1,38,98,1,1,A,X,N,o1_image,stimuli/out1.png,stimuli/correct_out1.png,stimuli/out2.png,,,,,,,,,,,,,,,,,,,,,,,,,,,,,,,,,,,,,,
,,5ef0a0fbcb93ea5e9a7d3460,50,female,2024-04-16_12h21.54.371,stockport_simplified,2022.2.4,Win32,47.84688995,661e456ee6de07e70aa9ef7b,661e5126e993ed2a8dd64f51,,,,,,,,,,,,,,,,,,,,,,,,,,,,,,,,,,770.5189,776.063,"[4,5,3,2,6,7,1,8]","[[-0.3,0.2],[0.3,0.2]]","[[-0.125,-0.2],[0.125,-0.2]]",-0.109259203,-0.162037065,1,0,0,5.0249,o1_image,776.0926,0,776.5788,776.5789,778.5799,0,0,0,0,1,,,,,,,,,,,,,,,,,,,,,,,,,,,,,,,,,,,,,,,,,,,,,,,,,,
,,5ef0a0fbcb93ea5e9a7d3460,50,female,2024-04-16_12h21.54.371,stockport_simplified,2022.2.4,Win32,47.84688995,661e456ee6de07e70aa9ef7b,661e5126e993ed2a8dd64f51,,,,,,,,,,,,,,,,,,,,,,,,,,,,,,,,,,,,,,,,,,,,,,,,,,,,,,,,1,39,99,15,1,B,Y,N,o2_image,stimuli/out2.png,stimuli/out1.png,stimuli/correct_out2.png,,,,,,,,,,,,,,,,,,,,,,,,,,,,,,,,,,,,,,
,,5ef0a0fbcb93ea5e9a7d3460,50,female,2024-04-16_12h21.54.371,stockport_simplified,2022.2.4,Win32,47.84688995,661e456ee6de07e70aa9ef7b,661e5126e993ed2a8dd64f51,,,,,,,,,,,,,,,,,,,,,,,,,,,,,,,,,,778.5818,783.7049,"[4,5,3,2,6,7,1,8]","[[-0.3,0.2],[0.3,0.2]]","[[-0.125,-0.2],[0.125,-0.2]]",0.082407464,-0.166666667,1,0,0,4.6034,o2_image,783.7334,0,784.2252,784.2253,786.2262,0,0,0,0,1,,,,,,,,,,,,,,,,,,,,,,,,,,,,,,,,,,,,,,,,,,,,,,,,,,
,,5ef0a0fbcb93ea5e9a7d3460,50,female,2024-04-16_12h21.54.371,stockport_simplified,2022.2.4,Win32,47.84688995,661e456ee6de07e70aa9ef7b,661e5126e993ed2a8dd64f51,,,,,,,,,,,,,,,,,,,,,,,,,,,,,,,,,,,,,,,,,,,,,,,,,,,,,,,,1,40,100,33,1,A,X,N,o1_image,stimuli/out1.png,stimuli/correct_out1.png,stimuli/out2.png,,,,,,,,,,,,,,,,,,,,,,,,,,,,,,,,,,,,,,
,,5ef0a0fbcb93ea5e9a7d3460,50,female,2024-04-16_12h21.54.371,stockport_simplified,2022.2.4,Win32,47.84688995,661e456ee6de07e70aa9ef7b,661e5126e993ed2a8dd64f51,,,,,,,,,,,,,,,,,,,,,,,,,,,,,,,,,,786.2285,789.2459,"[4,5,3,2,6,7,1,8]","[[-0.3,0.2],[0.3,0.2]]","[[0.125,-0.2],[-0.125,-0.2]]",-0.105555556,-0.186111111,1,0,0,2.4958,o2_image,789.262,1,789.747,789.7471,791.7456,0,0,0,0,1,,,,,,,,,,,,,,,,,,,,,,,,,,,,,,,,,,,,,,,,,,,,,,,,,,
,,5ef0a0fbcb93ea5e9a7d3460,50,female,2024-04-16_12h21.54.371,stockport_simplified,2022.2.4,Win32,47.84688995,661e456ee6de07e70aa9ef7b,661e5126e993ed2a8dd64f51,,,,,,,,,,,,,,,,,,,,,,,,,,,,,,,,,,,,,,,,,,,,,,,,,,,,,,,,1,41,101,56,1,N,M,D,o2_image,stimuli/out2.png,stimuli/out1.png,stimuli/correct_out2.png,,,,,,,,,,,,,,,,,,,,,,,,,,,,,,,,,,,,,,
,,5ef0a0fbcb93ea5e9a7d3460,50,female,2024-04-16_12h21.54.371,stockport_simplified,2022.2.4,Win32,47.84688995,661e456ee6de07e70aa9ef7b,661e5126e993ed2a8dd64f51,,,,,,,,,,,,,,,,,,,,,,,,,,,,,,,,,,791.7465,795.2257,"[4,5,3,2,6,7,1,8]","[[-0.3,0.2],[0.3,0.2]]","[[-0.125,-0.2],[0.125,-0.2]]",-0.158333333,-0.175925954,1,0,0,2.9574,o1_image,795.2481,1,795.7471,795.7473,797.7504,0,0,0,0,1,,,,,,,,,,,,,,,,,,,,,,,,,,,,,,,,,,,,,,,,,,,,,,,,,,
,,5ef0a0fbcb93ea5e9a7d3460,50,female,2024-04-16_12h21.54.371,stockport_simplified,2022.2.4,Win32,47.84688995,661e456ee6de07e70aa9ef7b,661e5126e993ed2a8dd64f51,,,,,,,,,,,,,,,,,,,,,,,,,,,,,,,,,,,,,,,,,,,,,,,,,,,,,,,,1,42,102,31,1,A,X,N,o1_image,stimuli/out1.png,stimuli/correct_out1.png,stimuli/out2.png,,,,,,,,,,,,,,,,,,,,,,,,,,,,,,,,,,,,,,
,,5ef0a0fbcb93ea5e9a7d3460,50,female,2024-04-16_12h21.54.371,stockport_simplified,2022.2.4,Win32,47.84688995,661e456ee6de07e70aa9ef7b,661e5126e993ed2a8dd64f51,,,,,,,,,,,,,,,,,,,,,,,,,,,,,,,,,,797.7514,800.3413,"[4,5,3,2,6,7,1,8]","[[-0.3,0.2],[0.3,0.2]]","[[-0.125,-0.2],[0.125,-0.2]]",-0.096296268,-0.177777778,1,0,0,2.0715,o1_image,800.3431,1,800.8296,800.8297,802.8307,0,0,0,0,1,,,,,,,,,,,,,,,,,,,,,,,,,,,,,,,,,,,,,,,,,,,,,,,,,,
,,5ef0a0fbcb93ea5e9a7d3460,50,female,2024-04-16_12h21.54.371,stockport_simplified,2022.2.4,Win32,47.84688995,661e456ee6de07e70aa9ef7b,661e5126e993ed2a8dd64f51,,,,,,,,,,,,,,,,,,,,,,,,,,,,,,,,,,,,,,,,,,,,,,,,,,,,,,,,1,43,103,39,1,A,Y,N,o1_image,stimuli/out1.png,stimuli/correct_out1.png,stimuli/out2.png,,,,,,,,,,,,,,,,,,,,,,,,,,,,,,,,,,,,,,
,,5ef0a0fbcb93ea5e9a7d3460,50,female,2024-04-16_12h21.54.371,stockport_simplified,2022.2.4,Win32,47.84688995,661e456ee6de07e70aa9ef7b,661e5126e993ed2a8dd64f51,,,,,,,,,,,,,,,,,,,,,,,,,,,,,,,,,,802.8327,805.1441,"[4,5,3,2,6,7,1,8]","[[-0.3,0.2],[0.3,0.2]]","[[-0.125,-0.2],[0.125,-0.2]]",-0.106481425,-0.212037065,1,0,0,1.7896,o1_image,805.1467,1,805.6463,805.6463,807.6442,0,0,0,0,1,,,,,,,,,,,,,,,,,,,,,,,,,,,,,,,,,,,,,,,,,,,,,,,,,,
,,5ef0a0fbcb93ea5e9a7d3460,50,female,2024-04-16_12h21.54.371,stockport_simplified,2022.2.4,Win32,47.84688995,661e456ee6de07e70aa9ef7b,661e5126e993ed2a8dd64f51,,,,,,,,,,,,,,,,,,,,,,,,,,,,,,,,,,,,,,,,,,,,,,,,,,,,,,,,1,44,104,20,1,N,M,C,o1_image,stimuli/out1.png,stimuli/correct_out1.png,stimuli/out2.png,,,,,,,,,,,,,,,,,,,,,,,,,,,,,,,,,,,,,,
,,5ef0a0fbcb93ea5e9a7d3460,50,female,2024-04-16_12h21.54.371,stockport_simplified,2022.2.4,Win32,47.84688995,661e456ee6de07e70aa9ef7b,661e5126e993ed2a8dd64f51,,,,,,,,,,,,,,,,,,,,,,,,,,,,,,,,,,807.6458,810.5589,"[4,5,3,2,6,7,1,8]","[[-0.3,0.2],[0.3,0.2]]","[[0.125,-0.2],[-0.125,-0.2]]",0.143518575,-0.203703732,1,0,0,2.3919,o1_image,810.5614,1,811.059,811.059,813.0583,0,0,0,0,1,,,,,,,,,,,,,,,,,,,,,,,,,,,,,,,,,,,,,,,,,,,,,,,,,,
,,5ef0a0fbcb93ea5e9a7d3460,50,female,2024-04-16_12h21.54.371,stockport_simplified,2022.2.4,Win32,47.84688995,661e456ee6de07e70aa9ef7b,661e5126e993ed2a8dd64f51,,,,,,,,,,,,,,,,,,,,,,,,,,,,,,,,,,,,,,,,,,,,,,,,,,,,,,,,1,45,105,38,1,A,Y,N,o1_image,stimuli/out1.png,stimuli/correct_out1.png,stimuli/out2.png,,,,,,,,,,,,,,,,,,,,,,,,,,,,,,,,,,,,,,
,,5ef0a0fbcb93ea5e9a7d3460,50,female,2024-04-16_12h21.54.371,stockport_simplified,2022.2.4,Win32,47.84688995,661e456ee6de07e70aa9ef7b,661e5126e993ed2a8dd64f51,,,,,,,,,,,,,,,,,,,,,,,,,,,,,,,,,,813.0589,816.6449,"[4,5,3,2,6,7,1,8]","[[-0.3,0.2],[0.3,0.2]]","[[-0.125,-0.2],[0.125,-0.2]]",0.140740797,-0.187962977,1,0,0,3.0647,o2_image,816.6733,0,817.163,817.1631,819.1631,0,0,0,0,1,,,,,,,,,,,,,,,,,,,,,,,,,,,,,,,,,,,,,,,,,,,,,,,,,,
,,5ef0a0fbcb93ea5e9a7d3460,50,female,2024-04-16_12h21.54.371,stockport_simplified,2022.2.4,Win32,47.84688995,661e456ee6de07e70aa9ef7b,661e5126e993ed2a8dd64f51,,,,,,,,,,,,,,,,,,,,,,,,,,,,,,,,,,,,,,,,,,,,,,,,,,,,,,,,1,46,106,7,1,A,Y,N,o1_image,stimuli/out1.png,stimuli/correct_out1.png,stimuli/out2.png,,,,,,,,,,,,,,,,,,,,,,,,,,,,,,,,,,,,,,
,,5ef0a0fbcb93ea5e9a7d3460,50,female,2024-04-16_12h21.54.371,stockport_simplified,2022.2.4,Win32,47.84688995,661e456ee6de07e70aa9ef7b,661e5126e993ed2a8dd64f51,,,,,,,,,,,,,,,,,,,,,,,,,,,,,,,,,,819.1643,823.278,"[4,5,3,2,6,7,1,8]","[[-0.3,0.2],[0.3,0.2]]","[[-0.125,-0.2],[0.125,-0.2]]",-0.125925869,-0.217592621,1,0,0,3.5939,o1_image,823.3074,0,823.8101,823.8102,825.8092,0,0,0,0,1,,,,,,,,,,,,,,,,,,,,,,,,,,,,,,,,,,,,,,,,,,,,,,,,,,
,,5ef0a0fbcb93ea5e9a7d3460,50,female,2024-04-16_12h21.54.371,stockport_simplified,2022.2.4,Win32,47.84688995,661e456ee6de07e70aa9ef7b,661e5126e993ed2a8dd64f51,,,,,,,,,,,,,,,,,,,,,,,,,,,,,,,,,,,,,,,,,,,,,,,,,,,,,,,,1,47,107,12,1,B,X,N,o2_image,stimuli/out2.png,stimuli/out1.png,stimuli/correct_out2.png,,,,,,,,,,,,,,,,,,,,,,,,,,,,,,,,,,,,,,
,,5ef0a0fbcb93ea5e9a7d3460,50,female,2024-04-16_12h21.54.371,stockport_simplified,2022.2.4,Win32,47.84688995,661e456ee6de07e70aa9ef7b,661e5126e993ed2a8dd64f51,,,,,,,,,,,,,,,,,,,,,,,,,,,,,,,,,,825.8106,830.5416,"[4,5,3,2,6,7,1,8]","[[-0.3,0.2],[0.3,0.2]]","[[0.125,-0.2],[-0.125,-0.2]]",-0.149074046,-0.194444444,1,0,0,4.2115,o2_image,830.5674,1,831.0591,831.0591,833.0592,0,0,0,0,1,,,,,,,,,,,,,,,,,,,,,,,,,,,,,,,,,,,,,,,,,,,,,,,,,,
,,5ef0a0fbcb93ea5e9a7d3460,50,female,2024-04-16_12h21.54.371,stockport_simplified,2022.2.4,Win32,47.84688995,661e456ee6de07e70aa9ef7b,661e5126e993ed2a8dd64f51,,,,,,,,,,,,,,,,,,,,,,,,,,,,,,,,,,,,,,,,,,,,,,,,,,,,,,,,1,48,108,27,1,N,M,D,o2_image,stimuli/out2.png,stimuli/out1.png,stimuli/correct_out2.png,,,,,,,,,,,,,,,,,,,,,,,,,,,,,,,,,,,,,,
,,5ef0a0fbcb93ea5e9a7d3460,50,female,2024-04-16_12h21.54.371,stockport_simplified,2022.2.4,Win32,47.84688995,661e456ee6de07e70aa9ef7b,661e5126e993ed2a8dd64f51,,,,,,,,,,,,,,,,,,,,,,,,,,,,,,,,,,833.0603,834.538,"[4,5,3,2,6,7,1,8]","[[0.3,0.2],[-0.3,0.2]]","[[0.125,-0.2],[-0.125,-0.2]]",-0.104629601,-0.197222222,1,0,0,0.9577,o2_image,834.5406,1,835.0383,835.0383,837.0385,0,0,0,0,1,,,,,,,,,,,,,,,,,,,,,,,,,,,,,,,,,,,,,,,,,,,,,,,,,,
,,5ef0a0fbcb93ea5e9a7d3460,50,female,2024-04-16_12h21.54.371,stockport_simplified,2022.2.4,Win32,47.84688995,661e456ee6de07e70aa9ef7b,661e5126e993ed2a8dd64f51,,,,,,,,,,,,,,,,,,,,,,,,,,,,,,,,,,,,,,,,,,,,,,,,,,,,,,,,1,49,109,26,1,N,M,D,o2_image,stimuli/out2.png,stimuli/out1.png,stimuli/correct_out2.png,,,,,,,,,,,,,,,,,,,,,,,,,,,,,,,,,,,,,,
,,5ef0a0fbcb93ea5e9a7d3460,50,female,2024-04-16_12h21.54.371,stockport_simplified,2022.2.4,Win32,47.84688995,661e456ee6de07e70aa9ef7b,661e5126e993ed2a8dd64f51,,,,,,,,,,,,,,,,,,,,,,,,,,,,,,,,,,837.0396,838.9149,"[4,5,3,2,6,7,1,8]","[[0.3,0.2],[-0.3,0.2]]","[[0.125,-0.2],[-0.125,-0.2]]",0.110185242,-0.208333333,1,0,0,1.3545,o1_image,838.9172,1,839.4145,839.4147,841.4134,0,0,0,0,1,,,,,,,,,,,,,,,,,,,,,,,,,,,,,,,,,,,,,,,,,,,,,,,,,,
,,5ef0a0fbcb93ea5e9a7d3460,50,female,2024-04-16_12h21.54.371,stockport_simplified,2022.2.4,Win32,47.84688995,661e456ee6de07e70aa9ef7b,661e5126e993ed2a8dd64f51,,,,,,,,,,,,,,,,,,,,,,,,,,,,,,,,,,,,,,,,,,,,,,,,,,,,,,,,1,50,110,54,1,N,M,C,o1_image,stimuli/out1.png,stimuli/correct_out1.png,stimuli/out2.png,,,,,,,,,,,,,,,,,,,,,,,,,,,,,,,,,,,,,,
,,5ef0a0fbcb93ea5e9a7d3460,50,female,2024-04-16_12h21.54.371,stockport_simplified,2022.2.4,Win32,47.84688995,661e456ee6de07e70aa9ef7b,661e5126e993ed2a8dd64f51,,,,,,,,,,,,,,,,,,,,,,,,,,,,,,,,,,841.4147,845.0491,"[4,5,3,2,6,7,1,8]","[[0.3,0.2],[-0.3,0.2]]","[[-0.125,-0.2],[0.125,-0.2]]",-0.147222222,-0.199074088,1,0,0,3.1136,o1_image,845.0783,1,845.5799,845.58,847.5798,0,0,0,0,1,,,,,,,,,,,,,,,,,,,,,,,,,,,,,,,,,,,,,,,,,,,,,,,,,,
,,5ef0a0fbcb93ea5e9a7d3460,50,female,2024-04-16_12h21.54.371,stockport_simplified,2022.2.4,Win32,47.84688995,661e456ee6de07e70aa9ef7b,661e5126e993ed2a8dd64f51,,,,,,,,,,,,,,,,,,,,,,,,,,,,,,,,,,,,,,,,,,,,,,,,,,,,,,,,1,51,111,32,1,A,X,N,o1_image,stimuli/out1.png,stimuli/correct_out1.png,stimuli/out2.png,,,,,,,,,,,,,,,,,,,,,,,,,,,,,,,,,,,,,,
,,5ef0a0fbcb93ea5e9a7d3460,50,female,2024-04-16_12h21.54.371,stockport_simplified,2022.2.4,Win32,47.84688995,661e456ee6de07e70aa9ef7b,661e5126e993ed2a8dd64f51,,,,,,,,,,,,,,,,,,,,,,,,,,,,,,,,,,847.5808,850.9765,"[4,5,3,2,6,7,1,8]","[[0.3,0.2],[-0.3,0.2]]","[[0.125,-0.2],[-0.125,-0.2]]",0.147222222,-0.230555556,1,0,0,2.8736,o1_image,851.0053,0,851.4968,851.4969,853.4968,0,0,0,0,1,,,,,,,,,,,,,,,,,,,,,,,,,,,,,,,,,,,,,,,,,,,,,,,,,,
,,5ef0a0fbcb93ea5e9a7d3460,50,female,2024-04-16_12h21.54.371,stockport_simplified,2022.2.4,Win32,47.84688995,661e456ee6de07e70aa9ef7b,661e5126e993ed2a8dd64f51,,,,,,,,,,,,,,,,,,,,,,,,,,,,,,,,,,,,,,,,,,,,,,,,,,,,,,,,1,52,112,19,1,B,Y,N,o2_image,stimuli/out2.png,stimuli/out1.png,stimuli/correct_out2.png,,,,,,,,,,,,,,,,,,,,,,,,,,,,,,,,,,,,,,
,,5ef0a0fbcb93ea5e9a7d3460,50,female,2024-04-16_12h21.54.371,stockport_simplified,2022.2.4,Win32,47.84688995,661e456ee6de07e70aa9ef7b,661e5126e993ed2a8dd64f51,,,,,,,,,,,,,,,,,,,,,,,,,,,,,,,,,,853.4979,857.5623,"[4,5,3,2,6,7,1,8]","[[-0.3,0.2],[0.3,0.2]]","[[-0.125,-0.2],[0.125,-0.2]]",-0.119444444,-0.162962977,1,0,0,3.5429,o1_image,857.591,1,858.0803,858.0804,860.0803,0,0,0,0,1,,,,,,,,,,,,,,,,,,,,,,,,,,,,,,,,,,,,,,,,,,,,,,,,,,
,,5ef0a0fbcb93ea5e9a7d3460,50,female,2024-04-16_12h21.54.371,stockport_simplified,2022.2.4,Win32,47.84688995,661e456ee6de07e70aa9ef7b,661e5126e993ed2a8dd64f51,,,,,,,,,,,,,,,,,,,,,,,,,,,,,,,,,,,,,,,,,,,,,,,,,,,,,,,,1,53,113,2,1,A,X,N,o1_image,stimuli/out1.png,stimuli/correct_out1.png,stimuli/out2.png,,,,,,,,,,,,,,,,,,,,,,,,,,,,,,,,,,,,,,
,,5ef0a0fbcb93ea5e9a7d3460,50,female,2024-04-16_12h21.54.371,stockport_simplified,2022.2.4,Win32,47.84688995,661e456ee6de07e70aa9ef7b,661e5126e993ed2a8dd64f51,,,,,,,,,,,,,,,,,,,,,,,,,,,,,,,,,,860.0815,862.3126,"[4,5,3,2,6,7,1,8]","[[-0.3,0.2],[0.3,0.2]]","[[-0.125,-0.2],[0.125,-0.2]]",0.141666667,-0.190740755,1,0,0,1.7095,o2_image,862.3145,0,862.8103,862.8105,864.8096,0,0,0,0,1,,,,,,,,,,,,,,,,,,,,,,,,,,,,,,,,,,,,,,,,,,,,,,,,,,
,,5ef0a0fbcb93ea5e9a7d3460,50,female,2024-04-16_12h21.54.371,stockport_simplified,2022.2.4,Win32,47.84688995,661e456ee6de07e70aa9ef7b,661e5126e993ed2a8dd64f51,,,,,,,,,,,,,,,,,,,,,,,,,,,,,,,,,,,,,,,,,,,,,,,,,,,,,,,,1,54,114,6,1,A,Y,N,o1_image,stimuli/out1.png,stimuli/correct_out1.png,stimuli/out2.png,,,,,,,,,,,,,,,,,,,,,,,,,,,,,,,,,,,,,,
,,5ef0a0fbcb93ea5e9a7d3460,50,female,2024-04-16_12h21.54.371,stockport_simplified,2022.2.4,Win32,47.84688995,661e456ee6de07e70aa9ef7b,661e5126e993ed2a8dd64f51,,,,,,,,,,,,,,,,,,,,,,,,,,,,,,,,,,864.8109,869.1738,"[4,5,3,2,6,7,1,8]","[[-0.3,0.2],[0.3,0.2]]","[[0.125,-0.2],[-0.125,-0.2]]",-0.097222222,-0.207407422,1,0,0,3.8428,o2_image,869.1886,1,869.6846,869.6846,871.6844,0,0,0,0,1,,,,,,,,,,,,,,,,,,,,,,,,,,,,,,,,,,,,,,,,,,,,,,,,,,
,,5ef0a0fbcb93ea5e9a7d3460,50,female,2024-04-16_12h21.54.371,stockport_simplified,2022.2.4,Win32,47.84688995,661e456ee6de07e70aa9ef7b,661e5126e993ed2a8dd64f51,,,,,,,,,,,,,,,,,,,,,,,,,,,,,,,,,,,,,,,,,,,,,,,,,,,,,,,,1,55,115,46,1,B,Y,N,o2_image,stimuli/out2.png,stimuli/out1.png,stimuli/correct_out2.png,,,,,,,,,,,,,,,,,,,,,,,,,,,,,,,,,,,,,,
,,5ef0a0fbcb93ea5e9a7d3460,50,female,2024-04-16_12h21.54.371,stockport_simplified,2022.2.4,Win32,47.84688995,661e456ee6de07e70aa9ef7b,661e5126e993ed2a8dd64f51,,,,,,,,,,,,,,,,,,,,,,,,,,,,,,,,,,871.6855,873.7145,"[4,5,3,2,6,7,1,8]","[[-0.3,0.2],[0.3,0.2]]","[[-0.125,-0.2],[0.125,-0.2]]",0.142592621,-0.19629631,1,0,0,1.5079,o2_image,873.7163,0,874.207,874.2072,876.207,0,0,0,0,1,,,,,,,,,,,,,,,,,,,,,,,,,,,,,,,,,,,,,,,,,,,,,,,,,,
,,5ef0a0fbcb93ea5e9a7d3460,50,female,2024-04-16_12h21.54.371,stockport_simplified,2022.2.4,Win32,47.84688995,661e456ee6de07e70aa9ef7b,661e5126e993ed2a8dd64f51,,,,,,,,,,,,,,,,,,,,,,,,,,,,,,,,,,,,,,,,,,,,,,,,,,,,,,,,1,56,116,4,1,A,X,N,o1_image,stimuli/out1.png,stimuli/correct_out1.png,stimuli/out2.png,,,,,,,,,,,,,,,,,,,,,,,,,,,,,,,,,,,,,,
,,5ef0a0fbcb93ea5e9a7d3460,50,female,2024-04-16_12h21.54.371,stockport_simplified,2022.2.4,Win32,47.84688995,661e456ee6de07e70aa9ef7b,661e5126e993ed2a8dd64f51,,,,,,,,,,,,,,,,,,,,,,,,,,,,,,,,,,876.2093,878.4865,"[4,5,3,2,6,7,1,8]","[[0.3,0.2],[-0.3,0.2]]","[[-0.125,-0.2],[0.125,-0.2]]",0.137037065,-0.175925954,1,0,0,1.7572,o2_image,878.4877,1,878.9758,878.9758,880.9768,0,0,0,0,1,,,,,,,,,,,,,,,,,,,,,,,,,,,,,,,,,,,,,,,,,,,,,,,,,,
,,5ef0a0fbcb93ea5e9a7d3460,50,female,2024-04-16_12h21.54.371,stockport_simplified,2022.2.4,Win32,47.84688995,661e456ee6de07e70aa9ef7b,661e5126e993ed2a8dd64f51,,,,,,,,,,,,,,,,,,,,,,,,,,,,,,,,,,,,,,,,,,,,,,,,,,,,,,,,1,57,117,29,1,N,M,D,o2_image,stimuli/out2.png,stimuli/out1.png,stimuli/correct_out2.png,,,,,,,,,,,,,,,,,,,,,,,,,,,,,,,,,,,,,,
,,5ef0a0fbcb93ea5e9a7d3460,50,female,2024-04-16_12h21.54.371,stockport_simplified,2022.2.4,Win32,47.84688995,661e456ee6de07e70aa9ef7b,661e5126e993ed2a8dd64f51,,,,,,,,,,,,,,,,,,,,,,,,,,,,,,,,,,880.979,883.0689,"[4,5,3,2,6,7,1,8]","[[-0.3,0.2],[0.3,0.2]]","[[0.125,-0.2],[-0.125,-0.2]]",-0.181481467,-0.167592621,1,0,0,1.57,o2_image,883.0701,1,883.5696,883.5696,885.5608,0,0,0,0,1,,,,,,,,,,,,,,,,,,,,,,,,,,,,,,,,,,,,,,,,,,,,,,,,,,
,,5ef0a0fbcb93ea5e9a7d3460,50,female,2024-04-16_12h21.54.371,stockport_simplified,2022.2.4,Win32,47.84688995,661e456ee6de07e70aa9ef7b,661e5126e993ed2a8dd64f51,,,,,,,,,,,,,,,,,,,,,,,,,,,,,,,,,,,,,,,,,,,,,,,,,,,,,,,,1,58,118,55,1,N,M,D,o2_image,stimuli/out2.png,stimuli/out1.png,stimuli/correct_out2.png,,,,,,,,,,,,,,,,,,,,,,,,,,,,,,,,,,,,,,
,,5ef0a0fbcb93ea5e9a7d3460,50,female,2024-04-16_12h21.54.371,stockport_simplified,2022.2.4,Win32,47.84688995,661e456ee6de07e70aa9ef7b,661e5126e993ed2a8dd64f51,,,,,,,,,,,,,,,,,,,,,,,,,,,,,,,,,,885.563,890.4457,"[4,5,3,2,6,7,1,8]","[[-0.3,0.2],[0.3,0.2]]","[[-0.125,-0.2],[0.125,-0.2]]",0.135185242,-0.201851866,1,0,0,4.3765,o2_image,890.4749,1,890.9765,890.9765,892.9766,0,0,0,0,1,,,,,,,,,,,,,,,,,,,,,,,,,,,,,,,,,,,,,,,,,,,,,,,,,,
,,5ef0a0fbcb93ea5e9a7d3460,50,female,2024-04-16_12h21.54.371,stockport_simplified,2022.2.4,Win32,47.84688995,661e456ee6de07e70aa9ef7b,661e5126e993ed2a8dd64f51,,,,,,,,,,,,,,,,,,,,,,,,,,,,,,,,,,,,,,,,,,,,,,,,,,,,,,,,1,59,119,11,1,B,X,N,o2_image,stimuli/out2.png,stimuli/out1.png,stimuli/correct_out2.png,,,,,,,,,,,,,,,,,,,,,,,,,,,,,,,,,,,,,,
,,5ef0a0fbcb93ea5e9a7d3460,50,female,2024-04-16_12h21.54.371,stockport_simplified,2022.2.4,Win32,47.84688995,661e456ee6de07e70aa9ef7b,661e5126e993ed2a8dd64f51,,,,,,,,,,,,,,,,,,,,,,,,,,,,,,,,,,893.013,894.625,"[4,5,3,2,6,7,1,8]","[[-0.3,0.2],[0.3,0.2]]","[[-0.125,-0.2],[0.125,-0.2]]",0.110185242,-0.215740797,1,0,0,1.1054,o2_image,894.6274,1,895.1228,895.123,897.1229,,,,,,,,,,,,,,,,,,0,0,0,0,1,,,,,,,,,,,,,,,,,,,,,,,,,,,,,,,,,
,,5ef0a0fbcb93ea5e9a7d3460,50,female,2024-04-16_12h21.54.371,stockport_simplified,2022.2.4,Win32,47.84688995,661e456ee6de07e70aa9ef7b,661e5126e993ed2a8dd64f51,,,,,,,,,,,,,,,,,,,,,,,,,,,,,,,,,,,,,,,,,,,,,,,,,,,,,,,,,,,,,A,X,N,o2_image,stimuli/out2.png,stimuli/out1.png,stimuli/correct_out2.png,,,,,,0,0,0,9,1,,,,,,,,,,,,,,,,,,,,,,,,,,,,
,,5ef0a0fbcb93ea5e9a7d3460,50,female,2024-04-16_12h21.54.371,stockport_simplified,2022.2.4,Win32,47.84688995,661e456ee6de07e70aa9ef7b,661e5126e993ed2a8dd64f51,,,,,,,,,,,,,,,,,,,,,,,,,,,,,,,,,,897.1262,899.4352,"[4,5,3,2,6,7,1,8]","[[-0.3,0.2],[0.3,0.2]]","[[-0.125,-0.2],[0.125,-0.2]]",-0.106481425,-0.186111111,1,0,0,1.7882,o1_image,899.4377,1,899.9348,899.9348,901.9349,,,,,,,,,,,,,,,,,,0,0,0,0,1,,,,,,,,,,,,,,,,,,,,,,,,,,,,,,,,,
,,5ef0a0fbcb93ea5e9a7d3460,50,female,2024-04-16_12h21.54.371,stockport_simplified,2022.2.4,Win32,47.84688995,661e456ee6de07e70aa9ef7b,661e5126e993ed2a8dd64f51,,,,,,,,,,,,,,,,,,,,,,,,,,,,,,,,,,,,,,,,,,,,,,,,,,,,,,,,,,,,,N,M,C,o1_image,stimuli/out1.png,stimuli/correct_out1.png,stimuli/out2.png,,,,,,0,1,1,43,1,,,,,,,,,,,,,,,,,,,,,,,,,,,,
,,5ef0a0fbcb93ea5e9a7d3460,50,female,2024-04-16_12h21.54.371,stockport_simplified,2022.2.4,Win32,47.84688995,661e456ee6de07e70aa9ef7b,661e5126e993ed2a8dd64f51,,,,,,,,,,,,,,,,,,,,,,,,,,,,,,,,,,901.9361,905.3314,"[4,5,3,2,6,7,1,8]","[[-0.3,0.2],[0.3,0.2]]","[[0.125,-0.2],[-0.125,-0.2]]",-0.110185157,-0.208333333,1,0,0,2.8753,o2_image,905.3486,0,905.853,905.8532,907.8515,,,,,,,,,,,,,,,,,,0,0,0,0,1,,,,,,,,,,,,,,,,,,,,,,,,,,,,,,,,,
,,5ef0a0fbcb93ea5e9a7d3460,50,female,2024-04-16_12h21.54.371,stockport_simplified,2022.2.4,Win32,47.84688995,661e456ee6de07e70aa9ef7b,661e5126e993ed2a8dd64f51,,,,,,,,,,,,,,,,,,,,,,,,,,,,,,,,,,,,,,,,,,,,,,,,,,,,,,,,,,,,,A,Y,N,o1_image,stimuli/out1.png,stimuli/correct_out1.png,stimuli/out2.png,,,,,,0,2,2,12,1,,,,,,,,,,,,,,,,,,,,,,,,,,,,
,,5ef0a0fbcb93ea5e9a7d3460,50,female,2024-04-16_12h21.54.371,stockport_simplified,2022.2.4,Win32,47.84688995,661e456ee6de07e70aa9ef7b,661e5126e993ed2a8dd64f51,,,,,,,,,,,,,,,,,,,,,,,,,,,,,,,,,,907.8526,914.0229,"[4,5,3,2,6,7,1,8]","[[0.3,0.2],[-0.3,0.2]]","[[-0.125,-0.2],[0.125,-0.2]]",-0.146296268,-0.205555556,1,0,0,5.6496,o1_image,914.0489,0,914.54,914.5402,916.5411,,,,,,,,,,,,,,,,,,0,0,0,0,1,,,,,,,,,,,,,,,,,,,,,,,,,,,,,,,,,
