counterbalance_2.started,counterbalance_2.stopped,participant,age,gender,date,expName,psychopyVersion,OS,frameRate,STUDY_ID,SESSION_ID,information_2.started,information_2.stopped,information_loop.thisRepN,information_loop.thisTrialN,information_loop.thisN,information_loop.thisIndex,information_loop.ran,information,consent_2.started,consent_2.stopped,slider_1.response,slider_2.response,slider_3.response,slider_4.response,slider_5.response,slider_6.response,instructions.started,instructions.stopped,task1_instr.thisRepN,task1_instr.thisTrialN,task1_instr.thisN,task1_instr.thisIndex,task1_instr.ran,task1,comprehension1_2.started,comprehension1_2.stopped,comp1_mouse.x,comp1_mouse.y,comp1_mouse.leftButton,comp1_mouse.midButton,comp1_mouse.rightButton,comp1_mouse.time,comp1_mouse.clicked_name,cue_o__trial_2.started,cue_o__trial_2.stopped,order,cue_order,out_order,cue_o_mouse.x,cue_o_mouse.y,cue_o_mouse.leftButton,cue_o_mouse.midButton,cue_o_mouse.rightButton,cue_o_mouse.time,cue_o_mouse.clicked_name,cue_selection_2.started,correct_answer,cue_selection_2.stopped,feedback_2.started,feedback_2.stopped,feedback_loop.thisRepN,feedback_loop.thisTrialN,feedback_loop.thisN,feedback_loop.thisIndex,feedback_loop.ran,stage1_trials.thisRepN,stage1_trials.thisTrialN,stage1_trials.thisN,stage1_trials.thisIndex,stage1_trials.ran,cue1,cue2,cue3,outcome,correct_out,o1_feedback,o2_feedback,stage2_feedback_loop.thisRepN,stage2_feedback_loop.thisTrialN,stage2_feedback_loop.thisN,stage2_feedback_loop.thisIndex,stage2_feedback_loop.ran,stage2_trials.thisRepN,stage2_trials.thisTrialN,stage2_trials.thisN,stage2_trials.thisIndex,stage2_trials.ran,stage3_feedback_loop.thisRepN,stage3_feedback_loop.thisTrialN,stage3_feedback_loop.thisN,stage3_feedback_loop.thisIndex,stage3_feedback_loop.ran,stage3_trials.thisRepN,stage3_trials.thisTrialN,stage3_trials.thisN,stage3_trials.thisIndex,stage3_trials.ran,debrief_2.started,debrief_2.stopped,debrief_loop.thisRepN,debrief_loop.thisTrialN,debrief_loop.thisN,debrief_loop.thisIndex,debrief_loop.ran,debrief_img,compr1_completed.thisRepN,compr1_completed.thisTrialN,compr1_completed.thisN,compr1_completed.thisIndex,compr1_completed.ran,consent_loop.thisRepN,consent_loop.thisTrialN,consent_loop.thisN,consent_loop.thisIndex,consent_loop.ran
0.0007,0.0013,596634e005f2df00017281ae,34,male,2024-04-19_18h38.21.639,stockport_simplified,2022.2.4,Win32,59.88023952,661e456ee6de07e70aa9ef7b,66229da57259e04a3633c152,,,,,,,,,,,,,,,,,,,,,,,,,,,,,,,,,,,,,,,,,,,,,,,,,,,,,,,,,,,,,,,,,,,,,,,,,,,,,,,,,,,,,,,,,,,,,,,,,,,,,,,,,
,,596634e005f2df00017281ae,34,male,2024-04-19_18h38.21.639,stockport_simplified,2022.2.4,Win32,59.88023952,661e456ee6de07e70aa9ef7b,66229da57259e04a3633c152,0.0419,34.6938,0,0,0,0,1,instructions/info1.png,,,,,,,,,,,,,,,,,,,,,,,,,,,,,,,,,,,,,,,,,,,,,,,,,,,,,,,,,,,,,,,,,,,,,,,,,,,,,,,,,,,,,,,,,,,,,,,,,
,,596634e005f2df00017281ae,34,male,2024-04-19_18h38.21.639,stockport_simplified,2022.2.4,Win32,59.88023952,661e456ee6de07e70aa9ef7b,66229da57259e04a3633c152,34.6952,39.9724,0,1,1,1,1,instructions/info2.png,,,,,,,,,,,,,,,,,,,,,,,,,,,,,,,,,,,,,,,,,,,,,,,,,,,,,,,,,,,,,,,,,,,,,,,,,,,,,,,,,,,,,,,,,,,,,,,,,
,,596634e005f2df00017281ae,34,male,2024-04-19_18h38.21.639,stockport_simplified,2022.2.4,Win32,59.88023952,661e456ee6de07e70aa9ef7b,66229da57259e04a3633c152,39.9734,64.4664,0,2,2,2,1,instructions/info3.png,,,,,,,,,,,,,,,,,,,,,,,,,,,,,,,,,,,,,,,,,,,,,,,,,,,,,,,,,,,,,,,,,,,,,,,,,,,,,,,,,,,,,,,,,,,,,,,,,
,,596634e005f2df00017281ae,34,male,2024-04-19_18h38.21.639,stockport_simplified,2022.2.4,Win32,59.88023952,661e456ee6de07e70aa9ef7b,66229da57259e04a3633c152,,,,,,,,,64.4845,95.6627,1,1,1,1,1,1,,,,,,,,,,,,,,,,,,,,,,,,,,,,,,,,,,,,,,,,,,,,,,,,,,,,,,,,,,,,,,,,,,,,,,,,,,,,,,,,,,,,,,,,,
,,596634e005f2df00017281ae,34,male,2024-04-19_18h38.21.639,stockport_simplified,2022.2.4,Win32,59.88023952,661e456ee6de07e70aa9ef7b,66229da57259e04a3633c152,,,,,,,,,,,,,,,,,95.6797,126.1402,0,0,0,0,1,instructions/task1_1.png,,,,,,,,,,,,,,,,,,,,,,,,,,,,,,,,,,,,,,,,,,,,,,,,,,,,,,,,,,,,,,,,,,,,,,,,,,,,,,,,,
,,596634e005f2df00017281ae,34,male,2024-04-19_18h38.21.639,stockport_simplified,2022.2.4,Win32,59.88023952,661e456ee6de07e70aa9ef7b,66229da57259e04a3633c152,,,,,,,,,,,,,,,,,126.1571,144.1677,0,1,1,1,1,instructions/task1_2.png,,,,,,,,,,,,,,,,,,,,,,,,,,,,,,,,,,,,,,,,,,,,,,,,,,,,,,,,,,,,,,,,,,,,,,,,,,,,,,,,,
,,596634e005f2df00017281ae,34,male,2024-04-19_18h38.21.639,stockport_simplified,2022.2.4,Win32,59.88023952,661e456ee6de07e70aa9ef7b,66229da57259e04a3633c152,,,,,,,,,,,,,,,,,144.1848,165.789,0,2,2,2,1,instructions/task1_3.png,,,,,,,,,,,,,,,,,,,,,,,,,,,,,,,,,,,,,,,,,,,,,,,,,,,,,,,,,,,,,,,,,,,,,,,,,,,,,,,,,
,,596634e005f2df00017281ae,34,male,2024-04-19_18h38.21.639,stockport_simplified,2022.2.4,Win32,59.88023952,661e456ee6de07e70aa9ef7b,66229da57259e04a3633c152,,,,,,,,,,,,,,,,,,,,,,,,,165.7906,189.7173,-0.04296875,-0.317708333,1,0,0,23.9248,comp1_resp1,189.7603,192.0394,"[5,1,2,7,4,6,3,8]","[[-0.3,0.2],[0.3,0.2]]","[[-0.125,-0.2],[0.125,-0.2]]",-0.165364583,-0.205729167,1,0,0,1.7697,o1_image,192.0426,1,192.5401,192.5406,194.5454,0,0,0,0,1,,,,,,,,,,,,,,,,,,,,,,,,,,,,,,,,,,,,,,,,,,,,,,,,,,
,,596634e005f2df00017281ae,34,male,2024-04-19_18h38.21.639,stockport_simplified,2022.2.4,Win32,59.88023952,661e456ee6de07e70aa9ef7b,66229da57259e04a3633c152,,,,,,,,,,,,,,,,,,,,,,,,,,,,,,,,,,,,,,,,,,,,,,,,,,,,,,,,0,0,0,33,1,A,X,N,o1_image,stimuli/out1.png,stimuli/correct_out1.png,stimuli/out2.png,,,,,,,,,,,,,,,,,,,,,,,,,,,,,,,,,,,,,,
,,596634e005f2df00017281ae,34,male,2024-04-19_18h38.21.639,stockport_simplified,2022.2.4,Win32,59.88023952,661e456ee6de07e70aa9ef7b,66229da57259e04a3633c152,,,,,,,,,,,,,,,,,,,,,,,,,,,,,,,,,,194.5464,197.1022,"[5,1,2,7,4,6,3,8]","[[0.3,0.2],[-0.3,0.2]]","[[-0.125,-0.2],[0.125,-0.2]]",-0.1640625,-0.212239583,1,0,0,2.0393,o1_image,197.1036,0,197.6041,197.6041,199.6072,0,0,0,0,1,,,,,,,,,,,,,,,,,,,,,,,,,,,,,,,,,,,,,,,,,,,,,,,,,,
,,596634e005f2df00017281ae,34,male,2024-04-19_18h38.21.639,stockport_simplified,2022.2.4,Win32,59.88023952,661e456ee6de07e70aa9ef7b,66229da57259e04a3633c152,,,,,,,,,,,,,,,,,,,,,,,,,,,,,,,,,,,,,,,,,,,,,,,,,,,,,,,,0,1,1,41,1,B,X,N,o2_image,stimuli/out2.png,stimuli/out1.png,stimuli/correct_out2.png,,,,,,,,,,,,,,,,,,,,,,,,,,,,,,,,,,,,,,
,,596634e005f2df00017281ae,34,male,2024-04-19_18h38.21.639,stockport_simplified,2022.2.4,Win32,59.88023952,661e456ee6de07e70aa9ef7b,66229da57259e04a3633c152,,,,,,,,,,,,,,,,,,,,,,,,,,,,,,,,,,199.6081,202.2804,"[5,1,2,7,4,6,3,8]","[[0.3,0.2],[-0.3,0.2]]","[[-0.125,-0.2],[0.125,-0.2]]",0.158854167,-0.22265625,1,0,0,2.154,o2_image,202.2975,0,202.8001,202.8002,204.8047,0,0,0,0,1,,,,,,,,,,,,,,,,,,,,,,,,,,,,,,,,,,,,,,,,,,,,,,,,,,
,,596634e005f2df00017281ae,34,male,2024-04-19_18h38.21.639,stockport_simplified,2022.2.4,Win32,59.88023952,661e456ee6de07e70aa9ef7b,66229da57259e04a3633c152,,,,,,,,,,,,,,,,,,,,,,,,,,,,,,,,,,,,,,,,,,,,,,,,,,,,,,,,0,2,2,2,1,A,X,N,o1_image,stimuli/out1.png,stimuli/correct_out1.png,stimuli/out2.png,,,,,,,,,,,,,,,,,,,,,,,,,,,,,,,,,,,,,,
,,596634e005f2df00017281ae,34,male,2024-04-19_18h38.21.639,stockport_simplified,2022.2.4,Win32,59.88023952,661e456ee6de07e70aa9ef7b,66229da57259e04a3633c152,,,,,,,,,,,,,,,,,,,,,,,,,,,,,,,,,,204.8054,207.3772,"[5,1,2,7,4,6,3,8]","[[0.3,0.2],[-0.3,0.2]]","[[0.125,-0.2],[-0.125,-0.2]]",-0.09375,-0.21875,1,0,0,2.0704,o2_image,207.3792,1,207.8783,207.8784,209.8829,0,0,0,0,1,,,,,,,,,,,,,,,,,,,,,,,,,,,,,,,,,,,,,,,,,,,,,,,,,,
,,596634e005f2df00017281ae,34,male,2024-04-19_18h38.21.639,stockport_simplified,2022.2.4,Win32,59.88023952,661e456ee6de07e70aa9ef7b,66229da57259e04a3633c152,,,,,,,,,,,,,,,,,,,,,,,,,,,,,,,,,,,,,,,,,,,,,,,,,,,,,,,,0,3,3,40,1,B,X,N,o2_image,stimuli/out2.png,stimuli/out1.png,stimuli/correct_out2.png,,,,,,,,,,,,,,,,,,,,,,,,,,,,,,,,,,,,,,
,,596634e005f2df00017281ae,34,male,2024-04-19_18h38.21.639,stockport_simplified,2022.2.4,Win32,59.88023952,661e456ee6de07e70aa9ef7b,66229da57259e04a3633c152,,,,,,,,,,,,,,,,,,,,,,,,,,,,,,,,,,209.8838,212.9414,"[5,1,2,7,4,6,3,8]","[[0.3,0.2],[-0.3,0.2]]","[[-0.125,-0.2],[0.125,-0.2]]",-0.0859375,-0.223958333,1,0,0,2.5389,o1_image,212.9429,0,213.4421,213.4422,215.4316,0,0,0,0,1,,,,,,,,,,,,,,,,,,,,,,,,,,,,,,,,,,,,,,,,,,,,,,,,,,
,,596634e005f2df00017281ae,34,male,2024-04-19_18h38.21.639,stockport_simplified,2022.2.4,Win32,59.88023952,661e456ee6de07e70aa9ef7b,66229da57259e04a3633c152,,,,,,,,,,,,,,,,,,,,,,,,,,,,,,,,,,,,,,,,,,,,,,,,,,,,,,,,0,4,4,25,1,N,M,D,o2_image,stimuli/out2.png,stimuli/out1.png,stimuli/correct_out2.png,,,,,,,,,,,,,,,,,,,,,,,,,,,,,,,,,,,,,,
,,596634e005f2df00017281ae,34,male,2024-04-19_18h38.21.639,stockport_simplified,2022.2.4,Win32,59.88023952,661e456ee6de07e70aa9ef7b,66229da57259e04a3633c152,,,,,,,,,,,,,,,,,,,,,,,,,,,,,,,,,,215.4323,218.2048,"[5,1,2,7,4,6,3,8]","[[0.3,0.2],[-0.3,0.2]]","[[0.125,-0.2],[-0.125,-0.2]]",-0.092447917,-0.212239583,1,0,0,2.2705,o2_image,218.2206,1,218.7232,218.7232,220.7117,0,0,0,0,1,,,,,,,,,,,,,,,,,,,,,,,,,,,,,,,,,,,,,,,,,,,,,,,,,,
,,596634e005f2df00017281ae,34,male,2024-04-19_18h38.21.639,stockport_simplified,2022.2.4,Win32,59.88023952,661e456ee6de07e70aa9ef7b,66229da57259e04a3633c152,,,,,,,,,,,,,,,,,,,,,,,,,,,,,,,,,,,,,,,,,,,,,,,,,,,,,,,,0,5,5,15,1,B,Y,N,o2_image,stimuli/out2.png,stimuli/out1.png,stimuli/correct_out2.png,,,,,,,,,,,,,,,,,,,,,,,,,,,,,,,,,,,,,,
,,596634e005f2df00017281ae,34,male,2024-04-19_18h38.21.639,stockport_simplified,2022.2.4,Win32,59.88023952,661e456ee6de07e70aa9ef7b,66229da57259e04a3633c152,,,,,,,,,,,,,,,,,,,,,,,,,,,,,,,,,,220.7124,223.4509,"[5,1,2,7,4,6,3,8]","[[-0.3,0.2],[0.3,0.2]]","[[-0.125,-0.2],[0.125,-0.2]]",0.145833333,-0.188802083,1,0,0,2.2219,o2_image,223.4528,1,223.9523,223.9523,225.9564,0,0,0,0,1,,,,,,,,,,,,,,,,,,,,,,,,,,,,,,,,,,,,,,,,,,,,,,,,,,
,,596634e005f2df00017281ae,34,male,2024-04-19_18h38.21.639,stockport_simplified,2022.2.4,Win32,59.88023952,661e456ee6de07e70aa9ef7b,66229da57259e04a3633c152,,,,,,,,,,,,,,,,,,,,,,,,,,,,,,,,,,,,,,,,,,,,,,,,,,,,,,,,0,6,6,45,1,B,Y,N,o2_image,stimuli/out2.png,stimuli/out1.png,stimuli/correct_out2.png,,,,,,,,,,,,,,,,,,,,,,,,,,,,,,,,,,,,,,
,,596634e005f2df00017281ae,34,male,2024-04-19_18h38.21.639,stockport_simplified,2022.2.4,Win32,59.88023952,661e456ee6de07e70aa9ef7b,66229da57259e04a3633c152,,,,,,,,,,,,,,,,,,,,,,,,,,,,,,,,,,225.9576,228.2466,"[5,1,2,7,4,6,3,8]","[[-0.3,0.2],[0.3,0.2]]","[[0.125,-0.2],[-0.125,-0.2]]",-0.095052083,-0.223958333,1,0,0,1.7706,o2_image,228.2481,1,228.7473,228.7474,230.7359,0,0,0,0,1,,,,,,,,,,,,,,,,,,,,,,,,,,,,,,,,,,,,,,,,,,,,,,,,,,
,,596634e005f2df00017281ae,34,male,2024-04-19_18h38.21.639,stockport_simplified,2022.2.4,Win32,59.88023952,661e456ee6de07e70aa9ef7b,66229da57259e04a3633c152,,,,,,,,,,,,,,,,,,,,,,,,,,,,,,,,,,,,,,,,,,,,,,,,,,,,,,,,0,7,7,49,1,B,Y,N,o2_image,stimuli/out2.png,stimuli/out1.png,stimuli/correct_out2.png,,,,,,,,,,,,,,,,,,,,,,,,,,,,,,,,,,,,,,
,,596634e005f2df00017281ae,34,male,2024-04-19_18h38.21.639,stockport_simplified,2022.2.4,Win32,59.88023952,661e456ee6de07e70aa9ef7b,66229da57259e04a3633c152,,,,,,,,,,,,,,,,,,,,,,,,,,,,,,,,,,230.7367,233.1584,"[5,1,2,7,4,6,3,8]","[[0.3,0.2],[-0.3,0.2]]","[[-0.125,-0.2],[0.125,-0.2]]",0.08984375,-0.16796875,1,0,0,1.92,o2_image,233.16,1,233.6605,233.6606,235.6493,0,0,0,0,1,,,,,,,,,,,,,,,,,,,,,,,,,,,,,,,,,,,,,,,,,,,,,,,,,,
,,596634e005f2df00017281ae,34,male,2024-04-19_18h38.21.639,stockport_simplified,2022.2.4,Win32,59.88023952,661e456ee6de07e70aa9ef7b,66229da57259e04a3633c152,,,,,,,,,,,,,,,,,,,,,,,,,,,,,,,,,,,,,,,,,,,,,,,,,,,,,,,,0,8,8,13,1,B,X,N,o2_image,stimuli/out2.png,stimuli/out1.png,stimuli/correct_out2.png,,,,,,,,,,,,,,,,,,,,,,,,,,,,,,,,,,,,,,
,,596634e005f2df00017281ae,34,male,2024-04-19_18h38.21.639,stockport_simplified,2022.2.4,Win32,59.88023952,661e456ee6de07e70aa9ef7b,66229da57259e04a3633c152,,,,,,,,,,,,,,,,,,,,,,,,,,,,,,,,,,235.65,238.539,"[5,1,2,7,4,6,3,8]","[[0.3,0.2],[-0.3,0.2]]","[[-0.125,-0.2],[0.125,-0.2]]",-0.12109375,-0.17578125,1,0,0,2.3717,o1_image,238.5557,0,239.057,239.057,241.0453,0,0,0,0,1,,,,,,,,,,,,,,,,,,,,,,,,,,,,,,,,,,,,,,,,,,,,,,,,,,
,,596634e005f2df00017281ae,34,male,2024-04-19_18h38.21.639,stockport_simplified,2022.2.4,Win32,59.88023952,661e456ee6de07e70aa9ef7b,66229da57259e04a3633c152,,,,,,,,,,,,,,,,,,,,,,,,,,,,,,,,,,,,,,,,,,,,,,,,,,,,,,,,0,9,9,58,1,N,M,D,o2_image,stimuli/out2.png,stimuli/out1.png,stimuli/correct_out2.png,,,,,,,,,,,,,,,,,,,,,,,,,,,,,,,,,,,,,,
,,596634e005f2df00017281ae,34,male,2024-04-19_18h38.21.639,stockport_simplified,2022.2.4,Win32,59.88023952,661e456ee6de07e70aa9ef7b,66229da57259e04a3633c152,,,,,,,,,,,,,,,,,,,,,,,,,,,,,,,,,,241.0464,243.5526,"[5,1,2,7,4,6,3,8]","[[-0.3,0.2],[0.3,0.2]]","[[0.125,-0.2],[-0.125,-0.2]]",0.13671875,-0.161458333,1,0,0,1.9887,o1_image,243.554,1,244.052,244.0521,246.0407,0,0,0,0,1,,,,,,,,,,,,,,,,,,,,,,,,,,,,,,,,,,,,,,,,,,,,,,,,,,
,,596634e005f2df00017281ae,34,male,2024-04-19_18h38.21.639,stockport_simplified,2022.2.4,Win32,59.88023952,661e456ee6de07e70aa9ef7b,66229da57259e04a3633c152,,,,,,,,,,,,,,,,,,,,,,,,,,,,,,,,,,,,,,,,,,,,,,,,,,,,,,,,0,10,10,9,1,A,Y,N,o1_image,stimuli/out1.png,stimuli/correct_out1.png,stimuli/out2.png,,,,,,,,,,,,,,,,,,,,,,,,,,,,,,,,,,,,,,
,,596634e005f2df00017281ae,34,male,2024-04-19_18h38.21.639,stockport_simplified,2022.2.4,Win32,59.88023952,661e456ee6de07e70aa9ef7b,66229da57259e04a3633c152,,,,,,,,,,,,,,,,,,,,,,,,,,,,,,,,,,246.0416,248.4145,"[5,1,2,7,4,6,3,8]","[[-0.3,0.2],[0.3,0.2]]","[[0.125,-0.2],[-0.125,-0.2]]",-0.11328125,-0.19140625,1,0,0,1.8718,o2_image,248.4159,1,248.9106,248.9106,250.9031,0,0,0,0,1,,,,,,,,,,,,,,,,,,,,,,,,,,,,,,,,,,,,,,,,,,,,,,,,,,
,,596634e005f2df00017281ae,34,male,2024-04-19_18h38.21.639,stockport_simplified,2022.2.4,Win32,59.88023952,661e456ee6de07e70aa9ef7b,66229da57259e04a3633c152,,,,,,,,,,,,,,,,,,,,,,,,,,,,,,,,,,,,,,,,,,,,,,,,,,,,,,,,0,11,11,19,1,B,Y,N,o2_image,stimuli/out2.png,stimuli/out1.png,stimuli/correct_out2.png,,,,,,,,,,,,,,,,,,,,,,,,,,,,,,,,,,,,,,
,,596634e005f2df00017281ae,34,male,2024-04-19_18h38.21.639,stockport_simplified,2022.2.4,Win32,59.88023952,661e456ee6de07e70aa9ef7b,66229da57259e04a3633c152,,,,,,,,,,,,,,,,,,,,,,,,,,,,,,,,,,250.9039,252.958,"[5,1,2,7,4,6,3,8]","[[-0.3,0.2],[0.3,0.2]]","[[-0.125,-0.2],[0.125,-0.2]]",-0.109375,-0.204427083,1,0,0,1.5361,o1_image,252.96,1,253.4594,253.4594,255.4477,0,0,0,0,1,,,,,,,,,,,,,,,,,,,,,,,,,,,,,,,,,,,,,,,,,,,,,,,,,,
,,596634e005f2df00017281ae,34,male,2024-04-19_18h38.21.639,stockport_simplified,2022.2.4,Win32,59.88023952,661e456ee6de07e70aa9ef7b,66229da57259e04a3633c152,,,,,,,,,,,,,,,,,,,,,,,,,,,,,,,,,,,,,,,,,,,,,,,,,,,,,,,,0,12,12,35,1,A,Y,N,o1_image,stimuli/out1.png,stimuli/correct_out1.png,stimuli/out2.png,,,,,,,,,,,,,,,,,,,,,,,,,,,,,,,,,,,,,,
,,596634e005f2df00017281ae,34,male,2024-04-19_18h38.21.639,stockport_simplified,2022.2.4,Win32,59.88023952,661e456ee6de07e70aa9ef7b,66229da57259e04a3633c152,,,,,,,,,,,,,,,,,,,,,,,,,,,,,,,,,,255.4486,257.5026,"[5,1,2,7,4,6,3,8]","[[-0.3,0.2],[0.3,0.2]]","[[-0.125,-0.2],[0.125,-0.2]]",0.131510417,-0.201822917,1,0,0,1.552,o2_image,257.5043,1,258.0039,258.004,259.9923,0,0,0,0,1,,,,,,,,,,,,,,,,,,,,,,,,,,,,,,,,,,,,,,,,,,,,,,,,,,
,,596634e005f2df00017281ae,34,male,2024-04-19_18h38.21.639,stockport_simplified,2022.2.4,Win32,59.88023952,661e456ee6de07e70aa9ef7b,66229da57259e04a3633c152,,,,,,,,,,,,,,,,,,,,,,,,,,,,,,,,,,,,,,,,,,,,,,,,,,,,,,,,0,13,13,43,1,B,X,N,o2_image,stimuli/out2.png,stimuli/out1.png,stimuli/correct_out2.png,,,,,,,,,,,,,,,,,,,,,,,,,,,,,,,,,,,,,,
,,596634e005f2df00017281ae,34,male,2024-04-19_18h38.21.639,stockport_simplified,2022.2.4,Win32,59.88023952,661e456ee6de07e70aa9ef7b,66229da57259e04a3633c152,,,,,,,,,,,,,,,,,,,,,,,,,,,,,,,,,,259.9933,261.9142,"[5,1,2,7,4,6,3,8]","[[-0.3,0.2],[0.3,0.2]]","[[-0.125,-0.2],[0.125,-0.2]]",0.138020833,-0.201822917,1,0,0,1.4032,o2_image,261.9158,1,262.4152,262.4154,264.4037,0,0,0,0,1,,,,,,,,,,,,,,,,,,,,,,,,,,,,,,,,,,,,,,,,,,,,,,,,,,
,,596634e005f2df00017281ae,34,male,2024-04-19_18h38.21.639,stockport_simplified,2022.2.4,Win32,59.88023952,661e456ee6de07e70aa9ef7b,66229da57259e04a3633c152,,,,,,,,,,,,,,,,,,,,,,,,,,,,,,,,,,,,,,,,,,,,,,,,,,,,,,,,0,14,14,44,1,B,X,N,o2_image,stimuli/out2.png,stimuli/out1.png,stimuli/correct_out2.png,,,,,,,,,,,,,,,,,,,,,,,,,,,,,,,,,,,,,,
,,596634e005f2df00017281ae,34,male,2024-04-19_18h38.21.639,stockport_simplified,2022.2.4,Win32,59.88023952,661e456ee6de07e70aa9ef7b,66229da57259e04a3633c152,,,,,,,,,,,,,,,,,,,,,,,,,,,,,,,,,,264.4046,266.6425,"[5,1,2,7,4,6,3,8]","[[0.3,0.2],[-0.3,0.2]]","[[0.125,-0.2],[-0.125,-0.2]]",0.09765625,-0.177083333,1,0,0,1.736,o1_image,266.6439,1,267.1442,267.1442,269.1329,0,0,0,0,1,,,,,,,,,,,,,,,,,,,,,,,,,,,,,,,,,,,,,,,,,,,,,,,,,,
,,596634e005f2df00017281ae,34,male,2024-04-19_18h38.21.639,stockport_simplified,2022.2.4,Win32,59.88023952,661e456ee6de07e70aa9ef7b,66229da57259e04a3633c152,,,,,,,,,,,,,,,,,,,,,,,,,,,,,,,,,,,,,,,,,,,,,,,,,,,,,,,,0,15,15,32,1,A,X,N,o1_image,stimuli/out1.png,stimuli/correct_out1.png,stimuli/out2.png,,,,,,,,,,,,,,,,,,,,,,,,,,,,,,,,,,,,,,
,,596634e005f2df00017281ae,34,male,2024-04-19_18h38.21.639,stockport_simplified,2022.2.4,Win32,59.88023952,661e456ee6de07e70aa9ef7b,66229da57259e04a3633c152,,,,,,,,,,,,,,,,,,,,,,,,,,,,,,,,,,269.1338,272.3584,"[5,1,2,7,4,6,3,8]","[[0.3,0.2],[-0.3,0.2]]","[[0.125,-0.2],[-0.125,-0.2]]",-0.125,-0.194010417,1,0,0,2.7069,o2_image,272.3743,1,272.8749,272.875,274.8631,0,0,0,0,1,,,,,,,,,,,,,,,,,,,,,,,,,,,,,,,,,,,,,,,,,,,,,,,,,,
,,596634e005f2df00017281ae,34,male,2024-04-19_18h38.21.639,stockport_simplified,2022.2.4,Win32,59.88023952,661e456ee6de07e70aa9ef7b,66229da57259e04a3633c152,,,,,,,,,,,,,,,,,,,,,,,,,,,,,,,,,,,,,,,,,,,,,,,,,,,,,,,,0,16,16,29,1,N,M,D,o2_image,stimuli/out2.png,stimuli/out1.png,stimuli/correct_out2.png,,,,,,,,,,,,,,,,,,,,,,,,,,,,,,,,,,,,,,
,,596634e005f2df00017281ae,34,male,2024-04-19_18h38.21.639,stockport_simplified,2022.2.4,Win32,59.88023952,661e456ee6de07e70aa9ef7b,66229da57259e04a3633c152,,,,,,,,,,,,,,,,,,,,,,,,,,,,,,,,,,274.8642,276.9198,"[5,1,2,7,4,6,3,8]","[[-0.3,0.2],[0.3,0.2]]","[[-0.125,-0.2],[0.125,-0.2]]",-0.139322917,-0.197916667,1,0,0,1.5538,o1_image,276.9211,1,277.4209,277.421,279.4244,0,0,0,0,1,,,,,,,,,,,,,,,,,,,,,,,,,,,,,,,,,,,,,,,,,,,,,,,,,,
,,596634e005f2df00017281ae,34,male,2024-04-19_18h38.21.639,stockport_simplified,2022.2.4,Win32,59.88023952,661e456ee6de07e70aa9ef7b,66229da57259e04a3633c152,,,,,,,,,,,,,,,,,,,,,,,,,,,,,,,,,,,,,,,,,,,,,,,,,,,,,,,,0,17,17,31,1,A,X,N,o1_image,stimuli/out1.png,stimuli/correct_out1.png,stimuli/out2.png,,,,,,,,,,,,,,,,,,,,,,,,,,,,,,,,,,,,,,
,,596634e005f2df00017281ae,34,male,2024-04-19_18h38.21.639,stockport_simplified,2022.2.4,Win32,59.88023952,661e456ee6de07e70aa9ef7b,66229da57259e04a3633c152,,,,,,,,,,,,,,,,,,,,,,,,,,,,,,,,,,279.4254,281.3629,"[5,1,2,7,4,6,3,8]","[[-0.3,0.2],[0.3,0.2]]","[[0.125,-0.2],[-0.125,-0.2]]",0.084635417,-0.221354167,1,0,0,1.4359,o1_image,281.3643,1,281.8657,281.8658,283.8692,0,0,0,0,1,,,,,,,,,,,,,,,,,,,,,,,,,,,,,,,,,,,,,,,,,,,,,,,,,,
,,596634e005f2df00017281ae,34,male,2024-04-19_18h38.21.639,stockport_simplified,2022.2.4,Win32,59.88023952,661e456ee6de07e70aa9ef7b,66229da57259e04a3633c152,,,,,,,,,,,,,,,,,,,,,,,,,,,,,,,,,,,,,,,,,,,,,,,,,,,,,,,,0,18,18,37,1,A,Y,N,o1_image,stimuli/out1.png,stimuli/correct_out1.png,stimuli/out2.png,,,,,,,,,,,,,,,,,,,,,,,,,,,,,,,,,,,,,,
,,596634e005f2df00017281ae,34,male,2024-04-19_18h38.21.639,stockport_simplified,2022.2.4,Win32,59.88023952,661e456ee6de07e70aa9ef7b,66229da57259e04a3633c152,,,,,,,,,,,,,,,,,,,,,,,,,,,,,,,,,,283.8702,286.2089,"[5,1,2,7,4,6,3,8]","[[-0.3,0.2],[0.3,0.2]]","[[-0.125,-0.2],[0.125,-0.2]]",0.09375,-0.227864583,1,0,0,1.8363,o2_image,286.2243,1,286.7289,286.7289,288.7319,0,0,0,0,1,,,,,,,,,,,,,,,,,,,,,,,,,,,,,,,,,,,,,,,,,,,,,,,,,,
,,596634e005f2df00017281ae,34,male,2024-04-19_18h38.21.639,stockport_simplified,2022.2.4,Win32,59.88023952,661e456ee6de07e70aa9ef7b,66229da57259e04a3633c152,,,,,,,,,,,,,,,,,,,,,,,,,,,,,,,,,,,,,,,,,,,,,,,,,,,,,,,,0,19,19,46,1,B,Y,N,o2_image,stimuli/out2.png,stimuli/out1.png,stimuli/correct_out2.png,,,,,,,,,,,,,,,,,,,,,,,,,,,,,,,,,,,,,,
,,596634e005f2df00017281ae,34,male,2024-04-19_18h38.21.639,stockport_simplified,2022.2.4,Win32,59.88023952,661e456ee6de07e70aa9ef7b,66229da57259e04a3633c152,,,,,,,,,,,,,,,,,,,,,,,,,,,,,,,,,,288.7329,290.8207,"[5,1,2,7,4,6,3,8]","[[-0.3,0.2],[0.3,0.2]]","[[-0.125,-0.2],[0.125,-0.2]]",-0.09375,-0.204427083,1,0,0,1.5707,o1_image,290.8222,1,291.3223,291.3224,293.3103,0,0,0,0,1,,,,,,,,,,,,,,,,,,,,,,,,,,,,,,,,,,,,,,,,,,,,,,,,,,
,,596634e005f2df00017281ae,34,male,2024-04-19_18h38.21.639,stockport_simplified,2022.2.4,Win32,59.88023952,661e456ee6de07e70aa9ef7b,66229da57259e04a3633c152,,,,,,,,,,,,,,,,,,,,,,,,,,,,,,,,,,,,,,,,,,,,,,,,,,,,,,,,0,20,20,39,1,A,Y,N,o1_image,stimuli/out1.png,stimuli/correct_out1.png,stimuli/out2.png,,,,,,,,,,,,,,,,,,,,,,,,,,,,,,,,,,,,,,
,,596634e005f2df00017281ae,34,male,2024-04-19_18h38.21.639,stockport_simplified,2022.2.4,Win32,59.88023952,661e456ee6de07e70aa9ef7b,66229da57259e04a3633c152,,,,,,,,,,,,,,,,,,,,,,,,,,,,,,,,,,293.311,295.5151,"[5,1,2,7,4,6,3,8]","[[0.3,0.2],[-0.3,0.2]]","[[-0.125,-0.2],[0.125,-0.2]]",0.1015625,-0.21484375,1,0,0,1.7015,o2_image,295.517,1,296.0174,296.0174,298.0053,0,0,0,0,1,,,,,,,,,,,,,,,,,,,,,,,,,,,,,,,,,,,,,,,,,,,,,,,,,,
,,596634e005f2df00017281ae,34,male,2024-04-19_18h38.21.639,stockport_simplified,2022.2.4,Win32,59.88023952,661e456ee6de07e70aa9ef7b,66229da57259e04a3633c152,,,,,,,,,,,,,,,,,,,,,,,,,,,,,,,,,,,,,,,,,,,,,,,,,,,,,,,,0,21,21,55,1,N,M,D,o2_image,stimuli/out2.png,stimuli/out1.png,stimuli/correct_out2.png,,,,,,,,,,,,,,,,,,,,,,,,,,,,,,,,,,,,,,
,,596634e005f2df00017281ae,34,male,2024-04-19_18h38.21.639,stockport_simplified,2022.2.4,Win32,59.88023952,661e456ee6de07e70aa9ef7b,66229da57259e04a3633c152,,,,,,,,,,,,,,,,,,,,,,,,,,,,,,,,,,298.0061,300.2948,"[5,1,2,7,4,6,3,8]","[[0.3,0.2],[-0.3,0.2]]","[[0.125,-0.2],[-0.125,-0.2]]",-0.106770833,-0.2109375,1,0,0,1.7718,o2_image,300.2961,1,300.7959,300.796,302.8013,0,0,0,0,1,,,,,,,,,,,,,,,,,,,,,,,,,,,,,,,,,,,,,,,,,,,,,,,,,,
,,596634e005f2df00017281ae,34,male,2024-04-19_18h38.21.639,stockport_simplified,2022.2.4,Win32,59.88023952,661e456ee6de07e70aa9ef7b,66229da57259e04a3633c152,,,,,,,,,,,,,,,,,,,,,,,,,,,,,,,,,,,,,,,,,,,,,,,,,,,,,,,,0,22,22,56,1,N,M,D,o2_image,stimuli/out2.png,stimuli/out1.png,stimuli/correct_out2.png,,,,,,,,,,,,,,,,,,,,,,,,,,,,,,,,,,,,,,
,,596634e005f2df00017281ae,34,male,2024-04-19_18h38.21.639,stockport_simplified,2022.2.4,Win32,59.88023952,661e456ee6de07e70aa9ef7b,66229da57259e04a3633c152,,,,,,,,,,,,,,,,,,,,,,,,,,,,,,,,,,302.8022,304.772,"[5,1,2,7,4,6,3,8]","[[0.3,0.2],[-0.3,0.2]]","[[-0.125,-0.2],[0.125,-0.2]]",-0.15625,-0.234375,1,0,0,1.4526,o1_image,304.7737,1,305.2746,305.2747,307.2786,0,0,0,0,1,,,,,,,,,,,,,,,,,,,,,,,,,,,,,,,,,,,,,,,,,,,,,,,,,,
,,596634e005f2df00017281ae,34,male,2024-04-19_18h38.21.639,stockport_simplified,2022.2.4,Win32,59.88023952,661e456ee6de07e70aa9ef7b,66229da57259e04a3633c152,,,,,,,,,,,,,,,,,,,,,,,,,,,,,,,,,,,,,,,,,,,,,,,,,,,,,,,,0,23,23,38,1,A,Y,N,o1_image,stimuli/out1.png,stimuli/correct_out1.png,stimuli/out2.png,,,,,,,,,,,,,,,,,,,,,,,,,,,,,,,,,,,,,,
,,596634e005f2df00017281ae,34,male,2024-04-19_18h38.21.639,stockport_simplified,2022.2.4,Win32,59.88023952,661e456ee6de07e70aa9ef7b,66229da57259e04a3633c152,,,,,,,,,,,,,,,,,,,,,,,,,,,,,,,,,,307.2796,309.4002,"[5,1,2,7,4,6,3,8]","[[0.3,0.2],[-0.3,0.2]]","[[0.125,-0.2],[-0.125,-0.2]]",0.153645833,-0.209635417,1,0,0,1.6024,o1_image,309.4019,1,309.9023,309.9024,311.8916,0,0,0,0,1,,,,,,,,,,,,,,,,,,,,,,,,,,,,,,,,,,,,,,,,,,,,,,,,,,
,,596634e005f2df00017281ae,34,male,2024-04-19_18h38.21.639,stockport_simplified,2022.2.4,Win32,59.88023952,661e456ee6de07e70aa9ef7b,66229da57259e04a3633c152,,,,,,,,,,,,,,,,,,,,,,,,,,,,,,,,,,,,,,,,,,,,,,,,,,,,,,,,0,24,24,30,1,A,X,N,o1_image,stimuli/out1.png,stimuli/correct_out1.png,stimuli/out2.png,,,,,,,,,,,,,,,,,,,,,,,,,,,,,,,,,,,,,,
,,596634e005f2df00017281ae,34,male,2024-04-19_18h38.21.639,stockport_simplified,2022.2.4,Win32,59.88023952,661e456ee6de07e70aa9ef7b,66229da57259e04a3633c152,,,,,,,,,,,,,,,,,,,,,,,,,,,,,,,,,,311.8923,314.0468,"[5,1,2,7,4,6,3,8]","[[-0.3,0.2],[0.3,0.2]]","[[0.125,-0.2],[-0.125,-0.2]]",-0.138020833,-0.201822917,1,0,0,1.6379,o2_image,314.0695,1,314.565,314.565,316.5686,0,0,0,0,1,,,,,,,,,,,,,,,,,,,,,,,,,,,,,,,,,,,,,,,,,,,,,,,,,,
,,596634e005f2df00017281ae,34,male,2024-04-19_18h38.21.639,stockport_simplified,2022.2.4,Win32,59.88023952,661e456ee6de07e70aa9ef7b,66229da57259e04a3633c152,,,,,,,,,,,,,,,,,,,,,,,,,,,,,,,,,,,,,,,,,,,,,,,,,,,,,,,,0,25,25,48,1,B,Y,N,o2_image,stimuli/out2.png,stimuli/out1.png,stimuli/correct_out2.png,,,,,,,,,,,,,,,,,,,,,,,,,,,,,,,,,,,,,,
,,596634e005f2df00017281ae,34,male,2024-04-19_18h38.21.639,stockport_simplified,2022.2.4,Win32,59.88023952,661e456ee6de07e70aa9ef7b,66229da57259e04a3633c152,,,,,,,,,,,,,,,,,,,,,,,,,,,,,,,,,,316.5695,319.7268,"[5,1,2,7,4,6,3,8]","[[-0.3,0.2],[0.3,0.2]]","[[0.125,-0.2],[-0.125,-0.2]]",0.1171875,-0.251302083,1,0,0,2.6556,o1_image,319.7283,1,320.2288,320.2288,322.2336,0,0,0,0,1,,,,,,,,,,,,,,,,,,,,,,,,,,,,,,,,,,,,,,,,,,,,,,,,,,
,,596634e005f2df00017281ae,34,male,2024-04-19_18h38.21.639,stockport_simplified,2022.2.4,Win32,59.88023952,661e456ee6de07e70aa9ef7b,66229da57259e04a3633c152,,,,,,,,,,,,,,,,,,,,,,,,,,,,,,,,,,,,,,,,,,,,,,,,,,,,,,,,0,26,26,36,1,A,Y,N,o1_image,stimuli/out1.png,stimuli/correct_out1.png,stimuli/out2.png,,,,,,,,,,,,,,,,,,,,,,,,,,,,,,,,,,,,,,
,,596634e005f2df00017281ae,34,male,2024-04-19_18h38.21.639,stockport_simplified,2022.2.4,Win32,59.88023952,661e456ee6de07e70aa9ef7b,66229da57259e04a3633c152,,,,,,,,,,,,,,,,,,,,,,,,,,,,,,,,,,322.2347,325.157,"[5,1,2,7,4,6,3,8]","[[-0.3,0.2],[0.3,0.2]]","[[-0.125,-0.2],[0.125,-0.2]]",0.135416667,-0.184895833,1,0,0,2.4047,o2_image,325.1585,0,325.6576,325.6576,327.6471,0,0,0,0,1,,,,,,,,,,,,,,,,,,,,,,,,,,,,,,,,,,,,,,,,,,,,,,,,,,
,,596634e005f2df00017281ae,34,male,2024-04-19_18h38.21.639,stockport_simplified,2022.2.4,Win32,59.88023952,661e456ee6de07e70aa9ef7b,66229da57259e04a3633c152,,,,,,,,,,,,,,,,,,,,,,,,,,,,,,,,,,,,,,,,,,,,,,,,,,,,,,,,0,27,27,53,1,N,M,C,o1_image,stimuli/out1.png,stimuli/correct_out1.png,stimuli/out2.png,,,,,,,,,,,,,,,,,,,,,,,,,,,,,,,,,,,,,,
,,596634e005f2df00017281ae,34,male,2024-04-19_18h38.21.639,stockport_simplified,2022.2.4,Win32,59.88023952,661e456ee6de07e70aa9ef7b,66229da57259e04a3633c152,,,,,,,,,,,,,,,,,,,,,,,,,,,,,,,,,,327.6481,329.2165,"[5,1,2,7,4,6,3,8]","[[-0.3,0.2],[0.3,0.2]]","[[-0.125,-0.2],[0.125,-0.2]]",-0.178385417,-0.169270833,1,0,0,1.0526,o1_image,329.218,1,329.7195,329.7195,331.7231,0,0,0,0,1,,,,,,,,,,,,,,,,,,,,,,,,,,,,,,,,,,,,,,,,,,,,,,,,,,
,,596634e005f2df00017281ae,34,male,2024-04-19_18h38.21.639,stockport_simplified,2022.2.4,Win32,59.88023952,661e456ee6de07e70aa9ef7b,66229da57259e04a3633c152,,,,,,,,,,,,,,,,,,,,,,,,,,,,,,,,,,,,,,,,,,,,,,,,,,,,,,,,0,28,28,51,1,N,M,C,o1_image,stimuli/out1.png,stimuli/correct_out1.png,stimuli/out2.png,,,,,,,,,,,,,,,,,,,,,,,,,,,,,,,,,,,,,,
,,596634e005f2df00017281ae,34,male,2024-04-19_18h38.21.639,stockport_simplified,2022.2.4,Win32,59.88023952,661e456ee6de07e70aa9ef7b,66229da57259e04a3633c152,,,,,,,,,,,,,,,,,,,,,,,,,,,,,,,,,,331.7238,333.5614,"[5,1,2,7,4,6,3,8]","[[0.3,0.2],[-0.3,0.2]]","[[0.125,-0.2],[-0.125,-0.2]]",0.134114583,-0.165364583,1,0,0,1.3359,o1_image,333.5633,1,334.0626,334.0627,336.0673,0,0,0,0,1,,,,,,,,,,,,,,,,,,,,,,,,,,,,,,,,,,,,,,,,,,,,,,,,,,
,,596634e005f2df00017281ae,34,male,2024-04-19_18h38.21.639,stockport_simplified,2022.2.4,Win32,59.88023952,661e456ee6de07e70aa9ef7b,66229da57259e04a3633c152,,,,,,,,,,,,,,,,,,,,,,,,,,,,,,,,,,,,,,,,,,,,,,,,,,,,,,,,0,29,29,23,1,N,M,C,o1_image,stimuli/out1.png,stimuli/correct_out1.png,stimuli/out2.png,,,,,,,,,,,,,,,,,,,,,,,,,,,,,,,,,,,,,,
,,596634e005f2df00017281ae,34,male,2024-04-19_18h38.21.639,stockport_simplified,2022.2.4,Win32,59.88023952,661e456ee6de07e70aa9ef7b,66229da57259e04a3633c152,,,,,,,,,,,,,,,,,,,,,,,,,,,,,,,,,,336.0681,337.9056,"[5,1,2,7,4,6,3,8]","[[0.3,0.2],[-0.3,0.2]]","[[-0.125,-0.2],[0.125,-0.2]]",-0.09375,-0.2265625,1,0,0,1.3352,o1_image,337.9073,1,338.4067,338.4068,340.3953,0,0,0,0,1,,,,,,,,,,,,,,,,,,,,,,,,,,,,,,,,,,,,,,,,,,,,,,,,,,
,,596634e005f2df00017281ae,34,male,2024-04-19_18h38.21.639,stockport_simplified,2022.2.4,Win32,59.88023952,661e456ee6de07e70aa9ef7b,66229da57259e04a3633c152,,,,,,,,,,,,,,,,,,,,,,,,,,,,,,,,,,,,,,,,,,,,,,,,,,,,,,,,0,30,30,22,1,N,M,C,o1_image,stimuli/out1.png,stimuli/correct_out1.png,stimuli/out2.png,,,,,,,,,,,,,,,,,,,,,,,,,,,,,,,,,,,,,,
,,596634e005f2df00017281ae,34,male,2024-04-19_18h38.21.639,stockport_simplified,2022.2.4,Win32,59.88023952,661e456ee6de07e70aa9ef7b,66229da57259e04a3633c152,,,,,,,,,,,,,,,,,,,,,,,,,,,,,,,,,,340.3961,342.3684,"[5,1,2,7,4,6,3,8]","[[0.3,0.2],[-0.3,0.2]]","[[-0.125,-0.2],[0.125,-0.2]]",0.098958333,-0.235677083,1,0,0,1.4706,o2_image,342.3695,1,342.8696,342.8697,344.8734,0,0,0,0,1,,,,,,,,,,,,,,,,,,,,,,,,,,,,,,,,,,,,,,,,,,,,,,,,,,
,,596634e005f2df00017281ae,34,male,2024-04-19_18h38.21.639,stockport_simplified,2022.2.4,Win32,59.88023952,661e456ee6de07e70aa9ef7b,66229da57259e04a3633c152,,,,,,,,,,,,,,,,,,,,,,,,,,,,,,,,,,,,,,,,,,,,,,,,,,,,,,,,0,31,31,28,1,N,M,D,o2_image,stimuli/out2.png,stimuli/out1.png,stimuli/correct_out2.png,,,,,,,,,,,,,,,,,,,,,,,,,,,,,,,,,,,,,,
,,596634e005f2df00017281ae,34,male,2024-04-19_18h38.21.639,stockport_simplified,2022.2.4,Win32,59.88023952,661e456ee6de07e70aa9ef7b,66229da57259e04a3633c152,,,,,,,,,,,,,,,,,,,,,,,,,,,,,,,,,,344.8741,346.5613,"[5,1,2,7,4,6,3,8]","[[0.3,0.2],[-0.3,0.2]]","[[0.125,-0.2],[-0.125,-0.2]]",-0.09375,-0.209635417,1,0,0,1.1697,o2_image,346.5627,1,347.0615,347.0615,349.0506,0,0,0,0,1,,,,,,,,,,,,,,,,,,,,,,,,,,,,,,,,,,,,,,,,,,,,,,,,,,
,,596634e005f2df00017281ae,34,male,2024-04-19_18h38.21.639,stockport_simplified,2022.2.4,Win32,59.88023952,661e456ee6de07e70aa9ef7b,66229da57259e04a3633c152,,,,,,,,,,,,,,,,,,,,,,,,,,,,,,,,,,,,,,,,,,,,,,,,,,,,,,,,0,32,32,57,1,N,M,D,o2_image,stimuli/out2.png,stimuli/out1.png,stimuli/correct_out2.png,,,,,,,,,,,,,,,,,,,,,,,,,,,,,,,,,,,,,,
,,596634e005f2df00017281ae,34,male,2024-04-19_18h38.21.639,stockport_simplified,2022.2.4,Win32,59.88023952,661e456ee6de07e70aa9ef7b,66229da57259e04a3633c152,,,,,,,,,,,,,,,,,,,,,,,,,,,,,,,,,,349.0515,350.9383,"[5,1,2,7,4,6,3,8]","[[-0.3,0.2],[0.3,0.2]]","[[-0.125,-0.2],[0.125,-0.2]]",-0.10546875,-0.223958333,1,0,0,1.3693,o1_image,350.9398,1,351.441,351.4411,353.444,0,0,0,0,1,,,,,,,,,,,,,,,,,,,,,,,,,,,,,,,,,,,,,,,,,,,,,,,,,,
,,596634e005f2df00017281ae,34,male,2024-04-19_18h38.21.639,stockport_simplified,2022.2.4,Win32,59.88023952,661e456ee6de07e70aa9ef7b,66229da57259e04a3633c152,,,,,,,,,,,,,,,,,,,,,,,,,,,,,,,,,,,,,,,,,,,,,,,,,,,,,,,,0,33,33,50,1,N,M,C,o1_image,stimuli/out1.png,stimuli/correct_out1.png,stimuli/out2.png,,,,,,,,,,,,,,,,,,,,,,,,,,,,,,,,,,,,,,
,,596634e005f2df00017281ae,34,male,2024-04-19_18h38.21.639,stockport_simplified,2022.2.4,Win32,59.88023952,661e456ee6de07e70aa9ef7b,66229da57259e04a3633c152,,,,,,,,,,,,,,,,,,,,,,,,,,,,,,,,,,353.4449,355.5839,"[5,1,2,7,4,6,3,8]","[[-0.3,0.2],[0.3,0.2]]","[[-0.125,-0.2],[0.125,-0.2]]",0.1484375,-0.205729167,1,0,0,1.6368,o2_image,355.5854,1,356.0842,356.0843,358.0731,0,0,0,0,1,,,,,,,,,,,,,,,,,,,,,,,,,,,,,,,,,,,,,,,,,,,,,,,,,,
,,596634e005f2df00017281ae,34,male,2024-04-19_18h38.21.639,stockport_simplified,2022.2.4,Win32,59.88023952,661e456ee6de07e70aa9ef7b,66229da57259e04a3633c152,,,,,,,,,,,,,,,,,,,,,,,,,,,,,,,,,,,,,,,,,,,,,,,,,,,,,,,,0,34,34,47,1,B,Y,N,o2_image,stimuli/out2.png,stimuli/out1.png,stimuli/correct_out2.png,,,,,,,,,,,,,,,,,,,,,,,,,,,,,,,,,,,,,,
,,596634e005f2df00017281ae,34,male,2024-04-19_18h38.21.639,stockport_simplified,2022.2.4,Win32,59.88023952,661e456ee6de07e70aa9ef7b,66229da57259e04a3633c152,,,,,,,,,,,,,,,,,,,,,,,,,,,,,,,,,,358.0741,360.0784,"[5,1,2,7,4,6,3,8]","[[0.3,0.2],[-0.3,0.2]]","[[-0.125,-0.2],[0.125,-0.2]]",-0.140625,-0.229166667,1,0,0,1.4866,o1_image,360.0799,1,360.5789,360.579,362.5686,0,0,0,0,1,,,,,,,,,,,,,,,,,,,,,,,,,,,,,,,,,,,,,,,,,,,,,,,,,,
,,596634e005f2df00017281ae,34,male,2024-04-19_18h38.21.639,stockport_simplified,2022.2.4,Win32,59.88023952,661e456ee6de07e70aa9ef7b,66229da57259e04a3633c152,,,,,,,,,,,,,,,,,,,,,,,,,,,,,,,,,,,,,,,,,,,,,,,,,,,,,,,,0,35,35,6,1,A,Y,N,o1_image,stimuli/out1.png,stimuli/correct_out1.png,stimuli/out2.png,,,,,,,,,,,,,,,,,,,,,,,,,,,,,,,,,,,,,,
,,596634e005f2df00017281ae,34,male,2024-04-19_18h38.21.639,stockport_simplified,2022.2.4,Win32,59.88023952,661e456ee6de07e70aa9ef7b,66229da57259e04a3633c152,,,,,,,,,,,,,,,,,,,,,,,,,,,,,,,,,,362.5694,364.7579,"[5,1,2,7,4,6,3,8]","[[-0.3,0.2],[0.3,0.2]]","[[0.125,-0.2],[-0.125,-0.2]]",0.118489583,-0.1875,1,0,0,1.6719,o1_image,364.7592,1,365.2577,365.2577,367.2476,0,0,0,0,1,,,,,,,,,,,,,,,,,,,,,,,,,,,,,,,,,,,,,,,,,,,,,,,,,,
,,596634e005f2df00017281ae,34,male,2024-04-19_18h38.21.639,stockport_simplified,2022.2.4,Win32,59.88023952,661e456ee6de07e70aa9ef7b,66229da57259e04a3633c152,,,,,,,,,,,,,,,,,,,,,,,,,,,,,,,,,,,,,,,,,,,,,,,,,,,,,,,,0,36,36,4,1,A,X,N,o1_image,stimuli/out1.png,stimuli/correct_out1.png,stimuli/out2.png,,,,,,,,,,,,,,,,,,,,,,,,,,,,,,,,,,,,,,
,,596634e005f2df00017281ae,34,male,2024-04-19_18h38.21.639,stockport_simplified,2022.2.4,Win32,59.88023952,661e456ee6de07e70aa9ef7b,66229da57259e04a3633c152,,,,,,,,,,,,,,,,,,,,,,,,,,,,,,,,,,367.2483,369.1851,"[5,1,2,7,4,6,3,8]","[[-0.3,0.2],[0.3,0.2]]","[[-0.125,-0.2],[0.125,-0.2]]",-0.06640625,-0.220052083,1,0,0,1.4206,o1_image,369.1864,1,369.6855,369.6856,371.6736,0,0,0,0,1,,,,,,,,,,,,,,,,,,,,,,,,,,,,,,,,,,,,,,,,,,,,,,,,,,
,,596634e005f2df00017281ae,34,male,2024-04-19_18h38.21.639,stockport_simplified,2022.2.4,Win32,59.88023952,661e456ee6de07e70aa9ef7b,66229da57259e04a3633c152,,,,,,,,,,,,,,,,,,,,,,,,,,,,,,,,,,,,,,,,,,,,,,,,,,,,,,,,0,37,37,0,1,A,X,N,o1_image,stimuli/out1.png,stimuli/correct_out1.png,stimuli/out2.png,,,,,,,,,,,,,,,,,,,,,,,,,,,,,,,,,,,,,,
,,596634e005f2df00017281ae,34,male,2024-04-19_18h38.21.639,stockport_simplified,2022.2.4,Win32,59.88023952,661e456ee6de07e70aa9ef7b,66229da57259e04a3633c152,,,,,,,,,,,,,,,,,,,,,,,,,,,,,,,,,,371.6747,373.5954,"[5,1,2,7,4,6,3,8]","[[-0.3,0.2],[0.3,0.2]]","[[-0.125,-0.2],[0.125,-0.2]]",-0.1015625,-0.231770833,1,0,0,1.418,o1_image,373.5972,1,374.0973,374.0974,376.0855,0,0,0,0,1,,,,,,,,,,,,,,,,,,,,,,,,,,,,,,,,,,,,,,,,,,,,,,,,,,
,,596634e005f2df00017281ae,34,male,2024-04-19_18h38.21.639,stockport_simplified,2022.2.4,Win32,59.88023952,661e456ee6de07e70aa9ef7b,66229da57259e04a3633c152,,,,,,,,,,,,,,,,,,,,,,,,,,,,,,,,,,,,,,,,,,,,,,,,,,,,,,,,0,38,38,24,1,N,M,C,o1_image,stimuli/out1.png,stimuli/correct_out1.png,stimuli/out2.png,,,,,,,,,,,,,,,,,,,,,,,,,,,,,,,,,,,,,,
,,596634e005f2df00017281ae,34,male,2024-04-19_18h38.21.639,stockport_simplified,2022.2.4,Win32,59.88023952,661e456ee6de07e70aa9ef7b,66229da57259e04a3633c152,,,,,,,,,,,,,,,,,,,,,,,,,,,,,,,,,,376.0862,378.1071,"[5,1,2,7,4,6,3,8]","[[0.3,0.2],[-0.3,0.2]]","[[0.125,-0.2],[-0.125,-0.2]]",0.12109375,-0.184895833,1,0,0,1.5193,o1_image,378.1091,1,378.6076,378.6077,380.5962,0,0,0,0,1,,,,,,,,,,,,,,,,,,,,,,,,,,,,,,,,,,,,,,,,,,,,,,,,,,
,,596634e005f2df00017281ae,34,male,2024-04-19_18h38.21.639,stockport_simplified,2022.2.4,Win32,59.88023952,661e456ee6de07e70aa9ef7b,66229da57259e04a3633c152,,,,,,,,,,,,,,,,,,,,,,,,,,,,,,,,,,,,,,,,,,,,,,,,,,,,,,,,0,39,39,7,1,A,Y,N,o1_image,stimuli/out1.png,stimuli/correct_out1.png,stimuli/out2.png,,,,,,,,,,,,,,,,,,,,,,,,,,,,,,,,,,,,,,
,,596634e005f2df00017281ae,34,male,2024-04-19_18h38.21.639,stockport_simplified,2022.2.4,Win32,59.88023952,661e456ee6de07e70aa9ef7b,66229da57259e04a3633c152,,,,,,,,,,,,,,,,,,,,,,,,,,,,,,,,,,380.597,382.3182,"[5,1,2,7,4,6,3,8]","[[-0.3,0.2],[0.3,0.2]]","[[-0.125,-0.2],[0.125,-0.2]]",-0.13671875,-0.22265625,1,0,0,1.219,o1_image,382.3195,1,382.819,382.8191,384.8077,0,0,0,0,1,,,,,,,,,,,,,,,,,,,,,,,,,,,,,,,,,,,,,,,,,,,,,,,,,,
,,596634e005f2df00017281ae,34,male,2024-04-19_18h38.21.639,stockport_simplified,2022.2.4,Win32,59.88023952,661e456ee6de07e70aa9ef7b,66229da57259e04a3633c152,,,,,,,,,,,,,,,,,,,,,,,,,,,,,,,,,,,,,,,,,,,,,,,,,,,,,,,,0,40,40,52,1,N,M,C,o1_image,stimuli/out1.png,stimuli/correct_out1.png,stimuli/out2.png,,,,,,,,,,,,,,,,,,,,,,,,,,,,,,,,,,,,,,
,,596634e005f2df00017281ae,34,male,2024-04-19_18h38.21.639,stockport_simplified,2022.2.4,Win32,59.88023952,661e456ee6de07e70aa9ef7b,66229da57259e04a3633c152,,,,,,,,,,,,,,,,,,,,,,,,,,,,,,,,,,384.8083,386.613,"[5,1,2,7,4,6,3,8]","[[0.3,0.2],[-0.3,0.2]]","[[0.125,-0.2],[-0.125,-0.2]]",-0.0703125,-0.21484375,1,0,0,1.2865,o2_image,386.6142,1,387.1125,387.1126,389.1015,0,0,0,0,1,,,,,,,,,,,,,,,,,,,,,,,,,,,,,,,,,,,,,,,,,,,,,,,,,,
,,596634e005f2df00017281ae,34,male,2024-04-19_18h38.21.639,stockport_simplified,2022.2.4,Win32,59.88023952,661e456ee6de07e70aa9ef7b,66229da57259e04a3633c152,,,,,,,,,,,,,,,,,,,,,,,,,,,,,,,,,,,,,,,,,,,,,,,,,,,,,,,,0,41,41,59,1,N,M,D,o2_image,stimuli/out2.png,stimuli/out1.png,stimuli/correct_out2.png,,,,,,,,,,,,,,,,,,,,,,,,,,,,,,,,,,,,,,
,,596634e005f2df00017281ae,34,male,2024-04-19_18h38.21.639,stockport_simplified,2022.2.4,Win32,59.88023952,661e456ee6de07e70aa9ef7b,66229da57259e04a3633c152,,,,,,,,,,,,,,,,,,,,,,,,,,,,,,,,,,389.1023,390.7398,"[5,1,2,7,4,6,3,8]","[[0.3,0.2],[-0.3,0.2]]","[[-0.125,-0.2],[0.125,-0.2]]",-0.092447917,-0.220052083,1,0,0,1.1201,o1_image,390.7412,1,391.24,391.2401,393.2459,0,0,0,0,1,,,,,,,,,,,,,,,,,,,,,,,,,,,,,,,,,,,,,,,,,,,,,,,,,,
,,596634e005f2df00017281ae,34,male,2024-04-19_18h38.21.639,stockport_simplified,2022.2.4,Win32,59.88023952,661e456ee6de07e70aa9ef7b,66229da57259e04a3633c152,,,,,,,,,,,,,,,,,,,,,,,,,,,,,,,,,,,,,,,,,,,,,,,,,,,,,,,,0,42,42,54,1,N,M,C,o1_image,stimuli/out1.png,stimuli/correct_out1.png,stimuli/out2.png,,,,,,,,,,,,,,,,,,,,,,,,,,,,,,,,,,,,,,
,,596634e005f2df00017281ae,34,male,2024-04-19_18h38.21.639,stockport_simplified,2022.2.4,Win32,59.88023952,661e456ee6de07e70aa9ef7b,66229da57259e04a3633c152,,,,,,,,,,,,,,,,,,,,,,,,,,,,,,,,,,393.2466,395.4506,"[5,1,2,7,4,6,3,8]","[[-0.3,0.2],[0.3,0.2]]","[[0.125,-0.2],[-0.125,-0.2]]",-0.11328125,-0.204427083,1,0,0,1.6861,o2_image,395.4523,1,395.9524,395.9524,397.9414,0,0,0,0,1,,,,,,,,,,,,,,,,,,,,,,,,,,,,,,,,,,,,,,,,,,,,,,,,,,
,,596634e005f2df00017281ae,34,male,2024-04-19_18h38.21.639,stockport_simplified,2022.2.4,Win32,59.88023952,661e456ee6de07e70aa9ef7b,66229da57259e04a3633c152,,,,,,,,,,,,,,,,,,,,,,,,,,,,,,,,,,,,,,,,,,,,,,,,,,,,,,,,0,43,43,17,1,B,Y,N,o2_image,stimuli/out2.png,stimuli/out1.png,stimuli/correct_out2.png,,,,,,,,,,,,,,,,,,,,,,,,,,,,,,,,,,,,,,
,,596634e005f2df00017281ae,34,male,2024-04-19_18h38.21.639,stockport_simplified,2022.2.4,Win32,59.88023952,661e456ee6de07e70aa9ef7b,66229da57259e04a3633c152,,,,,,,,,,,,,,,,,,,,,,,,,,,,,,,,,,397.9421,400.3802,"[5,1,2,7,4,6,3,8]","[[0.3,0.2],[-0.3,0.2]]","[[-0.125,-0.2],[0.125,-0.2]]",0.087239583,-0.19921875,1,0,0,1.9361,o2_image,400.3957,1,400.8987,400.8988,402.9027,0,0,0,0,1,,,,,,,,,,,,,,,,,,,,,,,,,,,,,,,,,,,,,,,,,,,,,,,,,,
,,596634e005f2df00017281ae,34,male,2024-04-19_18h38.21.639,stockport_simplified,2022.2.4,Win32,59.88023952,661e456ee6de07e70aa9ef7b,66229da57259e04a3633c152,,,,,,,,,,,,,,,,,,,,,,,,,,,,,,,,,,,,,,,,,,,,,,,,,,,,,,,,0,44,44,27,1,N,M,D,o2_image,stimuli/out2.png,stimuli/out1.png,stimuli/correct_out2.png,,,,,,,,,,,,,,,,,,,,,,,,,,,,,,,,,,,,,,
,,596634e005f2df00017281ae,34,male,2024-04-19_18h38.21.639,stockport_simplified,2022.2.4,Win32,59.88023952,661e456ee6de07e70aa9ef7b,66229da57259e04a3633c152,,,,,,,,,,,,,,,,,,,,,,,,,,,,,,,,,,402.9037,404.9909,"[5,1,2,7,4,6,3,8]","[[0.3,0.2],[-0.3,0.2]]","[[-0.125,-0.2],[0.125,-0.2]]",-0.12890625,-0.216145833,1,0,0,1.5689,o1_image,404.9928,1,405.4933,405.4934,407.4819,0,0,0,0,1,,,,,,,,,,,,,,,,,,,,,,,,,,,,,,,,,,,,,,,,,,,,,,,,,,
,,596634e005f2df00017281ae,34,male,2024-04-19_18h38.21.639,stockport_simplified,2022.2.4,Win32,59.88023952,661e456ee6de07e70aa9ef7b,66229da57259e04a3633c152,,,,,,,,,,,,,,,,,,,,,,,,,,,,,,,,,,,,,,,,,,,,,,,,,,,,,,,,0,45,45,1,1,A,X,N,o1_image,stimuli/out1.png,stimuli/correct_out1.png,stimuli/out2.png,,,,,,,,,,,,,,,,,,,,,,,,,,,,,,,,,,,,,,
,,596634e005f2df00017281ae,34,male,2024-04-19_18h38.21.639,stockport_simplified,2022.2.4,Win32,59.88023952,661e456ee6de07e70aa9ef7b,66229da57259e04a3633c152,,,,,,,,,,,,,,,,,,,,,,,,,,,,,,,,,,407.4826,409.469,"[5,1,2,7,4,6,3,8]","[[-0.3,0.2],[0.3,0.2]]","[[-0.125,-0.2],[0.125,-0.2]]",0.084635417,-0.220052083,1,0,0,1.4692,o2_image,409.4706,1,409.9709,409.971,411.9606,0,0,0,0,1,,,,,,,,,,,,,,,,,,,,,,,,,,,,,,,,,,,,,,,,,,,,,,,,,,
,,596634e005f2df00017281ae,34,male,2024-04-19_18h38.21.639,stockport_simplified,2022.2.4,Win32,59.88023952,661e456ee6de07e70aa9ef7b,66229da57259e04a3633c152,,,,,,,,,,,,,,,,,,,,,,,,,,,,,,,,,,,,,,,,,,,,,,,,,,,,,,,,0,46,46,18,1,B,Y,N,o2_image,stimuli/out2.png,stimuli/out1.png,stimuli/correct_out2.png,,,,,,,,,,,,,,,,,,,,,,,,,,,,,,,,,,,,,,
,,596634e005f2df00017281ae,34,male,2024-04-19_18h38.21.639,stockport_simplified,2022.2.4,Win32,59.88023952,661e456ee6de07e70aa9ef7b,66229da57259e04a3633c152,,,,,,,,,,,,,,,,,,,,,,,,,,,,,,,,,,411.9613,414.5662,"[5,1,2,7,4,6,3,8]","[[-0.3,0.2],[0.3,0.2]]","[[0.125,-0.2],[-0.125,-0.2]]",0.1171875,-0.21875,1,0,0,2.089,o1_image,414.5811,1,415.083,415.083,417.0716,0,0,0,0,1,,,,,,,,,,,,,,,,,,,,,,,,,,,,,,,,,,,,,,,,,,,,,,,,,,
,,596634e005f2df00017281ae,34,male,2024-04-19_18h38.21.639,stockport_simplified,2022.2.4,Win32,59.88023952,661e456ee6de07e70aa9ef7b,66229da57259e04a3633c152,,,,,,,,,,,,,,,,,,,,,,,,,,,,,,,,,,,,,,,,,,,,,,,,,,,,,,,,0,47,47,8,1,A,Y,N,o1_image,stimuli/out1.png,stimuli/correct_out1.png,stimuli/out2.png,,,,,,,,,,,,,,,,,,,,,,,,,,,,,,,,,,,,,,
,,596634e005f2df00017281ae,34,male,2024-04-19_18h38.21.639,stockport_simplified,2022.2.4,Win32,59.88023952,661e456ee6de07e70aa9ef7b,66229da57259e04a3633c152,,,,,,,,,,,,,,,,,,,,,,,,,,,,,,,,,,417.0724,419.5284,"[5,1,2,7,4,6,3,8]","[[-0.3,0.2],[0.3,0.2]]","[[-0.125,-0.2],[0.125,-0.2]]",0.135416667,-0.2265625,1,0,0,1.9374,o2_image,419.5299,1,420.0299,420.0299,422.018,0,0,0,0,1,,,,,,,,,,,,,,,,,,,,,,,,,,,,,,,,,,,,,,,,,,,,,,,,,,
,,596634e005f2df00017281ae,34,male,2024-04-19_18h38.21.639,stockport_simplified,2022.2.4,Win32,59.88023952,661e456ee6de07e70aa9ef7b,66229da57259e04a3633c152,,,,,,,,,,,,,,,,,,,,,,,,,,,,,,,,,,,,,,,,,,,,,,,,,,,,,,,,0,48,48,12,1,B,X,N,o2_image,stimuli/out2.png,stimuli/out1.png,stimuli/correct_out2.png,,,,,,,,,,,,,,,,,,,,,,,,,,,,,,,,,,,,,,
,,596634e005f2df00017281ae,34,male,2024-04-19_18h38.21.639,stockport_simplified,2022.2.4,Win32,59.88023952,661e456ee6de07e70aa9ef7b,66229da57259e04a3633c152,,,,,,,,,,,,,,,,,,,,,,,,,,,,,,,,,,422.0187,423.7561,"[5,1,2,7,4,6,3,8]","[[-0.3,0.2],[0.3,0.2]]","[[-0.125,-0.2],[0.125,-0.2]]",-0.11328125,-0.231770833,1,0,0,1.2201,o1_image,423.7574,1,424.2567,424.2567,426.2447,0,0,0,0,1,,,,,,,,,,,,,,,,,,,,,,,,,,,,,,,,,,,,,,,,,,,,,,,,,,
,,596634e005f2df00017281ae,34,male,2024-04-19_18h38.21.639,stockport_simplified,2022.2.4,Win32,59.88023952,661e456ee6de07e70aa9ef7b,66229da57259e04a3633c152,,,,,,,,,,,,,,,,,,,,,,,,,,,,,,,,,,,,,,,,,,,,,,,,,,,,,,,,0,49,49,20,1,N,M,C,o1_image,stimuli/out1.png,stimuli/correct_out1.png,stimuli/out2.png,,,,,,,,,,,,,,,,,,,,,,,,,,,,,,,,,,,,,,
,,596634e005f2df00017281ae,34,male,2024-04-19_18h38.21.639,stockport_simplified,2022.2.4,Win32,59.88023952,661e456ee6de07e70aa9ef7b,66229da57259e04a3633c152,,,,,,,,,,,,,,,,,,,,,,,,,,,,,,,,,,426.2458,427.983,"[5,1,2,7,4,6,3,8]","[[-0.3,0.2],[0.3,0.2]]","[[0.125,-0.2],[-0.125,-0.2]]",0.162760417,-0.24609375,1,0,0,1.2197,o1_image,427.9843,1,428.4843,428.4844,430.489,0,0,0,0,1,,,,,,,,,,,,,,,,,,,,,,,,,,,,,,,,,,,,,,,,,,,,,,,,,,
,,596634e005f2df00017281ae,34,male,2024-04-19_18h38.21.639,stockport_simplified,2022.2.4,Win32,59.88023952,661e456ee6de07e70aa9ef7b,66229da57259e04a3633c152,,,,,,,,,,,,,,,,,,,,,,,,,,,,,,,,,,,,,,,,,,,,,,,,,,,,,,,,0,50,50,21,1,N,M,C,o1_image,stimuli/out1.png,stimuli/correct_out1.png,stimuli/out2.png,,,,,,,,,,,,,,,,,,,,,,,,,,,,,,,,,,,,,,
,,596634e005f2df00017281ae,34,male,2024-04-19_18h38.21.639,stockport_simplified,2022.2.4,Win32,59.88023952,661e456ee6de07e70aa9ef7b,66229da57259e04a3633c152,,,,,,,,,,,,,,,,,,,,,,,,,,,,,,,,,,430.4898,432.3268,"[5,1,2,7,4,6,3,8]","[[0.3,0.2],[-0.3,0.2]]","[[0.125,-0.2],[-0.125,-0.2]]",-0.12890625,-0.20703125,1,0,0,1.3358,o2_image,432.3283,1,432.828,432.828,434.8164,0,0,0,0,1,,,,,,,,,,,,,,,,,,,,,,,,,,,,,,,,,,,,,,,,,,,,,,,,,,
,,596634e005f2df00017281ae,34,male,2024-04-19_18h38.21.639,stockport_simplified,2022.2.4,Win32,59.88023952,661e456ee6de07e70aa9ef7b,66229da57259e04a3633c152,,,,,,,,,,,,,,,,,,,,,,,,,,,,,,,,,,,,,,,,,,,,,,,,,,,,,,,,0,51,51,26,1,N,M,D,o2_image,stimuli/out2.png,stimuli/out1.png,stimuli/correct_out2.png,,,,,,,,,,,,,,,,,,,,,,,,,,,,,,,,,,,,,,
,,596634e005f2df00017281ae,34,male,2024-04-19_18h38.21.639,stockport_simplified,2022.2.4,Win32,59.88023952,661e456ee6de07e70aa9ef7b,66229da57259e04a3633c152,,,,,,,,,,,,,,,,,,,,,,,,,,,,,,,,,,434.8172,437.1069,"[5,1,2,7,4,6,3,8]","[[-0.3,0.2],[0.3,0.2]]","[[-0.125,-0.2],[0.125,-0.2]]",0.111979167,-0.223958333,1,0,0,1.7879,o2_image,437.1086,1,437.6063,437.6063,439.5951,0,0,0,0,1,,,,,,,,,,,,,,,,,,,,,,,,,,,,,,,,,,,,,,,,,,,,,,,,,,
,,596634e005f2df00017281ae,34,male,2024-04-19_18h38.21.639,stockport_simplified,2022.2.4,Win32,59.88023952,661e456ee6de07e70aa9ef7b,66229da57259e04a3633c152,,,,,,,,,,,,,,,,,,,,,,,,,,,,,,,,,,,,,,,,,,,,,,,,,,,,,,,,0,52,52,10,1,B,X,N,o2_image,stimuli/out2.png,stimuli/out1.png,stimuli/correct_out2.png,,,,,,,,,,,,,,,,,,,,,,,,,,,,,,,,,,,,,,
,,596634e005f2df00017281ae,34,male,2024-04-19_18h38.21.639,stockport_simplified,2022.2.4,Win32,59.88023952,661e456ee6de07e70aa9ef7b,66229da57259e04a3633c152,,,,,,,,,,,,,,,,,,,,,,,,,,,,,,,,,,439.5962,441.9006,"[5,1,2,7,4,6,3,8]","[[-0.3,0.2],[0.3,0.2]]","[[0.125,-0.2],[-0.125,-0.2]]",-0.1328125,-0.23828125,1,0,0,1.8032,o2_image,441.9021,1,442.4019,442.402,444.3917,0,0,0,0,1,,,,,,,,,,,,,,,,,,,,,,,,,,,,,,,,,,,,,,,,,,,,,,,,,,
,,596634e005f2df00017281ae,34,male,2024-04-19_18h38.21.639,stockport_simplified,2022.2.4,Win32,59.88023952,661e456ee6de07e70aa9ef7b,66229da57259e04a3633c152,,,,,,,,,,,,,,,,,,,,,,,,,,,,,,,,,,,,,,,,,,,,,,,,,,,,,,,,0,53,53,16,1,B,Y,N,o2_image,stimuli/out2.png,stimuli/out1.png,stimuli/correct_out2.png,,,,,,,,,,,,,,,,,,,,,,,,,,,,,,,,,,,,,,
,,596634e005f2df00017281ae,34,male,2024-04-19_18h38.21.639,stockport_simplified,2022.2.4,Win32,59.88023952,661e456ee6de07e70aa9ef7b,66229da57259e04a3633c152,,,,,,,,,,,,,,,,,,,,,,,,,,,,,,,,,,444.3924,446.3456,"[5,1,2,7,4,6,3,8]","[[-0.3,0.2],[0.3,0.2]]","[[0.125,-0.2],[-0.125,-0.2]]",0.065104167,-0.2265625,1,0,0,1.4366,o1_image,446.348,1,446.8476,446.8476,448.8526,0,0,0,0,1,,,,,,,,,,,,,,,,,,,,,,,,,,,,,,,,,,,,,,,,,,,,,,,,,,
,,596634e005f2df00017281ae,34,male,2024-04-19_18h38.21.639,stockport_simplified,2022.2.4,Win32,59.88023952,661e456ee6de07e70aa9ef7b,66229da57259e04a3633c152,,,,,,,,,,,,,,,,,,,,,,,,,,,,,,,,,,,,,,,,,,,,,,,,,,,,,,,,0,54,54,3,1,A,X,N,o1_image,stimuli/out1.png,stimuli/correct_out1.png,stimuli/out2.png,,,,,,,,,,,,,,,,,,,,,,,,,,,,,,,,,,,,,,
,,596634e005f2df00017281ae,34,male,2024-04-19_18h38.21.639,stockport_simplified,2022.2.4,Win32,59.88023952,661e456ee6de07e70aa9ef7b,66229da57259e04a3633c152,,,,,,,,,,,,,,,,,,,,,,,,,,,,,,,,,,448.8535,451.0238,"[5,1,2,7,4,6,3,8]","[[-0.3,0.2],[0.3,0.2]]","[[-0.125,-0.2],[0.125,-0.2]]",0.126302083,-0.208333333,1,0,0,1.6539,o2_image,451.0253,1,451.5251,451.5251,453.5134,0,0,0,0,1,,,,,,,,,,,,,,,,,,,,,,,,,,,,,,,,,,,,,,,,,,,,,,,,,,
,,596634e005f2df00017281ae,34,male,2024-04-19_18h38.21.639,stockport_simplified,2022.2.4,Win32,59.88023952,661e456ee6de07e70aa9ef7b,66229da57259e04a3633c152,,,,,,,,,,,,,,,,,,,,,,,,,,,,,,,,,,,,,,,,,,,,,,,,,,,,,,,,0,55,55,42,1,B,X,N,o2_image,stimuli/out2.png,stimuli/out1.png,stimuli/correct_out2.png,,,,,,,,,,,,,,,,,,,,,,,,,,,,,,,,,,,,,,
,,596634e005f2df00017281ae,34,male,2024-04-19_18h38.21.639,stockport_simplified,2022.2.4,Win32,59.88023952,661e456ee6de07e70aa9ef7b,66229da57259e04a3633c152,,,,,,,,,,,,,,,,,,,,,,,,,,,,,,,,,,453.5143,455.5188,"[5,1,2,7,4,6,3,8]","[[0.3,0.2],[-0.3,0.2]]","[[-0.125,-0.2],[0.125,-0.2]]",-0.114583333,-0.236979167,1,0,0,1.4862,o1_image,455.5204,1,456.0204,456.0204,458.0244,0,0,0,0,1,,,,,,,,,,,,,,,,,,,,,,,,,,,,,,,,,,,,,,,,,,,,,,,,,,
,,596634e005f2df00017281ae,34,male,2024-04-19_18h38.21.639,stockport_simplified,2022.2.4,Win32,59.88023952,661e456ee6de07e70aa9ef7b,66229da57259e04a3633c152,,,,,,,,,,,,,,,,,,,,,,,,,,,,,,,,,,,,,,,,,,,,,,,,,,,,,,,,0,56,56,34,1,A,X,N,o1_image,stimuli/out1.png,stimuli/correct_out1.png,stimuli/out2.png,,,,,,,,,,,,,,,,,,,,,,,,,,,,,,,,,,,,,,
,,596634e005f2df00017281ae,34,male,2024-04-19_18h38.21.639,stockport_simplified,2022.2.4,Win32,59.88023952,661e456ee6de07e70aa9ef7b,66229da57259e04a3633c152,,,,,,,,,,,,,,,,,,,,,,,,,,,,,,,,,,458.0255,460.3813,"[5,1,2,7,4,6,3,8]","[[0.3,0.2],[-0.3,0.2]]","[[0.125,-0.2],[-0.125,-0.2]]",-0.115885417,-0.220052083,1,0,0,1.8546,o2_image,460.3828,1,460.8826,460.8827,462.8875,0,0,0,0,1,,,,,,,,,,,,,,,,,,,,,,,,,,,,,,,,,,,,,,,,,,,,,,,,,,
,,596634e005f2df00017281ae,34,male,2024-04-19_18h38.21.639,stockport_simplified,2022.2.4,Win32,59.88023952,661e456ee6de07e70aa9ef7b,66229da57259e04a3633c152,,,,,,,,,,,,,,,,,,,,,,,,,,,,,,,,,,,,,,,,,,,,,,,,,,,,,,,,0,57,57,14,1,B,X,N,o2_image,stimuli/out2.png,stimuli/out1.png,stimuli/correct_out2.png,,,,,,,,,,,,,,,,,,,,,,,,,,,,,,,,,,,,,,
,,596634e005f2df00017281ae,34,male,2024-04-19_18h38.21.639,stockport_simplified,2022.2.4,Win32,59.88023952,661e456ee6de07e70aa9ef7b,66229da57259e04a3633c152,,,,,,,,,,,,,,,,,,,,,,,,,,,,,,,,,,462.8883,464.8936,"[5,1,2,7,4,6,3,8]","[[-0.3,0.2],[0.3,0.2]]","[[-0.125,-0.2],[0.125,-0.2]]",-0.109375,-0.247395833,1,0,0,1.4879,o1_image,464.8949,1,465.3938,465.3938,467.3818,0,0,0,0,1,,,,,,,,,,,,,,,,,,,,,,,,,,,,,,,,,,,,,,,,,,,,,,,,,,
,,596634e005f2df00017281ae,34,male,2024-04-19_18h38.21.639,stockport_simplified,2022.2.4,Win32,59.88023952,661e456ee6de07e70aa9ef7b,66229da57259e04a3633c152,,,,,,,,,,,,,,,,,,,,,,,,,,,,,,,,,,,,,,,,,,,,,,,,,,,,,,,,0,58,58,5,1,A,Y,N,o1_image,stimuli/out1.png,stimuli/correct_out1.png,stimuli/out2.png,,,,,,,,,,,,,,,,,,,,,,,,,,,,,,,,,,,,,,
,,596634e005f2df00017281ae,34,male,2024-04-19_18h38.21.639,stockport_simplified,2022.2.4,Win32,59.88023952,661e456ee6de07e70aa9ef7b,66229da57259e04a3633c152,,,,,,,,,,,,,,,,,,,,,,,,,,,,,,,,,,467.3826,469.3703,"[5,1,2,7,4,6,3,8]","[[-0.3,0.2],[0.3,0.2]]","[[0.125,-0.2],[-0.125,-0.2]]",-0.145833333,-0.252604167,1,0,0,1.4694,o2_image,469.3717,1,469.8717,469.8718,471.8601,0,0,0,0,1,,,,,,,,,,,,,,,,,,,,,,,,,,,,,,,,,,,,,,,,,,,,,,,,,,
,,596634e005f2df00017281ae,34,male,2024-04-19_18h38.21.639,stockport_simplified,2022.2.4,Win32,59.88023952,661e456ee6de07e70aa9ef7b,66229da57259e04a3633c152,,,,,,,,,,,,,,,,,,,,,,,,,,,,,,,,,,,,,,,,,,,,,,,,,,,,,,,,0,59,59,11,1,B,X,N,o2_image,stimuli/out2.png,stimuli/out1.png,stimuli/correct_out2.png,,,,,,,,,,,,,,,,,,,,,,,,,,,,,,,,,,,,,,
,,596634e005f2df00017281ae,34,male,2024-04-19_18h38.21.639,stockport_simplified,2022.2.4,Win32,59.88023952,661e456ee6de07e70aa9ef7b,66229da57259e04a3633c152,,,,,,,,,,,,,,,,,,,,,,,,,,,,,,,,,,471.861,473.8652,"[5,1,2,7,4,6,3,8]","[[0.3,0.2],[-0.3,0.2]]","[[0.125,-0.2],[-0.125,-0.2]]",0.145833333,-0.216145833,1,0,0,1.4858,o1_image,473.8666,1,474.3662,474.3663,476.3545,0,0,0,0,1,,,,,,,,,,,,,,,,,,,,,,,,,,,,,,,,,,,,,,,,,,,,,,,,,,
,,596634e005f2df00017281ae,34,male,2024-04-19_18h38.21.639,stockport_simplified,2022.2.4,Win32,59.88023952,661e456ee6de07e70aa9ef7b,66229da57259e04a3633c152,,,,,,,,,,,,,,,,,,,,,,,,,,,,,,,,,,,,,,,,,,,,,,,,,,,,,,,,1,0,60,0,1,A,X,N,o1_image,stimuli/out1.png,stimuli/correct_out1.png,stimuli/out2.png,,,,,,,,,,,,,,,,,,,,,,,,,,,,,,,,,,,,,,
,,596634e005f2df00017281ae,34,male,2024-04-19_18h38.21.639,stockport_simplified,2022.2.4,Win32,59.88023952,661e456ee6de07e70aa9ef7b,66229da57259e04a3633c152,,,,,,,,,,,,,,,,,,,,,,,,,,,,,,,,,,476.3555,478.3598,"[5,1,2,7,4,6,3,8]","[[-0.3,0.2],[0.3,0.2]]","[[-0.125,-0.2],[0.125,-0.2]]",-0.10546875,-0.2421875,1,0,0,1.503,o1_image,478.3616,1,478.8614,478.8614,480.866,0,0,0,0,1,,,,,,,,,,,,,,,,,,,,,,,,,,,,,,,,,,,,,,,,,,,,,,,,,,
,,596634e005f2df00017281ae,34,male,2024-04-19_18h38.21.639,stockport_simplified,2022.2.4,Win32,59.88023952,661e456ee6de07e70aa9ef7b,66229da57259e04a3633c152,,,,,,,,,,,,,,,,,,,,,,,,,,,,,,,,,,,,,,,,,,,,,,,,,,,,,,,,1,1,61,4,1,A,X,N,o1_image,stimuli/out1.png,stimuli/correct_out1.png,stimuli/out2.png,,,,,,,,,,,,,,,,,,,,,,,,,,,,,,,,,,,,,,
,,596634e005f2df00017281ae,34,male,2024-04-19_18h38.21.639,stockport_simplified,2022.2.4,Win32,59.88023952,661e456ee6de07e70aa9ef7b,66229da57259e04a3633c152,,,,,,,,,,,,,,,,,,,,,,,,,,,,,,,,,,480.8669,483.2886,"[5,1,2,7,4,6,3,8]","[[0.3,0.2],[-0.3,0.2]]","[[0.125,-0.2],[-0.125,-0.2]]",-0.118489583,-0.231770833,1,0,0,1.9203,o2_image,483.2903,1,483.7905,483.7907,485.7958,0,0,0,0,1,,,,,,,,,,,,,,,,,,,,,,,,,,,,,,,,,,,,,,,,,,,,,,,,,,
,,596634e005f2df00017281ae,34,male,2024-04-19_18h38.21.639,stockport_simplified,2022.2.4,Win32,59.88023952,661e456ee6de07e70aa9ef7b,66229da57259e04a3633c152,,,,,,,,,,,,,,,,,,,,,,,,,,,,,,,,,,,,,,,,,,,,,,,,,,,,,,,,1,2,62,46,1,B,Y,N,o2_image,stimuli/out2.png,stimuli/out1.png,stimuli/correct_out2.png,,,,,,,,,,,,,,,,,,,,,,,,,,,,,,,,,,,,,,
,,596634e005f2df00017281ae,34,male,2024-04-19_18h38.21.639,stockport_simplified,2022.2.4,Win32,59.88023952,661e456ee6de07e70aa9ef7b,66229da57259e04a3633c152,,,,,,,,,,,,,,,,,,,,,,,,,,,,,,,,,,485.7965,487.5161,"[5,1,2,7,4,6,3,8]","[[-0.3,0.2],[0.3,0.2]]","[[0.125,-0.2],[-0.125,-0.2]]",0.109375,-0.223958333,1,0,0,1.2018,o1_image,487.5175,1,488.0184,488.0185,490.0065,0,0,0,0,1,,,,,,,,,,,,,,,,,,,,,,,,,,,,,,,,,,,,,,,,,,,,,,,,,,
,,596634e005f2df00017281ae,34,male,2024-04-19_18h38.21.639,stockport_simplified,2022.2.4,Win32,59.88023952,661e456ee6de07e70aa9ef7b,66229da57259e04a3633c152,,,,,,,,,,,,,,,,,,,,,,,,,,,,,,,,,,,,,,,,,,,,,,,,,,,,,,,,1,3,63,34,1,A,X,N,o1_image,stimuli/out1.png,stimuli/correct_out1.png,stimuli/out2.png,,,,,,,,,,,,,,,,,,,,,,,,,,,,,,,,,,,,,,
,,596634e005f2df00017281ae,34,male,2024-04-19_18h38.21.639,stockport_simplified,2022.2.4,Win32,59.88023952,661e456ee6de07e70aa9ef7b,66229da57259e04a3633c152,,,,,,,,,,,,,,,,,,,,,,,,,,,,,,,,,,490.0073,491.895,"[5,1,2,7,4,6,3,8]","[[0.3,0.2],[-0.3,0.2]]","[[-0.125,-0.2],[0.125,-0.2]]",-0.153645833,-0.161458333,1,0,0,1.3716,o1_image,491.8964,1,492.3953,492.3954,494.3996,0,0,0,0,1,,,,,,,,,,,,,,,,,,,,,,,,,,,,,,,,,,,,,,,,,,,,,,,,,,
,,596634e005f2df00017281ae,34,male,2024-04-19_18h38.21.639,stockport_simplified,2022.2.4,Win32,59.88023952,661e456ee6de07e70aa9ef7b,66229da57259e04a3633c152,,,,,,,,,,,,,,,,,,,,,,,,,,,,,,,,,,,,,,,,,,,,,,,,,,,,,,,,1,4,64,33,1,A,X,N,o1_image,stimuli/out1.png,stimuli/correct_out1.png,stimuli/out2.png,,,,,,,,,,,,,,,,,,,,,,,,,,,,,,,,,,,,,,
,,596634e005f2df00017281ae,34,male,2024-04-19_18h38.21.639,stockport_simplified,2022.2.4,Win32,59.88023952,661e456ee6de07e70aa9ef7b,66229da57259e04a3633c152,,,,,,,,,,,,,,,,,,,,,,,,,,,,,,,,,,494.4006,496.7054,"[5,1,2,7,4,6,3,8]","[[-0.3,0.2],[0.3,0.2]]","[[-0.125,-0.2],[0.125,-0.2]]",0.098958333,-0.235677083,1,0,0,1.8034,o2_image,496.726,1,497.2247,497.2248,499.2132,0,0,0,0,1,,,,,,,,,,,,,,,,,,,,,,,,,,,,,,,,,,,,,,,,,,,,,,,,,,
,,596634e005f2df00017281ae,34,male,2024-04-19_18h38.21.639,stockport_simplified,2022.2.4,Win32,59.88023952,661e456ee6de07e70aa9ef7b,66229da57259e04a3633c152,,,,,,,,,,,,,,,,,,,,,,,,,,,,,,,,,,,,,,,,,,,,,,,,,,,,,,,,1,5,65,18,1,B,Y,N,o2_image,stimuli/out2.png,stimuli/out1.png,stimuli/correct_out2.png,,,,,,,,,,,,,,,,,,,,,,,,,,,,,,,,,,,,,,
,,596634e005f2df00017281ae,34,male,2024-04-19_18h38.21.639,stockport_simplified,2022.2.4,Win32,59.88023952,661e456ee6de07e70aa9ef7b,66229da57259e04a3633c152,,,,,,,,,,,,,,,,,,,,,,,,,,,,,,,,,,499.2141,501.6353,"[5,1,2,7,4,6,3,8]","[[0.3,0.2],[-0.3,0.2]]","[[0.125,-0.2],[-0.125,-0.2]]",0.084635417,-0.216145833,1,0,0,1.9048,o1_image,501.6371,1,502.1372,502.1373,504.1408,0,0,0,0,1,,,,,,,,,,,,,,,,,,,,,,,,,,,,,,,,,,,,,,,,,,,,,,,,,,
,,596634e005f2df00017281ae,34,male,2024-04-19_18h38.21.639,stockport_simplified,2022.2.4,Win32,59.88023952,661e456ee6de07e70aa9ef7b,66229da57259e04a3633c152,,,,,,,,,,,,,,,,,,,,,,,,,,,,,,,,,,,,,,,,,,,,,,,,,,,,,,,,1,6,66,32,1,A,X,N,o1_image,stimuli/out1.png,stimuli/correct_out1.png,stimuli/out2.png,,,,,,,,,,,,,,,,,,,,,,,,,,,,,,,,,,,,,,
,,596634e005f2df00017281ae,34,male,2024-04-19_18h38.21.639,stockport_simplified,2022.2.4,Win32,59.88023952,661e456ee6de07e70aa9ef7b,66229da57259e04a3633c152,,,,,,,,,,,,,,,,,,,,,,,,,,,,,,,,,,504.1419,505.8129,"[5,1,2,7,4,6,3,8]","[[-0.3,0.2],[0.3,0.2]]","[[0.125,-0.2],[-0.125,-0.2]]",0.08984375,-0.2265625,1,0,0,1.1686,o1_image,505.8146,1,506.3146,506.3146,508.3179,0,0,0,0,1,,,,,,,,,,,,,,,,,,,,,,,,,,,,,,,,,,,,,,,,,,,,,,,,,,
,,596634e005f2df00017281ae,34,male,2024-04-19_18h38.21.639,stockport_simplified,2022.2.4,Win32,59.88023952,661e456ee6de07e70aa9ef7b,66229da57259e04a3633c152,,,,,,,,,,,,,,,,,,,,,,,,,,,,,,,,,,,,,,,,,,,,,,,,,,,,,,,,1,7,67,8,1,A,Y,N,o1_image,stimuli/out1.png,stimuli/correct_out1.png,stimuli/out2.png,,,,,,,,,,,,,,,,,,,,,,,,,,,,,,,,,,,,,,
,,596634e005f2df00017281ae,34,male,2024-04-19_18h38.21.639,stockport_simplified,2022.2.4,Win32,59.88023952,661e456ee6de07e70aa9ef7b,66229da57259e04a3633c152,,,,,,,,,,,,,,,,,,,,,,,,,,,,,,,,,,508.319,510.0894,"[5,1,2,7,4,6,3,8]","[[-0.3,0.2],[0.3,0.2]]","[[0.125,-0.2],[-0.125,-0.2]]",-0.09765625,-0.208333333,1,0,0,1.2524,o2_image,510.0909,1,510.5915,510.5916,512.5964,0,0,0,0,1,,,,,,,,,,,,,,,,,,,,,,,,,,,,,,,,,,,,,,,,,,,,,,,,,,
,,596634e005f2df00017281ae,34,male,2024-04-19_18h38.21.639,stockport_simplified,2022.2.4,Win32,59.88023952,661e456ee6de07e70aa9ef7b,66229da57259e04a3633c152,,,,,,,,,,,,,,,,,,,,,,,,,,,,,,,,,,,,,,,,,,,,,,,,,,,,,,,,1,8,68,19,1,B,Y,N,o2_image,stimuli/out2.png,stimuli/out1.png,stimuli/correct_out2.png,,,,,,,,,,,,,,,,,,,,,,,,,,,,,,,,,,,,,,
,,596634e005f2df00017281ae,34,male,2024-04-19_18h38.21.639,stockport_simplified,2022.2.4,Win32,59.88023952,661e456ee6de07e70aa9ef7b,66229da57259e04a3633c152,,,,,,,,,,,,,,,,,,,,,,,,,,,,,,,,,,512.5972,514.3337,"[5,1,2,7,4,6,3,8]","[[-0.3,0.2],[0.3,0.2]]","[[-0.125,-0.2],[0.125,-0.2]]",-0.106770833,-0.196614583,1,0,0,1.2191,o1_image,514.3355,1,514.8341,514.8343,516.8242,0,0,0,0,1,,,,,,,,,,,,,,,,,,,,,,,,,,,,,,,,,,,,,,,,,,,,,,,,,,
,,596634e005f2df00017281ae,34,male,2024-04-19_18h38.21.639,stockport_simplified,2022.2.4,Win32,59.88023952,661e456ee6de07e70aa9ef7b,66229da57259e04a3633c152,,,,,,,,,,,,,,,,,,,,,,,,,,,,,,,,,,,,,,,,,,,,,,,,,,,,,,,,1,9,69,36,1,A,Y,N,o1_image,stimuli/out1.png,stimuli/correct_out1.png,stimuli/out2.png,,,,,,,,,,,,,,,,,,,,,,,,,,,,,,,,,,,,,,
,,596634e005f2df00017281ae,34,male,2024-04-19_18h38.21.639,stockport_simplified,2022.2.4,Win32,59.88023952,661e456ee6de07e70aa9ef7b,66229da57259e04a3633c152,,,,,,,,,,,,,,,,,,,,,,,,,,,,,,,,,,516.825,518.7445,"[5,1,2,7,4,6,3,8]","[[0.3,0.2],[-0.3,0.2]]","[[-0.125,-0.2],[0.125,-0.2]]",0.100260417,-0.204427083,1,0,0,1.4028,o2_image,518.7465,1,519.2461,519.2462,521.2341,0,0,0,0,1,,,,,,,,,,,,,,,,,,,,,,,,,,,,,,,,,,,,,,,,,,,,,,,,,,
,,596634e005f2df00017281ae,34,male,2024-04-19_18h38.21.639,stockport_simplified,2022.2.4,Win32,59.88023952,661e456ee6de07e70aa9ef7b,66229da57259e04a3633c152,,,,,,,,,,,,,,,,,,,,,,,,,,,,,,,,,,,,,,,,,,,,,,,,,,,,,,,,1,10,70,10,1,B,X,N,o2_image,stimuli/out2.png,stimuli/out1.png,stimuli/correct_out2.png,,,,,,,,,,,,,,,,,,,,,,,,,,,,,,,,,,,,,,
,,596634e005f2df00017281ae,34,male,2024-04-19_18h38.21.639,stockport_simplified,2022.2.4,Win32,59.88023952,661e456ee6de07e70aa9ef7b,66229da57259e04a3633c152,,,,,,,,,,,,,,,,,,,,,,,,,,,,,,,,,,521.235,523.7401,"[5,1,2,7,4,6,3,8]","[[0.3,0.2],[-0.3,0.2]]","[[0.125,-0.2],[-0.125,-0.2]]",-0.1328125,-0.221354167,1,0,0,2.0036,o2_image,523.7417,1,524.2422,524.2423,526.231,0,0,0,0,1,,,,,,,,,,,,,,,,,,,,,,,,,,,,,,,,,,,,,,,,,,,,,,,,,,
,,596634e005f2df00017281ae,34,male,2024-04-19_18h38.21.639,stockport_simplified,2022.2.4,Win32,59.88023952,661e456ee6de07e70aa9ef7b,66229da57259e04a3633c152,,,,,,,,,,,,,,,,,,,,,,,,,,,,,,,,,,,,,,,,,,,,,,,,,,,,,,,,1,11,71,59,1,N,M,D,o2_image,stimuli/out2.png,stimuli/out1.png,stimuli/correct_out2.png,,,,,,,,,,,,,,,,,,,,,,,,,,,,,,,,,,,,,,
,,596634e005f2df00017281ae,34,male,2024-04-19_18h38.21.639,stockport_simplified,2022.2.4,Win32,59.88023952,661e456ee6de07e70aa9ef7b,66229da57259e04a3633c152,,,,,,,,,,,,,,,,,,,,,,,,,,,,,,,,,,526.2318,529.3386,"[5,1,2,7,4,6,3,8]","[[0.3,0.2],[-0.3,0.2]]","[[0.125,-0.2],[-0.125,-0.2]]",-0.161458333,-0.23046875,1,0,0,2.5886,o2_image,529.355,1,529.8571,529.8572,531.8615,0,0,0,0,1,,,,,,,,,,,,,,,,,,,,,,,,,,,,,,,,,,,,,,,,,,,,,,,,,,
,,596634e005f2df00017281ae,34,male,2024-04-19_18h38.21.639,stockport_simplified,2022.2.4,Win32,59.88023952,661e456ee6de07e70aa9ef7b,66229da57259e04a3633c152,,,,,,,,,,,,,,,,,,,,,,,,,,,,,,,,,,,,,,,,,,,,,,,,,,,,,,,,1,12,72,48,1,B,Y,N,o2_image,stimuli/out2.png,stimuli/out1.png,stimuli/correct_out2.png,,,,,,,,,,,,,,,,,,,,,,,,,,,,,,,,,,,,,,
,,596634e005f2df00017281ae,34,male,2024-04-19_18h38.21.639,stockport_simplified,2022.2.4,Win32,59.88023952,661e456ee6de07e70aa9ef7b,66229da57259e04a3633c152,,,,,,,,,,,,,,,,,,,,,,,,,,,,,,,,,,531.8622,534.3848,"[5,1,2,7,4,6,3,8]","[[-0.3,0.2],[0.3,0.2]]","[[0.125,-0.2],[-0.125,-0.2]]",-0.135416667,-0.22265625,1,0,0,2.0206,o2_image,534.3865,1,534.8871,534.8872,536.8749,0,0,0,0,1,,,,,,,,,,,,,,,,,,,,,,,,,,,,,,,,,,,,,,,,,,,,,,,,,,
,,596634e005f2df00017281ae,34,male,2024-04-19_18h38.21.639,stockport_simplified,2022.2.4,Win32,59.88023952,661e456ee6de07e70aa9ef7b,66229da57259e04a3633c152,,,,,,,,,,,,,,,,,,,,,,,,,,,,,,,,,,,,,,,,,,,,,,,,,,,,,,,,1,13,73,40,1,B,X,N,o2_image,stimuli/out2.png,stimuli/out1.png,stimuli/correct_out2.png,,,,,,,,,,,,,,,,,,,,,,,,,,,,,,,,,,,,,,
,,596634e005f2df00017281ae,34,male,2024-04-19_18h38.21.639,stockport_simplified,2022.2.4,Win32,59.88023952,661e456ee6de07e70aa9ef7b,66229da57259e04a3633c152,,,,,,,,,,,,,,,,,,,,,,,,,,,,,,,,,,536.8757,539.4141,"[5,1,2,7,4,6,3,8]","[[0.3,0.2],[-0.3,0.2]]","[[0.125,-0.2],[-0.125,-0.2]]",0.088541667,-0.233072917,1,0,0,2.022,o1_image,539.4156,1,539.915,539.9151,541.9198,0,0,0,0,1,,,,,,,,,,,,,,,,,,,,,,,,,,,,,,,,,,,,,,,,,,,,,,,,,,
,,596634e005f2df00017281ae,34,male,2024-04-19_18h38.21.639,stockport_simplified,2022.2.4,Win32,59.88023952,661e456ee6de07e70aa9ef7b,66229da57259e04a3633c152,,,,,,,,,,,,,,,,,,,,,,,,,,,,,,,,,,,,,,,,,,,,,,,,,,,,,,,,1,14,74,52,1,N,M,C,o1_image,stimuli/out1.png,stimuli/correct_out1.png,stimuli/out2.png,,,,,,,,,,,,,,,,,,,,,,,,,,,,,,,,,,,,,,
,,596634e005f2df00017281ae,34,male,2024-04-19_18h38.21.639,stockport_simplified,2022.2.4,Win32,59.88023952,661e456ee6de07e70aa9ef7b,66229da57259e04a3633c152,,,,,,,,,,,,,,,,,,,,,,,,,,,,,,,,,,541.9206,543.9413,"[5,1,2,7,4,6,3,8]","[[0.3,0.2],[-0.3,0.2]]","[[0.125,-0.2],[-0.125,-0.2]]",0.10546875,-0.205729167,1,0,0,1.5015,o1_image,543.9433,1,544.4439,544.4439,546.4489,0,0,0,0,1,,,,,,,,,,,,,,,,,,,,,,,,,,,,,,,,,,,,,,,,,,,,,,,,,,
,,596634e005f2df00017281ae,34,male,2024-04-19_18h38.21.639,stockport_simplified,2022.2.4,Win32,59.88023952,661e456ee6de07e70aa9ef7b,66229da57259e04a3633c152,,,,,,,,,,,,,,,,,,,,,,,,,,,,,,,,,,,,,,,,,,,,,,,,,,,,,,,,1,15,75,39,1,A,Y,N,o1_image,stimuli/out1.png,stimuli/correct_out1.png,stimuli/out2.png,,,,,,,,,,,,,,,,,,,,,,,,,,,,,,,,,,,,,,
,,596634e005f2df00017281ae,34,male,2024-04-19_18h38.21.639,stockport_simplified,2022.2.4,Win32,59.88023952,661e456ee6de07e70aa9ef7b,66229da57259e04a3633c152,,,,,,,,,,,,,,,,,,,,,,,,,,,,,,,,,,546.4496,548.62,"[5,1,2,7,4,6,3,8]","[[0.3,0.2],[-0.3,0.2]]","[[-0.125,-0.2],[0.125,-0.2]]",0.125,-0.266927083,1,0,0,1.6528,o2_image,548.6215,1,549.1212,549.1213,551.1095,0,0,0,0,1,,,,,,,,,,,,,,,,,,,,,,,,,,,,,,,,,,,,,,,,,,,,,,,,,,
,,596634e005f2df00017281ae,34,male,2024-04-19_18h38.21.639,stockport_simplified,2022.2.4,Win32,59.88023952,661e456ee6de07e70aa9ef7b,66229da57259e04a3633c152,,,,,,,,,,,,,,,,,,,,,,,,,,,,,,,,,,,,,,,,,,,,,,,,,,,,,,,,1,16,76,16,1,B,Y,N,o2_image,stimuli/out2.png,stimuli/out1.png,stimuli/correct_out2.png,,,,,,,,,,,,,,,,,,,,,,,,,,,,,,,,,,,,,,
,,596634e005f2df00017281ae,34,male,2024-04-19_18h38.21.639,stockport_simplified,2022.2.4,Win32,59.88023952,661e456ee6de07e70aa9ef7b,66229da57259e04a3633c152,,,,,,,,,,,,,,,,,,,,,,,,,,,,,,,,,,551.1103,553.349,"[5,1,2,7,4,6,3,8]","[[-0.3,0.2],[0.3,0.2]]","[[0.125,-0.2],[-0.125,-0.2]]",-0.14453125,-0.212239583,1,0,0,1.7194,o2_image,553.3504,1,553.8498,553.8498,555.8377,0,0,0,0,1,,,,,,,,,,,,,,,,,,,,,,,,,,,,,,,,,,,,,,,,,,,,,,,,,,
,,596634e005f2df00017281ae,34,male,2024-04-19_18h38.21.639,stockport_simplified,2022.2.4,Win32,59.88023952,661e456ee6de07e70aa9ef7b,66229da57259e04a3633c152,,,,,,,,,,,,,,,,,,,,,,,,,,,,,,,,,,,,,,,,,,,,,,,,,,,,,,,,1,17,77,13,1,B,X,N,o2_image,stimuli/out2.png,stimuli/out1.png,stimuli/correct_out2.png,,,,,,,,,,,,,,,,,,,,,,,,,,,,,,,,,,,,,,
,,596634e005f2df00017281ae,34,male,2024-04-19_18h38.21.639,stockport_simplified,2022.2.4,Win32,59.88023952,661e456ee6de07e70aa9ef7b,66229da57259e04a3633c152,,,,,,,,,,,,,,,,,,,,,,,,,,,,,,,,,,555.8385,557.7101,"[5,1,2,7,4,6,3,8]","[[0.3,0.2],[-0.3,0.2]]","[[0.125,-0.2],[-0.125,-0.2]]",0.0859375,-0.216145833,1,0,0,1.3685,o1_image,557.7116,1,558.2103,558.2104,560.1986,0,0,0,0,1,,,,,,,,,,,,,,,,,,,,,,,,,,,,,,,,,,,,,,,,,,,,,,,,,,
,,596634e005f2df00017281ae,34,male,2024-04-19_18h38.21.639,stockport_simplified,2022.2.4,Win32,59.88023952,661e456ee6de07e70aa9ef7b,66229da57259e04a3633c152,,,,,,,,,,,,,,,,,,,,,,,,,,,,,,,,,,,,,,,,,,,,,,,,,,,,,,,,1,18,78,54,1,N,M,C,o1_image,stimuli/out1.png,stimuli/correct_out1.png,stimuli/out2.png,,,,,,,,,,,,,,,,,,,,,,,,,,,,,,,,,,,,,,
,,596634e005f2df00017281ae,34,male,2024-04-19_18h38.21.639,stockport_simplified,2022.2.4,Win32,59.88023952,661e456ee6de07e70aa9ef7b,66229da57259e04a3633c152,,,,,,,,,,,,,,,,,,,,,,,,,,,,,,,,,,560.1993,562.6223,"[5,1,2,7,4,6,3,8]","[[-0.3,0.2],[0.3,0.2]]","[[-0.125,-0.2],[0.125,-0.2]]",0.10546875,-0.231770833,1,0,0,1.9202,o2_image,562.6238,1,563.1238,563.1238,565.1117,0,0,0,0,1,,,,,,,,,,,,,,,,,,,,,,,,,,,,,,,,,,,,,,,,,,,,,,,,,,
,,596634e005f2df00017281ae,34,male,2024-04-19_18h38.21.639,stockport_simplified,2022.2.4,Win32,59.88023952,661e456ee6de07e70aa9ef7b,66229da57259e04a3633c152,,,,,,,,,,,,,,,,,,,,,,,,,,,,,,,,,,,,,,,,,,,,,,,,,,,,,,,,1,19,79,45,1,B,Y,N,o2_image,stimuli/out2.png,stimuli/out1.png,stimuli/correct_out2.png,,,,,,,,,,,,,,,,,,,,,,,,,,,,,,,,,,,,,,
,,596634e005f2df00017281ae,34,male,2024-04-19_18h38.21.639,stockport_simplified,2022.2.4,Win32,59.88023952,661e456ee6de07e70aa9ef7b,66229da57259e04a3633c152,,,,,,,,,,,,,,,,,,,,,,,,,,,,,,,,,,565.1126,567.0845,"[5,1,2,7,4,6,3,8]","[[-0.3,0.2],[0.3,0.2]]","[[-0.125,-0.2],[0.125,-0.2]]",-0.111979167,-0.256510417,1,0,0,1.4705,o1_image,567.086,1,567.5853,567.5853,569.5896,0,0,0,0,1,,,,,,,,,,,,,,,,,,,,,,,,,,,,,,,,,,,,,,,,,,,,,,,,,,
,,596634e005f2df00017281ae,34,male,2024-04-19_18h38.21.639,stockport_simplified,2022.2.4,Win32,59.88023952,661e456ee6de07e70aa9ef7b,66229da57259e04a3633c152,,,,,,,,,,,,,,,,,,,,,,,,,,,,,,,,,,,,,,,,,,,,,,,,,,,,,,,,1,20,80,31,1,A,X,N,o1_image,stimuli/out1.png,stimuli/correct_out1.png,stimuli/out2.png,,,,,,,,,,,,,,,,,,,,,,,,,,,,,,,,,,,,,,
,,596634e005f2df00017281ae,34,male,2024-04-19_18h38.21.639,stockport_simplified,2022.2.4,Win32,59.88023952,661e456ee6de07e70aa9ef7b,66229da57259e04a3633c152,,,,,,,,,,,,,,,,,,,,,,,,,,,,,,,,,,569.5904,571.294,"[5,1,2,7,4,6,3,8]","[[-0.3,0.2],[0.3,0.2]]","[[-0.125,-0.2],[0.125,-0.2]]",-0.09375,-0.239583333,1,0,0,1.1858,o1_image,571.2956,1,571.795,571.795,573.7835,0,0,0,0,1,,,,,,,,,,,,,,,,,,,,,,,,,,,,,,,,,,,,,,,,,,,,,,,,,,
,,596634e005f2df00017281ae,34,male,2024-04-19_18h38.21.639,stockport_simplified,2022.2.4,Win32,59.88023952,661e456ee6de07e70aa9ef7b,66229da57259e04a3633c152,,,,,,,,,,,,,,,,,,,,,,,,,,,,,,,,,,,,,,,,,,,,,,,,,,,,,,,,1,21,81,35,1,A,Y,N,o1_image,stimuli/out1.png,stimuli/correct_out1.png,stimuli/out2.png,,,,,,,,,,,,,,,,,,,,,,,,,,,,,,,,,,,,,,
,,596634e005f2df00017281ae,34,male,2024-04-19_18h38.21.639,stockport_simplified,2022.2.4,Win32,59.88023952,661e456ee6de07e70aa9ef7b,66229da57259e04a3633c152,,,,,,,,,,,,,,,,,,,,,,,,,,,,,,,,,,573.7845,576.0734,"[5,1,2,7,4,6,3,8]","[[0.3,0.2],[-0.3,0.2]]","[[-0.125,-0.2],[0.125,-0.2]]",0.09375,-0.223958333,1,0,0,1.786,o2_image,576.075,1,576.5749,576.575,578.5786,0,0,0,0,1,,,,,,,,,,,,,,,,,,,,,,,,,,,,,,,,,,,,,,,,,,,,,,,,,,
,,596634e005f2df00017281ae,34,male,2024-04-19_18h38.21.639,stockport_simplified,2022.2.4,Win32,59.88023952,661e456ee6de07e70aa9ef7b,66229da57259e04a3633c152,,,,,,,,,,,,,,,,,,,,,,,,,,,,,,,,,,,,,,,,,,,,,,,,,,,,,,,,1,22,82,56,1,N,M,D,o2_image,stimuli/out2.png,stimuli/out1.png,stimuli/correct_out2.png,,,,,,,,,,,,,,,,,,,,,,,,,,,,,,,,,,,,,,
,,596634e005f2df00017281ae,34,male,2024-04-19_18h38.21.639,stockport_simplified,2022.2.4,Win32,59.88023952,661e456ee6de07e70aa9ef7b,66229da57259e04a3633c152,,,,,,,,,,,,,,,,,,,,,,,,,,,,,,,,,,578.5797,580.7182,"[5,1,2,7,4,6,3,8]","[[-0.3,0.2],[0.3,0.2]]","[[0.125,-0.2],[-0.125,-0.2]]",0.135416667,-0.235677083,1,0,0,1.636,o1_image,580.7199,1,581.2204,581.2204,583.2244,0,0,0,0,1,,,,,,,,,,,,,,,,,,,,,,,,,,,,,,,,,,,,,,,,,,,,,,,,,,
,,596634e005f2df00017281ae,34,male,2024-04-19_18h38.21.639,stockport_simplified,2022.2.4,Win32,59.88023952,661e456ee6de07e70aa9ef7b,66229da57259e04a3633c152,,,,,,,,,,,,,,,,,,,,,,,,,,,,,,,,,,,,,,,,,,,,,,,,,,,,,,,,1,23,83,38,1,A,Y,N,o1_image,stimuli/out1.png,stimuli/correct_out1.png,stimuli/out2.png,,,,,,,,,,,,,,,,,,,,,,,,,,,,,,,,,,,,,,
,,596634e005f2df00017281ae,34,male,2024-04-19_18h38.21.639,stockport_simplified,2022.2.4,Win32,59.88023952,661e456ee6de07e70aa9ef7b,66229da57259e04a3633c152,,,,,,,,,,,,,,,,,,,,,,,,,,,,,,,,,,583.2252,585.6975,"[5,1,2,7,4,6,3,8]","[[0.3,0.2],[-0.3,0.2]]","[[-0.125,-0.2],[0.125,-0.2]]",0.17578125,-0.233072917,1,0,0,1.9703,o2_image,585.6989,1,586.1991,586.1991,588.2031,0,0,0,0,1,,,,,,,,,,,,,,,,,,,,,,,,,,,,,,,,,,,,,,,,,,,,,,,,,,
,,596634e005f2df00017281ae,34,male,2024-04-19_18h38.21.639,stockport_simplified,2022.2.4,Win32,59.88023952,661e456ee6de07e70aa9ef7b,66229da57259e04a3633c152,,,,,,,,,,,,,,,,,,,,,,,,,,,,,,,,,,,,,,,,,,,,,,,,,,,,,,,,1,24,84,27,1,N,M,D,o2_image,stimuli/out2.png,stimuli/out1.png,stimuli/correct_out2.png,,,,,,,,,,,,,,,,,,,,,,,,,,,,,,,,,,,,,,
,,596634e005f2df00017281ae,34,male,2024-04-19_18h38.21.639,stockport_simplified,2022.2.4,Win32,59.88023952,661e456ee6de07e70aa9ef7b,66229da57259e04a3633c152,,,,,,,,,,,,,,,,,,,,,,,,,,,,,,,,,,588.2038,590.1419,"[5,1,2,7,4,6,3,8]","[[0.3,0.2],[-0.3,0.2]]","[[-0.125,-0.2],[0.125,-0.2]]",-0.063802083,-0.247395833,1,0,0,1.4358,o1_image,590.1437,1,590.6435,590.6437,592.6317,0,0,0,0,1,,,,,,,,,,,,,,,,,,,,,,,,,,,,,,,,,,,,,,,,,,,,,,,,,,
,,596634e005f2df00017281ae,34,male,2024-04-19_18h38.21.639,stockport_simplified,2022.2.4,Win32,59.88023952,661e456ee6de07e70aa9ef7b,66229da57259e04a3633c152,,,,,,,,,,,,,,,,,,,,,,,,,,,,,,,,,,,,,,,,,,,,,,,,,,,,,,,,1,25,85,22,1,N,M,C,o1_image,stimuli/out1.png,stimuli/correct_out1.png,stimuli/out2.png,,,,,,,,,,,,,,,,,,,,,,,,,,,,,,,,,,,,,,
,,596634e005f2df00017281ae,34,male,2024-04-19_18h38.21.639,stockport_simplified,2022.2.4,Win32,59.88023952,661e456ee6de07e70aa9ef7b,66229da57259e04a3633c152,,,,,,,,,,,,,,,,,,,,,,,,,,,,,,,,,,592.6326,595.0035,"[5,1,2,7,4,6,3,8]","[[-0.3,0.2],[0.3,0.2]]","[[0.125,-0.2],[-0.125,-0.2]]",-0.09765625,-0.234375,1,0,0,1.8536,o2_image,595.0211,1,595.5223,595.5224,597.5259,0,0,0,0,1,,,,,,,,,,,,,,,,,,,,,,,,,,,,,,,,,,,,,,,,,,,,,,,,,,
,,596634e005f2df00017281ae,34,male,2024-04-19_18h38.21.639,stockport_simplified,2022.2.4,Win32,59.88023952,661e456ee6de07e70aa9ef7b,66229da57259e04a3633c152,,,,,,,,,,,,,,,,,,,,,,,,,,,,,,,,,,,,,,,,,,,,,,,,,,,,,,,,1,26,86,29,1,N,M,D,o2_image,stimuli/out2.png,stimuli/out1.png,stimuli/correct_out2.png,,,,,,,,,,,,,,,,,,,,,,,,,,,,,,,,,,,,,,
,,596634e005f2df00017281ae,34,male,2024-04-19_18h38.21.639,stockport_simplified,2022.2.4,Win32,59.88023952,661e456ee6de07e70aa9ef7b,66229da57259e04a3633c152,,,,,,,,,,,,,,,,,,,,,,,,,,,,,,,,,,597.5268,599.9995,"[5,1,2,7,4,6,3,8]","[[0.3,0.2],[-0.3,0.2]]","[[0.125,-0.2],[-0.125,-0.2]]",0.131510417,-0.239583333,1,0,0,1.9699,o1_image,600.0011,0,600.502,600.5021,602.5062,0,0,0,0,1,,,,,,,,,,,,,,,,,,,,,,,,,,,,,,,,,,,,,,,,,,,,,,,,,,
,,596634e005f2df00017281ae,34,male,2024-04-19_18h38.21.639,stockport_simplified,2022.2.4,Win32,59.88023952,661e456ee6de07e70aa9ef7b,66229da57259e04a3633c152,,,,,,,,,,,,,,,,,,,,,,,,,,,,,,,,,,,,,,,,,,,,,,,,,,,,,,,,1,27,87,49,1,B,Y,N,o2_image,stimuli/out2.png,stimuli/out1.png,stimuli/correct_out2.png,,,,,,,,,,,,,,,,,,,,,,,,,,,,,,,,,,,,,,
,,596634e005f2df00017281ae,34,male,2024-04-19_18h38.21.639,stockport_simplified,2022.2.4,Win32,59.88023952,661e456ee6de07e70aa9ef7b,66229da57259e04a3633c152,,,,,,,,,,,,,,,,,,,,,,,,,,,,,,,,,,602.5071,605.0132,"[5,1,2,7,4,6,3,8]","[[0.3,0.2],[-0.3,0.2]]","[[0.125,-0.2],[-0.125,-0.2]]",0.111979167,-0.212239583,1,0,0,1.9887,o1_image,605.0294,1,605.5303,605.5304,607.519,0,0,0,0,1,,,,,,,,,,,,,,,,,,,,,,,,,,,,,,,,,,,,,,,,,,,,,,,,,,
,,596634e005f2df00017281ae,34,male,2024-04-19_18h38.21.639,stockport_simplified,2022.2.4,Win32,59.88023952,661e456ee6de07e70aa9ef7b,66229da57259e04a3633c152,,,,,,,,,,,,,,,,,,,,,,,,,,,,,,,,,,,,,,,,,,,,,,,,,,,,,,,,1,28,88,30,1,A,X,N,o1_image,stimuli/out1.png,stimuli/correct_out1.png,stimuli/out2.png,,,,,,,,,,,,,,,,,,,,,,,,,,,,,,,,,,,,,,
,,596634e005f2df00017281ae,34,male,2024-04-19_18h38.21.639,stockport_simplified,2022.2.4,Win32,59.88023952,661e456ee6de07e70aa9ef7b,66229da57259e04a3633c152,,,,,,,,,,,,,,,,,,,,,,,,,,,,,,,,,,607.5198,609.2233,"[5,1,2,7,4,6,3,8]","[[-0.3,0.2],[0.3,0.2]]","[[0.125,-0.2],[-0.125,-0.2]]",0.1015625,-0.263020833,1,0,0,1.2023,o1_image,609.2249,1,609.7242,609.7243,611.7127,0,0,0,0,1,,,,,,,,,,,,,,,,,,,,,,,,,,,,,,,,,,,,,,,,,,,,,,,,,,
,,596634e005f2df00017281ae,34,male,2024-04-19_18h38.21.639,stockport_simplified,2022.2.4,Win32,59.88023952,661e456ee6de07e70aa9ef7b,66229da57259e04a3633c152,,,,,,,,,,,,,,,,,,,,,,,,,,,,,,,,,,,,,,,,,,,,,,,,,,,,,,,,1,29,89,7,1,A,Y,N,o1_image,stimuli/out1.png,stimuli/correct_out1.png,stimuli/out2.png,,,,,,,,,,,,,,,,,,,,,,,,,,,,,,,,,,,,,,
,,596634e005f2df00017281ae,34,male,2024-04-19_18h38.21.639,stockport_simplified,2022.2.4,Win32,59.88023952,661e456ee6de07e70aa9ef7b,66229da57259e04a3633c152,,,,,,,,,,,,,,,,,,,,,,,,,,,,,,,,,,611.7135,613.785,"[5,1,2,7,4,6,3,8]","[[0.3,0.2],[-0.3,0.2]]","[[-0.125,-0.2],[0.125,-0.2]]",-0.122395833,-0.255208333,1,0,0,1.5544,o1_image,613.7863,1,614.2856,614.2857,616.2738,0,0,0,0,1,,,,,,,,,,,,,,,,,,,,,,,,,,,,,,,,,,,,,,,,,,,,,,,,,,
,,596634e005f2df00017281ae,34,male,2024-04-19_18h38.21.639,stockport_simplified,2022.2.4,Win32,59.88023952,661e456ee6de07e70aa9ef7b,66229da57259e04a3633c152,,,,,,,,,,,,,,,,,,,,,,,,,,,,,,,,,,,,,,,,,,,,,,,,,,,,,,,,1,30,90,3,1,A,X,N,o1_image,stimuli/out1.png,stimuli/correct_out1.png,stimuli/out2.png,,,,,,,,,,,,,,,,,,,,,,,,,,,,,,,,,,,,,,
,,596634e005f2df00017281ae,34,male,2024-04-19_18h38.21.639,stockport_simplified,2022.2.4,Win32,59.88023952,661e456ee6de07e70aa9ef7b,66229da57259e04a3633c152,,,,,,,,,,,,,,,,,,,,,,,,,,,,,,,,,,616.2747,618.4805,"[5,1,2,7,4,6,3,8]","[[0.3,0.2],[-0.3,0.2]]","[[0.125,-0.2],[-0.125,-0.2]]",-0.1171875,-0.196614583,1,0,0,1.6879,o2_image,618.4818,1,618.9803,618.9803,620.9705,0,0,0,0,1,,,,,,,,,,,,,,,,,,,,,,,,,,,,,,,,,,,,,,,,,,,,,,,,,,
,,596634e005f2df00017281ae,34,male,2024-04-19_18h38.21.639,stockport_simplified,2022.2.4,Win32,59.88023952,661e456ee6de07e70aa9ef7b,66229da57259e04a3633c152,,,,,,,,,,,,,,,,,,,,,,,,,,,,,,,,,,,,,,,,,,,,,,,,,,,,,,,,1,31,91,25,1,N,M,D,o2_image,stimuli/out2.png,stimuli/out1.png,stimuli/correct_out2.png,,,,,,,,,,,,,,,,,,,,,,,,,,,,,,,,,,,,,,
,,596634e005f2df00017281ae,34,male,2024-04-19_18h38.21.639,stockport_simplified,2022.2.4,Win32,59.88023952,661e456ee6de07e70aa9ef7b,66229da57259e04a3633c152,,,,,,,,,,,,,,,,,,,,,,,,,,,,,,,,,,620.9712,622.9748,"[5,1,2,7,4,6,3,8]","[[-0.3,0.2],[0.3,0.2]]","[[0.125,-0.2],[-0.125,-0.2]]",0.118489583,-0.18359375,1,0,0,1.488,o1_image,622.9761,1,623.4761,623.4761,625.4804,0,0,0,0,1,,,,,,,,,,,,,,,,,,,,,,,,,,,,,,,,,,,,,,,,,,,,,,,,,,
,,596634e005f2df00017281ae,34,male,2024-04-19_18h38.21.639,stockport_simplified,2022.2.4,Win32,59.88023952,661e456ee6de07e70aa9ef7b,66229da57259e04a3633c152,,,,,,,,,,,,,,,,,,,,,,,,,,,,,,,,,,,,,,,,,,,,,,,,,,,,,,,,1,32,92,20,1,N,M,C,o1_image,stimuli/out1.png,stimuli/correct_out1.png,stimuli/out2.png,,,,,,,,,,,,,,,,,,,,,,,,,,,,,,,,,,,,,,
,,596634e005f2df00017281ae,34,male,2024-04-19_18h38.21.639,stockport_simplified,2022.2.4,Win32,59.88023952,661e456ee6de07e70aa9ef7b,66229da57259e04a3633c152,,,,,,,,,,,,,,,,,,,,,,,,,,,,,,,,,,625.4812,627.2015,"[5,1,2,7,4,6,3,8]","[[0.3,0.2],[-0.3,0.2]]","[[0.125,-0.2],[-0.125,-0.2]]",0.140625,-0.217447917,1,0,0,1.203,o1_image,627.2034,1,627.702,627.702,629.6923,0,0,0,0,1,,,,,,,,,,,,,,,,,,,,,,,,,,,,,,,,,,,,,,,,,,,,,,,,,,
,,596634e005f2df00017281ae,34,male,2024-04-19_18h38.21.639,stockport_simplified,2022.2.4,Win32,59.88023952,661e456ee6de07e70aa9ef7b,66229da57259e04a3633c152,,,,,,,,,,,,,,,,,,,,,,,,,,,,,,,,,,,,,,,,,,,,,,,,,,,,,,,,1,33,93,24,1,N,M,C,o1_image,stimuli/out1.png,stimuli/correct_out1.png,stimuli/out2.png,,,,,,,,,,,,,,,,,,,,,,,,,,,,,,,,,,,,,,
,,596634e005f2df00017281ae,34,male,2024-04-19_18h38.21.639,stockport_simplified,2022.2.4,Win32,59.88023952,661e456ee6de07e70aa9ef7b,66229da57259e04a3633c152,,,,,,,,,,,,,,,,,,,,,,,,,,,,,,,,,,629.6929,631.7793,"[5,1,2,7,4,6,3,8]","[[-0.3,0.2],[0.3,0.2]]","[[-0.125,-0.2],[0.125,-0.2]]",-0.1171875,-0.20703125,1,0,0,1.5694,o1_image,631.7809,1,632.2816,632.2817,634.2702,0,0,0,0,1,,,,,,,,,,,,,,,,,,,,,,,,,,,,,,,,,,,,,,,,,,,,,,,,,,
,,596634e005f2df00017281ae,34,male,2024-04-19_18h38.21.639,stockport_simplified,2022.2.4,Win32,59.88023952,661e456ee6de07e70aa9ef7b,66229da57259e04a3633c152,,,,,,,,,,,,,,,,,,,,,,,,,,,,,,,,,,,,,,,,,,,,,,,,,,,,,,,,1,34,94,9,1,A,Y,N,o1_image,stimuli/out1.png,stimuli/correct_out1.png,stimuli/out2.png,,,,,,,,,,,,,,,,,,,,,,,,,,,,,,,,,,,,,,
,,596634e005f2df00017281ae,34,male,2024-04-19_18h38.21.639,stockport_simplified,2022.2.4,Win32,59.88023952,661e456ee6de07e70aa9ef7b,66229da57259e04a3633c152,,,,,,,,,,,,,,,,,,,,,,,,,,,,,,,,,,634.271,636.5911,"[5,1,2,7,4,6,3,8]","[[-0.3,0.2],[0.3,0.2]]","[[0.125,-0.2],[-0.125,-0.2]]",-0.078125,-0.229166667,1,0,0,1.8186,o2_image,636.5928,1,637.0952,637.0952,639.0979,0,0,0,0,1,,,,,,,,,,,,,,,,,,,,,,,,,,,,,,,,,,,,,,,,,,,,,,,,,,
,,596634e005f2df00017281ae,34,male,2024-04-19_18h38.21.639,stockport_simplified,2022.2.4,Win32,59.88023952,661e456ee6de07e70aa9ef7b,66229da57259e04a3633c152,,,,,,,,,,,,,,,,,,,,,,,,,,,,,,,,,,,,,,,,,,,,,,,,,,,,,,,,1,35,95,57,1,N,M,D,o2_image,stimuli/out2.png,stimuli/out1.png,stimuli/correct_out2.png,,,,,,,,,,,,,,,,,,,,,,,,,,,,,,,,,,,,,,
,,596634e005f2df00017281ae,34,male,2024-04-19_18h38.21.639,stockport_simplified,2022.2.4,Win32,59.88023952,661e456ee6de07e70aa9ef7b,66229da57259e04a3633c152,,,,,,,,,,,,,,,,,,,,,,,,,,,,,,,,,,639.0989,641.3716,"[5,1,2,7,4,6,3,8]","[[-0.3,0.2],[0.3,0.2]]","[[-0.125,-0.2],[0.125,-0.2]]",-0.140625,-0.192708333,1,0,0,1.755,o1_image,641.373,0,641.8718,641.8719,643.8772,0,0,0,0,1,,,,,,,,,,,,,,,,,,,,,,,,,,,,,,,,,,,,,,,,,,,,,,,,,,
,,596634e005f2df00017281ae,34,male,2024-04-19_18h38.21.639,stockport_simplified,2022.2.4,Win32,59.88023952,661e456ee6de07e70aa9ef7b,66229da57259e04a3633c152,,,,,,,,,,,,,,,,,,,,,,,,,,,,,,,,,,,,,,,,,,,,,,,,,,,,,,,,1,36,96,42,1,B,X,N,o2_image,stimuli/out2.png,stimuli/out1.png,stimuli/correct_out2.png,,,,,,,,,,,,,,,,,,,,,,,,,,,,,,,,,,,,,,
,,596634e005f2df00017281ae,34,male,2024-04-19_18h38.21.639,stockport_simplified,2022.2.4,Win32,59.88023952,661e456ee6de07e70aa9ef7b,66229da57259e04a3633c152,,,,,,,,,,,,,,,,,,,,,,,,,,,,,,,,,,643.878,645.9815,"[5,1,2,7,4,6,3,8]","[[0.3,0.2],[-0.3,0.2]]","[[0.125,-0.2],[-0.125,-0.2]]",0.158854167,-0.22265625,1,0,0,1.6023,o1_image,645.983,1,646.483,646.483,648.472,0,0,0,0,1,,,,,,,,,,,,,,,,,,,,,,,,,,,,,,,,,,,,,,,,,,,,,,,,,,
,,596634e005f2df00017281ae,34,male,2024-04-19_18h38.21.639,stockport_simplified,2022.2.4,Win32,59.88023952,661e456ee6de07e70aa9ef7b,66229da57259e04a3633c152,,,,,,,,,,,,,,,,,,,,,,,,,,,,,,,,,,,,,,,,,,,,,,,,,,,,,,,,1,37,97,5,1,A,Y,N,o1_image,stimuli/out1.png,stimuli/correct_out1.png,stimuli/out2.png,,,,,,,,,,,,,,,,,,,,,,,,,,,,,,,,,,,,,,
,,596634e005f2df00017281ae,34,male,2024-04-19_18h38.21.639,stockport_simplified,2022.2.4,Win32,59.88023952,661e456ee6de07e70aa9ef7b,66229da57259e04a3633c152,,,,,,,,,,,,,,,,,,,,,,,,,,,,,,,,,,648.4728,650.3595,"[5,1,2,7,4,6,3,8]","[[-0.3,0.2],[0.3,0.2]]","[[0.125,-0.2],[-0.125,-0.2]]",0.13671875,-0.1953125,1,0,0,1.3696,o1_image,650.3616,1,650.8613,650.8613,652.8668,0,0,0,0,1,,,,,,,,,,,,,,,,,,,,,,,,,,,,,,,,,,,,,,,,,,,,,,,,,,
,,596634e005f2df00017281ae,34,male,2024-04-19_18h38.21.639,stockport_simplified,2022.2.4,Win32,59.88023952,661e456ee6de07e70aa9ef7b,66229da57259e04a3633c152,,,,,,,,,,,,,,,,,,,,,,,,,,,,,,,,,,,,,,,,,,,,,,,,,,,,,,,,1,38,98,51,1,N,M,C,o1_image,stimuli/out1.png,stimuli/correct_out1.png,stimuli/out2.png,,,,,,,,,,,,,,,,,,,,,,,,,,,,,,,,,,,,,,
,,596634e005f2df00017281ae,34,male,2024-04-19_18h38.21.639,stockport_simplified,2022.2.4,Win32,59.88023952,661e456ee6de07e70aa9ef7b,66229da57259e04a3633c152,,,,,,,,,,,,,,,,,,,,,,,,,,,,,,,,,,652.8675,654.6199,"[5,1,2,7,4,6,3,8]","[[0.3,0.2],[-0.3,0.2]]","[[-0.125,-0.2],[0.125,-0.2]]",-0.14453125,-0.208333333,1,0,0,1.2356,o1_image,654.6213,1,655.122,655.1221,657.1111,0,0,0,0,1,,,,,,,,,,,,,,,,,,,,,,,,,,,,,,,,,,,,,,,,,,,,,,,,,,
,,596634e005f2df00017281ae,34,male,2024-04-19_18h38.21.639,stockport_simplified,2022.2.4,Win32,59.88023952,661e456ee6de07e70aa9ef7b,66229da57259e04a3633c152,,,,,,,,,,,,,,,,,,,,,,,,,,,,,,,,,,,,,,,,,,,,,,,,,,,,,,,,1,39,99,53,1,N,M,C,o1_image,stimuli/out1.png,stimuli/correct_out1.png,stimuli/out2.png,,,,,,,,,,,,,,,,,,,,,,,,,,,,,,,,,,,,,,
,,596634e005f2df00017281ae,34,male,2024-04-19_18h38.21.639,stockport_simplified,2022.2.4,Win32,59.88023952,661e456ee6de07e70aa9ef7b,66229da57259e04a3633c152,,,,,,,,,,,,,,,,,,,,,,,,,,,,,,,,,,657.112,659.4988,"[5,1,2,7,4,6,3,8]","[[-0.3,0.2],[0.3,0.2]]","[[-0.125,-0.2],[0.125,-0.2]]",0.11328125,-0.229166667,1,0,0,1.8687,o2_image,659.5005,1,660.0003,660.0003,661.9889,0,0,0,0,1,,,,,,,,,,,,,,,,,,,,,,,,,,,,,,,,,,,,,,,,,,,,,,,,,,
,,596634e005f2df00017281ae,34,male,2024-04-19_18h38.21.639,stockport_simplified,2022.2.4,Win32,59.88023952,661e456ee6de07e70aa9ef7b,66229da57259e04a3633c152,,,,,,,,,,,,,,,,,,,,,,,,,,,,,,,,,,,,,,,,,,,,,,,,,,,,,,,,1,40,100,17,1,B,Y,N,o2_image,stimuli/out2.png,stimuli/out1.png,stimuli/correct_out2.png,,,,,,,,,,,,,,,,,,,,,,,,,,,,,,,,,,,,,,
,,596634e005f2df00017281ae,34,male,2024-04-19_18h38.21.639,stockport_simplified,2022.2.4,Win32,59.88023952,661e456ee6de07e70aa9ef7b,66229da57259e04a3633c152,,,,,,,,,,,,,,,,,,,,,,,,,,,,,,,,,,661.9898,663.91,"[5,1,2,7,4,6,3,8]","[[-0.3,0.2],[0.3,0.2]]","[[-0.125,-0.2],[0.125,-0.2]]",0.10546875,-0.23046875,1,0,0,1.4189,o2_image,663.9116,1,664.4129,664.4129,666.4009,0,0,0,0,1,,,,,,,,,,,,,,,,,,,,,,,,,,,,,,,,,,,,,,,,,,,,,,,,,,
,,596634e005f2df00017281ae,34,male,2024-04-19_18h38.21.639,stockport_simplified,2022.2.4,Win32,59.88023952,661e456ee6de07e70aa9ef7b,66229da57259e04a3633c152,,,,,,,,,,,,,,,,,,,,,,,,,,,,,,,,,,,,,,,,,,,,,,,,,,,,,,,,1,41,101,28,1,N,M,D,o2_image,stimuli/out2.png,stimuli/out1.png,stimuli/correct_out2.png,,,,,,,,,,,,,,,,,,,,,,,,,,,,,,,,,,,,,,
,,596634e005f2df00017281ae,34,male,2024-04-19_18h38.21.639,stockport_simplified,2022.2.4,Win32,59.88023952,661e456ee6de07e70aa9ef7b,66229da57259e04a3633c152,,,,,,,,,,,,,,,,,,,,,,,,,,,,,,,,,,666.4019,668.322,"[5,1,2,7,4,6,3,8]","[[0.3,0.2],[-0.3,0.2]]","[[-0.125,-0.2],[0.125,-0.2]]",0.09765625,-0.236979167,1,0,0,1.4024,o2_image,668.3235,1,668.8241,668.8241,670.8277,0,0,0,0,1,,,,,,,,,,,,,,,,,,,,,,,,,,,,,,,,,,,,,,,,,,,,,,,,,,
,,596634e005f2df00017281ae,34,male,2024-04-19_18h38.21.639,stockport_simplified,2022.2.4,Win32,59.88023952,661e456ee6de07e70aa9ef7b,66229da57259e04a3633c152,,,,,,,,,,,,,,,,,,,,,,,,,,,,,,,,,,,,,,,,,,,,,,,,,,,,,,,,1,42,102,55,1,N,M,D,o2_image,stimuli/out2.png,stimuli/out1.png,stimuli/correct_out2.png,,,,,,,,,,,,,,,,,,,,,,,,,,,,,,,,,,,,,,
,,596634e005f2df00017281ae,34,male,2024-04-19_18h38.21.639,stockport_simplified,2022.2.4,Win32,59.88023952,661e456ee6de07e70aa9ef7b,66229da57259e04a3633c152,,,,,,,,,,,,,,,,,,,,,,,,,,,,,,,,,,670.8286,672.6487,"[5,1,2,7,4,6,3,8]","[[0.3,0.2],[-0.3,0.2]]","[[-0.125,-0.2],[0.125,-0.2]]",-0.1640625,-0.22265625,1,0,0,1.3016,o1_image,672.6504,1,673.1519,673.152,675.1567,0,0,0,0,1,,,,,,,,,,,,,,,,,,,,,,,,,,,,,,,,,,,,,,,,,,,,,,,,,,
,,596634e005f2df00017281ae,34,male,2024-04-19_18h38.21.639,stockport_simplified,2022.2.4,Win32,59.88023952,661e456ee6de07e70aa9ef7b,66229da57259e04a3633c152,,,,,,,,,,,,,,,,,,,,,,,,,,,,,,,,,,,,,,,,,,,,,,,,,,,,,,,,1,43,103,6,1,A,Y,N,o1_image,stimuli/out1.png,stimuli/correct_out1.png,stimuli/out2.png,,,,,,,,,,,,,,,,,,,,,,,,,,,,,,,,,,,,,,
,,596634e005f2df00017281ae,34,male,2024-04-19_18h38.21.639,stockport_simplified,2022.2.4,Win32,59.88023952,661e456ee6de07e70aa9ef7b,66229da57259e04a3633c152,,,,,,,,,,,,,,,,,,,,,,,,,,,,,,,,,,675.1576,677.1266,"[5,1,2,7,4,6,3,8]","[[-0.3,0.2],[0.3,0.2]]","[[0.125,-0.2],[-0.125,-0.2]]",0.10546875,-0.220052083,1,0,0,1.452,o1_image,677.1281,1,677.6286,677.6286,679.6179,0,0,0,0,1,,,,,,,,,,,,,,,,,,,,,,,,,,,,,,,,,,,,,,,,,,,,,,,,,,
,,596634e005f2df00017281ae,34,male,2024-04-19_18h38.21.639,stockport_simplified,2022.2.4,Win32,59.88023952,661e456ee6de07e70aa9ef7b,66229da57259e04a3633c152,,,,,,,,,,,,,,,,,,,,,,,,,,,,,,,,,,,,,,,,,,,,,,,,,,,,,,,,1,44,104,21,1,N,M,C,o1_image,stimuli/out1.png,stimuli/correct_out1.png,stimuli/out2.png,,,,,,,,,,,,,,,,,,,,,,,,,,,,,,,,,,,,,,
,,596634e005f2df00017281ae,34,male,2024-04-19_18h38.21.639,stockport_simplified,2022.2.4,Win32,59.88023952,661e456ee6de07e70aa9ef7b,66229da57259e04a3633c152,,,,,,,,,,,,,,,,,,,,,,,,,,,,,,,,,,679.6186,681.5216,"[5,1,2,7,4,6,3,8]","[[0.3,0.2],[-0.3,0.2]]","[[-0.125,-0.2],[0.125,-0.2]]",0.11328125,-0.223958333,1,0,0,1.3858,o2_image,681.5231,1,682.0239,682.024,684.0124,0,0,0,0,1,,,,,,,,,,,,,,,,,,,,,,,,,,,,,,,,,,,,,,,,,,,,,,,,,,
,,596634e005f2df00017281ae,34,male,2024-04-19_18h38.21.639,stockport_simplified,2022.2.4,Win32,59.88023952,661e456ee6de07e70aa9ef7b,66229da57259e04a3633c152,,,,,,,,,,,,,,,,,,,,,,,,,,,,,,,,,,,,,,,,,,,,,,,,,,,,,,,,1,45,105,58,1,N,M,D,o2_image,stimuli/out2.png,stimuli/out1.png,stimuli/correct_out2.png,,,,,,,,,,,,,,,,,,,,,,,,,,,,,,,,,,,,,,
,,596634e005f2df00017281ae,34,male,2024-04-19_18h38.21.639,stockport_simplified,2022.2.4,Win32,59.88023952,661e456ee6de07e70aa9ef7b,66229da57259e04a3633c152,,,,,,,,,,,,,,,,,,,,,,,,,,,,,,,,,,684.0131,686.4837,"[5,1,2,7,4,6,3,8]","[[-0.3,0.2],[0.3,0.2]]","[[-0.125,-0.2],[0.125,-0.2]]",0.106770833,-0.188802083,1,0,0,1.9543,o2_image,686.4853,1,686.9861,686.9862,688.9747,0,0,0,0,1,,,,,,,,,,,,,,,,,,,,,,,,,,,,,,,,,,,,,,,,,,,,,,,,,,
,,596634e005f2df00017281ae,34,male,2024-04-19_18h38.21.639,stockport_simplified,2022.2.4,Win32,59.88023952,661e456ee6de07e70aa9ef7b,66229da57259e04a3633c152,,,,,,,,,,,,,,,,,,,,,,,,,,,,,,,,,,,,,,,,,,,,,,,,,,,,,,,,1,46,106,15,1,B,Y,N,o2_image,stimuli/out2.png,stimuli/out1.png,stimuli/correct_out2.png,,,,,,,,,,,,,,,,,,,,,,,,,,,,,,,,,,,,,,
,,596634e005f2df00017281ae,34,male,2024-04-19_18h38.21.639,stockport_simplified,2022.2.4,Win32,59.88023952,661e456ee6de07e70aa9ef7b,66229da57259e04a3633c152,,,,,,,,,,,,,,,,,,,,,,,,,,,,,,,,,,688.9754,690.995,"[5,1,2,7,4,6,3,8]","[[-0.3,0.2],[0.3,0.2]]","[[-0.125,-0.2],[0.125,-0.2]]",0.126302083,-0.196614583,1,0,0,1.5017,o2_image,690.9967,1,691.4976,691.4977,693.5013,0,0,0,0,1,,,,,,,,,,,,,,,,,,,,,,,,,,,,,,,,,,,,,,,,,,,,,,,,,,
,,596634e005f2df00017281ae,34,male,2024-04-19_18h38.21.639,stockport_simplified,2022.2.4,Win32,59.88023952,661e456ee6de07e70aa9ef7b,66229da57259e04a3633c152,,,,,,,,,,,,,,,,,,,,,,,,,,,,,,,,,,,,,,,,,,,,,,,,,,,,,,,,1,47,107,41,1,B,X,N,o2_image,stimuli/out2.png,stimuli/out1.png,stimuli/correct_out2.png,,,,,,,,,,,,,,,,,,,,,,,,,,,,,,,,,,,,,,
,,596634e005f2df00017281ae,34,male,2024-04-19_18h38.21.639,stockport_simplified,2022.2.4,Win32,59.88023952,661e456ee6de07e70aa9ef7b,66229da57259e04a3633c152,,,,,,,,,,,,,,,,,,,,,,,,,,,,,,,,,,693.5023,695.6581,"[5,1,2,7,4,6,3,8]","[[-0.3,0.2],[0.3,0.2]]","[[0.125,-0.2],[-0.125,-0.2]]",-0.1484375,-0.16796875,1,0,0,1.6537,o2_image,695.6597,1,696.1595,696.1596,698.1631,0,0,0,0,1,,,,,,,,,,,,,,,,,,,,,,,,,,,,,,,,,,,,,,,,,,,,,,,,,,
,,596634e005f2df00017281ae,34,male,2024-04-19_18h38.21.639,stockport_simplified,2022.2.4,Win32,59.88023952,661e456ee6de07e70aa9ef7b,66229da57259e04a3633c152,,,,,,,,,,,,,,,,,,,,,,,,,,,,,,,,,,,,,,,,,,,,,,,,,,,,,,,,1,48,108,26,1,N,M,D,o2_image,stimuli/out2.png,stimuli/out1.png,stimuli/correct_out2.png,,,,,,,,,,,,,,,,,,,,,,,,,,,,,,,,,,,,,,
,,596634e005f2df00017281ae,34,male,2024-04-19_18h38.21.639,stockport_simplified,2022.2.4,Win32,59.88023952,661e456ee6de07e70aa9ef7b,66229da57259e04a3633c152,,,,,,,,,,,,,,,,,,,,,,,,,,,,,,,,,,698.1641,700.6872,"[5,1,2,7,4,6,3,8]","[[-0.3,0.2],[0.3,0.2]]","[[0.125,-0.2],[-0.125,-0.2]]",-0.134114583,-0.22265625,1,0,0,2.0206,o2_image,700.6885,1,701.1881,701.1881,703.1768,0,0,0,0,1,,,,,,,,,,,,,,,,,,,,,,,,,,,,,,,,,,,,,,,,,,,,,,,,,,
,,596634e005f2df00017281ae,34,male,2024-04-19_18h38.21.639,stockport_simplified,2022.2.4,Win32,59.88023952,661e456ee6de07e70aa9ef7b,66229da57259e04a3633c152,,,,,,,,,,,,,,,,,,,,,,,,,,,,,,,,,,,,,,,,,,,,,,,,,,,,,,,,1,49,109,47,1,B,Y,N,o2_image,stimuli/out2.png,stimuli/out1.png,stimuli/correct_out2.png,,,,,,,,,,,,,,,,,,,,,,,,,,,,,,,,,,,,,,
,,596634e005f2df00017281ae,34,male,2024-04-19_18h38.21.639,stockport_simplified,2022.2.4,Win32,59.88023952,661e456ee6de07e70aa9ef7b,66229da57259e04a3633c152,,,,,,,,,,,,,,,,,,,,,,,,,,,,,,,,,,703.1775,705.5168,"[5,1,2,7,4,6,3,8]","[[-0.3,0.2],[0.3,0.2]]","[[-0.125,-0.2],[0.125,-0.2]]",-0.11328125,-0.200520833,1,0,0,1.8216,o1_image,705.5179,1,706.0172,706.0173,708.0051,0,0,0,0,1,,,,,,,,,,,,,,,,,,,,,,,,,,,,,,,,,,,,,,,,,,,,,,,,,,
,,596634e005f2df00017281ae,34,male,2024-04-19_18h38.21.639,stockport_simplified,2022.2.4,Win32,59.88023952,661e456ee6de07e70aa9ef7b,66229da57259e04a3633c152,,,,,,,,,,,,,,,,,,,,,,,,,,,,,,,,,,,,,,,,,,,,,,,,,,,,,,,,1,50,110,1,1,A,X,N,o1_image,stimuli/out1.png,stimuli/correct_out1.png,stimuli/out2.png,,,,,,,,,,,,,,,,,,,,,,,,,,,,,,,,,,,,,,
,,596634e005f2df00017281ae,34,male,2024-04-19_18h38.21.639,stockport_simplified,2022.2.4,Win32,59.88023952,661e456ee6de07e70aa9ef7b,66229da57259e04a3633c152,,,,,,,,,,,,,,,,,,,,,,,,,,,,,,,,,,708.0062,710.4108,"[5,1,2,7,4,6,3,8]","[[-0.3,0.2],[0.3,0.2]]","[[-0.125,-0.2],[0.125,-0.2]]",-0.12109375,-0.236979167,1,0,0,1.8871,o1_image,710.4131,1,710.9136,710.9136,712.9017,0,0,0,0,1,,,,,,,,,,,,,,,,,,,,,,,,,,,,,,,,,,,,,,,,,,,,,,,,,,
,,596634e005f2df00017281ae,34,male,2024-04-19_18h38.21.639,stockport_simplified,2022.2.4,Win32,59.88023952,661e456ee6de07e70aa9ef7b,66229da57259e04a3633c152,,,,,,,,,,,,,,,,,,,,,,,,,,,,,,,,,,,,,,,,,,,,,,,,,,,,,,,,1,51,111,2,1,A,X,N,o1_image,stimuli/out1.png,stimuli/correct_out1.png,stimuli/out2.png,,,,,,,,,,,,,,,,,,,,,,,,,,,,,,,,,,,,,,
,,596634e005f2df00017281ae,34,male,2024-04-19_18h38.21.639,stockport_simplified,2022.2.4,Win32,59.88023952,661e456ee6de07e70aa9ef7b,66229da57259e04a3633c152,,,,,,,,,,,,,,,,,,,,,,,,,,,,,,,,,,712.9024,715.826,"[5,1,2,7,4,6,3,8]","[[-0.3,0.2],[0.3,0.2]]","[[-0.125,-0.2],[0.125,-0.2]]",0.15234375,-0.197916667,1,0,0,2.4076,o2_image,715.8416,1,716.3432,716.3432,718.3476,0,0,0,0,1,,,,,,,,,,,,,,,,,,,,,,,,,,,,,,,,,,,,,,,,,,,,,,,,,,
,,596634e005f2df00017281ae,34,male,2024-04-19_18h38.21.639,stockport_simplified,2022.2.4,Win32,59.88023952,661e456ee6de07e70aa9ef7b,66229da57259e04a3633c152,,,,,,,,,,,,,,,,,,,,,,,,,,,,,,,,,,,,,,,,,,,,,,,,,,,,,,,,1,52,112,14,1,B,X,N,o2_image,stimuli/out2.png,stimuli/out1.png,stimuli/correct_out2.png,,,,,,,,,,,,,,,,,,,,,,,,,,,,,,,,,,,,,,
,,596634e005f2df00017281ae,34,male,2024-04-19_18h38.21.639,stockport_simplified,2022.2.4,Win32,59.88023952,661e456ee6de07e70aa9ef7b,66229da57259e04a3633c152,,,,,,,,,,,,,,,,,,,,,,,,,,,,,,,,,,718.3484,720.4042,"[5,1,2,7,4,6,3,8]","[[0.3,0.2],[-0.3,0.2]]","[[-0.125,-0.2],[0.125,-0.2]]",0.12109375,-0.216145833,1,0,0,1.5375,o2_image,720.4056,1,720.9052,720.9052,722.909,0,0,0,0,1,,,,,,,,,,,,,,,,,,,,,,,,,,,,,,,,,,,,,,,,,,,,,,,,,,
,,596634e005f2df00017281ae,34,male,2024-04-19_18h38.21.639,stockport_simplified,2022.2.4,Win32,59.88023952,661e456ee6de07e70aa9ef7b,66229da57259e04a3633c152,,,,,,,,,,,,,,,,,,,,,,,,,,,,,,,,,,,,,,,,,,,,,,,,,,,,,,,,1,53,113,43,1,B,X,N,o2_image,stimuli/out2.png,stimuli/out1.png,stimuli/correct_out2.png,,,,,,,,,,,,,,,,,,,,,,,,,,,,,,,,,,,,,,
,,596634e005f2df00017281ae,34,male,2024-04-19_18h38.21.639,stockport_simplified,2022.2.4,Win32,59.88023952,661e456ee6de07e70aa9ef7b,66229da57259e04a3633c152,,,,,,,,,,,,,,,,,,,,,,,,,,,,,,,,,,722.9099,725.3148,"[5,1,2,7,4,6,3,8]","[[-0.3,0.2],[0.3,0.2]]","[[0.125,-0.2],[-0.125,-0.2]]",-0.1328125,-0.208333333,1,0,0,1.9035,o2_image,725.3298,1,725.8334,725.8334,727.8214,0,0,0,0,1,,,,,,,,,,,,,,,,,,,,,,,,,,,,,,,,,,,,,,,,,,,,,,,,,,
,,596634e005f2df00017281ae,34,male,2024-04-19_18h38.21.639,stockport_simplified,2022.2.4,Win32,59.88023952,661e456ee6de07e70aa9ef7b,66229da57259e04a3633c152,,,,,,,,,,,,,,,,,,,,,,,,,,,,,,,,,,,,,,,,,,,,,,,,,,,,,,,,1,54,114,12,1,B,X,N,o2_image,stimuli/out2.png,stimuli/out1.png,stimuli/correct_out2.png,,,,,,,,,,,,,,,,,,,,,,,,,,,,,,,,,,,,,,
,,596634e005f2df00017281ae,34,male,2024-04-19_18h38.21.639,stockport_simplified,2022.2.4,Win32,59.88023952,661e456ee6de07e70aa9ef7b,66229da57259e04a3633c152,,,,,,,,,,,,,,,,,,,,,,,,,,,,,,,,,,727.8223,729.7264,"[5,1,2,7,4,6,3,8]","[[-0.3,0.2],[0.3,0.2]]","[[-0.125,-0.2],[0.125,-0.2]]",-0.145833333,-0.225260417,1,0,0,1.4027,o1_image,729.7281,1,730.2279,730.2279,732.2163,0,0,0,0,1,,,,,,,,,,,,,,,,,,,,,,,,,,,,,,,,,,,,,,,,,,,,,,,,,,
,,596634e005f2df00017281ae,34,male,2024-04-19_18h38.21.639,stockport_simplified,2022.2.4,Win32,59.88023952,661e456ee6de07e70aa9ef7b,66229da57259e04a3633c152,,,,,,,,,,,,,,,,,,,,,,,,,,,,,,,,,,,,,,,,,,,,,,,,,,,,,,,,1,55,115,37,1,A,Y,N,o1_image,stimuli/out1.png,stimuli/correct_out1.png,stimuli/out2.png,,,,,,,,,,,,,,,,,,,,,,,,,,,,,,,,,,,,,,
,,596634e005f2df00017281ae,34,male,2024-04-19_18h38.21.639,stockport_simplified,2022.2.4,Win32,59.88023952,661e456ee6de07e70aa9ef7b,66229da57259e04a3633c152,,,,,,,,,,,,,,,,,,,,,,,,,,,,,,,,,,732.2171,734.7389,"[5,1,2,7,4,6,3,8]","[[-0.3,0.2],[0.3,0.2]]","[[0.125,-0.2],[-0.125,-0.2]]",0.122395833,-0.216145833,1,0,0,2.0195,o1_image,734.7405,1,735.2401,735.2401,737.2282,0,0,0,0,1,,,,,,,,,,,,,,,,,,,,,,,,,,,,,,,,,,,,,,,,,,,,,,,,,,
,,596634e005f2df00017281ae,34,male,2024-04-19_18h38.21.639,stockport_simplified,2022.2.4,Win32,59.88023952,661e456ee6de07e70aa9ef7b,66229da57259e04a3633c152,,,,,,,,,,,,,,,,,,,,,,,,,,,,,,,,,,,,,,,,,,,,,,,,,,,,,,,,1,56,116,50,1,N,M,C,o1_image,stimuli/out1.png,stimuli/correct_out1.png,stimuli/out2.png,,,,,,,,,,,,,,,,,,,,,,,,,,,,,,,,,,,,,,
,,596634e005f2df00017281ae,34,male,2024-04-19_18h38.21.639,stockport_simplified,2022.2.4,Win32,59.88023952,661e456ee6de07e70aa9ef7b,66229da57259e04a3633c152,,,,,,,,,,,,,,,,,,,,,,,,,,,,,,,,,,737.2293,740.4196,"[5,1,2,7,4,6,3,8]","[[-0.3,0.2],[0.3,0.2]]","[[-0.125,-0.2],[0.125,-0.2]]",0.09375,-0.243489583,1,0,0,2.6888,o2_image,740.4212,1,740.9217,740.9217,742.9097,0,0,0,0,1,,,,,,,,,,,,,,,,,,,,,,,,,,,,,,,,,,,,,,,,,,,,,,,,,,
,,596634e005f2df00017281ae,34,male,2024-04-19_18h38.21.639,stockport_simplified,2022.2.4,Win32,59.88023952,661e456ee6de07e70aa9ef7b,66229da57259e04a3633c152,,,,,,,,,,,,,,,,,,,,,,,,,,,,,,,,,,,,,,,,,,,,,,,,,,,,,,,,1,57,117,44,1,B,X,N,o2_image,stimuli/out2.png,stimuli/out1.png,stimuli/correct_out2.png,,,,,,,,,,,,,,,,,,,,,,,,,,,,,,,,,,,,,,
,,596634e005f2df00017281ae,34,male,2024-04-19_18h38.21.639,stockport_simplified,2022.2.4,Win32,59.88023952,661e456ee6de07e70aa9ef7b,66229da57259e04a3633c152,,,,,,,,,,,,,,,,,,,,,,,,,,,,,,,,,,742.9106,744.6806,"[5,1,2,7,4,6,3,8]","[[0.3,0.2],[-0.3,0.2]]","[[0.125,-0.2],[-0.125,-0.2]]",0.110677083,-0.170572917,1,0,0,1.2518,o1_image,744.6822,1,745.1818,745.1819,747.1701,0,0,0,0,1,,,,,,,,,,,,,,,,,,,,,,,,,,,,,,,,,,,,,,,,,,,,,,,,,,
,,596634e005f2df00017281ae,34,male,2024-04-19_18h38.21.639,stockport_simplified,2022.2.4,Win32,59.88023952,661e456ee6de07e70aa9ef7b,66229da57259e04a3633c152,,,,,,,,,,,,,,,,,,,,,,,,,,,,,,,,,,,,,,,,,,,,,,,,,,,,,,,,1,58,118,23,1,N,M,C,o1_image,stimuli/out1.png,stimuli/correct_out1.png,stimuli/out2.png,,,,,,,,,,,,,,,,,,,,,,,,,,,,,,,,,,,,,,
,,596634e005f2df00017281ae,34,male,2024-04-19_18h38.21.639,stockport_simplified,2022.2.4,Win32,59.88023952,661e456ee6de07e70aa9ef7b,66229da57259e04a3633c152,,,,,,,,,,,,,,,,,,,,,,,,,,,,,,,,,,747.171,749.275,"[5,1,2,7,4,6,3,8]","[[-0.3,0.2],[0.3,0.2]]","[[-0.125,-0.2],[0.125,-0.2]]",0.122395833,-0.177083333,1,0,0,1.6012,o2_image,749.2765,1,749.7775,749.7775,751.7823,0,0,0,0,1,,,,,,,,,,,,,,,,,,,,,,,,,,,,,,,,,,,,,,,,,,,,,,,,,,
,,596634e005f2df00017281ae,34,male,2024-04-19_18h38.21.639,stockport_simplified,2022.2.4,Win32,59.88023952,661e456ee6de07e70aa9ef7b,66229da57259e04a3633c152,,,,,,,,,,,,,,,,,,,,,,,,,,,,,,,,,,,,,,,,,,,,,,,,,,,,,,,,1,59,119,11,1,B,X,N,o2_image,stimuli/out2.png,stimuli/out1.png,stimuli/correct_out2.png,,,,,,,,,,,,,,,,,,,,,,,,,,,,,,,,,,,,,,
,,596634e005f2df00017281ae,34,male,2024-04-19_18h38.21.639,stockport_simplified,2022.2.4,Win32,59.88023952,661e456ee6de07e70aa9ef7b,66229da57259e04a3633c152,,,,,,,,,,,,,,,,,,,,,,,,,,,,,,,,,,751.8125,753.6546,"[5,1,2,7,4,6,3,8]","[[-0.3,0.2],[0.3,0.2]]","[[-0.125,-0.2],[0.125,-0.2]]",0.122395833,-0.1875,1,0,0,1.3385,o2_image,753.6564,0,754.1552,754.1552,756.1597,,,,,,,,,,,,,,,,,,0,0,0,0,1,,,,,,,,,,,,,,,,,,,,,,,,,,,,,,,,,
,,596634e005f2df00017281ae,34,male,2024-04-19_18h38.21.639,stockport_simplified,2022.2.4,Win32,59.88023952,661e456ee6de07e70aa9ef7b,66229da57259e04a3633c152,,,,,,,,,,,,,,,,,,,,,,,,,,,,,,,,,,,,,,,,,,,,,,,,,,,,,,,,,,,,,B,X,N,o1_image,stimuli/out1.png,stimuli/correct_out1.png,stimuli/out2.png,,,,,,0,0,0,27,1,,,,,,,,,,,,,,,,,,,,,,,,,,,,
,,596634e005f2df00017281ae,34,male,2024-04-19_18h38.21.639,stockport_simplified,2022.2.4,Win32,59.88023952,661e456ee6de07e70aa9ef7b,66229da57259e04a3633c152,,,,,,,,,,,,,,,,,,,,,,,,,,,,,,,,,,756.1615,760.0541,"[5,1,2,7,4,6,3,8]","[[0.3,0.2],[-0.3,0.2]]","[[0.125,-0.2],[-0.125,-0.2]]",-0.12890625,-0.21484375,1,0,0,3.3756,o2_image,760.0698,1,760.5705,760.5707,762.5602,,,,,,,,,,,,,,,,,,0,0,0,0,1,,,,,,,,,,,,,,,,,,,,,,,,,,,,,,,,,
,,596634e005f2df00017281ae,34,male,2024-04-19_18h38.21.639,stockport_simplified,2022.2.4,Win32,59.88023952,661e456ee6de07e70aa9ef7b,66229da57259e04a3633c152,,,,,,,,,,,,,,,,,,,,,,,,,,,,,,,,,,,,,,,,,,,,,,,,,,,,,,,,,,,,,N,M,D,o2_image,stimuli/out2.png,stimuli/out1.png,stimuli/correct_out2.png,,,,,,0,1,1,56,1,,,,,,,,,,,,,,,,,,,,,,,,,,,,
,,596634e005f2df00017281ae,34,male,2024-04-19_18h38.21.639,stockport_simplified,2022.2.4,Win32,59.88023952,661e456ee6de07e70aa9ef7b,66229da57259e04a3633c152,,,,,,,,,,,,,,,,,,,,,,,,,,,,,,,,,,762.561,764.6971,"[5,1,2,7,4,6,3,8]","[[-0.3,0.2],[0.3,0.2]]","[[0.125,-0.2],[-0.125,-0.2]]",0.177083333,-0.20703125,1,0,0,1.6196,o1_image,764.6988,1,765.1992,765.1993,767.2052,,,,,,,,,,,,,,,,,,0,0,0,0,1,,,,,,,,,,,,,,,,,,,,,,,,,,,,,,,,,
,,596634e005f2df00017281ae,34,male,2024-04-19_18h38.21.639,stockport_simplified,2022.2.4,Win32,59.88023952,661e456ee6de07e70aa9ef7b,66229da57259e04a3633c152,,,,,,,,,,,,,,,,,,,,,,,,,,,,,,,,,,,,,,,,,,,,,,,,,,,,,,,,,,,,,A,Y,N,o1_image,stimuli/out1.png,stimuli/correct_out1.png,stimuli/out2.png,,,,,,0,2,2,12,1,,,,,,,,,,,,,,,,,,,,,,,,,,,,
,,596634e005f2df00017281ae,34,male,2024-04-19_18h38.21.639,stockport_simplified,2022.2.4,Win32,59.88023952,661e456ee6de07e70aa9ef7b,66229da57259e04a3633c152,,,,,,,,,,,,,,,,,,,,,,,,,,,,,,,,,,767.2059,769.8277,"[5,1,2,7,4,6,3,8]","[[0.3,0.2],[-0.3,0.2]]","[[0.125,-0.2],[-0.125,-0.2]]",0.151041667,-0.205729167,1,0,0,2.1038,o1_image,769.8444,1,770.3458,770.3458,772.3349,,,,,,,,,,,,,,,,,,0,0,0,0,1,,,,,,,,,,,,,,,,,,,,,,,,,,,,,,,,,
,,596634e005f2df00017281ae,34,male,2024-04-19_18h38.21.639,stockport_simplified,2022.2.4,Win32,59.88023952,661e456ee6de07e70aa9ef7b,66229da57259e04a3633c152,,,,,,,,,,,,,,,,,,,,,,,,,,,,,,,,,,,,,,,,,,,,,,,,,,,,,,,,,,,,,A,X,N,o1_image,stimuli/out1.png,stimuli/correct_out1.png,stimuli/out2.png,,,,,,0,3,3,0,1,,,,,,,,,,,,,,,,,,,,,,,,,,,,
,,596634e005f2df00017281ae,34,male,2024-04-19_18h38.21.639,stockport_simplified,2022.2.4,Win32,59.88023952,661e456ee6de07e70aa9ef7b,66229da57259e04a3633c152,,,,,,,,,,,,,,,,,,,,,,,,,,,,,,,,,,772.3356,774.507,"[5,1,2,7,4,6,3,8]","[[-0.3,0.2],[0.3,0.2]]","[[-0.125,-0.2],[0.125,-0.2]]",-0.15625,-0.169270833,1,0,0,1.6554,o1_image,774.5087,0,775.0085,775.0086,777.0134,,,,,,,,,,,,,,,,,,0,0,0,0,1,,,,,,,,,,,,,,,,,,,,,,,,,,,,,,,,,
