counterbalance_2.started,counterbalance_2.stopped,participant,age,gender,date,expName,psychopyVersion,OS,frameRate,STUDY_ID,SESSION_ID,information_2.started,information_2.stopped,information_loop.thisRepN,information_loop.thisTrialN,information_loop.thisN,information_loop.thisIndex,information_loop.ran,information,consent_2.started,consent_2.stopped,slider_1.response,slider_2.response,slider_3.response,slider_4.response,slider_5.response,slider_6.response,instructions.started,instructions.stopped,task1_instr.thisRepN,task1_instr.thisTrialN,task1_instr.thisN,task1_instr.thisIndex,task1_instr.ran,task1,comprehension1_2.started,comprehension1_2.stopped,comp1_mouse.x,comp1_mouse.y,comp1_mouse.leftButton,comp1_mouse.midButton,comp1_mouse.rightButton,comp1_mouse.time,comp1_mouse.clicked_name,cue_o__trial_2.started,cue_o__trial_2.stopped,order,cue_order,out_order,cue_o_mouse.x,cue_o_mouse.y,cue_o_mouse.leftButton,cue_o_mouse.midButton,cue_o_mouse.rightButton,cue_o_mouse.time,cue_o_mouse.clicked_name,cue_selection_2.started,correct_answer,cue_selection_2.stopped,feedback_2.started,feedback_2.stopped,feedback_loop.thisRepN,feedback_loop.thisTrialN,feedback_loop.thisN,feedback_loop.thisIndex,feedback_loop.ran,stage1_trials.thisRepN,stage1_trials.thisTrialN,stage1_trials.thisN,stage1_trials.thisIndex,stage1_trials.ran,cue1,cue2,cue3,outcome,correct_out,o1_feedback,o2_feedback,stage2_feedback_loop.thisRepN,stage2_feedback_loop.thisTrialN,stage2_feedback_loop.thisN,stage2_feedback_loop.thisIndex,stage2_feedback_loop.ran,stage2_trials.thisRepN,stage2_trials.thisTrialN,stage2_trials.thisN,stage2_trials.thisIndex,stage2_trials.ran,stage3_feedback_loop.thisRepN,stage3_feedback_loop.thisTrialN,stage3_feedback_loop.thisN,stage3_feedback_loop.thisIndex,stage3_feedback_loop.ran,stage3_trials.thisRepN,stage3_trials.thisTrialN,stage3_trials.thisN,stage3_trials.thisIndex,stage3_trials.ran,debrief_2.started,debrief_2.stopped,debrief_loop.thisRepN,debrief_loop.thisTrialN,debrief_loop.thisN,debrief_loop.thisIndex,debrief_loop.ran,debrief_img,compr1_completed.thisRepN,compr1_completed.thisTrialN,compr1_completed.thisN,compr1_completed.thisIndex,compr1_completed.ran,consent_loop.thisRepN,consent_loop.thisTrialN,consent_loop.thisN,consent_loop.thisIndex,consent_loop.ran
0.0006,0.0008,5be59ce3520a3300010e28a9,35,female,2024-04-24_11h33.33.762,stockport_simplified,2022.2.4,Win32,15.01501502,661e456ee6de07e70aa9ef7b,6628df8841f59130a2be9d84,,,,,,,,,,,,,,,,,,,,,,,,,,,,,,,,,,,,,,,,,,,,,,,,,,,,,,,,,,,,,,,,,,,,,,,,,,,,,,,,,,,,,,,,,,,,,,,,,,,,,,,,,
,,5be59ce3520a3300010e28a9,35,female,2024-04-24_11h33.33.762,stockport_simplified,2022.2.4,Win32,15.01501502,661e456ee6de07e70aa9ef7b,6628df8841f59130a2be9d84,0.0287,19.1544,0,0,0,0,1,instructions/info1.png,,,,,,,,,,,,,,,,,,,,,,,,,,,,,,,,,,,,,,,,,,,,,,,,,,,,,,,,,,,,,,,,,,,,,,,,,,,,,,,,,,,,,,,,,,,,,,,,,
,,5be59ce3520a3300010e28a9,35,female,2024-04-24_11h33.33.762,stockport_simplified,2022.2.4,Win32,15.01501502,661e456ee6de07e70aa9ef7b,6628df8841f59130a2be9d84,19.155,28.1984,0,1,1,1,1,instructions/info2.png,,,,,,,,,,,,,,,,,,,,,,,,,,,,,,,,,,,,,,,,,,,,,,,,,,,,,,,,,,,,,,,,,,,,,,,,,,,,,,,,,,,,,,,,,,,,,,,,,
,,5be59ce3520a3300010e28a9,35,female,2024-04-24_11h33.33.762,stockport_simplified,2022.2.4,Win32,15.01501502,661e456ee6de07e70aa9ef7b,6628df8841f59130a2be9d84,28.2006,53.6115,0,2,2,2,1,instructions/info3.png,,,,,,,,,,,,,,,,,,,,,,,,,,,,,,,,,,,,,,,,,,,,,,,,,,,,,,,,,,,,,,,,,,,,,,,,,,,,,,,,,,,,,,,,,,,,,,,,,
,,5be59ce3520a3300010e28a9,35,female,2024-04-24_11h33.33.762,stockport_simplified,2022.2.4,Win32,15.01501502,661e456ee6de07e70aa9ef7b,6628df8841f59130a2be9d84,,,,,,,,,53.6194,85.6266,1,1,1,1,1,1,,,,,,,,,,,,,,,,,,,,,,,,,,,,,,,,,,,,,,,,,,,,,,,,,,,,,,,,,,,,,,,,,,,,,,,,,,,,,,,,,,,,,,,,,
,,5be59ce3520a3300010e28a9,35,female,2024-04-24_11h33.33.762,stockport_simplified,2022.2.4,Win32,15.01501502,661e456ee6de07e70aa9ef7b,6628df8841f59130a2be9d84,,,,,,,,,,,,,,,,,85.6398,108.5965,0,0,0,0,1,instructions/task1_1.png,,,,,,,,,,,,,,,,,,,,,,,,,,,,,,,,,,,,,,,,,,,,,,,,,,,,,,,,,,,,,,,,,,,,,,,,,,,,,,,,,
,,5be59ce3520a3300010e28a9,35,female,2024-04-24_11h33.33.762,stockport_simplified,2022.2.4,Win32,15.01501502,661e456ee6de07e70aa9ef7b,6628df8841f59130a2be9d84,,,,,,,,,,,,,,,,,108.6074,135.5713,0,1,1,1,1,instructions/task1_2.png,,,,,,,,,,,,,,,,,,,,,,,,,,,,,,,,,,,,,,,,,,,,,,,,,,,,,,,,,,,,,,,,,,,,,,,,,,,,,,,,,
,,5be59ce3520a3300010e28a9,35,female,2024-04-24_11h33.33.762,stockport_simplified,2022.2.4,Win32,15.01501502,661e456ee6de07e70aa9ef7b,6628df8841f59130a2be9d84,,,,,,,,,,,,,,,,,135.5787,159.7921,0,2,2,2,1,instructions/task1_3.png,,,,,,,,,,,,,,,,,,,,,,,,,,,,,,,,,,,,,,,,,,,,,,,,,,,,,,,,,,,,,,,,,,,,,,,,,,,,,,,,,
,,5be59ce3520a3300010e28a9,35,female,2024-04-24_11h33.33.762,stockport_simplified,2022.2.4,Win32,15.01501502,661e456ee6de07e70aa9ef7b,6628df8841f59130a2be9d84,,,,,,,,,,,,,,,,,,,,,,,,,159.7932,180.7816,-0.188194444,-0.325,1,0,0,20.9875,comp1_resp1,180.807,189.7849,"[2,7,5,3,4,1,8,6]","[[-0.3,0.2],[0.3,0.2]]","[[-0.125,-0.2],[0.125,-0.2]]",-0.121527778,-0.202777778,1,0,0,8.3569,o1_image,189.8055,1,189.8083,189.8085,191.3574,0,0,0,0,1,,,,,,,,,,,,,,,,,,,,,,,,,,,,,,,,,,,,,,,,,,,,,,,,,,
,,5be59ce3520a3300010e28a9,35,female,2024-04-24_11h33.33.762,stockport_simplified,2022.2.4,Win32,15.01501502,661e456ee6de07e70aa9ef7b,6628df8841f59130a2be9d84,,,,,,,,,,,,,,,,,,,,,,,,,,,,,,,,,,,,,,,,,,,,,,,,,,,,,,,,0,0,0,9,1,A,Y,N,o1_image,stimuli/out1.png,stimuli/correct_out1.png,stimuli/out2.png,,,,,,,,,,,,,,,,,,,,,,,,,,,,,,,,,,,,,,
,,5be59ce3520a3300010e28a9,35,female,2024-04-24_11h33.33.762,stockport_simplified,2022.2.4,Win32,15.01501502,661e456ee6de07e70aa9ef7b,6628df8841f59130a2be9d84,,,,,,,,,,,,,,,,,,,,,,,,,,,,,,,,,,191.358,202.7021,"[2,7,5,3,4,1,8,6]","[[-0.3,0.2],[0.3,0.2]]","[[0.125,-0.2],[-0.125,-0.2]]",,,,,,,,,,,,,,,,,,0,1,1,48,1,B,Y,N,o2_image,stimuli/out2.png,stimuli/out1.png,stimuli/correct_out2.png,,,,,,,,,,,,,,,,,,,,,,,,,,,,,,,,,,,,,,
,,5be59ce3520a3300010e28a9,35,female,2024-04-24_11h33.33.762,stockport_simplified,2022.2.4,Win32,15.01501502,661e456ee6de07e70aa9ef7b,6628df8841f59130a2be9d84,,,,,,,,,,,,,,,,,,,,,,,,,,,,,,,,,,202.7106,204.5885,"[2,7,5,3,4,1,8,6]","[[-0.3,0.2],[0.3,0.2]]","[[0.125,-0.2],[-0.125,-0.2]]",0.124305556,-0.184027778,1,0,0,1.1895,o1_image,204.5893,0,205.0364,205.0365,207.012,0,0,0,0,1,,,,,,,,,,,,,,,,,,,,,,,,,,,,,,,,,,,,,,,,,,,,,,,,,,
,,5be59ce3520a3300010e28a9,35,female,2024-04-24_11h33.33.762,stockport_simplified,2022.2.4,Win32,15.01501502,661e456ee6de07e70aa9ef7b,6628df8841f59130a2be9d84,,,,,,,,,,,,,,,,,,,,,,,,,,,,,,,,,,,,,,,,,,,,,,,,,,,,,,,,0,2,2,26,1,N,M,D,o2_image,stimuli/out2.png,stimuli/out1.png,stimuli/correct_out2.png,,,,,,,,,,,,,,,,,,,,,,,,,,,,,,,,,,,,,,
,,5be59ce3520a3300010e28a9,35,female,2024-04-24_11h33.33.762,stockport_simplified,2022.2.4,Win32,15.01501502,661e456ee6de07e70aa9ef7b,6628df8841f59130a2be9d84,,,,,,,,,,,,,,,,,,,,,,,,,,,,,,,,,,207.0123,208.8853,"[2,7,5,3,4,1,8,6]","[[-0.3,0.2],[0.3,0.2]]","[[-0.125,-0.2],[0.125,-0.2]]",-0.113888889,-0.192361111,1,0,0,1.1996,o1_image,208.8861,1,209.2837,209.2837,211.2849,0,0,0,0,1,,,,,,,,,,,,,,,,,,,,,,,,,,,,,,,,,,,,,,,,,,,,,,,,,,
,,5be59ce3520a3300010e28a9,35,female,2024-04-24_11h33.33.762,stockport_simplified,2022.2.4,Win32,15.01501502,661e456ee6de07e70aa9ef7b,6628df8841f59130a2be9d84,,,,,,,,,,,,,,,,,,,,,,,,,,,,,,,,,,,,,,,,,,,,,,,,,,,,,,,,0,3,3,22,1,N,M,C,o1_image,stimuli/out1.png,stimuli/correct_out1.png,stimuli/out2.png,,,,,,,,,,,,,,,,,,,,,,,,,,,,,,,,,,,,,,
,,5be59ce3520a3300010e28a9,35,female,2024-04-24_11h33.33.762,stockport_simplified,2022.2.4,Win32,15.01501502,661e456ee6de07e70aa9ef7b,6628df8841f59130a2be9d84,,,,,,,,,,,,,,,,,,,,,,,,,,,,,,,,,,211.2852,215.2445,"[2,7,5,3,4,1,8,6]","[[-0.3,0.2],[0.3,0.2]]","[[-0.125,-0.2],[0.125,-0.2]]",-0.116666667,-0.198611111,1,0,0,3.2562,o1_image,215.245,1,215.6531,215.6531,217.3418,0,0,0,0,1,,,,,,,,,,,,,,,,,,,,,,,,,,,,,,,,,,,,,,,,,,,,,,,,,,
,,5be59ce3520a3300010e28a9,35,female,2024-04-24_11h33.33.762,stockport_simplified,2022.2.4,Win32,15.01501502,661e456ee6de07e70aa9ef7b,6628df8841f59130a2be9d84,,,,,,,,,,,,,,,,,,,,,,,,,,,,,,,,,,,,,,,,,,,,,,,,,,,,,,,,0,4,4,53,1,N,M,C,o1_image,stimuli/out1.png,stimuli/correct_out1.png,stimuli/out2.png,,,,,,,,,,,,,,,,,,,,,,,,,,,,,,,,,,,,,,
,,5be59ce3520a3300010e28a9,35,female,2024-04-24_11h33.33.762,stockport_simplified,2022.2.4,Win32,15.01501502,661e456ee6de07e70aa9ef7b,6628df8841f59130a2be9d84,,,,,,,,,,,,,,,,,,,,,,,,,,,,,,,,,,217.3423,219.9715,"[2,7,5,3,4,1,8,6]","[[-0.3,0.2],[0.3,0.2]]","[[0.125,-0.2],[-0.125,-0.2]]",0.119444444,-0.204861111,1,0,0,1.8792,o1_image,219.9722,1,220.4697,220.4698,222.4126,0,0,0,0,1,,,,,,,,,,,,,,,,,,,,,,,,,,,,,,,,,,,,,,,,,,,,,,,,,,
,,5be59ce3520a3300010e28a9,35,female,2024-04-24_11h33.33.762,stockport_simplified,2022.2.4,Win32,15.01501502,661e456ee6de07e70aa9ef7b,6628df8841f59130a2be9d84,,,,,,,,,,,,,,,,,,,,,,,,,,,,,,,,,,,,,,,,,,,,,,,,,,,,,,,,0,5,5,39,1,A,Y,N,o1_image,stimuli/out1.png,stimuli/correct_out1.png,stimuli/out2.png,,,,,,,,,,,,,,,,,,,,,,,,,,,,,,,,,,,,,,
,,5be59ce3520a3300010e28a9,35,female,2024-04-24_11h33.33.762,stockport_simplified,2022.2.4,Win32,15.01501502,661e456ee6de07e70aa9ef7b,6628df8841f59130a2be9d84,,,,,,,,,,,,,,,,,,,,,,,,,,,,,,,,,,222.413,225.6539,"[2,7,5,3,4,1,8,6]","[[-0.3,0.2],[0.3,0.2]]","[[0.125,-0.2],[-0.125,-0.2]]",-0.13125,-0.196527778,1,0,0,2.4228,o2_image,225.6549,1,226.4885,226.4885,228.2177,0,0,0,0,1,,,,,,,,,,,,,,,,,,,,,,,,,,,,,,,,,,,,,,,,,,,,,,,,,,
,,5be59ce3520a3300010e28a9,35,female,2024-04-24_11h33.33.762,stockport_simplified,2022.2.4,Win32,15.01501502,661e456ee6de07e70aa9ef7b,6628df8841f59130a2be9d84,,,,,,,,,,,,,,,,,,,,,,,,,,,,,,,,,,,,,,,,,,,,,,,,,,,,,,,,0,6,6,11,1,B,X,N,o2_image,stimuli/out2.png,stimuli/out1.png,stimuli/correct_out2.png,,,,,,,,,,,,,,,,,,,,,,,,,,,,,,,,,,,,,,
,,5be59ce3520a3300010e28a9,35,female,2024-04-24_11h33.33.762,stockport_simplified,2022.2.4,Win32,15.01501502,661e456ee6de07e70aa9ef7b,6628df8841f59130a2be9d84,,,,,,,,,,,,,,,,,,,,,,,,,,,,,,,,,,228.2185,233.8617,"[2,7,5,3,4,1,8,6]","[[0.3,0.2],[-0.3,0.2]]","[[-0.125,-0.2],[0.125,-0.2]]",-0.122222222,-0.206944444,1,0,0,4.9004,o1_image,233.8627,1,233.8648,233.8648,235.4415,0,0,0,0,1,,,,,,,,,,,,,,,,,,,,,,,,,,,,,,,,,,,,,,,,,,,,,,,,,,
,,5be59ce3520a3300010e28a9,35,female,2024-04-24_11h33.33.762,stockport_simplified,2022.2.4,Win32,15.01501502,661e456ee6de07e70aa9ef7b,6628df8841f59130a2be9d84,,,,,,,,,,,,,,,,,,,,,,,,,,,,,,,,,,,,,,,,,,,,,,,,,,,,,,,,0,7,7,37,1,A,Y,N,o1_image,stimuli/out1.png,stimuli/correct_out1.png,stimuli/out2.png,,,,,,,,,,,,,,,,,,,,,,,,,,,,,,,,,,,,,,
,,5be59ce3520a3300010e28a9,35,female,2024-04-24_11h33.33.762,stockport_simplified,2022.2.4,Win32,15.01501502,661e456ee6de07e70aa9ef7b,6628df8841f59130a2be9d84,,,,,,,,,,,,,,,,,,,,,,,,,,,,,,,,,,235.4421,242.0765,"[2,7,5,3,4,1,8,6]","[[-0.3,0.2],[0.3,0.2]]","[[0.125,-0.2],[-0.125,-0.2]]",-0.129166667,-0.204166667,1,0,0,5.9797,o2_image,242.0876,0,242.0887,242.0887,243.5783,0,0,0,0,1,,,,,,,,,,,,,,,,,,,,,,,,,,,,,,,,,,,,,,,,,,,,,,,,,,
,,5be59ce3520a3300010e28a9,35,female,2024-04-24_11h33.33.762,stockport_simplified,2022.2.4,Win32,15.01501502,661e456ee6de07e70aa9ef7b,6628df8841f59130a2be9d84,,,,,,,,,,,,,,,,,,,,,,,,,,,,,,,,,,,,,,,,,,,,,,,,,,,,,,,,0,8,8,4,1,A,X,N,o1_image,stimuli/out1.png,stimuli/correct_out1.png,stimuli/out2.png,,,,,,,,,,,,,,,,,,,,,,,,,,,,,,,,,,,,,,
,,5be59ce3520a3300010e28a9,35,female,2024-04-24_11h33.33.762,stockport_simplified,2022.2.4,Win32,15.01501502,661e456ee6de07e70aa9ef7b,6628df8841f59130a2be9d84,,,,,,,,,,,,,,,,,,,,,,,,,,,,,,,,,,243.5788,247.2151,"[2,7,5,3,4,1,8,6]","[[-0.3,0.2],[0.3,0.2]]","[[0.125,-0.2],[-0.125,-0.2]]",0.10625,-0.191666667,1,0,0,3.0177,o1_image,247.2159,1,247.2172,247.2172,249.3272,0,0,0,0,1,,,,,,,,,,,,,,,,,,,,,,,,,,,,,,,,,,,,,,,,,,,,,,,,,,
,,5be59ce3520a3300010e28a9,35,female,2024-04-24_11h33.33.762,stockport_simplified,2022.2.4,Win32,15.01501502,661e456ee6de07e70aa9ef7b,6628df8841f59130a2be9d84,,,,,,,,,,,,,,,,,,,,,,,,,,,,,,,,,,,,,,,,,,,,,,,,,,,,,,,,0,9,9,35,1,A,Y,N,o1_image,stimuli/out1.png,stimuli/correct_out1.png,stimuli/out2.png,,,,,,,,,,,,,,,,,,,,,,,,,,,,,,,,,,,,,,
,,5be59ce3520a3300010e28a9,35,female,2024-04-24_11h33.33.762,stockport_simplified,2022.2.4,Win32,15.01501502,661e456ee6de07e70aa9ef7b,6628df8841f59130a2be9d84,,,,,,,,,,,,,,,,,,,,,,,,,,,,,,,,,,249.3277,253.5675,"[2,7,5,3,4,1,8,6]","[[-0.3,0.2],[0.3,0.2]]","[[-0.125,-0.2],[0.125,-0.2]]",-0.138194444,-0.211805556,1,0,0,3.6433,o1_image,253.5684,0,253.5699,253.57,255.6771,0,0,0,0,1,,,,,,,,,,,,,,,,,,,,,,,,,,,,,,,,,,,,,,,,,,,,,,,,,,
,,5be59ce3520a3300010e28a9,35,female,2024-04-24_11h33.33.762,stockport_simplified,2022.2.4,Win32,15.01501502,661e456ee6de07e70aa9ef7b,6628df8841f59130a2be9d84,,,,,,,,,,,,,,,,,,,,,,,,,,,,,,,,,,,,,,,,,,,,,,,,,,,,,,,,0,10,10,19,1,B,Y,N,o2_image,stimuli/out2.png,stimuli/out1.png,stimuli/correct_out2.png,,,,,,,,,,,,,,,,,,,,,,,,,,,,,,,,,,,,,,
,,5be59ce3520a3300010e28a9,35,female,2024-04-24_11h33.33.762,stockport_simplified,2022.2.4,Win32,15.01501502,661e456ee6de07e70aa9ef7b,6628df8841f59130a2be9d84,,,,,,,,,,,,,,,,,,,,,,,,,,,,,,,,,,255.6777,264.7815,"[2,7,5,3,4,1,8,6]","[[-0.3,0.2],[0.3,0.2]]","[[-0.125,-0.2],[0.125,-0.2]]",-0.118055556,-0.202777778,1,0,0,8.4792,o1_image,264.793,0,264.7939,264.7939,267.142,0,0,0,0,1,,,,,,,,,,,,,,,,,,,,,,,,,,,,,,,,,,,,,,,,,,,,,,,,,,
,,5be59ce3520a3300010e28a9,35,female,2024-04-24_11h33.33.762,stockport_simplified,2022.2.4,Win32,15.01501502,661e456ee6de07e70aa9ef7b,6628df8841f59130a2be9d84,,,,,,,,,,,,,,,,,,,,,,,,,,,,,,,,,,,,,,,,,,,,,,,,,,,,,,,,0,11,11,16,1,B,Y,N,o2_image,stimuli/out2.png,stimuli/out1.png,stimuli/correct_out2.png,,,,,,,,,,,,,,,,,,,,,,,,,,,,,,,,,,,,,,
,,5be59ce3520a3300010e28a9,35,female,2024-04-24_11h33.33.762,stockport_simplified,2022.2.4,Win32,15.01501502,661e456ee6de07e70aa9ef7b,6628df8841f59130a2be9d84,,,,,,,,,,,,,,,,,,,,,,,,,,,,,,,,,,267.1425,273.3507,"[2,7,5,3,4,1,8,6]","[[0.3,0.2],[-0.3,0.2]]","[[-0.125,-0.2],[0.125,-0.2]]",0.09375,-0.201388889,1,0,0,5.5882,o2_image,273.3517,0,273.3531,273.3531,275.41,0,0,0,0,1,,,,,,,,,,,,,,,,,,,,,,,,,,,,,,,,,,,,,,,,,,,,,,,,,,
,,5be59ce3520a3300010e28a9,35,female,2024-04-24_11h33.33.762,stockport_simplified,2022.2.4,Win32,15.01501502,661e456ee6de07e70aa9ef7b,6628df8841f59130a2be9d84,,,,,,,,,,,,,,,,,,,,,,,,,,,,,,,,,,,,,,,,,,,,,,,,,,,,,,,,0,12,12,3,1,A,X,N,o1_image,stimuli/out1.png,stimuli/correct_out1.png,stimuli/out2.png,,,,,,,,,,,,,,,,,,,,,,,,,,,,,,,,,,,,,,
,,5be59ce3520a3300010e28a9,35,female,2024-04-24_11h33.33.762,stockport_simplified,2022.2.4,Win32,15.01501502,661e456ee6de07e70aa9ef7b,6628df8841f59130a2be9d84,,,,,,,,,,,,,,,,,,,,,,,,,,,,,,,,,,275.4106,286.8778,"[2,7,5,3,4,1,8,6]","[[-0.3,0.2],[0.3,0.2]]","[[-0.125,-0.2],[0.125,-0.2]]",,,,,,,,,,,,,,,,,,0,13,13,43,1,B,X,N,o2_image,stimuli/out2.png,stimuli/out1.png,stimuli/correct_out2.png,,,,,,,,,,,,,,,,,,,,,,,,,,,,,,,,,,,,,,
,,5be59ce3520a3300010e28a9,35,female,2024-04-24_11h33.33.762,stockport_simplified,2022.2.4,Win32,15.01501502,661e456ee6de07e70aa9ef7b,6628df8841f59130a2be9d84,,,,,,,,,,,,,,,,,,,,,,,,,,,,,,,,,,286.8903,289.8351,"[2,7,5,3,4,1,8,6]","[[-0.3,0.2],[0.3,0.2]]","[[-0.125,-0.2],[0.125,-0.2]]",0.116666667,-0.206944444,1,0,0,2.2692,o2_image,289.8358,0,290.238,290.238,292.1832,0,0,0,0,1,,,,,,,,,,,,,,,,,,,,,,,,,,,,,,,,,,,,,,,,,,,,,,,,,,
,,5be59ce3520a3300010e28a9,35,female,2024-04-24_11h33.33.762,stockport_simplified,2022.2.4,Win32,15.01501502,661e456ee6de07e70aa9ef7b,6628df8841f59130a2be9d84,,,,,,,,,,,,,,,,,,,,,,,,,,,,,,,,,,,,,,,,,,,,,,,,,,,,,,,,0,14,14,31,1,A,X,N,o1_image,stimuli/out1.png,stimuli/correct_out1.png,stimuli/out2.png,,,,,,,,,,,,,,,,,,,,,,,,,,,,,,,,,,,,,,
,,5be59ce3520a3300010e28a9,35,female,2024-04-24_11h33.33.762,stockport_simplified,2022.2.4,Win32,15.01501502,661e456ee6de07e70aa9ef7b,6628df8841f59130a2be9d84,,,,,,,,,,,,,,,,,,,,,,,,,,,,,,,,,,292.1835,296.3261,"[2,7,5,3,4,1,8,6]","[[-0.3,0.2],[0.3,0.2]]","[[0.125,-0.2],[-0.125,-0.2]]",-0.108333333,-0.207638889,1,0,0,3.4787,o2_image,296.3268,1,296.7133,296.7134,298.3989,0,0,0,0,1,,,,,,,,,,,,,,,,,,,,,,,,,,,,,,,,,,,,,,,,,,,,,,,,,,
,,5be59ce3520a3300010e28a9,35,female,2024-04-24_11h33.33.762,stockport_simplified,2022.2.4,Win32,15.01501502,661e456ee6de07e70aa9ef7b,6628df8841f59130a2be9d84,,,,,,,,,,,,,,,,,,,,,,,,,,,,,,,,,,,,,,,,,,,,,,,,,,,,,,,,0,15,15,10,1,B,X,N,o2_image,stimuli/out2.png,stimuli/out1.png,stimuli/correct_out2.png,,,,,,,,,,,,,,,,,,,,,,,,,,,,,,,,,,,,,,
,,5be59ce3520a3300010e28a9,35,female,2024-04-24_11h33.33.762,stockport_simplified,2022.2.4,Win32,15.01501502,661e456ee6de07e70aa9ef7b,6628df8841f59130a2be9d84,,,,,,,,,,,,,,,,,,,,,,,,,,,,,,,,,,298.3993,301.8495,"[2,7,5,3,4,1,8,6]","[[-0.3,0.2],[0.3,0.2]]","[[-0.125,-0.2],[0.125,-0.2]]",0.115972222,-0.204861111,1,0,0,2.7652,o2_image,301.8501,1,302.2573,302.2573,304.3023,0,0,0,0,1,,,,,,,,,,,,,,,,,,,,,,,,,,,,,,,,,,,,,,,,,,,,,,,,,,
,,5be59ce3520a3300010e28a9,35,female,2024-04-24_11h33.33.762,stockport_simplified,2022.2.4,Win32,15.01501502,661e456ee6de07e70aa9ef7b,6628df8841f59130a2be9d84,,,,,,,,,,,,,,,,,,,,,,,,,,,,,,,,,,,,,,,,,,,,,,,,,,,,,,,,0,16,16,59,1,N,M,D,o2_image,stimuli/out2.png,stimuli/out1.png,stimuli/correct_out2.png,,,,,,,,,,,,,,,,,,,,,,,,,,,,,,,,,,,,,,
,,5be59ce3520a3300010e28a9,35,female,2024-04-24_11h33.33.762,stockport_simplified,2022.2.4,Win32,15.01501502,661e456ee6de07e70aa9ef7b,6628df8841f59130a2be9d84,,,,,,,,,,,,,,,,,,,,,,,,,,,,,,,,,,304.3028,307.4317,"[2,7,5,3,4,1,8,6]","[[-0.3,0.2],[0.3,0.2]]","[[0.125,-0.2],[-0.125,-0.2]]",0.124305556,-0.195833333,1,0,0,2.4343,o1_image,307.4324,0,307.9259,307.9259,310.0741,0,0,0,0,1,,,,,,,,,,,,,,,,,,,,,,,,,,,,,,,,,,,,,,,,,,,,,,,,,,
,,5be59ce3520a3300010e28a9,35,female,2024-04-24_11h33.33.762,stockport_simplified,2022.2.4,Win32,15.01501502,661e456ee6de07e70aa9ef7b,6628df8841f59130a2be9d84,,,,,,,,,,,,,,,,,,,,,,,,,,,,,,,,,,,,,,,,,,,,,,,,,,,,,,,,0,17,17,17,1,B,Y,N,o2_image,stimuli/out2.png,stimuli/out1.png,stimuli/correct_out2.png,,,,,,,,,,,,,,,,,,,,,,,,,,,,,,,,,,,,,,
,,5be59ce3520a3300010e28a9,35,female,2024-04-24_11h33.33.762,stockport_simplified,2022.2.4,Win32,15.01501502,661e456ee6de07e70aa9ef7b,6628df8841f59130a2be9d84,,,,,,,,,,,,,,,,,,,,,,,,,,,,,,,,,,310.0744,315.3387,"[2,7,5,3,4,1,8,6]","[[-0.3,0.2],[0.3,0.2]]","[[0.125,-0.2],[-0.125,-0.2]]",-0.099305556,-0.194444444,1,0,0,4.52,o2_image,315.3502,1,315.8179,315.8179,317.7112,0,0,0,0,1,,,,,,,,,,,,,,,,,,,,,,,,,,,,,,,,,,,,,,,,,,,,,,,,,,
,,5be59ce3520a3300010e28a9,35,female,2024-04-24_11h33.33.762,stockport_simplified,2022.2.4,Win32,15.01501502,661e456ee6de07e70aa9ef7b,6628df8841f59130a2be9d84,,,,,,,,,,,,,,,,,,,,,,,,,,,,,,,,,,,,,,,,,,,,,,,,,,,,,,,,0,18,18,56,1,N,M,D,o2_image,stimuli/out2.png,stimuli/out1.png,stimuli/correct_out2.png,,,,,,,,,,,,,,,,,,,,,,,,,,,,,,,,,,,,,,
,,5be59ce3520a3300010e28a9,35,female,2024-04-24_11h33.33.762,stockport_simplified,2022.2.4,Win32,15.01501502,661e456ee6de07e70aa9ef7b,6628df8841f59130a2be9d84,,,,,,,,,,,,,,,,,,,,,,,,,,,,,,,,,,317.7118,323.9465,"[2,7,5,3,4,1,8,6]","[[0.3,0.2],[-0.3,0.2]]","[[0.125,-0.2],[-0.125,-0.2]]",0.122222222,-0.195138889,1,0,0,5.1423,o1_image,323.9471,1,323.9485,323.9485,325.5152,0,0,0,0,1,,,,,,,,,,,,,,,,,,,,,,,,,,,,,,,,,,,,,,,,,,,,,,,,,,
,,5be59ce3520a3300010e28a9,35,female,2024-04-24_11h33.33.762,stockport_simplified,2022.2.4,Win32,15.01501502,661e456ee6de07e70aa9ef7b,6628df8841f59130a2be9d84,,,,,,,,,,,,,,,,,,,,,,,,,,,,,,,,,,,,,,,,,,,,,,,,,,,,,,,,0,19,19,23,1,N,M,C,o1_image,stimuli/out1.png,stimuli/correct_out1.png,stimuli/out2.png,,,,,,,,,,,,,,,,,,,,,,,,,,,,,,,,,,,,,,
,,5be59ce3520a3300010e28a9,35,female,2024-04-24_11h33.33.762,stockport_simplified,2022.2.4,Win32,15.01501502,661e456ee6de07e70aa9ef7b,6628df8841f59130a2be9d84,,,,,,,,,,,,,,,,,,,,,,,,,,,,,,,,,,325.5158,329.2344,"[2,7,5,3,4,1,8,6]","[[0.3,0.2],[-0.3,0.2]]","[[-0.125,-0.2],[0.125,-0.2]]",-0.125694444,-0.193055556,1,0,0,3.0686,o1_image,329.2354,1,329.2368,329.2369,330.6903,0,0,0,0,1,,,,,,,,,,,,,,,,,,,,,,,,,,,,,,,,,,,,,,,,,,,,,,,,,,
,,5be59ce3520a3300010e28a9,35,female,2024-04-24_11h33.33.762,stockport_simplified,2022.2.4,Win32,15.01501502,661e456ee6de07e70aa9ef7b,6628df8841f59130a2be9d84,,,,,,,,,,,,,,,,,,,,,,,,,,,,,,,,,,,,,,,,,,,,,,,,,,,,,,,,0,20,20,6,1,A,Y,N,o1_image,stimuli/out1.png,stimuli/correct_out1.png,stimuli/out2.png,,,,,,,,,,,,,,,,,,,,,,,,,,,,,,,,,,,,,,
,,5be59ce3520a3300010e28a9,35,female,2024-04-24_11h33.33.762,stockport_simplified,2022.2.4,Win32,15.01501502,661e456ee6de07e70aa9ef7b,6628df8841f59130a2be9d84,,,,,,,,,,,,,,,,,,,,,,,,,,,,,,,,,,330.691,338.0624,"[2,7,5,3,4,1,8,6]","[[-0.3,0.2],[0.3,0.2]]","[[-0.125,-0.2],[0.125,-0.2]]",-0.126388889,-0.174305556,1,0,0,6.6218,o1_image,338.0732,1,338.0741,338.0742,339.5603,0,0,0,0,1,,,,,,,,,,,,,,,,,,,,,,,,,,,,,,,,,,,,,,,,,,,,,,,,,,
,,5be59ce3520a3300010e28a9,35,female,2024-04-24_11h33.33.762,stockport_simplified,2022.2.4,Win32,15.01501502,661e456ee6de07e70aa9ef7b,6628df8841f59130a2be9d84,,,,,,,,,,,,,,,,,,,,,,,,,,,,,,,,,,,,,,,,,,,,,,,,,,,,,,,,0,21,21,8,1,A,Y,N,o1_image,stimuli/out1.png,stimuli/correct_out1.png,stimuli/out2.png,,,,,,,,,,,,,,,,,,,,,,,,,,,,,,,,,,,,,,
,,5be59ce3520a3300010e28a9,35,female,2024-04-24_11h33.33.762,stockport_simplified,2022.2.4,Win32,15.01501502,661e456ee6de07e70aa9ef7b,6628df8841f59130a2be9d84,,,,,,,,,,,,,,,,,,,,,,,,,,,,,,,,,,339.5607,343.8825,"[2,7,5,3,4,1,8,6]","[[-0.3,0.2],[0.3,0.2]]","[[0.125,-0.2],[-0.125,-0.2]]",0.127777778,-0.19375,1,0,0,3.6922,o1_image,343.8832,1,343.8844,343.8844,345.984,0,0,0,0,1,,,,,,,,,,,,,,,,,,,,,,,,,,,,,,,,,,,,,,,,,,,,,,,,,,
,,5be59ce3520a3300010e28a9,35,female,2024-04-24_11h33.33.762,stockport_simplified,2022.2.4,Win32,15.01501502,661e456ee6de07e70aa9ef7b,6628df8841f59130a2be9d84,,,,,,,,,,,,,,,,,,,,,,,,,,,,,,,,,,,,,,,,,,,,,,,,,,,,,,,,0,22,22,34,1,A,X,N,o1_image,stimuli/out1.png,stimuli/correct_out1.png,stimuli/out2.png,,,,,,,,,,,,,,,,,,,,,,,,,,,,,,,,,,,,,,
,,5be59ce3520a3300010e28a9,35,female,2024-04-24_11h33.33.762,stockport_simplified,2022.2.4,Win32,15.01501502,661e456ee6de07e70aa9ef7b,6628df8841f59130a2be9d84,,,,,,,,,,,,,,,,,,,,,,,,,,,,,,,,,,345.9846,348.7898,"[2,7,5,3,4,1,8,6]","[[0.3,0.2],[-0.3,0.2]]","[[-0.125,-0.2],[0.125,-0.2]]",0.11875,-0.193055556,1,0,0,2.2006,o2_image,348.7908,1,348.7927,348.7927,350.2429,0,0,0,0,1,,,,,,,,,,,,,,,,,,,,,,,,,,,,,,,,,,,,,,,,,,,,,,,,,,
,,5be59ce3520a3300010e28a9,35,female,2024-04-24_11h33.33.762,stockport_simplified,2022.2.4,Win32,15.01501502,661e456ee6de07e70aa9ef7b,6628df8841f59130a2be9d84,,,,,,,,,,,,,,,,,,,,,,,,,,,,,,,,,,,,,,,,,,,,,,,,,,,,,,,,0,23,23,25,1,N,M,D,o2_image,stimuli/out2.png,stimuli/out1.png,stimuli/correct_out2.png,,,,,,,,,,,,,,,,,,,,,,,,,,,,,,,,,,,,,,
,,5be59ce3520a3300010e28a9,35,female,2024-04-24_11h33.33.762,stockport_simplified,2022.2.4,Win32,15.01501502,661e456ee6de07e70aa9ef7b,6628df8841f59130a2be9d84,,,,,,,,,,,,,,,,,,,,,,,,,,,,,,,,,,350.2436,354.4681,"[2,7,5,3,4,1,8,6]","[[0.3,0.2],[-0.3,0.2]]","[[0.125,-0.2],[-0.125,-0.2]]",0.129166667,-0.2,1,0,0,3.6137,o1_image,354.4693,1,354.4711,354.4712,356.6527,0,0,0,0,1,,,,,,,,,,,,,,,,,,,,,,,,,,,,,,,,,,,,,,,,,,,,,,,,,,
,,5be59ce3520a3300010e28a9,35,female,2024-04-24_11h33.33.762,stockport_simplified,2022.2.4,Win32,15.01501502,661e456ee6de07e70aa9ef7b,6628df8841f59130a2be9d84,,,,,,,,,,,,,,,,,,,,,,,,,,,,,,,,,,,,,,,,,,,,,,,,,,,,,,,,0,24,24,33,1,A,X,N,o1_image,stimuli/out1.png,stimuli/correct_out1.png,stimuli/out2.png,,,,,,,,,,,,,,,,,,,,,,,,,,,,,,,,,,,,,,
,,5be59ce3520a3300010e28a9,35,female,2024-04-24_11h33.33.762,stockport_simplified,2022.2.4,Win32,15.01501502,661e456ee6de07e70aa9ef7b,6628df8841f59130a2be9d84,,,,,,,,,,,,,,,,,,,,,,,,,,,,,,,,,,356.6534,361.7355,"[2,7,5,3,4,1,8,6]","[[0.3,0.2],[-0.3,0.2]]","[[-0.125,-0.2],[0.125,-0.2]]",0.090277778,-0.211805556,1,0,0,4.4824,o2_image,361.7365,1,361.7386,361.7387,363.2857,0,0,0,0,1,,,,,,,,,,,,,,,,,,,,,,,,,,,,,,,,,,,,,,,,,,,,,,,,,,
,,5be59ce3520a3300010e28a9,35,female,2024-04-24_11h33.33.762,stockport_simplified,2022.2.4,Win32,15.01501502,661e456ee6de07e70aa9ef7b,6628df8841f59130a2be9d84,,,,,,,,,,,,,,,,,,,,,,,,,,,,,,,,,,,,,,,,,,,,,,,,,,,,,,,,0,25,25,57,1,N,M,D,o2_image,stimuli/out2.png,stimuli/out1.png,stimuli/correct_out2.png,,,,,,,,,,,,,,,,,,,,,,,,,,,,,,,,,,,,,,
,,5be59ce3520a3300010e28a9,35,female,2024-04-24_11h33.33.762,stockport_simplified,2022.2.4,Win32,15.01501502,661e456ee6de07e70aa9ef7b,6628df8841f59130a2be9d84,,,,,,,,,,,,,,,,,,,,,,,,,,,,,,,,,,363.2864,370.3455,"[2,7,5,3,4,1,8,6]","[[0.3,0.2],[-0.3,0.2]]","[[-0.125,-0.2],[0.125,-0.2]]",-0.128472222,-0.19375,1,0,0,6.516,o1_image,370.3596,1,370.3609,370.3609,372.4435,0,0,0,0,1,,,,,,,,,,,,,,,,,,,,,,,,,,,,,,,,,,,,,,,,,,,,,,,,,,
,,5be59ce3520a3300010e28a9,35,female,2024-04-24_11h33.33.762,stockport_simplified,2022.2.4,Win32,15.01501502,661e456ee6de07e70aa9ef7b,6628df8841f59130a2be9d84,,,,,,,,,,,,,,,,,,,,,,,,,,,,,,,,,,,,,,,,,,,,,,,,,,,,,,,,0,26,26,24,1,N,M,C,o1_image,stimuli/out1.png,stimuli/correct_out1.png,stimuli/out2.png,,,,,,,,,,,,,,,,,,,,,,,,,,,,,,,,,,,,,,
,,5be59ce3520a3300010e28a9,35,female,2024-04-24_11h33.33.762,stockport_simplified,2022.2.4,Win32,15.01501502,661e456ee6de07e70aa9ef7b,6628df8841f59130a2be9d84,,,,,,,,,,,,,,,,,,,,,,,,,,,,,,,,,,372.4442,375.1547,"[2,7,5,3,4,1,8,6]","[[-0.3,0.2],[0.3,0.2]]","[[-0.125,-0.2],[0.125,-0.2]]",0.140277778,-0.184722222,1,0,0,2.0847,o2_image,375.1556,0,375.1574,375.1574,376.6111,0,0,0,0,1,,,,,,,,,,,,,,,,,,,,,,,,,,,,,,,,,,,,,,,,,,,,,,,,,,
,,5be59ce3520a3300010e28a9,35,female,2024-04-24_11h33.33.762,stockport_simplified,2022.2.4,Win32,15.01501502,661e456ee6de07e70aa9ef7b,6628df8841f59130a2be9d84,,,,,,,,,,,,,,,,,,,,,,,,,,,,,,,,,,,,,,,,,,,,,,,,,,,,,,,,0,27,27,36,1,A,Y,N,o1_image,stimuli/out1.png,stimuli/correct_out1.png,stimuli/out2.png,,,,,,,,,,,,,,,,,,,,,,,,,,,,,,,,,,,,,,
,,5be59ce3520a3300010e28a9,35,female,2024-04-24_11h33.33.762,stockport_simplified,2022.2.4,Win32,15.01501502,661e456ee6de07e70aa9ef7b,6628df8841f59130a2be9d84,,,,,,,,,,,,,,,,,,,,,,,,,,,,,,,,,,376.6116,379.2357,"[2,7,5,3,4,1,8,6]","[[0.3,0.2],[-0.3,0.2]]","[[0.125,-0.2],[-0.125,-0.2]]",0.127777778,-0.190972222,1,0,0,2.0484,o1_image,379.2366,1,379.973,379.973,381.9316,0,0,0,0,1,,,,,,,,,,,,,,,,,,,,,,,,,,,,,,,,,,,,,,,,,,,,,,,,,,
,,5be59ce3520a3300010e28a9,35,female,2024-04-24_11h33.33.762,stockport_simplified,2022.2.4,Win32,15.01501502,661e456ee6de07e70aa9ef7b,6628df8841f59130a2be9d84,,,,,,,,,,,,,,,,,,,,,,,,,,,,,,,,,,,,,,,,,,,,,,,,,,,,,,,,0,28,28,1,1,A,X,N,o1_image,stimuli/out1.png,stimuli/correct_out1.png,stimuli/out2.png,,,,,,,,,,,,,,,,,,,,,,,,,,,,,,,,,,,,,,
,,5be59ce3520a3300010e28a9,35,female,2024-04-24_11h33.33.762,stockport_simplified,2022.2.4,Win32,15.01501502,661e456ee6de07e70aa9ef7b,6628df8841f59130a2be9d84,,,,,,,,,,,,,,,,,,,,,,,,,,,,,,,,,,381.9319,384.5215,"[2,7,5,3,4,1,8,6]","[[-0.3,0.2],[0.3,0.2]]","[[-0.125,-0.2],[0.125,-0.2]]",-0.11875,-0.1875,1,0,0,1.9269,o1_image,384.5221,0,384.9428,384.9429,386.8618,0,0,0,0,1,,,,,,,,,,,,,,,,,,,,,,,,,,,,,,,,,,,,,,,,,,,,,,,,,,
,,5be59ce3520a3300010e28a9,35,female,2024-04-24_11h33.33.762,stockport_simplified,2022.2.4,Win32,15.01501502,661e456ee6de07e70aa9ef7b,6628df8841f59130a2be9d84,,,,,,,,,,,,,,,,,,,,,,,,,,,,,,,,,,,,,,,,,,,,,,,,,,,,,,,,0,29,29,55,1,N,M,D,o2_image,stimuli/out2.png,stimuli/out1.png,stimuli/correct_out2.png,,,,,,,,,,,,,,,,,,,,,,,,,,,,,,,,,,,,,,
,,5be59ce3520a3300010e28a9,35,female,2024-04-24_11h33.33.762,stockport_simplified,2022.2.4,Win32,15.01501502,661e456ee6de07e70aa9ef7b,6628df8841f59130a2be9d84,,,,,,,,,,,,,,,,,,,,,,,,,,,,,,,,,,386.8621,389.5036,"[2,7,5,3,4,1,8,6]","[[-0.3,0.2],[0.3,0.2]]","[[0.125,-0.2],[-0.125,-0.2]]",0.120138889,-0.215277778,1,0,0,1.964,o1_image,389.5042,0,389.9008,389.9008,391.878,0,0,0,0,1,,,,,,,,,,,,,,,,,,,,,,,,,,,,,,,,,,,,,,,,,,,,,,,,,,
,,5be59ce3520a3300010e28a9,35,female,2024-04-24_11h33.33.762,stockport_simplified,2022.2.4,Win32,15.01501502,661e456ee6de07e70aa9ef7b,6628df8841f59130a2be9d84,,,,,,,,,,,,,,,,,,,,,,,,,,,,,,,,,,,,,,,,,,,,,,,,,,,,,,,,0,30,30,40,1,B,X,N,o2_image,stimuli/out2.png,stimuli/out1.png,stimuli/correct_out2.png,,,,,,,,,,,,,,,,,,,,,,,,,,,,,,,,,,,,,,
,,5be59ce3520a3300010e28a9,35,female,2024-04-24_11h33.33.762,stockport_simplified,2022.2.4,Win32,15.01501502,661e456ee6de07e70aa9ef7b,6628df8841f59130a2be9d84,,,,,,,,,,,,,,,,,,,,,,,,,,,,,,,,,,391.8783,395.5923,"[2,7,5,3,4,1,8,6]","[[0.3,0.2],[-0.3,0.2]]","[[0.125,-0.2],[-0.125,-0.2]]",0.152083333,-0.195833333,1,0,0,3.0577,o1_image,395.5932,1,396.0344,396.0344,397.9956,0,0,0,0,1,,,,,,,,,,,,,,,,,,,,,,,,,,,,,,,,,,,,,,,,,,,,,,,,,,
,,5be59ce3520a3300010e28a9,35,female,2024-04-24_11h33.33.762,stockport_simplified,2022.2.4,Win32,15.01501502,661e456ee6de07e70aa9ef7b,6628df8841f59130a2be9d84,,,,,,,,,,,,,,,,,,,,,,,,,,,,,,,,,,,,,,,,,,,,,,,,,,,,,,,,0,31,31,38,1,A,Y,N,o1_image,stimuli/out1.png,stimuli/correct_out1.png,stimuli/out2.png,,,,,,,,,,,,,,,,,,,,,,,,,,,,,,,,,,,,,,
,,5be59ce3520a3300010e28a9,35,female,2024-04-24_11h33.33.762,stockport_simplified,2022.2.4,Win32,15.01501502,661e456ee6de07e70aa9ef7b,6628df8841f59130a2be9d84,,,,,,,,,,,,,,,,,,,,,,,,,,,,,,,,,,397.9959,401.0328,"[2,7,5,3,4,1,8,6]","[[0.3,0.2],[-0.3,0.2]]","[[-0.125,-0.2],[0.125,-0.2]]",-0.123611111,-0.209027778,1,0,0,2.3697,o1_image,401.0333,1,401.4504,401.4505,403.4393,0,0,0,0,1,,,,,,,,,,,,,,,,,,,,,,,,,,,,,,,,,,,,,,,,,,,,,,,,,,
,,5be59ce3520a3300010e28a9,35,female,2024-04-24_11h33.33.762,stockport_simplified,2022.2.4,Win32,15.01501502,661e456ee6de07e70aa9ef7b,6628df8841f59130a2be9d84,,,,,,,,,,,,,,,,,,,,,,,,,,,,,,,,,,,,,,,,,,,,,,,,,,,,,,,,0,32,32,51,1,N,M,C,o1_image,stimuli/out1.png,stimuli/correct_out1.png,stimuli/out2.png,,,,,,,,,,,,,,,,,,,,,,,,,,,,,,,,,,,,,,
,,5be59ce3520a3300010e28a9,35,female,2024-04-24_11h33.33.762,stockport_simplified,2022.2.4,Win32,15.01501502,661e456ee6de07e70aa9ef7b,6628df8841f59130a2be9d84,,,,,,,,,,,,,,,,,,,,,,,,,,,,,,,,,,403.4396,405.7722,"[2,7,5,3,4,1,8,6]","[[-0.3,0.2],[0.3,0.2]]","[[-0.125,-0.2],[0.125,-0.2]]",0.081944444,-0.211111111,1,0,0,1.6342,o2_image,405.7727,1,406.2012,406.2012,407.8929,0,0,0,0,1,,,,,,,,,,,,,,,,,,,,,,,,,,,,,,,,,,,,,,,,,,,,,,,,,,
,,5be59ce3520a3300010e28a9,35,female,2024-04-24_11h33.33.762,stockport_simplified,2022.2.4,Win32,15.01501502,661e456ee6de07e70aa9ef7b,6628df8841f59130a2be9d84,,,,,,,,,,,,,,,,,,,,,,,,,,,,,,,,,,,,,,,,,,,,,,,,,,,,,,,,0,33,33,29,1,N,M,D,o2_image,stimuli/out2.png,stimuli/out1.png,stimuli/correct_out2.png,,,,,,,,,,,,,,,,,,,,,,,,,,,,,,,,,,,,,,
,,5be59ce3520a3300010e28a9,35,female,2024-04-24_11h33.33.762,stockport_simplified,2022.2.4,Win32,15.01501502,661e456ee6de07e70aa9ef7b,6628df8841f59130a2be9d84,,,,,,,,,,,,,,,,,,,,,,,,,,,,,,,,,,407.8934,414.5607,"[2,7,5,3,4,1,8,6]","[[-0.3,0.2],[0.3,0.2]]","[[-0.125,-0.2],[0.125,-0.2]]",0.1,-0.184027778,1,0,0,5.9427,o2_image,414.5698,1,415.1921,415.1922,416.9695,0,0,0,0,1,,,,,,,,,,,,,,,,,,,,,,,,,,,,,,,,,,,,,,,,,,,,,,,,,,
,,5be59ce3520a3300010e28a9,35,female,2024-04-24_11h33.33.762,stockport_simplified,2022.2.4,Win32,15.01501502,661e456ee6de07e70aa9ef7b,6628df8841f59130a2be9d84,,,,,,,,,,,,,,,,,,,,,,,,,,,,,,,,,,,,,,,,,,,,,,,,,,,,,,,,0,34,34,58,1,N,M,D,o2_image,stimuli/out2.png,stimuli/out1.png,stimuli/correct_out2.png,,,,,,,,,,,,,,,,,,,,,,,,,,,,,,,,,,,,,,
,,5be59ce3520a3300010e28a9,35,female,2024-04-24_11h33.33.762,stockport_simplified,2022.2.4,Win32,15.01501502,661e456ee6de07e70aa9ef7b,6628df8841f59130a2be9d84,,,,,,,,,,,,,,,,,,,,,,,,,,,,,,,,,,416.9702,420.9092,"[2,7,5,3,4,1,8,6]","[[0.3,0.2],[-0.3,0.2]]","[[0.125,-0.2],[-0.125,-0.2]]",-0.133333333,-0.185416667,1,0,0,3.2194,o2_image,420.91,0,420.9118,420.9118,422.4917,0,0,0,0,1,,,,,,,,,,,,,,,,,,,,,,,,,,,,,,,,,,,,,,,,,,,,,,,,,,
,,5be59ce3520a3300010e28a9,35,female,2024-04-24_11h33.33.762,stockport_simplified,2022.2.4,Win32,15.01501502,661e456ee6de07e70aa9ef7b,6628df8841f59130a2be9d84,,,,,,,,,,,,,,,,,,,,,,,,,,,,,,,,,,,,,,,,,,,,,,,,,,,,,,,,0,35,35,5,1,A,Y,N,o1_image,stimuli/out1.png,stimuli/correct_out1.png,stimuli/out2.png,,,,,,,,,,,,,,,,,,,,,,,,,,,,,,,,,,,,,,
,,5be59ce3520a3300010e28a9,35,female,2024-04-24_11h33.33.762,stockport_simplified,2022.2.4,Win32,15.01501502,661e456ee6de07e70aa9ef7b,6628df8841f59130a2be9d84,,,,,,,,,,,,,,,,,,,,,,,,,,,,,,,,,,422.4922,426.8606,"[2,7,5,3,4,1,8,6]","[[0.3,0.2],[-0.3,0.2]]","[[-0.125,-0.2],[0.125,-0.2]]",-0.120138889,-0.205555556,1,0,0,3.6951,o1_image,426.8739,0,426.8749,426.8749,428.3888,0,0,0,0,1,,,,,,,,,,,,,,,,,,,,,,,,,,,,,,,,,,,,,,,,,,,,,,,,,,
,,5be59ce3520a3300010e28a9,35,female,2024-04-24_11h33.33.762,stockport_simplified,2022.2.4,Win32,15.01501502,661e456ee6de07e70aa9ef7b,6628df8841f59130a2be9d84,,,,,,,,,,,,,,,,,,,,,,,,,,,,,,,,,,,,,,,,,,,,,,,,,,,,,,,,0,36,36,15,1,B,Y,N,o2_image,stimuli/out2.png,stimuli/out1.png,stimuli/correct_out2.png,,,,,,,,,,,,,,,,,,,,,,,,,,,,,,,,,,,,,,
,,5be59ce3520a3300010e28a9,35,female,2024-04-24_11h33.33.762,stockport_simplified,2022.2.4,Win32,15.01501502,661e456ee6de07e70aa9ef7b,6628df8841f59130a2be9d84,,,,,,,,,,,,,,,,,,,,,,,,,,,,,,,,,,428.3894,432.3477,"[2,7,5,3,4,1,8,6]","[[0.3,0.2],[-0.3,0.2]]","[[-0.125,-0.2],[0.125,-0.2]]",-0.117361111,-0.1875,1,0,0,3.3299,o1_image,432.349,1,432.3508,432.3509,433.8666,0,0,0,0,1,,,,,,,,,,,,,,,,,,,,,,,,,,,,,,,,,,,,,,,,,,,,,,,,,,
,,5be59ce3520a3300010e28a9,35,female,2024-04-24_11h33.33.762,stockport_simplified,2022.2.4,Win32,15.01501502,661e456ee6de07e70aa9ef7b,6628df8841f59130a2be9d84,,,,,,,,,,,,,,,,,,,,,,,,,,,,,,,,,,,,,,,,,,,,,,,,,,,,,,,,0,37,37,7,1,A,Y,N,o1_image,stimuli/out1.png,stimuli/correct_out1.png,stimuli/out2.png,,,,,,,,,,,,,,,,,,,,,,,,,,,,,,,,,,,,,,
,,5be59ce3520a3300010e28a9,35,female,2024-04-24_11h33.33.762,stockport_simplified,2022.2.4,Win32,15.01501502,661e456ee6de07e70aa9ef7b,6628df8841f59130a2be9d84,,,,,,,,,,,,,,,,,,,,,,,,,,,,,,,,,,433.867,440.1587,"[2,7,5,3,4,1,8,6]","[[0.3,0.2],[-0.3,0.2]]","[[-0.125,-0.2],[0.125,-0.2]]",-0.125694444,-0.181944444,1,0,0,5.6322,o1_image,440.1709,0,440.172,440.172,442.3151,0,0,0,0,1,,,,,,,,,,,,,,,,,,,,,,,,,,,,,,,,,,,,,,,,,,,,,,,,,,
,,5be59ce3520a3300010e28a9,35,female,2024-04-24_11h33.33.762,stockport_simplified,2022.2.4,Win32,15.01501502,661e456ee6de07e70aa9ef7b,6628df8841f59130a2be9d84,,,,,,,,,,,,,,,,,,,,,,,,,,,,,,,,,,,,,,,,,,,,,,,,,,,,,,,,0,38,38,47,1,B,Y,N,o2_image,stimuli/out2.png,stimuli/out1.png,stimuli/correct_out2.png,,,,,,,,,,,,,,,,,,,,,,,,,,,,,,,,,,,,,,
,,5be59ce3520a3300010e28a9,35,female,2024-04-24_11h33.33.762,stockport_simplified,2022.2.4,Win32,15.01501502,661e456ee6de07e70aa9ef7b,6628df8841f59130a2be9d84,,,,,,,,,,,,,,,,,,,,,,,,,,,,,,,,,,442.3156,444.3711,"[2,7,5,3,4,1,8,6]","[[-0.3,0.2],[0.3,0.2]]","[[0.125,-0.2],[-0.125,-0.2]]",0.132638889,-0.2,1,0,0,1.462,o1_image,444.3718,0,444.3727,444.3727,446.4863,0,0,0,0,1,,,,,,,,,,,,,,,,,,,,,,,,,,,,,,,,,,,,,,,,,,,,,,,,,,
,,5be59ce3520a3300010e28a9,35,female,2024-04-24_11h33.33.762,stockport_simplified,2022.2.4,Win32,15.01501502,661e456ee6de07e70aa9ef7b,6628df8841f59130a2be9d84,,,,,,,,,,,,,,,,,,,,,,,,,,,,,,,,,,,,,,,,,,,,,,,,,,,,,,,,0,39,39,18,1,B,Y,N,o2_image,stimuli/out2.png,stimuli/out1.png,stimuli/correct_out2.png,,,,,,,,,,,,,,,,,,,,,,,,,,,,,,,,,,,,,,
,,5be59ce3520a3300010e28a9,35,female,2024-04-24_11h33.33.762,stockport_simplified,2022.2.4,Win32,15.01501502,661e456ee6de07e70aa9ef7b,6628df8841f59130a2be9d84,,,,,,,,,,,,,,,,,,,,,,,,,,,,,,,,,,446.4868,449.9556,"[2,7,5,3,4,1,8,6]","[[0.3,0.2],[-0.3,0.2]]","[[-0.125,-0.2],[0.125,-0.2]]",-0.113888889,-0.186111111,1,0,0,2.8595,o1_image,449.9564,1,449.9579,449.958,451.4101,0,0,0,0,1,,,,,,,,,,,,,,,,,,,,,,,,,,,,,,,,,,,,,,,,,,,,,,,,,,
,,5be59ce3520a3300010e28a9,35,female,2024-04-24_11h33.33.762,stockport_simplified,2022.2.4,Win32,15.01501502,661e456ee6de07e70aa9ef7b,6628df8841f59130a2be9d84,,,,,,,,,,,,,,,,,,,,,,,,,,,,,,,,,,,,,,,,,,,,,,,,,,,,,,,,0,40,40,21,1,N,M,C,o1_image,stimuli/out1.png,stimuli/correct_out1.png,stimuli/out2.png,,,,,,,,,,,,,,,,,,,,,,,,,,,,,,,,,,,,,,
,,5be59ce3520a3300010e28a9,35,female,2024-04-24_11h33.33.762,stockport_simplified,2022.2.4,Win32,15.01501502,661e456ee6de07e70aa9ef7b,6628df8841f59130a2be9d84,,,,,,,,,,,,,,,,,,,,,,,,,,,,,,,,,,451.4105,457.9049,"[2,7,5,3,4,1,8,6]","[[-0.3,0.2],[0.3,0.2]]","[[0.125,-0.2],[-0.125,-0.2]]",-0.107638889,-0.192361111,1,0,0,5.8968,o2_image,457.9184,0,457.9194,457.9194,459.9654,0,0,0,0,1,,,,,,,,,,,,,,,,,,,,,,,,,,,,,,,,,,,,,,,,,,,,,,,,,,
,,5be59ce3520a3300010e28a9,35,female,2024-04-24_11h33.33.762,stockport_simplified,2022.2.4,Win32,15.01501502,661e456ee6de07e70aa9ef7b,6628df8841f59130a2be9d84,,,,,,,,,,,,,,,,,,,,,,,,,,,,,,,,,,,,,,,,,,,,,,,,,,,,,,,,0,41,41,20,1,N,M,C,o1_image,stimuli/out1.png,stimuli/correct_out1.png,stimuli/out2.png,,,,,,,,,,,,,,,,,,,,,,,,,,,,,,,,,,,,,,
,,5be59ce3520a3300010e28a9,35,female,2024-04-24_11h33.33.762,stockport_simplified,2022.2.4,Win32,15.01501502,661e456ee6de07e70aa9ef7b,6628df8841f59130a2be9d84,,,,,,,,,,,,,,,,,,,,,,,,,,,,,,,,,,459.9658,464.114,"[2,7,5,3,4,1,8,6]","[[-0.3,0.2],[0.3,0.2]]","[[0.125,-0.2],[-0.125,-0.2]]",0.11875,-0.184027778,1,0,0,3.5546,o1_image,464.1147,0,464.1163,464.1163,465.6484,0,0,0,0,1,,,,,,,,,,,,,,,,,,,,,,,,,,,,,,,,,,,,,,,,,,,,,,,,,,
,,5be59ce3520a3300010e28a9,35,female,2024-04-24_11h33.33.762,stockport_simplified,2022.2.4,Win32,15.01501502,661e456ee6de07e70aa9ef7b,6628df8841f59130a2be9d84,,,,,,,,,,,,,,,,,,,,,,,,,,,,,,,,,,,,,,,,,,,,,,,,,,,,,,,,0,42,42,45,1,B,Y,N,o2_image,stimuli/out2.png,stimuli/out1.png,stimuli/correct_out2.png,,,,,,,,,,,,,,,,,,,,,,,,,,,,,,,,,,,,,,
,,5be59ce3520a3300010e28a9,35,female,2024-04-24_11h33.33.762,stockport_simplified,2022.2.4,Win32,15.01501502,661e456ee6de07e70aa9ef7b,6628df8841f59130a2be9d84,,,,,,,,,,,,,,,,,,,,,,,,,,,,,,,,,,465.6489,469.2909,"[2,7,5,3,4,1,8,6]","[[0.3,0.2],[-0.3,0.2]]","[[0.125,-0.2],[-0.125,-0.2]]",-0.127777778,-0.208333333,1,0,0,2.8674,o2_image,469.2917,1,469.2929,469.293,471.4276,0,0,0,0,1,,,,,,,,,,,,,,,,,,,,,,,,,,,,,,,,,,,,,,,,,,,,,,,,,,
,,5be59ce3520a3300010e28a9,35,female,2024-04-24_11h33.33.762,stockport_simplified,2022.2.4,Win32,15.01501502,661e456ee6de07e70aa9ef7b,6628df8841f59130a2be9d84,,,,,,,,,,,,,,,,,,,,,,,,,,,,,,,,,,,,,,,,,,,,,,,,,,,,,,,,0,43,43,42,1,B,X,N,o2_image,stimuli/out2.png,stimuli/out1.png,stimuli/correct_out2.png,,,,,,,,,,,,,,,,,,,,,,,,,,,,,,,,,,,,,,
,,5be59ce3520a3300010e28a9,35,female,2024-04-24_11h33.33.762,stockport_simplified,2022.2.4,Win32,15.01501502,661e456ee6de07e70aa9ef7b,6628df8841f59130a2be9d84,,,,,,,,,,,,,,,,,,,,,,,,,,,,,,,,,,471.4281,482.9007,"[2,7,5,3,4,1,8,6]","[[-0.3,0.2],[0.3,0.2]]","[[-0.125,-0.2],[0.125,-0.2]]",,,,,,,,,,,,,,,,,,0,44,44,41,1,B,X,N,o2_image,stimuli/out2.png,stimuli/out1.png,stimuli/correct_out2.png,,,,,,,,,,,,,,,,,,,,,,,,,,,,,,,,,,,,,,
,,5be59ce3520a3300010e28a9,35,female,2024-04-24_11h33.33.762,stockport_simplified,2022.2.4,Win32,15.01501502,661e456ee6de07e70aa9ef7b,6628df8841f59130a2be9d84,,,,,,,,,,,,,,,,,,,,,,,,,,,,,,,,,,482.911,484.7222,"[2,7,5,3,4,1,8,6]","[[-0.3,0.2],[0.3,0.2]]","[[0.125,-0.2],[-0.125,-0.2]]",-0.106944444,-0.172222222,1,0,0,1.161,o2_image,484.723,1,485.1242,485.1243,487.0702,0,0,0,0,1,,,,,,,,,,,,,,,,,,,,,,,,,,,,,,,,,,,,,,,,,,,,,,,,,,
,,5be59ce3520a3300010e28a9,35,female,2024-04-24_11h33.33.762,stockport_simplified,2022.2.4,Win32,15.01501502,661e456ee6de07e70aa9ef7b,6628df8841f59130a2be9d84,,,,,,,,,,,,,,,,,,,,,,,,,,,,,,,,,,,,,,,,,,,,,,,,,,,,,,,,0,45,45,46,1,B,Y,N,o2_image,stimuli/out2.png,stimuli/out1.png,stimuli/correct_out2.png,,,,,,,,,,,,,,,,,,,,,,,,,,,,,,,,,,,,,,
,,5be59ce3520a3300010e28a9,35,female,2024-04-24_11h33.33.762,stockport_simplified,2022.2.4,Win32,15.01501502,661e456ee6de07e70aa9ef7b,6628df8841f59130a2be9d84,,,,,,,,,,,,,,,,,,,,,,,,,,,,,,,,,,487.0705,488.8885,"[2,7,5,3,4,1,8,6]","[[-0.3,0.2],[0.3,0.2]]","[[0.125,-0.2],[-0.125,-0.2]]",0.125,-0.188194444,1,0,0,1.1538,o1_image,488.8892,0,489.2995,489.2995,491.2173,0,0,0,0,1,,,,,,,,,,,,,,,,,,,,,,,,,,,,,,,,,,,,,,,,,,,,,,,,,,
,,5be59ce3520a3300010e28a9,35,female,2024-04-24_11h33.33.762,stockport_simplified,2022.2.4,Win32,15.01501502,661e456ee6de07e70aa9ef7b,6628df8841f59130a2be9d84,,,,,,,,,,,,,,,,,,,,,,,,,,,,,,,,,,,,,,,,,,,,,,,,,,,,,,,,0,46,46,14,1,B,X,N,o2_image,stimuli/out2.png,stimuli/out1.png,stimuli/correct_out2.png,,,,,,,,,,,,,,,,,,,,,,,,,,,,,,,,,,,,,,
,,5be59ce3520a3300010e28a9,35,female,2024-04-24_11h33.33.762,stockport_simplified,2022.2.4,Win32,15.01501502,661e456ee6de07e70aa9ef7b,6628df8841f59130a2be9d84,,,,,,,,,,,,,,,,,,,,,,,,,,,,,,,,,,491.2177,493.4061,"[2,7,5,3,4,1,8,6]","[[0.3,0.2],[-0.3,0.2]]","[[0.125,-0.2],[-0.125,-0.2]]",-0.138194444,-0.188888889,1,0,0,1.5303,o2_image,493.4067,0,493.7984,493.7984,495.7707,0,0,0,0,1,,,,,,,,,,,,,,,,,,,,,,,,,,,,,,,,,,,,,,,,,,,,,,,,,,
,,5be59ce3520a3300010e28a9,35,female,2024-04-24_11h33.33.762,stockport_simplified,2022.2.4,Win32,15.01501502,661e456ee6de07e70aa9ef7b,6628df8841f59130a2be9d84,,,,,,,,,,,,,,,,,,,,,,,,,,,,,,,,,,,,,,,,,,,,,,,,,,,,,,,,0,47,47,52,1,N,M,C,o1_image,stimuli/out1.png,stimuli/correct_out1.png,stimuli/out2.png,,,,,,,,,,,,,,,,,,,,,,,,,,,,,,,,,,,,,,
,,5be59ce3520a3300010e28a9,35,female,2024-04-24_11h33.33.762,stockport_simplified,2022.2.4,Win32,15.01501502,661e456ee6de07e70aa9ef7b,6628df8841f59130a2be9d84,,,,,,,,,,,,,,,,,,,,,,,,,,,,,,,,,,495.7712,497.6648,"[2,7,5,3,4,1,8,6]","[[0.3,0.2],[-0.3,0.2]]","[[-0.125,-0.2],[0.125,-0.2]]",0.095138889,-0.188888889,1,0,0,1.1911,o2_image,497.6658,1,498.0684,498.0684,500.0289,0,0,0,0,1,,,,,,,,,,,,,,,,,,,,,,,,,,,,,,,,,,,,,,,,,,,,,,,,,,
,,5be59ce3520a3300010e28a9,35,female,2024-04-24_11h33.33.762,stockport_simplified,2022.2.4,Win32,15.01501502,661e456ee6de07e70aa9ef7b,6628df8841f59130a2be9d84,,,,,,,,,,,,,,,,,,,,,,,,,,,,,,,,,,,,,,,,,,,,,,,,,,,,,,,,0,48,48,12,1,B,X,N,o2_image,stimuli/out2.png,stimuli/out1.png,stimuli/correct_out2.png,,,,,,,,,,,,,,,,,,,,,,,,,,,,,,,,,,,,,,
,,5be59ce3520a3300010e28a9,35,female,2024-04-24_11h33.33.762,stockport_simplified,2022.2.4,Win32,15.01501502,661e456ee6de07e70aa9ef7b,6628df8841f59130a2be9d84,,,,,,,,,,,,,,,,,,,,,,,,,,,,,,,,,,500.0292,502.2618,"[2,7,5,3,4,1,8,6]","[[0.3,0.2],[-0.3,0.2]]","[[0.125,-0.2],[-0.125,-0.2]]",0.111111111,-0.189583333,1,0,0,1.5563,o1_image,502.2625,0,502.7168,502.7169,504.4453,0,0,0,0,1,,,,,,,,,,,,,,,,,,,,,,,,,,,,,,,,,,,,,,,,,,,,,,,,,,
,,5be59ce3520a3300010e28a9,35,female,2024-04-24_11h33.33.762,stockport_simplified,2022.2.4,Win32,15.01501502,661e456ee6de07e70aa9ef7b,6628df8841f59130a2be9d84,,,,,,,,,,,,,,,,,,,,,,,,,,,,,,,,,,,,,,,,,,,,,,,,,,,,,,,,0,49,49,49,1,B,Y,N,o2_image,stimuli/out2.png,stimuli/out1.png,stimuli/correct_out2.png,,,,,,,,,,,,,,,,,,,,,,,,,,,,,,,,,,,,,,
,,5be59ce3520a3300010e28a9,35,female,2024-04-24_11h33.33.762,stockport_simplified,2022.2.4,Win32,15.01501502,661e456ee6de07e70aa9ef7b,6628df8841f59130a2be9d84,,,,,,,,,,,,,,,,,,,,,,,,,,,,,,,,,,504.4457,506.3826,"[2,7,5,3,4,1,8,6]","[[-0.3,0.2],[0.3,0.2]]","[[0.125,-0.2],[-0.125,-0.2]]",-0.142361111,-0.189583333,1,0,0,1.2208,o2_image,506.3832,1,506.802,506.8021,508.591,0,0,0,0,1,,,,,,,,,,,,,,,,,,,,,,,,,,,,,,,,,,,,,,,,,,,,,,,,,,
,,5be59ce3520a3300010e28a9,35,female,2024-04-24_11h33.33.762,stockport_simplified,2022.2.4,Win32,15.01501502,661e456ee6de07e70aa9ef7b,6628df8841f59130a2be9d84,,,,,,,,,,,,,,,,,,,,,,,,,,,,,,,,,,,,,,,,,,,,,,,,,,,,,,,,0,50,50,13,1,B,X,N,o2_image,stimuli/out2.png,stimuli/out1.png,stimuli/correct_out2.png,,,,,,,,,,,,,,,,,,,,,,,,,,,,,,,,,,,,,,
,,5be59ce3520a3300010e28a9,35,female,2024-04-24_11h33.33.762,stockport_simplified,2022.2.4,Win32,15.01501502,661e456ee6de07e70aa9ef7b,6628df8841f59130a2be9d84,,,,,,,,,,,,,,,,,,,,,,,,,,,,,,,,,,508.5913,511.2877,"[2,7,5,3,4,1,8,6]","[[0.3,0.2],[-0.3,0.2]]","[[0.125,-0.2],[-0.125,-0.2]]",0.116666667,-0.204166667,1,0,0,1.8968,o1_image,511.2883,1,511.768,511.7681,513.925,0,0,0,0,1,,,,,,,,,,,,,,,,,,,,,,,,,,,,,,,,,,,,,,,,,,,,,,,,,,
,,5be59ce3520a3300010e28a9,35,female,2024-04-24_11h33.33.762,stockport_simplified,2022.2.4,Win32,15.01501502,661e456ee6de07e70aa9ef7b,6628df8841f59130a2be9d84,,,,,,,,,,,,,,,,,,,,,,,,,,,,,,,,,,,,,,,,,,,,,,,,,,,,,,,,0,51,51,2,1,A,X,N,o1_image,stimuli/out1.png,stimuli/correct_out1.png,stimuli/out2.png,,,,,,,,,,,,,,,,,,,,,,,,,,,,,,,,,,,,,,
,,5be59ce3520a3300010e28a9,35,female,2024-04-24_11h33.33.762,stockport_simplified,2022.2.4,Win32,15.01501502,661e456ee6de07e70aa9ef7b,6628df8841f59130a2be9d84,,,,,,,,,,,,,,,,,,,,,,,,,,,,,,,,,,513.926,519.6192,"[2,7,5,3,4,1,8,6]","[[-0.3,0.2],[0.3,0.2]]","[[-0.125,-0.2],[0.125,-0.2]]",-0.126388889,-0.190972222,1,0,0,4.7679,o1_image,519.62,0,519.6211,519.6211,521.1206,0,0,0,0,1,,,,,,,,,,,,,,,,,,,,,,,,,,,,,,,,,,,,,,,,,,,,,,,,,,
,,5be59ce3520a3300010e28a9,35,female,2024-04-24_11h33.33.762,stockport_simplified,2022.2.4,Win32,15.01501502,661e456ee6de07e70aa9ef7b,6628df8841f59130a2be9d84,,,,,,,,,,,,,,,,,,,,,,,,,,,,,,,,,,,,,,,,,,,,,,,,,,,,,,,,0,52,52,44,1,B,X,N,o2_image,stimuli/out2.png,stimuli/out1.png,stimuli/correct_out2.png,,,,,,,,,,,,,,,,,,,,,,,,,,,,,,,,,,,,,,
,,5be59ce3520a3300010e28a9,35,female,2024-04-24_11h33.33.762,stockport_simplified,2022.2.4,Win32,15.01501502,661e456ee6de07e70aa9ef7b,6628df8841f59130a2be9d84,,,,,,,,,,,,,,,,,,,,,,,,,,,,,,,,,,521.121,525.5717,"[2,7,5,3,4,1,8,6]","[[0.3,0.2],[-0.3,0.2]]","[[-0.125,-0.2],[0.125,-0.2]]",0.125,-0.1875,1,0,0,3.7803,o2_image,525.5725,0,525.5739,525.5739,527.0674,0,0,0,0,1,,,,,,,,,,,,,,,,,,,,,,,,,,,,,,,,,,,,,,,,,,,,,,,,,,
,,5be59ce3520a3300010e28a9,35,female,2024-04-24_11h33.33.762,stockport_simplified,2022.2.4,Win32,15.01501502,661e456ee6de07e70aa9ef7b,6628df8841f59130a2be9d84,,,,,,,,,,,,,,,,,,,,,,,,,,,,,,,,,,,,,,,,,,,,,,,,,,,,,,,,0,53,53,54,1,N,M,C,o1_image,stimuli/out1.png,stimuli/correct_out1.png,stimuli/out2.png,,,,,,,,,,,,,,,,,,,,,,,,,,,,,,,,,,,,,,
,,5be59ce3520a3300010e28a9,35,female,2024-04-24_11h33.33.762,stockport_simplified,2022.2.4,Win32,15.01501502,661e456ee6de07e70aa9ef7b,6628df8841f59130a2be9d84,,,,,,,,,,,,,,,,,,,,,,,,,,,,,,,,,,527.068,532.066,"[2,7,5,3,4,1,8,6]","[[-0.3,0.2],[0.3,0.2]]","[[0.125,-0.2],[-0.125,-0.2]]",-0.111805556,-0.220138889,1,0,0,4.3154,o2_image,532.0668,0,532.0683,532.0683,534.1858,0,0,0,0,1,,,,,,,,,,,,,,,,,,,,,,,,,,,,,,,,,,,,,,,,,,,,,,,,,,
,,5be59ce3520a3300010e28a9,35,female,2024-04-24_11h33.33.762,stockport_simplified,2022.2.4,Win32,15.01501502,661e456ee6de07e70aa9ef7b,6628df8841f59130a2be9d84,,,,,,,,,,,,,,,,,,,,,,,,,,,,,,,,,,,,,,,,,,,,,,,,,,,,,,,,0,54,54,30,1,A,X,N,o1_image,stimuli/out1.png,stimuli/correct_out1.png,stimuli/out2.png,,,,,,,,,,,,,,,,,,,,,,,,,,,,,,,,,,,,,,
,,5be59ce3520a3300010e28a9,35,female,2024-04-24_11h33.33.762,stockport_simplified,2022.2.4,Win32,15.01501502,661e456ee6de07e70aa9ef7b,6628df8841f59130a2be9d84,,,,,,,,,,,,,,,,,,,,,,,,,,,,,,,,,,534.1862,538.5643,"[2,7,5,3,4,1,8,6]","[[0.3,0.2],[-0.3,0.2]]","[[0.125,-0.2],[-0.125,-0.2]]",-0.117361111,-0.199305556,1,0,0,3.7743,o2_image,538.5654,0,538.5677,538.5677,540.1659,0,0,0,0,1,,,,,,,,,,,,,,,,,,,,,,,,,,,,,,,,,,,,,,,,,,,,,,,,,,
,,5be59ce3520a3300010e28a9,35,female,2024-04-24_11h33.33.762,stockport_simplified,2022.2.4,Win32,15.01501502,661e456ee6de07e70aa9ef7b,6628df8841f59130a2be9d84,,,,,,,,,,,,,,,,,,,,,,,,,,,,,,,,,,,,,,,,,,,,,,,,,,,,,,,,0,55,55,50,1,N,M,C,o1_image,stimuli/out1.png,stimuli/correct_out1.png,stimuli/out2.png,,,,,,,,,,,,,,,,,,,,,,,,,,,,,,,,,,,,,,
,,5be59ce3520a3300010e28a9,35,female,2024-04-24_11h33.33.762,stockport_simplified,2022.2.4,Win32,15.01501502,661e456ee6de07e70aa9ef7b,6628df8841f59130a2be9d84,,,,,,,,,,,,,,,,,,,,,,,,,,,,,,,,,,540.1663,542.9238,"[2,7,5,3,4,1,8,6]","[[-0.3,0.2],[0.3,0.2]]","[[0.125,-0.2],[-0.125,-0.2]]",-0.120138889,-0.180555556,1,0,0,2.1595,o2_image,542.9245,1,542.9258,542.9258,545.0512,0,0,0,0,1,,,,,,,,,,,,,,,,,,,,,,,,,,,,,,,,,,,,,,,,,,,,,,,,,,
,,5be59ce3520a3300010e28a9,35,female,2024-04-24_11h33.33.762,stockport_simplified,2022.2.4,Win32,15.01501502,661e456ee6de07e70aa9ef7b,6628df8841f59130a2be9d84,,,,,,,,,,,,,,,,,,,,,,,,,,,,,,,,,,,,,,,,,,,,,,,,,,,,,,,,0,56,56,28,1,N,M,D,o2_image,stimuli/out2.png,stimuli/out1.png,stimuli/correct_out2.png,,,,,,,,,,,,,,,,,,,,,,,,,,,,,,,,,,,,,,
,,5be59ce3520a3300010e28a9,35,female,2024-04-24_11h33.33.762,stockport_simplified,2022.2.4,Win32,15.01501502,661e456ee6de07e70aa9ef7b,6628df8841f59130a2be9d84,,,,,,,,,,,,,,,,,,,,,,,,,,,,,,,,,,545.0517,553.2951,"[2,7,5,3,4,1,8,6]","[[0.3,0.2],[-0.3,0.2]]","[[-0.125,-0.2],[0.125,-0.2]]",0.13125,-0.183333333,1,0,0,7.6411,o2_image,553.2959,1,553.2969,553.2969,555.4613,0,0,0,0,1,,,,,,,,,,,,,,,,,,,,,,,,,,,,,,,,,,,,,,,,,,,,,,,,,,
,,5be59ce3520a3300010e28a9,35,female,2024-04-24_11h33.33.762,stockport_simplified,2022.2.4,Win32,15.01501502,661e456ee6de07e70aa9ef7b,6628df8841f59130a2be9d84,,,,,,,,,,,,,,,,,,,,,,,,,,,,,,,,,,,,,,,,,,,,,,,,,,,,,,,,0,57,57,27,1,N,M,D,o2_image,stimuli/out2.png,stimuli/out1.png,stimuli/correct_out2.png,,,,,,,,,,,,,,,,,,,,,,,,,,,,,,,,,,,,,,
,,5be59ce3520a3300010e28a9,35,female,2024-04-24_11h33.33.762,stockport_simplified,2022.2.4,Win32,15.01501502,661e456ee6de07e70aa9ef7b,6628df8841f59130a2be9d84,,,,,,,,,,,,,,,,,,,,,,,,,,,,,,,,,,555.4618,560.2732,"[2,7,5,3,4,1,8,6]","[[-0.3,0.2],[0.3,0.2]]","[[-0.125,-0.2],[0.125,-0.2]]",-0.121527778,-0.18125,1,0,0,4.2014,o1_image,560.2742,1,560.9713,560.9714,563.0933,0,0,0,0,1,,,,,,,,,,,,,,,,,,,,,,,,,,,,,,,,,,,,,,,,,,,,,,,,,,
,,5be59ce3520a3300010e28a9,35,female,2024-04-24_11h33.33.762,stockport_simplified,2022.2.4,Win32,15.01501502,661e456ee6de07e70aa9ef7b,6628df8841f59130a2be9d84,,,,,,,,,,,,,,,,,,,,,,,,,,,,,,,,,,,,,,,,,,,,,,,,,,,,,,,,0,58,58,32,1,A,X,N,o1_image,stimuli/out1.png,stimuli/correct_out1.png,stimuli/out2.png,,,,,,,,,,,,,,,,,,,,,,,,,,,,,,,,,,,,,,
,,5be59ce3520a3300010e28a9,35,female,2024-04-24_11h33.33.762,stockport_simplified,2022.2.4,Win32,15.01501502,661e456ee6de07e70aa9ef7b,6628df8841f59130a2be9d84,,,,,,,,,,,,,,,,,,,,,,,,,,,,,,,,,,563.0936,567.1014,"[2,7,5,3,4,1,8,6]","[[-0.3,0.2],[0.3,0.2]]","[[0.125,-0.2],[-0.125,-0.2]]",0.117361111,-0.205555556,1,0,0,3.4401,o1_image,567.1021,1,567.1032,567.1032,569.1888,0,0,0,0,1,,,,,,,,,,,,,,,,,,,,,,,,,,,,,,,,,,,,,,,,,,,,,,,,,,
,,5be59ce3520a3300010e28a9,35,female,2024-04-24_11h33.33.762,stockport_simplified,2022.2.4,Win32,15.01501502,661e456ee6de07e70aa9ef7b,6628df8841f59130a2be9d84,,,,,,,,,,,,,,,,,,,,,,,,,,,,,,,,,,,,,,,,,,,,,,,,,,,,,,,,0,59,59,0,1,A,X,N,o1_image,stimuli/out1.png,stimuli/correct_out1.png,stimuli/out2.png,,,,,,,,,,,,,,,,,,,,,,,,,,,,,,,,,,,,,,
,,5be59ce3520a3300010e28a9,35,female,2024-04-24_11h33.33.762,stockport_simplified,2022.2.4,Win32,15.01501502,661e456ee6de07e70aa9ef7b,6628df8841f59130a2be9d84,,,,,,,,,,,,,,,,,,,,,,,,,,,,,,,,,,569.1893,572.4857,"[2,7,5,3,4,1,8,6]","[[0.3,0.2],[-0.3,0.2]]","[[0.125,-0.2],[-0.125,-0.2]]",-0.085416667,-0.1875,1,0,0,2.7143,o2_image,572.4866,1,572.4879,572.488,574.6273,0,0,0,0,1,,,,,,,,,,,,,,,,,,,,,,,,,,,,,,,,,,,,,,,,,,,,,,,,,,
,,5be59ce3520a3300010e28a9,35,female,2024-04-24_11h33.33.762,stockport_simplified,2022.2.4,Win32,15.01501502,661e456ee6de07e70aa9ef7b,6628df8841f59130a2be9d84,,,,,,,,,,,,,,,,,,,,,,,,,,,,,,,,,,,,,,,,,,,,,,,,,,,,,,,,1,0,60,11,1,B,X,N,o2_image,stimuli/out2.png,stimuli/out1.png,stimuli/correct_out2.png,,,,,,,,,,,,,,,,,,,,,,,,,,,,,,,,,,,,,,
,,5be59ce3520a3300010e28a9,35,female,2024-04-24_11h33.33.762,stockport_simplified,2022.2.4,Win32,15.01501502,661e456ee6de07e70aa9ef7b,6628df8841f59130a2be9d84,,,,,,,,,,,,,,,,,,,,,,,,,,,,,,,,,,574.6279,581.4325,"[2,7,5,3,4,1,8,6]","[[-0.3,0.2],[0.3,0.2]]","[[0.125,-0.2],[-0.125,-0.2]]",-0.123611111,-0.197916667,1,0,0,6.1008,o2_image,581.4332,1,581.4342,581.4342,583.1961,0,0,0,0,1,,,,,,,,,,,,,,,,,,,,,,,,,,,,,,,,,,,,,,,,,,,,,,,,,,
,,5be59ce3520a3300010e28a9,35,female,2024-04-24_11h33.33.762,stockport_simplified,2022.2.4,Win32,15.01501502,661e456ee6de07e70aa9ef7b,6628df8841f59130a2be9d84,,,,,,,,,,,,,,,,,,,,,,,,,,,,,,,,,,,,,,,,,,,,,,,,,,,,,,,,1,1,61,41,1,B,X,N,o2_image,stimuli/out2.png,stimuli/out1.png,stimuli/correct_out2.png,,,,,,,,,,,,,,,,,,,,,,,,,,,,,,,,,,,,,,
,,5be59ce3520a3300010e28a9,35,female,2024-04-24_11h33.33.762,stockport_simplified,2022.2.4,Win32,15.01501502,661e456ee6de07e70aa9ef7b,6628df8841f59130a2be9d84,,,,,,,,,,,,,,,,,,,,,,,,,,,,,,,,,,583.1966,587.7965,"[2,7,5,3,4,1,8,6]","[[0.3,0.2],[-0.3,0.2]]","[[0.125,-0.2],[-0.125,-0.2]]",0.136111111,-0.197222222,1,0,0,3.873,o1_image,587.7974,1,588.23,588.23,590.1787,0,0,0,0,1,,,,,,,,,,,,,,,,,,,,,,,,,,,,,,,,,,,,,,,,,,,,,,,,,,
,,5be59ce3520a3300010e28a9,35,female,2024-04-24_11h33.33.762,stockport_simplified,2022.2.4,Win32,15.01501502,661e456ee6de07e70aa9ef7b,6628df8841f59130a2be9d84,,,,,,,,,,,,,,,,,,,,,,,,,,,,,,,,,,,,,,,,,,,,,,,,,,,,,,,,1,2,62,50,1,N,M,C,o1_image,stimuli/out1.png,stimuli/correct_out1.png,stimuli/out2.png,,,,,,,,,,,,,,,,,,,,,,,,,,,,,,,,,,,,,,
,,5be59ce3520a3300010e28a9,35,female,2024-04-24_11h33.33.762,stockport_simplified,2022.2.4,Win32,15.01501502,661e456ee6de07e70aa9ef7b,6628df8841f59130a2be9d84,,,,,,,,,,,,,,,,,,,,,,,,,,,,,,,,,,590.179,592.4157,"[2,7,5,3,4,1,8,6]","[[0.3,0.2],[-0.3,0.2]]","[[0.125,-0.2],[-0.125,-0.2]]",-0.127083333,-0.181944444,1,0,0,1.5795,o2_image,592.4164,1,592.8499,592.8499,594.7758,0,0,0,0,1,,,,,,,,,,,,,,,,,,,,,,,,,,,,,,,,,,,,,,,,,,,,,,,,,,
,,5be59ce3520a3300010e28a9,35,female,2024-04-24_11h33.33.762,stockport_simplified,2022.2.4,Win32,15.01501502,661e456ee6de07e70aa9ef7b,6628df8841f59130a2be9d84,,,,,,,,,,,,,,,,,,,,,,,,,,,,,,,,,,,,,,,,,,,,,,,,,,,,,,,,1,3,63,57,1,N,M,D,o2_image,stimuli/out2.png,stimuli/out1.png,stimuli/correct_out2.png,,,,,,,,,,,,,,,,,,,,,,,,,,,,,,,,,,,,,,
,,5be59ce3520a3300010e28a9,35,female,2024-04-24_11h33.33.762,stockport_simplified,2022.2.4,Win32,15.01501502,661e456ee6de07e70aa9ef7b,6628df8841f59130a2be9d84,,,,,,,,,,,,,,,,,,,,,,,,,,,,,,,,,,594.7761,599.0294,"[2,7,5,3,4,1,8,6]","[[-0.3,0.2],[0.3,0.2]]","[[-0.125,-0.2],[0.125,-0.2]]",0.141666667,-0.199305556,1,0,0,3.5698,o2_image,599.0303,1,599.4338,599.4339,601.409,0,0,0,0,1,,,,,,,,,,,,,,,,,,,,,,,,,,,,,,,,,,,,,,,,,,,,,,,,,,
,,5be59ce3520a3300010e28a9,35,female,2024-04-24_11h33.33.762,stockport_simplified,2022.2.4,Win32,15.01501502,661e456ee6de07e70aa9ef7b,6628df8841f59130a2be9d84,,,,,,,,,,,,,,,,,,,,,,,,,,,,,,,,,,,,,,,,,,,,,,,,,,,,,,,,1,4,64,55,1,N,M,D,o2_image,stimuli/out2.png,stimuli/out1.png,stimuli/correct_out2.png,,,,,,,,,,,,,,,,,,,,,,,,,,,,,,,,,,,,,,
,,5be59ce3520a3300010e28a9,35,female,2024-04-24_11h33.33.762,stockport_simplified,2022.2.4,Win32,15.01501502,661e456ee6de07e70aa9ef7b,6628df8841f59130a2be9d84,,,,,,,,,,,,,,,,,,,,,,,,,,,,,,,,,,601.4094,607.1423,"[2,7,5,3,4,1,8,6]","[[0.3,0.2],[-0.3,0.2]]","[[0.125,-0.2],[-0.125,-0.2]]",-0.150694444,-0.192361111,1,0,0,5.0286,o2_image,607.1497,1,607.6134,607.6134,609.4405,0,0,0,0,1,,,,,,,,,,,,,,,,,,,,,,,,,,,,,,,,,,,,,,,,,,,,,,,,,,
,,5be59ce3520a3300010e28a9,35,female,2024-04-24_11h33.33.762,stockport_simplified,2022.2.4,Win32,15.01501502,661e456ee6de07e70aa9ef7b,6628df8841f59130a2be9d84,,,,,,,,,,,,,,,,,,,,,,,,,,,,,,,,,,,,,,,,,,,,,,,,,,,,,,,,1,5,65,48,1,B,Y,N,o2_image,stimuli/out2.png,stimuli/out1.png,stimuli/correct_out2.png,,,,,,,,,,,,,,,,,,,,,,,,,,,,,,,,,,,,,,
,,5be59ce3520a3300010e28a9,35,female,2024-04-24_11h33.33.762,stockport_simplified,2022.2.4,Win32,15.01501502,661e456ee6de07e70aa9ef7b,6628df8841f59130a2be9d84,,,,,,,,,,,,,,,,,,,,,,,,,,,,,,,,,,609.4407,617.9939,"[2,7,5,3,4,1,8,6]","[[-0.3,0.2],[0.3,0.2]]","[[-0.125,-0.2],[0.125,-0.2]]",0.111805556,-0.168055556,1,0,0,7.773,o2_image,618.0063,1,618.0073,618.0073,619.6376,0,0,0,0,1,,,,,,,,,,,,,,,,,,,,,,,,,,,,,,,,,,,,,,,,,,,,,,,,,,
,,5be59ce3520a3300010e28a9,35,female,2024-04-24_11h33.33.762,stockport_simplified,2022.2.4,Win32,15.01501502,661e456ee6de07e70aa9ef7b,6628df8841f59130a2be9d84,,,,,,,,,,,,,,,,,,,,,,,,,,,,,,,,,,,,,,,,,,,,,,,,,,,,,,,,1,6,66,15,1,B,Y,N,o2_image,stimuli/out2.png,stimuli/out1.png,stimuli/correct_out2.png,,,,,,,,,,,,,,,,,,,,,,,,,,,,,,,,,,,,,,
,,5be59ce3520a3300010e28a9,35,female,2024-04-24_11h33.33.762,stockport_simplified,2022.2.4,Win32,15.01501502,661e456ee6de07e70aa9ef7b,6628df8841f59130a2be9d84,,,,,,,,,,,,,,,,,,,,,,,,,,,,,,,,,,619.638,622.4656,"[2,7,5,3,4,1,8,6]","[[0.3,0.2],[-0.3,0.2]]","[[0.125,-0.2],[-0.125,-0.2]]",0.124305556,-0.191666667,1,0,0,2.2201,o1_image,622.4666,0,622.4677,622.4678,623.9739,0,0,0,0,1,,,,,,,,,,,,,,,,,,,,,,,,,,,,,,,,,,,,,,,,,,,,,,,,,,
,,5be59ce3520a3300010e28a9,35,female,2024-04-24_11h33.33.762,stockport_simplified,2022.2.4,Win32,15.01501502,661e456ee6de07e70aa9ef7b,6628df8841f59130a2be9d84,,,,,,,,,,,,,,,,,,,,,,,,,,,,,,,,,,,,,,,,,,,,,,,,,,,,,,,,1,7,67,18,1,B,Y,N,o2_image,stimuli/out2.png,stimuli/out1.png,stimuli/correct_out2.png,,,,,,,,,,,,,,,,,,,,,,,,,,,,,,,,,,,,,,
,,5be59ce3520a3300010e28a9,35,female,2024-04-24_11h33.33.762,stockport_simplified,2022.2.4,Win32,15.01501502,661e456ee6de07e70aa9ef7b,6628df8841f59130a2be9d84,,,,,,,,,,,,,,,,,,,,,,,,,,,,,,,,,,623.9746,629.7488,"[2,7,5,3,4,1,8,6]","[[0.3,0.2],[-0.3,0.2]]","[[0.125,-0.2],[-0.125,-0.2]]",-0.09375,-0.195833333,1,0,0,5.0403,o2_image,629.7495,0,629.7505,629.7505,631.8509,0,0,0,0,1,,,,,,,,,,,,,,,,,,,,,,,,,,,,,,,,,,,,,,,,,,,,,,,,,,
,,5be59ce3520a3300010e28a9,35,female,2024-04-24_11h33.33.762,stockport_simplified,2022.2.4,Win32,15.01501502,661e456ee6de07e70aa9ef7b,6628df8841f59130a2be9d84,,,,,,,,,,,,,,,,,,,,,,,,,,,,,,,,,,,,,,,,,,,,,,,,,,,,,,,,1,8,68,37,1,A,Y,N,o1_image,stimuli/out1.png,stimuli/correct_out1.png,stimuli/out2.png,,,,,,,,,,,,,,,,,,,,,,,,,,,,,,,,,,,,,,
,,5be59ce3520a3300010e28a9,35,female,2024-04-24_11h33.33.762,stockport_simplified,2022.2.4,Win32,15.01501502,661e456ee6de07e70aa9ef7b,6628df8841f59130a2be9d84,,,,,,,,,,,,,,,,,,,,,,,,,,,,,,,,,,631.8514,635.2967,"[2,7,5,3,4,1,8,6]","[[-0.3,0.2],[0.3,0.2]]","[[-0.125,-0.2],[0.125,-0.2]]",0.152777778,-0.198611111,1,0,0,2.7849,o2_image,635.2974,0,635.2984,635.2984,637.4051,0,0,0,0,1,,,,,,,,,,,,,,,,,,,,,,,,,,,,,,,,,,,,,,,,,,,,,,,,,,
,,5be59ce3520a3300010e28a9,35,female,2024-04-24_11h33.33.762,stockport_simplified,2022.2.4,Win32,15.01501502,661e456ee6de07e70aa9ef7b,6628df8841f59130a2be9d84,,,,,,,,,,,,,,,,,,,,,,,,,,,,,,,,,,,,,,,,,,,,,,,,,,,,,,,,1,9,69,0,1,A,X,N,o1_image,stimuli/out1.png,stimuli/correct_out1.png,stimuli/out2.png,,,,,,,,,,,,,,,,,,,,,,,,,,,,,,,,,,,,,,
,,5be59ce3520a3300010e28a9,35,female,2024-04-24_11h33.33.762,stockport_simplified,2022.2.4,Win32,15.01501502,661e456ee6de07e70aa9ef7b,6628df8841f59130a2be9d84,,,,,,,,,,,,,,,,,,,,,,,,,,,,,,,,,,637.4055,640.1481,"[2,7,5,3,4,1,8,6]","[[-0.3,0.2],[0.3,0.2]]","[[0.125,-0.2],[-0.125,-0.2]]",-0.15625,-0.197222222,1,0,0,2.152,o2_image,640.1489,1,640.1504,640.1505,642.2705,0,0,0,0,1,,,,,,,,,,,,,,,,,,,,,,,,,,,,,,,,,,,,,,,,,,,,,,,,,,
,,5be59ce3520a3300010e28a9,35,female,2024-04-24_11h33.33.762,stockport_simplified,2022.2.4,Win32,15.01501502,661e456ee6de07e70aa9ef7b,6628df8841f59130a2be9d84,,,,,,,,,,,,,,,,,,,,,,,,,,,,,,,,,,,,,,,,,,,,,,,,,,,,,,,,1,10,70,25,1,N,M,D,o2_image,stimuli/out2.png,stimuli/out1.png,stimuli/correct_out2.png,,,,,,,,,,,,,,,,,,,,,,,,,,,,,,,,,,,,,,
,,5be59ce3520a3300010e28a9,35,female,2024-04-24_11h33.33.762,stockport_simplified,2022.2.4,Win32,15.01501502,661e456ee6de07e70aa9ef7b,6628df8841f59130a2be9d84,,,,,,,,,,,,,,,,,,,,,,,,,,,,,,,,,,642.2709,646.4875,"[2,7,5,3,4,1,8,6]","[[-0.3,0.2],[0.3,0.2]]","[[-0.125,-0.2],[0.125,-0.2]]",0.099305556,-0.195138889,1,0,0,3.6044,o2_image,646.4883,1,646.4893,646.4893,648.5369,0,0,0,0,1,,,,,,,,,,,,,,,,,,,,,,,,,,,,,,,,,,,,,,,,,,,,,,,,,,
,,5be59ce3520a3300010e28a9,35,female,2024-04-24_11h33.33.762,stockport_simplified,2022.2.4,Win32,15.01501502,661e456ee6de07e70aa9ef7b,6628df8841f59130a2be9d84,,,,,,,,,,,,,,,,,,,,,,,,,,,,,,,,,,,,,,,,,,,,,,,,,,,,,,,,1,11,71,58,1,N,M,D,o2_image,stimuli/out2.png,stimuli/out1.png,stimuli/correct_out2.png,,,,,,,,,,,,,,,,,,,,,,,,,,,,,,,,,,,,,,
,,5be59ce3520a3300010e28a9,35,female,2024-04-24_11h33.33.762,stockport_simplified,2022.2.4,Win32,15.01501502,661e456ee6de07e70aa9ef7b,6628df8841f59130a2be9d84,,,,,,,,,,,,,,,,,,,,,,,,,,,,,,,,,,648.5373,651.2671,"[2,7,5,3,4,1,8,6]","[[-0.3,0.2],[0.3,0.2]]","[[-0.125,-0.2],[0.125,-0.2]]",0.08125,-0.181944444,1,0,0,2.1159,o2_image,651.2679,1,651.2689,651.2689,653.3644,0,0,0,0,1,,,,,,,,,,,,,,,,,,,,,,,,,,,,,,,,,,,,,,,,,,,,,,,,,,
,,5be59ce3520a3300010e28a9,35,female,2024-04-24_11h33.33.762,stockport_simplified,2022.2.4,Win32,15.01501502,661e456ee6de07e70aa9ef7b,6628df8841f59130a2be9d84,,,,,,,,,,,,,,,,,,,,,,,,,,,,,,,,,,,,,,,,,,,,,,,,,,,,,,,,1,12,72,56,1,N,M,D,o2_image,stimuli/out2.png,stimuli/out1.png,stimuli/correct_out2.png,,,,,,,,,,,,,,,,,,,,,,,,,,,,,,,,,,,,,,
,,5be59ce3520a3300010e28a9,35,female,2024-04-24_11h33.33.762,stockport_simplified,2022.2.4,Win32,15.01501502,661e456ee6de07e70aa9ef7b,6628df8841f59130a2be9d84,,,,,,,,,,,,,,,,,,,,,,,,,,,,,,,,,,653.365,660.3805,"[2,7,5,3,4,1,8,6]","[[0.3,0.2],[-0.3,0.2]]","[[0.125,-0.2],[-0.125,-0.2]]",-0.098611111,-0.161805556,1,0,0,6.4196,o2_image,660.3813,0,660.3829,660.3829,662.4792,0,0,0,0,1,,,,,,,,,,,,,,,,,,,,,,,,,,,,,,,,,,,,,,,,,,,,,,,,,,
,,5be59ce3520a3300010e28a9,35,female,2024-04-24_11h33.33.762,stockport_simplified,2022.2.4,Win32,15.01501502,661e456ee6de07e70aa9ef7b,6628df8841f59130a2be9d84,,,,,,,,,,,,,,,,,,,,,,,,,,,,,,,,,,,,,,,,,,,,,,,,,,,,,,,,1,13,73,9,1,A,Y,N,o1_image,stimuli/out1.png,stimuli/correct_out1.png,stimuli/out2.png,,,,,,,,,,,,,,,,,,,,,,,,,,,,,,,,,,,,,,
,,5be59ce3520a3300010e28a9,35,female,2024-04-24_11h33.33.762,stockport_simplified,2022.2.4,Win32,15.01501502,661e456ee6de07e70aa9ef7b,6628df8841f59130a2be9d84,,,,,,,,,,,,,,,,,,,,,,,,,,,,,,,,,,662.4797,670.1035,"[2,7,5,3,4,1,8,6]","[[0.3,0.2],[-0.3,0.2]]","[[-0.125,-0.2],[0.125,-0.2]]",0.122222222,-0.190972222,1,0,0,7.0149,o2_image,670.1162,1,670.1174,670.1174,672.1887,0,0,0,0,1,,,,,,,,,,,,,,,,,,,,,,,,,,,,,,,,,,,,,,,,,,,,,,,,,,
,,5be59ce3520a3300010e28a9,35,female,2024-04-24_11h33.33.762,stockport_simplified,2022.2.4,Win32,15.01501502,661e456ee6de07e70aa9ef7b,6628df8841f59130a2be9d84,,,,,,,,,,,,,,,,,,,,,,,,,,,,,,,,,,,,,,,,,,,,,,,,,,,,,,,,1,14,74,45,1,B,Y,N,o2_image,stimuli/out2.png,stimuli/out1.png,stimuli/correct_out2.png,,,,,,,,,,,,,,,,,,,,,,,,,,,,,,,,,,,,,,
,,5be59ce3520a3300010e28a9,35,female,2024-04-24_11h33.33.762,stockport_simplified,2022.2.4,Win32,15.01501502,661e456ee6de07e70aa9ef7b,6628df8841f59130a2be9d84,,,,,,,,,,,,,,,,,,,,,,,,,,,,,,,,,,672.1891,674.9253,"[2,7,5,3,4,1,8,6]","[[-0.3,0.2],[0.3,0.2]]","[[-0.125,-0.2],[0.125,-0.2]]",-0.096527778,-0.18125,1,0,0,2.1374,o1_image,674.9261,0,674.9274,674.9274,677.0595,0,0,0,0,1,,,,,,,,,,,,,,,,,,,,,,,,,,,,,,,,,,,,,,,,,,,,,,,,,,
,,5be59ce3520a3300010e28a9,35,female,2024-04-24_11h33.33.762,stockport_simplified,2022.2.4,Win32,15.01501502,661e456ee6de07e70aa9ef7b,6628df8841f59130a2be9d84,,,,,,,,,,,,,,,,,,,,,,,,,,,,,,,,,,,,,,,,,,,,,,,,,,,,,,,,1,15,75,19,1,B,Y,N,o2_image,stimuli/out2.png,stimuli/out1.png,stimuli/correct_out2.png,,,,,,,,,,,,,,,,,,,,,,,,,,,,,,,,,,,,,,
,,5be59ce3520a3300010e28a9,35,female,2024-04-24_11h33.33.762,stockport_simplified,2022.2.4,Win32,15.01501502,661e456ee6de07e70aa9ef7b,6628df8841f59130a2be9d84,,,,,,,,,,,,,,,,,,,,,,,,,,,,,,,,,,677.06,680.3707,"[2,7,5,3,4,1,8,6]","[[0.3,0.2],[-0.3,0.2]]","[[-0.125,-0.2],[0.125,-0.2]]",0.15625,-0.201388889,1,0,0,2.7112,o2_image,680.3715,1,680.3726,680.3726,682.4341,0,0,0,0,1,,,,,,,,,,,,,,,,,,,,,,,,,,,,,,,,,,,,,,,,,,,,,,,,,,
,,5be59ce3520a3300010e28a9,35,female,2024-04-24_11h33.33.762,stockport_simplified,2022.2.4,Win32,15.01501502,661e456ee6de07e70aa9ef7b,6628df8841f59130a2be9d84,,,,,,,,,,,,,,,,,,,,,,,,,,,,,,,,,,,,,,,,,,,,,,,,,,,,,,,,1,16,76,14,1,B,X,N,o2_image,stimuli/out2.png,stimuli/out1.png,stimuli/correct_out2.png,,,,,,,,,,,,,,,,,,,,,,,,,,,,,,,,,,,,,,
,,5be59ce3520a3300010e28a9,35,female,2024-04-24_11h33.33.762,stockport_simplified,2022.2.4,Win32,15.01501502,661e456ee6de07e70aa9ef7b,6628df8841f59130a2be9d84,,,,,,,,,,,,,,,,,,,,,,,,,,,,,,,,,,682.4346,684.5861,"[2,7,5,3,4,1,8,6]","[[-0.3,0.2],[0.3,0.2]]","[[-0.125,-0.2],[0.125,-0.2]]",-0.116666667,-0.194444444,1,0,0,1.4916,o1_image,684.5868,1,684.9988,684.9989,686.9367,0,0,0,0,1,,,,,,,,,,,,,,,,,,,,,,,,,,,,,,,,,,,,,,,,,,,,,,,,,,
,,5be59ce3520a3300010e28a9,35,female,2024-04-24_11h33.33.762,stockport_simplified,2022.2.4,Win32,15.01501502,661e456ee6de07e70aa9ef7b,6628df8841f59130a2be9d84,,,,,,,,,,,,,,,,,,,,,,,,,,,,,,,,,,,,,,,,,,,,,,,,,,,,,,,,1,17,77,2,1,A,X,N,o1_image,stimuli/out1.png,stimuli/correct_out1.png,stimuli/out2.png,,,,,,,,,,,,,,,,,,,,,,,,,,,,,,,,,,,,,,
,,5be59ce3520a3300010e28a9,35,female,2024-04-24_11h33.33.762,stockport_simplified,2022.2.4,Win32,15.01501502,661e456ee6de07e70aa9ef7b,6628df8841f59130a2be9d84,,,,,,,,,,,,,,,,,,,,,,,,,,,,,,,,,,686.937,689.9396,"[2,7,5,3,4,1,8,6]","[[-0.3,0.2],[0.3,0.2]]","[[-0.125,-0.2],[0.125,-0.2]]",0.091666667,-0.182638889,1,0,0,2.3402,o2_image,689.94,0,690.3208,690.3208,692.2925,0,0,0,0,1,,,,,,,,,,,,,,,,,,,,,,,,,,,,,,,,,,,,,,,,,,,,,,,,,,
,,5be59ce3520a3300010e28a9,35,female,2024-04-24_11h33.33.762,stockport_simplified,2022.2.4,Win32,15.01501502,661e456ee6de07e70aa9ef7b,6628df8841f59130a2be9d84,,,,,,,,,,,,,,,,,,,,,,,,,,,,,,,,,,,,,,,,,,,,,,,,,,,,,,,,1,18,78,5,1,A,Y,N,o1_image,stimuli/out1.png,stimuli/correct_out1.png,stimuli/out2.png,,,,,,,,,,,,,,,,,,,,,,,,,,,,,,,,,,,,,,
,,5be59ce3520a3300010e28a9,35,female,2024-04-24_11h33.33.762,stockport_simplified,2022.2.4,Win32,15.01501502,661e456ee6de07e70aa9ef7b,6628df8841f59130a2be9d84,,,,,,,,,,,,,,,,,,,,,,,,,,,,,,,,,,692.2929,698.3278,"[2,7,5,3,4,1,8,6]","[[0.3,0.2],[-0.3,0.2]]","[[-0.125,-0.2],[0.125,-0.2]]",-0.120138889,-0.185416667,1,0,0,5.3621,o1_image,698.3349,1,698.7491,698.7491,700.666,0,0,0,0,1,,,,,,,,,,,,,,,,,,,,,,,,,,,,,,,,,,,,,,,,,,,,,,,,,,
,,5be59ce3520a3300010e28a9,35,female,2024-04-24_11h33.33.762,stockport_simplified,2022.2.4,Win32,15.01501502,661e456ee6de07e70aa9ef7b,6628df8841f59130a2be9d84,,,,,,,,,,,,,,,,,,,,,,,,,,,,,,,,,,,,,,,,,,,,,,,,,,,,,,,,1,19,79,21,1,N,M,C,o1_image,stimuli/out1.png,stimuli/correct_out1.png,stimuli/out2.png,,,,,,,,,,,,,,,,,,,,,,,,,,,,,,,,,,,,,,
,,5be59ce3520a3300010e28a9,35,female,2024-04-24_11h33.33.762,stockport_simplified,2022.2.4,Win32,15.01501502,661e456ee6de07e70aa9ef7b,6628df8841f59130a2be9d84,,,,,,,,,,,,,,,,,,,,,,,,,,,,,,,,,,700.6664,703.7111,"[2,7,5,3,4,1,8,6]","[[0.3,0.2],[-0.3,0.2]]","[[0.125,-0.2],[-0.125,-0.2]]",-0.101388889,-0.1875,1,0,0,2.3492,o2_image,703.7117,0,704.1289,704.1289,706.1492,0,0,0,0,1,,,,,,,,,,,,,,,,,,,,,,,,,,,,,,,,,,,,,,,,,,,,,,,,,,
,,5be59ce3520a3300010e28a9,35,female,2024-04-24_11h33.33.762,stockport_simplified,2022.2.4,Win32,15.01501502,661e456ee6de07e70aa9ef7b,6628df8841f59130a2be9d84,,,,,,,,,,,,,,,,,,,,,,,,,,,,,,,,,,,,,,,,,,,,,,,,,,,,,,,,1,20,80,24,1,N,M,C,o1_image,stimuli/out1.png,stimuli/correct_out1.png,stimuli/out2.png,,,,,,,,,,,,,,,,,,,,,,,,,,,,,,,,,,,,,,
,,5be59ce3520a3300010e28a9,35,female,2024-04-24_11h33.33.762,stockport_simplified,2022.2.4,Win32,15.01501502,661e456ee6de07e70aa9ef7b,6628df8841f59130a2be9d84,,,,,,,,,,,,,,,,,,,,,,,,,,,,,,,,,,706.1495,709.3516,"[2,7,5,3,4,1,8,6]","[[-0.3,0.2],[0.3,0.2]]","[[0.125,-0.2],[-0.125,-0.2]]",0.134722222,-0.196527778,1,0,0,2.5048,o1_image,709.3522,1,709.8039,709.804,711.5942,0,0,0,0,1,,,,,,,,,,,,,,,,,,,,,,,,,,,,,,,,,,,,,,,,,,,,,,,,,,
,,5be59ce3520a3300010e28a9,35,female,2024-04-24_11h33.33.762,stockport_simplified,2022.2.4,Win32,15.01501502,661e456ee6de07e70aa9ef7b,6628df8841f59130a2be9d84,,,,,,,,,,,,,,,,,,,,,,,,,,,,,,,,,,,,,,,,,,,,,,,,,,,,,,,,1,21,81,3,1,A,X,N,o1_image,stimuli/out1.png,stimuli/correct_out1.png,stimuli/out2.png,,,,,,,,,,,,,,,,,,,,,,,,,,,,,,,,,,,,,,
,,5be59ce3520a3300010e28a9,35,female,2024-04-24_11h33.33.762,stockport_simplified,2022.2.4,Win32,15.01501502,661e456ee6de07e70aa9ef7b,6628df8841f59130a2be9d84,,,,,,,,,,,,,,,,,,,,,,,,,,,,,,,,,,711.5945,714.9238,"[2,7,5,3,4,1,8,6]","[[0.3,0.2],[-0.3,0.2]]","[[-0.125,-0.2],[0.125,-0.2]]",-0.1375,-0.177777778,1,0,0,2.5216,o1_image,714.9249,1,715.8287,715.8288,717.5392,0,0,0,0,1,,,,,,,,,,,,,,,,,,,,,,,,,,,,,,,,,,,,,,,,,,,,,,,,,,
,,5be59ce3520a3300010e28a9,35,female,2024-04-24_11h33.33.762,stockport_simplified,2022.2.4,Win32,15.01501502,661e456ee6de07e70aa9ef7b,6628df8841f59130a2be9d84,,,,,,,,,,,,,,,,,,,,,,,,,,,,,,,,,,,,,,,,,,,,,,,,,,,,,,,,1,22,82,1,1,A,X,N,o1_image,stimuli/out1.png,stimuli/correct_out1.png,stimuli/out2.png,,,,,,,,,,,,,,,,,,,,,,,,,,,,,,,,,,,,,,
,,5be59ce3520a3300010e28a9,35,female,2024-04-24_11h33.33.762,stockport_simplified,2022.2.4,Win32,15.01501502,661e456ee6de07e70aa9ef7b,6628df8841f59130a2be9d84,,,,,,,,,,,,,,,,,,,,,,,,,,,,,,,,,,717.5397,722.9632,"[2,7,5,3,4,1,8,6]","[[0.3,0.2],[-0.3,0.2]]","[[-0.125,-0.2],[0.125,-0.2]]",-0.126388889,-0.184722222,1,0,0,4.6357,o1_image,722.964,1,722.9659,722.9659,724.515,0,0,0,0,1,,,,,,,,,,,,,,,,,,,,,,,,,,,,,,,,,,,,,,,,,,,,,,,,,,
,,5be59ce3520a3300010e28a9,35,female,2024-04-24_11h33.33.762,stockport_simplified,2022.2.4,Win32,15.01501502,661e456ee6de07e70aa9ef7b,6628df8841f59130a2be9d84,,,,,,,,,,,,,,,,,,,,,,,,,,,,,,,,,,,,,,,,,,,,,,,,,,,,,,,,1,23,83,52,1,N,M,C,o1_image,stimuli/out1.png,stimuli/correct_out1.png,stimuli/out2.png,,,,,,,,,,,,,,,,,,,,,,,,,,,,,,,,,,,,,,
,,5be59ce3520a3300010e28a9,35,female,2024-04-24_11h33.33.762,stockport_simplified,2022.2.4,Win32,15.01501502,661e456ee6de07e70aa9ef7b,6628df8841f59130a2be9d84,,,,,,,,,,,,,,,,,,,,,,,,,,,,,,,,,,724.5154,731.1685,"[2,7,5,3,4,1,8,6]","[[0.3,0.2],[-0.3,0.2]]","[[0.125,-0.2],[-0.125,-0.2]]",-0.126388889,-0.183333333,1,0,0,6.0575,o2_image,731.1695,0,731.1716,731.1716,732.9235,0,0,0,0,1,,,,,,,,,,,,,,,,,,,,,,,,,,,,,,,,,,,,,,,,,,,,,,,,,,
,,5be59ce3520a3300010e28a9,35,female,2024-04-24_11h33.33.762,stockport_simplified,2022.2.4,Win32,15.01501502,661e456ee6de07e70aa9ef7b,6628df8841f59130a2be9d84,,,,,,,,,,,,,,,,,,,,,,,,,,,,,,,,,,,,,,,,,,,,,,,,,,,,,,,,1,24,84,7,1,A,Y,N,o1_image,stimuli/out1.png,stimuli/correct_out1.png,stimuli/out2.png,,,,,,,,,,,,,,,,,,,,,,,,,,,,,,,,,,,,,,
,,5be59ce3520a3300010e28a9,35,female,2024-04-24_11h33.33.762,stockport_simplified,2022.2.4,Win32,15.01501502,661e456ee6de07e70aa9ef7b,6628df8841f59130a2be9d84,,,,,,,,,,,,,,,,,,,,,,,,,,,,,,,,,,732.924,738.5258,"[2,7,5,3,4,1,8,6]","[[0.3,0.2],[-0.3,0.2]]","[[0.125,-0.2],[-0.125,-0.2]]",-0.113194444,-0.195833333,1,0,0,5.0013,o2_image,738.5359,0,738.5366,738.5366,740.6878,0,0,0,0,1,,,,,,,,,,,,,,,,,,,,,,,,,,,,,,,,,,,,,,,,,,,,,,,,,,
,,5be59ce3520a3300010e28a9,35,female,2024-04-24_11h33.33.762,stockport_simplified,2022.2.4,Win32,15.01501502,661e456ee6de07e70aa9ef7b,6628df8841f59130a2be9d84,,,,,,,,,,,,,,,,,,,,,,,,,,,,,,,,,,,,,,,,,,,,,,,,,,,,,,,,1,25,85,31,1,A,X,N,o1_image,stimuli/out1.png,stimuli/correct_out1.png,stimuli/out2.png,,,,,,,,,,,,,,,,,,,,,,,,,,,,,,,,,,,,,,
,,5be59ce3520a3300010e28a9,35,female,2024-04-24_11h33.33.762,stockport_simplified,2022.2.4,Win32,15.01501502,661e456ee6de07e70aa9ef7b,6628df8841f59130a2be9d84,,,,,,,,,,,,,,,,,,,,,,,,,,,,,,,,,,740.6883,743.4896,"[2,7,5,3,4,1,8,6]","[[-0.3,0.2],[0.3,0.2]]","[[0.125,-0.2],[-0.125,-0.2]]",0.122222222,-0.194444444,1,0,0,2.1909,o1_image,743.4904,0,743.4917,743.4918,745.6283,0,0,0,0,1,,,,,,,,,,,,,,,,,,,,,,,,,,,,,,,,,,,,,,,,,,,,,,,,,,
,,5be59ce3520a3300010e28a9,35,female,2024-04-24_11h33.33.762,stockport_simplified,2022.2.4,Win32,15.01501502,661e456ee6de07e70aa9ef7b,6628df8841f59130a2be9d84,,,,,,,,,,,,,,,,,,,,,,,,,,,,,,,,,,,,,,,,,,,,,,,,,,,,,,,,1,26,86,59,1,N,M,D,o2_image,stimuli/out2.png,stimuli/out1.png,stimuli/correct_out2.png,,,,,,,,,,,,,,,,,,,,,,,,,,,,,,,,,,,,,,
,,5be59ce3520a3300010e28a9,35,female,2024-04-24_11h33.33.762,stockport_simplified,2022.2.4,Win32,15.01501502,661e456ee6de07e70aa9ef7b,6628df8841f59130a2be9d84,,,,,,,,,,,,,,,,,,,,,,,,,,,,,,,,,,745.629,747.6769,"[2,7,5,3,4,1,8,6]","[[-0.3,0.2],[0.3,0.2]]","[[-0.125,-0.2],[0.125,-0.2]]",0.146527778,-0.185416667,1,0,0,1.4197,o2_image,747.6778,1,747.6795,747.6795,749.8055,0,0,0,0,1,,,,,,,,,,,,,,,,,,,,,,,,,,,,,,,,,,,,,,,,,,,,,,,,,,
,,5be59ce3520a3300010e28a9,35,female,2024-04-24_11h33.33.762,stockport_simplified,2022.2.4,Win32,15.01501502,661e456ee6de07e70aa9ef7b,6628df8841f59130a2be9d84,,,,,,,,,,,,,,,,,,,,,,,,,,,,,,,,,,,,,,,,,,,,,,,,,,,,,,,,1,27,87,46,1,B,Y,N,o2_image,stimuli/out2.png,stimuli/out1.png,stimuli/correct_out2.png,,,,,,,,,,,,,,,,,,,,,,,,,,,,,,,,,,,,,,
,,5be59ce3520a3300010e28a9,35,female,2024-04-24_11h33.33.762,stockport_simplified,2022.2.4,Win32,15.01501502,661e456ee6de07e70aa9ef7b,6628df8841f59130a2be9d84,,,,,,,,,,,,,,,,,,,,,,,,,,,,,,,,,,749.806,752.5265,"[2,7,5,3,4,1,8,6]","[[0.3,0.2],[-0.3,0.2]]","[[0.125,-0.2],[-0.125,-0.2]]",-0.129861111,-0.201388889,1,0,0,2.1226,o2_image,752.5272,1,752.5284,752.5284,754.7711,0,0,0,0,1,,,,,,,,,,,,,,,,,,,,,,,,,,,,,,,,,,,,,,,,,,,,,,,,,,
,,5be59ce3520a3300010e28a9,35,female,2024-04-24_11h33.33.762,stockport_simplified,2022.2.4,Win32,15.01501502,661e456ee6de07e70aa9ef7b,6628df8841f59130a2be9d84,,,,,,,,,,,,,,,,,,,,,,,,,,,,,,,,,,,,,,,,,,,,,,,,,,,,,,,,1,28,88,44,1,B,X,N,o2_image,stimuli/out2.png,stimuli/out1.png,stimuli/correct_out2.png,,,,,,,,,,,,,,,,,,,,,,,,,,,,,,,,,,,,,,
,,5be59ce3520a3300010e28a9,35,female,2024-04-24_11h33.33.762,stockport_simplified,2022.2.4,Win32,15.01501502,661e456ee6de07e70aa9ef7b,6628df8841f59130a2be9d84,,,,,,,,,,,,,,,,,,,,,,,,,,,,,,,,,,754.7716,759.155,"[2,7,5,3,4,1,8,6]","[[0.3,0.2],[-0.3,0.2]]","[[0.125,-0.2],[-0.125,-0.2]]",0.135416667,-0.188194444,1,0,0,3.7614,o1_image,759.1558,0,759.157,759.157,761.1971,0,0,0,0,1,,,,,,,,,,,,,,,,,,,,,,,,,,,,,,,,,,,,,,,,,,,,,,,,,,
,,5be59ce3520a3300010e28a9,35,female,2024-04-24_11h33.33.762,stockport_simplified,2022.2.4,Win32,15.01501502,661e456ee6de07e70aa9ef7b,6628df8841f59130a2be9d84,,,,,,,,,,,,,,,,,,,,,,,,,,,,,,,,,,,,,,,,,,,,,,,,,,,,,,,,1,29,89,49,1,B,Y,N,o2_image,stimuli/out2.png,stimuli/out1.png,stimuli/correct_out2.png,,,,,,,,,,,,,,,,,,,,,,,,,,,,,,,,,,,,,,
,,5be59ce3520a3300010e28a9,35,female,2024-04-24_11h33.33.762,stockport_simplified,2022.2.4,Win32,15.01501502,661e456ee6de07e70aa9ef7b,6628df8841f59130a2be9d84,,,,,,,,,,,,,,,,,,,,,,,,,,,,,,,,,,761.1977,763.8777,"[2,7,5,3,4,1,8,6]","[[-0.3,0.2],[0.3,0.2]]","[[-0.125,-0.2],[0.125,-0.2]]",0.108333333,-0.178472222,1,0,0,2.0661,o2_image,763.8784,0,763.8795,763.8795,765.9922,0,0,0,0,1,,,,,,,,,,,,,,,,,,,,,,,,,,,,,,,,,,,,,,,,,,,,,,,,,,
,,5be59ce3520a3300010e28a9,35,female,2024-04-24_11h33.33.762,stockport_simplified,2022.2.4,Win32,15.01501502,661e456ee6de07e70aa9ef7b,6628df8841f59130a2be9d84,,,,,,,,,,,,,,,,,,,,,,,,,,,,,,,,,,,,,,,,,,,,,,,,,,,,,,,,1,30,90,22,1,N,M,C,o1_image,stimuli/out1.png,stimuli/correct_out1.png,stimuli/out2.png,,,,,,,,,,,,,,,,,,,,,,,,,,,,,,,,,,,,,,
,,5be59ce3520a3300010e28a9,35,female,2024-04-24_11h33.33.762,stockport_simplified,2022.2.4,Win32,15.01501502,661e456ee6de07e70aa9ef7b,6628df8841f59130a2be9d84,,,,,,,,,,,,,,,,,,,,,,,,,,,,,,,,,,765.9926,777.2601,"[2,7,5,3,4,1,8,6]","[[0.3,0.2],[-0.3,0.2]]","[[-0.125,-0.2],[0.125,-0.2]]",,,,,,,,,,,,,,,,,,1,31,91,34,1,A,X,N,o1_image,stimuli/out1.png,stimuli/correct_out1.png,stimuli/out2.png,,,,,,,,,,,,,,,,,,,,,,,,,,,,,,,,,,,,,,
,,5be59ce3520a3300010e28a9,35,female,2024-04-24_11h33.33.762,stockport_simplified,2022.2.4,Win32,15.01501502,661e456ee6de07e70aa9ef7b,6628df8841f59130a2be9d84,,,,,,,,,,,,,,,,,,,,,,,,,,,,,,,,,,777.2717,780.6161,"[2,7,5,3,4,1,8,6]","[[-0.3,0.2],[0.3,0.2]]","[[-0.125,-0.2],[0.125,-0.2]]",-0.126388889,-0.196527778,1,0,0,2.7666,o1_image,780.617,0,780.6186,780.6186,782.1968,0,0,0,0,1,,,,,,,,,,,,,,,,,,,,,,,,,,,,,,,,,,,,,,,,,,,,,,,,,,
,,5be59ce3520a3300010e28a9,35,female,2024-04-24_11h33.33.762,stockport_simplified,2022.2.4,Win32,15.01501502,661e456ee6de07e70aa9ef7b,6628df8841f59130a2be9d84,,,,,,,,,,,,,,,,,,,,,,,,,,,,,,,,,,,,,,,,,,,,,,,,,,,,,,,,1,32,92,47,1,B,Y,N,o2_image,stimuli/out2.png,stimuli/out1.png,stimuli/correct_out2.png,,,,,,,,,,,,,,,,,,,,,,,,,,,,,,,,,,,,,,
,,5be59ce3520a3300010e28a9,35,female,2024-04-24_11h33.33.762,stockport_simplified,2022.2.4,Win32,15.01501502,661e456ee6de07e70aa9ef7b,6628df8841f59130a2be9d84,,,,,,,,,,,,,,,,,,,,,,,,,,,,,,,,,,782.1973,784.4746,"[2,7,5,3,4,1,8,6]","[[-0.3,0.2],[0.3,0.2]]","[[-0.125,-0.2],[0.125,-0.2]]",0.148611111,-0.190972222,1,0,0,1.6711,o2_image,784.4749,1,784.8823,784.8825,786.7696,0,0,0,0,1,,,,,,,,,,,,,,,,,,,,,,,,,,,,,,,,,,,,,,,,,,,,,,,,,,
,,5be59ce3520a3300010e28a9,35,female,2024-04-24_11h33.33.762,stockport_simplified,2022.2.4,Win32,15.01501502,661e456ee6de07e70aa9ef7b,6628df8841f59130a2be9d84,,,,,,,,,,,,,,,,,,,,,,,,,,,,,,,,,,,,,,,,,,,,,,,,,,,,,,,,1,33,93,10,1,B,X,N,o2_image,stimuli/out2.png,stimuli/out1.png,stimuli/correct_out2.png,,,,,,,,,,,,,,,,,,,,,,,,,,,,,,,,,,,,,,
,,5be59ce3520a3300010e28a9,35,female,2024-04-24_11h33.33.762,stockport_simplified,2022.2.4,Win32,15.01501502,661e456ee6de07e70aa9ef7b,6628df8841f59130a2be9d84,,,,,,,,,,,,,,,,,,,,,,,,,,,,,,,,,,786.7699,788.919,"[2,7,5,3,4,1,8,6]","[[0.3,0.2],[-0.3,0.2]]","[[-0.125,-0.2],[0.125,-0.2]]",0.149305556,-0.19375,1,0,0,1.4966,o2_image,788.9196,1,789.3211,789.3211,791.1943,0,0,0,0,1,,,,,,,,,,,,,,,,,,,,,,,,,,,,,,,,,,,,,,,,,,,,,,,,,,
,,5be59ce3520a3300010e28a9,35,female,2024-04-24_11h33.33.762,stockport_simplified,2022.2.4,Win32,15.01501502,661e456ee6de07e70aa9ef7b,6628df8841f59130a2be9d84,,,,,,,,,,,,,,,,,,,,,,,,,,,,,,,,,,,,,,,,,,,,,,,,,,,,,,,,1,34,94,13,1,B,X,N,o2_image,stimuli/out2.png,stimuli/out1.png,stimuli/correct_out2.png,,,,,,,,,,,,,,,,,,,,,,,,,,,,,,,,,,,,,,
,,5be59ce3520a3300010e28a9,35,female,2024-04-24_11h33.33.762,stockport_simplified,2022.2.4,Win32,15.01501502,661e456ee6de07e70aa9ef7b,6628df8841f59130a2be9d84,,,,,,,,,,,,,,,,,,,,,,,,,,,,,,,,,,791.1944,795.3274,"[2,7,5,3,4,1,8,6]","[[-0.3,0.2],[0.3,0.2]]","[[0.125,-0.2],[-0.125,-0.2]]",-0.138888889,-0.190277778,1,0,0,3.4671,o2_image,795.3279,1,795.7147,795.7147,797.6381,0,0,0,0,1,,,,,,,,,,,,,,,,,,,,,,,,,,,,,,,,,,,,,,,,,,,,,,,,,,
,,5be59ce3520a3300010e28a9,35,female,2024-04-24_11h33.33.762,stockport_simplified,2022.2.4,Win32,15.01501502,661e456ee6de07e70aa9ef7b,6628df8841f59130a2be9d84,,,,,,,,,,,,,,,,,,,,,,,,,,,,,,,,,,,,,,,,,,,,,,,,,,,,,,,,1,35,95,27,1,N,M,D,o2_image,stimuli/out2.png,stimuli/out1.png,stimuli/correct_out2.png,,,,,,,,,,,,,,,,,,,,,,,,,,,,,,,,,,,,,,
,,5be59ce3520a3300010e28a9,35,female,2024-04-24_11h33.33.762,stockport_simplified,2022.2.4,Win32,15.01501502,661e456ee6de07e70aa9ef7b,6628df8841f59130a2be9d84,,,,,,,,,,,,,,,,,,,,,,,,,,,,,,,,,,797.6384,800.2243,"[2,7,5,3,4,1,8,6]","[[0.3,0.2],[-0.3,0.2]]","[[0.125,-0.2],[-0.125,-0.2]]",0.146527778,-0.185416667,1,0,0,1.9139,o1_image,800.225,1,800.607,800.607,802.5846,0,0,0,0,1,,,,,,,,,,,,,,,,,,,,,,,,,,,,,,,,,,,,,,,,,,,,,,,,,,
,,5be59ce3520a3300010e28a9,35,female,2024-04-24_11h33.33.762,stockport_simplified,2022.2.4,Win32,15.01501502,661e456ee6de07e70aa9ef7b,6628df8841f59130a2be9d84,,,,,,,,,,,,,,,,,,,,,,,,,,,,,,,,,,,,,,,,,,,,,,,,,,,,,,,,1,36,96,51,1,N,M,C,o1_image,stimuli/out1.png,stimuli/correct_out1.png,stimuli/out2.png,,,,,,,,,,,,,,,,,,,,,,,,,,,,,,,,,,,,,,
,,5be59ce3520a3300010e28a9,35,female,2024-04-24_11h33.33.762,stockport_simplified,2022.2.4,Win32,15.01501502,661e456ee6de07e70aa9ef7b,6628df8841f59130a2be9d84,,,,,,,,,,,,,,,,,,,,,,,,,,,,,,,,,,802.5849,804.8716,"[2,7,5,3,4,1,8,6]","[[0.3,0.2],[-0.3,0.2]]","[[-0.125,-0.2],[0.125,-0.2]]",-0.109027778,-0.170833333,1,0,0,1.5915,o1_image,804.8724,1,805.261,805.2611,807.2673,0,0,0,0,1,,,,,,,,,,,,,,,,,,,,,,,,,,,,,,,,,,,,,,,,,,,,,,,,,,
,,5be59ce3520a3300010e28a9,35,female,2024-04-24_11h33.33.762,stockport_simplified,2022.2.4,Win32,15.01501502,661e456ee6de07e70aa9ef7b,6628df8841f59130a2be9d84,,,,,,,,,,,,,,,,,,,,,,,,,,,,,,,,,,,,,,,,,,,,,,,,,,,,,,,,1,37,97,23,1,N,M,C,o1_image,stimuli/out1.png,stimuli/correct_out1.png,stimuli/out2.png,,,,,,,,,,,,,,,,,,,,,,,,,,,,,,,,,,,,,,
,,5be59ce3520a3300010e28a9,35,female,2024-04-24_11h33.33.762,stockport_simplified,2022.2.4,Win32,15.01501502,661e456ee6de07e70aa9ef7b,6628df8841f59130a2be9d84,,,,,,,,,,,,,,,,,,,,,,,,,,,,,,,,,,807.2676,809.6301,"[2,7,5,3,4,1,8,6]","[[0.3,0.2],[-0.3,0.2]]","[[-0.125,-0.2],[0.125,-0.2]]",-0.109027778,-0.170138889,1,0,0,1.6098,o1_image,809.6307,1,810.0603,810.0603,811.7778,0,0,0,0,1,,,,,,,,,,,,,,,,,,,,,,,,,,,,,,,,,,,,,,,,,,,,,,,,,,
,,5be59ce3520a3300010e28a9,35,female,2024-04-24_11h33.33.762,stockport_simplified,2022.2.4,Win32,15.01501502,661e456ee6de07e70aa9ef7b,6628df8841f59130a2be9d84,,,,,,,,,,,,,,,,,,,,,,,,,,,,,,,,,,,,,,,,,,,,,,,,,,,,,,,,1,38,98,53,1,N,M,C,o1_image,stimuli/out1.png,stimuli/correct_out1.png,stimuli/out2.png,,,,,,,,,,,,,,,,,,,,,,,,,,,,,,,,,,,,,,
,,5be59ce3520a3300010e28a9,35,female,2024-04-24_11h33.33.762,stockport_simplified,2022.2.4,Win32,15.01501502,661e456ee6de07e70aa9ef7b,6628df8841f59130a2be9d84,,,,,,,,,,,,,,,,,,,,,,,,,,,,,,,,,,811.7782,815.7152,"[2,7,5,3,4,1,8,6]","[[-0.3,0.2],[0.3,0.2]]","[[-0.125,-0.2],[0.125,-0.2]]",0.09375,-0.191666667,1,0,0,3.1768,o2_image,815.7159,1,816.4455,816.4455,818.2118,0,0,0,0,1,,,,,,,,,,,,,,,,,,,,,,,,,,,,,,,,,,,,,,,,,,,,,,,,,,
,,5be59ce3520a3300010e28a9,35,female,2024-04-24_11h33.33.762,stockport_simplified,2022.2.4,Win32,15.01501502,661e456ee6de07e70aa9ef7b,6628df8841f59130a2be9d84,,,,,,,,,,,,,,,,,,,,,,,,,,,,,,,,,,,,,,,,,,,,,,,,,,,,,,,,1,39,99,17,1,B,Y,N,o2_image,stimuli/out2.png,stimuli/out1.png,stimuli/correct_out2.png,,,,,,,,,,,,,,,,,,,,,,,,,,,,,,,,,,,,,,
,,5be59ce3520a3300010e28a9,35,female,2024-04-24_11h33.33.762,stockport_simplified,2022.2.4,Win32,15.01501502,661e456ee6de07e70aa9ef7b,6628df8841f59130a2be9d84,,,,,,,,,,,,,,,,,,,,,,,,,,,,,,,,,,818.2126,825.7324,"[2,7,5,3,4,1,8,6]","[[-0.3,0.2],[0.3,0.2]]","[[-0.125,-0.2],[0.125,-0.2]]",0.125,-0.183333333,1,0,0,6.7915,o2_image,825.7455,1,825.7467,825.7467,827.2541,0,0,0,0,1,,,,,,,,,,,,,,,,,,,,,,,,,,,,,,,,,,,,,,,,,,,,,,,,,,
,,5be59ce3520a3300010e28a9,35,female,2024-04-24_11h33.33.762,stockport_simplified,2022.2.4,Win32,15.01501502,661e456ee6de07e70aa9ef7b,6628df8841f59130a2be9d84,,,,,,,,,,,,,,,,,,,,,,,,,,,,,,,,,,,,,,,,,,,,,,,,,,,,,,,,1,40,100,28,1,N,M,D,o2_image,stimuli/out2.png,stimuli/out1.png,stimuli/correct_out2.png,,,,,,,,,,,,,,,,,,,,,,,,,,,,,,,,,,,,,,
,,5be59ce3520a3300010e28a9,35,female,2024-04-24_11h33.33.762,stockport_simplified,2022.2.4,Win32,15.01501502,661e456ee6de07e70aa9ef7b,6628df8841f59130a2be9d84,,,,,,,,,,,,,,,,,,,,,,,,,,,,,,,,,,827.2545,835.2432,"[2,7,5,3,4,1,8,6]","[[0.3,0.2],[-0.3,0.2]]","[[0.125,-0.2],[-0.125,-0.2]]",0.150694444,-0.165277778,1,0,0,7.3776,o1_image,835.2518,1,835.2526,835.2526,837.3692,0,0,0,0,1,,,,,,,,,,,,,,,,,,,,,,,,,,,,,,,,,,,,,,,,,,,,,,,,,,
,,5be59ce3520a3300010e28a9,35,female,2024-04-24_11h33.33.762,stockport_simplified,2022.2.4,Win32,15.01501502,661e456ee6de07e70aa9ef7b,6628df8841f59130a2be9d84,,,,,,,,,,,,,,,,,,,,,,,,,,,,,,,,,,,,,,,,,,,,,,,,,,,,,,,,1,41,101,4,1,A,X,N,o1_image,stimuli/out1.png,stimuli/correct_out1.png,stimuli/out2.png,,,,,,,,,,,,,,,,,,,,,,,,,,,,,,,,,,,,,,
,,5be59ce3520a3300010e28a9,35,female,2024-04-24_11h33.33.762,stockport_simplified,2022.2.4,Win32,15.01501502,661e456ee6de07e70aa9ef7b,6628df8841f59130a2be9d84,,,,,,,,,,,,,,,,,,,,,,,,,,,,,,,,,,837.3695,842.4731,"[2,7,5,3,4,1,8,6]","[[0.3,0.2],[-0.3,0.2]]","[[-0.125,-0.2],[0.125,-0.2]]",-0.115277778,-0.186805556,1,0,0,4.5002,o1_image,842.4743,0,842.4764,842.4764,843.9966,0,0,0,0,1,,,,,,,,,,,,,,,,,,,,,,,,,,,,,,,,,,,,,,,,,,,,,,,,,,
,,5be59ce3520a3300010e28a9,35,female,2024-04-24_11h33.33.762,stockport_simplified,2022.2.4,Win32,15.01501502,661e456ee6de07e70aa9ef7b,6628df8841f59130a2be9d84,,,,,,,,,,,,,,,,,,,,,,,,,,,,,,,,,,,,,,,,,,,,,,,,,,,,,,,,1,42,102,40,1,B,X,N,o2_image,stimuli/out2.png,stimuli/out1.png,stimuli/correct_out2.png,,,,,,,,,,,,,,,,,,,,,,,,,,,,,,,,,,,,,,
,,5be59ce3520a3300010e28a9,35,female,2024-04-24_11h33.33.762,stockport_simplified,2022.2.4,Win32,15.01501502,661e456ee6de07e70aa9ef7b,6628df8841f59130a2be9d84,,,,,,,,,,,,,,,,,,,,,,,,,,,,,,,,,,843.9972,846.6996,"[2,7,5,3,4,1,8,6]","[[0.3,0.2],[-0.3,0.2]]","[[-0.125,-0.2],[0.125,-0.2]]",0.104861111,-0.195833333,1,0,0,2.1106,o2_image,846.7004,0,846.7015,846.7015,848.8054,0,0,0,0,1,,,,,,,,,,,,,,,,,,,,,,,,,,,,,,,,,,,,,,,,,,,,,,,,,,
,,5be59ce3520a3300010e28a9,35,female,2024-04-24_11h33.33.762,stockport_simplified,2022.2.4,Win32,15.01501502,661e456ee6de07e70aa9ef7b,6628df8841f59130a2be9d84,,,,,,,,,,,,,,,,,,,,,,,,,,,,,,,,,,,,,,,,,,,,,,,,,,,,,,,,1,43,103,33,1,A,X,N,o1_image,stimuli/out1.png,stimuli/correct_out1.png,stimuli/out2.png,,,,,,,,,,,,,,,,,,,,,,,,,,,,,,,,,,,,,,
,,5be59ce3520a3300010e28a9,35,female,2024-04-24_11h33.33.762,stockport_simplified,2022.2.4,Win32,15.01501502,661e456ee6de07e70aa9ef7b,6628df8841f59130a2be9d84,,,,,,,,,,,,,,,,,,,,,,,,,,,,,,,,,,848.8061,859.9742,"[2,7,5,3,4,1,8,6]","[[0.3,0.2],[-0.3,0.2]]","[[0.125,-0.2],[-0.125,-0.2]]",,,,,,,,859.975,0,859.9765,859.9765,862.1506,0,0,0,0,1,,,,,,,,,,,,,,,,,,,,,,,,,,,,,,,,,,,,,,,,,,,,,,,,,,
,,5be59ce3520a3300010e28a9,35,female,2024-04-24_11h33.33.762,stockport_simplified,2022.2.4,Win32,15.01501502,661e456ee6de07e70aa9ef7b,6628df8841f59130a2be9d84,,,,,,,,,,,,,,,,,,,,,,,,,,,,,,,,,,,,,,,,,,,,,,,,,,,,,,,,1,44,104,30,1,A,X,N,o1_image,stimuli/out1.png,stimuli/correct_out1.png,stimuli/out2.png,,,,,,,,,,,,,,,,,,,,,,,,,,,,,,,,,,,,,,
,,5be59ce3520a3300010e28a9,35,female,2024-04-24_11h33.33.762,stockport_simplified,2022.2.4,Win32,15.01501502,661e456ee6de07e70aa9ef7b,6628df8841f59130a2be9d84,,,,,,,,,,,,,,,,,,,,,,,,,,,,,,,,,,862.151,866.2742,"[2,7,5,3,4,1,8,6]","[[-0.3,0.2],[0.3,0.2]]","[[0.125,-0.2],[-0.125,-0.2]]",0.143055556,-0.173611111,1,0,0,3.5528,o1_image,866.2752,1,866.2768,866.2768,868.4116,0,0,0,0,1,,,,,,,,,,,,,,,,,,,,,,,,,,,,,,,,,,,,,,,,,,,,,,,,,,
,,5be59ce3520a3300010e28a9,35,female,2024-04-24_11h33.33.762,stockport_simplified,2022.2.4,Win32,15.01501502,661e456ee6de07e70aa9ef7b,6628df8841f59130a2be9d84,,,,,,,,,,,,,,,,,,,,,,,,,,,,,,,,,,,,,,,,,,,,,,,,,,,,,,,,1,45,105,54,1,N,M,C,o1_image,stimuli/out1.png,stimuli/correct_out1.png,stimuli/out2.png,,,,,,,,,,,,,,,,,,,,,,,,,,,,,,,,,,,,,,
,,5be59ce3520a3300010e28a9,35,female,2024-04-24_11h33.33.762,stockport_simplified,2022.2.4,Win32,15.01501502,661e456ee6de07e70aa9ef7b,6628df8841f59130a2be9d84,,,,,,,,,,,,,,,,,,,,,,,,,,,,,,,,,,868.4121,871.8507,"[2,7,5,3,4,1,8,6]","[[0.3,0.2],[-0.3,0.2]]","[[0.125,-0.2],[-0.125,-0.2]]",-0.09375,-0.177777778,1,0,0,2.83,o2_image,871.8514,0,871.8528,871.8528,873.9463,0,0,0,0,1,,,,,,,,,,,,,,,,,,,,,,,,,,,,,,,,,,,,,,,,,,,,,,,,,,
,,5be59ce3520a3300010e28a9,35,female,2024-04-24_11h33.33.762,stockport_simplified,2022.2.4,Win32,15.01501502,661e456ee6de07e70aa9ef7b,6628df8841f59130a2be9d84,,,,,,,,,,,,,,,,,,,,,,,,,,,,,,,,,,,,,,,,,,,,,,,,,,,,,,,,1,46,106,32,1,A,X,N,o1_image,stimuli/out1.png,stimuli/correct_out1.png,stimuli/out2.png,,,,,,,,,,,,,,,,,,,,,,,,,,,,,,,,,,,,,,
,,5be59ce3520a3300010e28a9,35,female,2024-04-24_11h33.33.762,stockport_simplified,2022.2.4,Win32,15.01501502,661e456ee6de07e70aa9ef7b,6628df8841f59130a2be9d84,,,,,,,,,,,,,,,,,,,,,,,,,,,,,,,,,,873.9466,875.9075,"[2,7,5,3,4,1,8,6]","[[0.3,0.2],[-0.3,0.2]]","[[0.125,-0.2],[-0.125,-0.2]]",0.13125,-0.175694444,1,0,0,1.4179,o1_image,875.9083,1,875.9095,875.9095,877.9168,0,0,0,0,1,,,,,,,,,,,,,,,,,,,,,,,,,,,,,,,,,,,,,,,,,,,,,,,,,,
,,5be59ce3520a3300010e28a9,35,female,2024-04-24_11h33.33.762,stockport_simplified,2022.2.4,Win32,15.01501502,661e456ee6de07e70aa9ef7b,6628df8841f59130a2be9d84,,,,,,,,,,,,,,,,,,,,,,,,,,,,,,,,,,,,,,,,,,,,,,,,,,,,,,,,1,47,107,39,1,A,Y,N,o1_image,stimuli/out1.png,stimuli/correct_out1.png,stimuli/out2.png,,,,,,,,,,,,,,,,,,,,,,,,,,,,,,,,,,,,,,
,,5be59ce3520a3300010e28a9,35,female,2024-04-24_11h33.33.762,stockport_simplified,2022.2.4,Win32,15.01501502,661e456ee6de07e70aa9ef7b,6628df8841f59130a2be9d84,,,,,,,,,,,,,,,,,,,,,,,,,,,,,,,,,,877.9172,884.0962,"[2,7,5,3,4,1,8,6]","[[0.3,0.2],[-0.3,0.2]]","[[0.125,-0.2],[-0.125,-0.2]]",-0.1125,-0.177083333,1,0,0,5.6004,o2_image,884.1049,1,884.4974,884.4975,886.4306,0,0,0,0,1,,,,,,,,,,,,,,,,,,,,,,,,,,,,,,,,,,,,,,,,,,,,,,,,,,
,,5be59ce3520a3300010e28a9,35,female,2024-04-24_11h33.33.762,stockport_simplified,2022.2.4,Win32,15.01501502,661e456ee6de07e70aa9ef7b,6628df8841f59130a2be9d84,,,,,,,,,,,,,,,,,,,,,,,,,,,,,,,,,,,,,,,,,,,,,,,,,,,,,,,,1,48,108,26,1,N,M,D,o2_image,stimuli/out2.png,stimuli/out1.png,stimuli/correct_out2.png,,,,,,,,,,,,,,,,,,,,,,,,,,,,,,,,,,,,,,
,,5be59ce3520a3300010e28a9,35,female,2024-04-24_11h33.33.762,stockport_simplified,2022.2.4,Win32,15.01501502,661e456ee6de07e70aa9ef7b,6628df8841f59130a2be9d84,,,,,,,,,,,,,,,,,,,,,,,,,,,,,,,,,,886.431,889.3511,"[2,7,5,3,4,1,8,6]","[[-0.3,0.2],[0.3,0.2]]","[[0.125,-0.2],[-0.125,-0.2]]",0.123611111,-0.179166667,1,0,0,2.2707,o1_image,889.3518,1,889.7419,889.742,891.7002,0,0,0,0,1,,,,,,,,,,,,,,,,,,,,,,,,,,,,,,,,,,,,,,,,,,,,,,,,,,
,,5be59ce3520a3300010e28a9,35,female,2024-04-24_11h33.33.762,stockport_simplified,2022.2.4,Win32,15.01501502,661e456ee6de07e70aa9ef7b,6628df8841f59130a2be9d84,,,,,,,,,,,,,,,,,,,,,,,,,,,,,,,,,,,,,,,,,,,,,,,,,,,,,,,,1,49,109,38,1,A,Y,N,o1_image,stimuli/out1.png,stimuli/correct_out1.png,stimuli/out2.png,,,,,,,,,,,,,,,,,,,,,,,,,,,,,,,,,,,,,,
,,5be59ce3520a3300010e28a9,35,female,2024-04-24_11h33.33.762,stockport_simplified,2022.2.4,Win32,15.01501502,661e456ee6de07e70aa9ef7b,6628df8841f59130a2be9d84,,,,,,,,,,,,,,,,,,,,,,,,,,,,,,,,,,891.7006,894.6483,"[2,7,5,3,4,1,8,6]","[[0.3,0.2],[-0.3,0.2]]","[[-0.125,-0.2],[0.125,-0.2]]",-0.122222222,-0.178472222,1,0,0,2.2699,o1_image,894.6487,1,895.0308,895.0308,896.7732,0,0,0,0,1,,,,,,,,,,,,,,,,,,,,,,,,,,,,,,,,,,,,,,,,,,,,,,,,,,
,,5be59ce3520a3300010e28a9,35,female,2024-04-24_11h33.33.762,stockport_simplified,2022.2.4,Win32,15.01501502,661e456ee6de07e70aa9ef7b,6628df8841f59130a2be9d84,,,,,,,,,,,,,,,,,,,,,,,,,,,,,,,,,,,,,,,,,,,,,,,,,,,,,,,,1,50,110,6,1,A,Y,N,o1_image,stimuli/out1.png,stimuli/correct_out1.png,stimuli/out2.png,,,,,,,,,,,,,,,,,,,,,,,,,,,,,,,,,,,,,,
,,5be59ce3520a3300010e28a9,35,female,2024-04-24_11h33.33.762,stockport_simplified,2022.2.4,Win32,15.01501502,661e456ee6de07e70aa9ef7b,6628df8841f59130a2be9d84,,,,,,,,,,,,,,,,,,,,,,,,,,,,,,,,,,896.7737,898.6875,"[2,7,5,3,4,1,8,6]","[[-0.3,0.2],[0.3,0.2]]","[[0.125,-0.2],[-0.125,-0.2]]",0.101388889,-0.195833333,1,0,0,1.2049,o1_image,898.6881,1,899.0944,899.0945,901.0327,0,0,0,0,1,,,,,,,,,,,,,,,,,,,,,,,,,,,,,,,,,,,,,,,,,,,,,,,,,,
,,5be59ce3520a3300010e28a9,35,female,2024-04-24_11h33.33.762,stockport_simplified,2022.2.4,Win32,15.01501502,661e456ee6de07e70aa9ef7b,6628df8841f59130a2be9d84,,,,,,,,,,,,,,,,,,,,,,,,,,,,,,,,,,,,,,,,,,,,,,,,,,,,,,,,1,51,111,8,1,A,Y,N,o1_image,stimuli/out1.png,stimuli/correct_out1.png,stimuli/out2.png,,,,,,,,,,,,,,,,,,,,,,,,,,,,,,,,,,,,,,
,,5be59ce3520a3300010e28a9,35,female,2024-04-24_11h33.33.762,stockport_simplified,2022.2.4,Win32,15.01501502,661e456ee6de07e70aa9ef7b,6628df8841f59130a2be9d84,,,,,,,,,,,,,,,,,,,,,,,,,,,,,,,,,,901.0331,903.2712,"[2,7,5,3,4,1,8,6]","[[0.3,0.2],[-0.3,0.2]]","[[-0.125,-0.2],[0.125,-0.2]]",-0.127777778,-0.200694444,1,0,0,1.5527,o1_image,903.2717,1,903.6621,903.6621,905.6835,0,0,0,0,1,,,,,,,,,,,,,,,,,,,,,,,,,,,,,,,,,,,,,,,,,,,,,,,,,,
,,5be59ce3520a3300010e28a9,35,female,2024-04-24_11h33.33.762,stockport_simplified,2022.2.4,Win32,15.01501502,661e456ee6de07e70aa9ef7b,6628df8841f59130a2be9d84,,,,,,,,,,,,,,,,,,,,,,,,,,,,,,,,,,,,,,,,,,,,,,,,,,,,,,,,1,52,112,36,1,A,Y,N,o1_image,stimuli/out1.png,stimuli/correct_out1.png,stimuli/out2.png,,,,,,,,,,,,,,,,,,,,,,,,,,,,,,,,,,,,,,
,,5be59ce3520a3300010e28a9,35,female,2024-04-24_11h33.33.762,stockport_simplified,2022.2.4,Win32,15.01501502,661e456ee6de07e70aa9ef7b,6628df8841f59130a2be9d84,,,,,,,,,,,,,,,,,,,,,,,,,,,,,,,,,,905.6839,907.6695,"[2,7,5,3,4,1,8,6]","[[-0.3,0.2],[0.3,0.2]]","[[-0.125,-0.2],[0.125,-0.2]]",0.117361111,-0.147222222,1,0,0,1.2914,o2_image,907.6704,0,908.1251,908.1252,910.2074,0,0,0,0,1,,,,,,,,,,,,,,,,,,,,,,,,,,,,,,,,,,,,,,,,,,,,,,,,,,
,,5be59ce3520a3300010e28a9,35,female,2024-04-24_11h33.33.762,stockport_simplified,2022.2.4,Win32,15.01501502,661e456ee6de07e70aa9ef7b,6628df8841f59130a2be9d84,,,,,,,,,,,,,,,,,,,,,,,,,,,,,,,,,,,,,,,,,,,,,,,,,,,,,,,,1,53,113,20,1,N,M,C,o1_image,stimuli/out1.png,stimuli/correct_out1.png,stimuli/out2.png,,,,,,,,,,,,,,,,,,,,,,,,,,,,,,,,,,,,,,
,,5be59ce3520a3300010e28a9,35,female,2024-04-24_11h33.33.762,stockport_simplified,2022.2.4,Win32,15.01501502,661e456ee6de07e70aa9ef7b,6628df8841f59130a2be9d84,,,,,,,,,,,,,,,,,,,,,,,,,,,,,,,,,,910.2079,919.3983,"[2,7,5,3,4,1,8,6]","[[0.3,0.2],[-0.3,0.2]]","[[0.125,-0.2],[-0.125,-0.2]]",0.124305556,-0.181944444,1,0,0,8.44,o1_image,919.4101,0,919.4112,919.4112,921.1216,0,0,0,0,1,,,,,,,,,,,,,,,,,,,,,,,,,,,,,,,,,,,,,,,,,,,,,,,,,,
,,5be59ce3520a3300010e28a9,35,female,2024-04-24_11h33.33.762,stockport_simplified,2022.2.4,Win32,15.01501502,661e456ee6de07e70aa9ef7b,6628df8841f59130a2be9d84,,,,,,,,,,,,,,,,,,,,,,,,,,,,,,,,,,,,,,,,,,,,,,,,,,,,,,,,1,54,114,16,1,B,Y,N,o2_image,stimuli/out2.png,stimuli/out1.png,stimuli/correct_out2.png,,,,,,,,,,,,,,,,,,,,,,,,,,,,,,,,,,,,,,
,,5be59ce3520a3300010e28a9,35,female,2024-04-24_11h33.33.762,stockport_simplified,2022.2.4,Win32,15.01501502,661e456ee6de07e70aa9ef7b,6628df8841f59130a2be9d84,,,,,,,,,,,,,,,,,,,,,,,,,,,,,,,,,,921.1219,924.8405,"[2,7,5,3,4,1,8,6]","[[0.3,0.2],[-0.3,0.2]]","[[0.125,-0.2],[-0.125,-0.2]]",0.104166667,-0.1875,1,0,0,3.1098,o1_image,924.8415,0,924.8427,924.8427,926.4346,0,0,0,0,1,,,,,,,,,,,,,,,,,,,,,,,,,,,,,,,,,,,,,,,,,,,,,,,,,,
,,5be59ce3520a3300010e28a9,35,female,2024-04-24_11h33.33.762,stockport_simplified,2022.2.4,Win32,15.01501502,661e456ee6de07e70aa9ef7b,6628df8841f59130a2be9d84,,,,,,,,,,,,,,,,,,,,,,,,,,,,,,,,,,,,,,,,,,,,,,,,,,,,,,,,1,55,115,12,1,B,X,N,o2_image,stimuli/out2.png,stimuli/out1.png,stimuli/correct_out2.png,,,,,,,,,,,,,,,,,,,,,,,,,,,,,,,,,,,,,,
,,5be59ce3520a3300010e28a9,35,female,2024-04-24_11h33.33.762,stockport_simplified,2022.2.4,Win32,15.01501502,661e456ee6de07e70aa9ef7b,6628df8841f59130a2be9d84,,,,,,,,,,,,,,,,,,,,,,,,,,,,,,,,,,926.4352,935.2771,"[2,7,5,3,4,1,8,6]","[[0.3,0.2],[-0.3,0.2]]","[[-0.125,-0.2],[0.125,-0.2]]",-0.115972222,-0.207638889,1,0,0,8.1244,o1_image,935.2889,0,935.2898,935.2898,936.9202,0,0,0,0,1,,,,,,,,,,,,,,,,,,,,,,,,,,,,,,,,,,,,,,,,,,,,,,,,,,
,,5be59ce3520a3300010e28a9,35,female,2024-04-24_11h33.33.762,stockport_simplified,2022.2.4,Win32,15.01501502,661e456ee6de07e70aa9ef7b,6628df8841f59130a2be9d84,,,,,,,,,,,,,,,,,,,,,,,,,,,,,,,,,,,,,,,,,,,,,,,,,,,,,,,,1,56,116,42,1,B,X,N,o2_image,stimuli/out2.png,stimuli/out1.png,stimuli/correct_out2.png,,,,,,,,,,,,,,,,,,,,,,,,,,,,,,,,,,,,,,
,,5be59ce3520a3300010e28a9,35,female,2024-04-24_11h33.33.762,stockport_simplified,2022.2.4,Win32,15.01501502,661e456ee6de07e70aa9ef7b,6628df8841f59130a2be9d84,,,,,,,,,,,,,,,,,,,,,,,,,,,,,,,,,,936.9209,941.1268,"[2,7,5,3,4,1,8,6]","[[-0.3,0.2],[0.3,0.2]]","[[-0.125,-0.2],[0.125,-0.2]]",0.142361111,-0.208333333,1,0,0,3.5929,o2_image,941.1274,1,941.1286,941.1287,942.5916,0,0,0,0,1,,,,,,,,,,,,,,,,,,,,,,,,,,,,,,,,,,,,,,,,,,,,,,,,,,
,,5be59ce3520a3300010e28a9,35,female,2024-04-24_11h33.33.762,stockport_simplified,2022.2.4,Win32,15.01501502,661e456ee6de07e70aa9ef7b,6628df8841f59130a2be9d84,,,,,,,,,,,,,,,,,,,,,,,,,,,,,,,,,,,,,,,,,,,,,,,,,,,,,,,,1,57,117,29,1,N,M,D,o2_image,stimuli/out2.png,stimuli/out1.png,stimuli/correct_out2.png,,,,,,,,,,,,,,,,,,,,,,,,,,,,,,,,,,,,,,
,,5be59ce3520a3300010e28a9,35,female,2024-04-24_11h33.33.762,stockport_simplified,2022.2.4,Win32,15.01501502,661e456ee6de07e70aa9ef7b,6628df8841f59130a2be9d84,,,,,,,,,,,,,,,,,,,,,,,,,,,,,,,,,,942.5921,946.076,"[2,7,5,3,4,1,8,6]","[[0.3,0.2],[-0.3,0.2]]","[[-0.125,-0.2],[0.125,-0.2]]",-0.152083333,-0.195833333,1,0,0,2.8739,o1_image,946.0771,0,946.0782,946.0782,947.535,0,0,0,0,1,,,,,,,,,,,,,,,,,,,,,,,,,,,,,,,,,,,,,,,,,,,,,,,,,,
,,5be59ce3520a3300010e28a9,35,female,2024-04-24_11h33.33.762,stockport_simplified,2022.2.4,Win32,15.01501502,661e456ee6de07e70aa9ef7b,6628df8841f59130a2be9d84,,,,,,,,,,,,,,,,,,,,,,,,,,,,,,,,,,,,,,,,,,,,,,,,,,,,,,,,1,58,118,43,1,B,X,N,o2_image,stimuli/out2.png,stimuli/out1.png,stimuli/correct_out2.png,,,,,,,,,,,,,,,,,,,,,,,,,,,,,,,,,,,,,,
,,5be59ce3520a3300010e28a9,35,female,2024-04-24_11h33.33.762,stockport_simplified,2022.2.4,Win32,15.01501502,661e456ee6de07e70aa9ef7b,6628df8841f59130a2be9d84,,,,,,,,,,,,,,,,,,,,,,,,,,,,,,,,,,947.5357,950.9179,"[2,7,5,3,4,1,8,6]","[[0.3,0.2],[-0.3,0.2]]","[[-0.125,-0.2],[0.125,-0.2]]",0.104166667,-0.205555556,1,0,0,2.7655,o2_image,950.9186,0,950.9199,950.9199,952.9963,0,0,0,0,1,,,,,,,,,,,,,,,,,,,,,,,,,,,,,,,,,,,,,,,,,,,,,,,,,,
,,5be59ce3520a3300010e28a9,35,female,2024-04-24_11h33.33.762,stockport_simplified,2022.2.4,Win32,15.01501502,661e456ee6de07e70aa9ef7b,6628df8841f59130a2be9d84,,,,,,,,,,,,,,,,,,,,,,,,,,,,,,,,,,,,,,,,,,,,,,,,,,,,,,,,1,59,119,35,1,A,Y,N,o1_image,stimuli/out1.png,stimuli/correct_out1.png,stimuli/out2.png,,,,,,,,,,,,,,,,,,,,,,,,,,,,,,,,,,,,,,
,,5be59ce3520a3300010e28a9,35,female,2024-04-24_11h33.33.762,stockport_simplified,2022.2.4,Win32,15.01501502,661e456ee6de07e70aa9ef7b,6628df8841f59130a2be9d84,,,,,,,,,,,,,,,,,,,,,,,,,,,,,,,,,,953.01,956.3981,"[2,7,5,3,4,1,8,6]","[[-0.3,0.2],[0.3,0.2]]","[[0.125,-0.2],[-0.125,-0.2]]",-0.130555556,-0.1875,1,0,0,2.8136,o2_image,956.3993,0,956.4003,956.4004,957.8896,,,,,,,,,,,,,,,,,,0,0,0,0,1,,,,,,,,,,,,,,,,,,,,,,,,,,,,,,,,,
,,5be59ce3520a3300010e28a9,35,female,2024-04-24_11h33.33.762,stockport_simplified,2022.2.4,Win32,15.01501502,661e456ee6de07e70aa9ef7b,6628df8841f59130a2be9d84,,,,,,,,,,,,,,,,,,,,,,,,,,,,,,,,,,,,,,,,,,,,,,,,,,,,,,,,,,,,,A,Y,N,o1_image,stimuli/out1.png,stimuli/correct_out1.png,stimuli/out2.png,,,,,,0,0,0,16,1,,,,,,,,,,,,,,,,,,,,,,,,,,,,
,,5be59ce3520a3300010e28a9,35,female,2024-04-24_11h33.33.762,stockport_simplified,2022.2.4,Win32,15.01501502,661e456ee6de07e70aa9ef7b,6628df8841f59130a2be9d84,,,,,,,,,,,,,,,,,,,,,,,,,,,,,,,,,,957.8907,962.7014,"[2,7,5,3,4,1,8,6]","[[0.3,0.2],[-0.3,0.2]]","[[-0.125,-0.2],[0.125,-0.2]]",0.122222222,-0.184722222,1,0,0,4.1697,o2_image,962.7151,0,962.7163,962.7163,964.868,,,,,,,,,,,,,,,,,,0,0,0,0,1,,,,,,,,,,,,,,,,,,,,,,,,,,,,,,,,,
,,5be59ce3520a3300010e28a9,35,female,2024-04-24_11h33.33.762,stockport_simplified,2022.2.4,Win32,15.01501502,661e456ee6de07e70aa9ef7b,6628df8841f59130a2be9d84,,,,,,,,,,,,,,,,,,,,,,,,,,,,,,,,,,,,,,,,,,,,,,,,,,,,,,,,,,,,,B,X,N,o1_image,stimuli/out1.png,stimuli/correct_out1.png,stimuli/out2.png,,,,,,0,1,1,26,1,,,,,,,,,,,,,,,,,,,,,,,,,,,,
,,5be59ce3520a3300010e28a9,35,female,2024-04-24_11h33.33.762,stockport_simplified,2022.2.4,Win32,15.01501502,661e456ee6de07e70aa9ef7b,6628df8841f59130a2be9d84,,,,,,,,,,,,,,,,,,,,,,,,,,,,,,,,,,964.8684,970.2553,"[2,7,5,3,4,1,8,6]","[[0.3,0.2],[-0.3,0.2]]","[[0.125,-0.2],[-0.125,-0.2]]",-0.088888889,-0.166666667,1,0,0,4.8081,o2_image,970.2562,1,970.9467,970.9467,973.0478,,,,,,,,,,,,,,,,,,0,0,0,0,1,,,,,,,,,,,,,,,,,,,,,,,,,,,,,,,,,
,,5be59ce3520a3300010e28a9,35,female,2024-04-24_11h33.33.762,stockport_simplified,2022.2.4,Win32,15.01501502,661e456ee6de07e70aa9ef7b,6628df8841f59130a2be9d84,,,,,,,,,,,,,,,,,,,,,,,,,,,,,,,,,,,,,,,,,,,,,,,,,,,,,,,,,,,,,B,Y,N,o2_image,stimuli/out2.png,stimuli/out1.png,stimuli/correct_out2.png,,,,,,0,2,2,39,1,,,,,,,,,,,,,,,,,,,,,,,,,,,,
,,5be59ce3520a3300010e28a9,35,female,2024-04-24_11h33.33.762,stockport_simplified,2022.2.4,Win32,15.01501502,661e456ee6de07e70aa9ef7b,6628df8841f59130a2be9d84,,,,,,,,,,,,,,,,,,,,,,,,,,,,,,,,,,973.0482,975.7219,"[2,7,5,3,4,1,8,6]","[[0.3,0.2],[-0.3,0.2]]","[[0.125,-0.2],[-0.125,-0.2]]",0.120138889,-0.186805556,1,0,0,2.1015,o1_image,975.7227,1,975.7238,975.7238,977.8109,,,,,,,,,,,,,,,,,,0,0,0,0,1,,,,,,,,,,,,,,,,,,,,,,,,,,,,,,,,,
,,5be59ce3520a3300010e28a9,35,female,2024-04-24_11h33.33.762,stockport_simplified,2022.2.4,Win32,15.01501502,661e456ee6de07e70aa9ef7b,6628df8841f59130a2be9d84,,,,,,,,,,,,,,,,,,,,,,,,,,,,,,,,,,,,,,,,,,,,,,,,,,,,,,,,,,,,,B,X,N,o1_image,stimuli/out1.png,stimuli/correct_out1.png,stimuli/out2.png,,,,,,0,3,3,28,1,,,,,,,,,,,,,,,,,,,,,,,,,,,,
,,5be59ce3520a3300010e28a9,35,female,2024-04-24_11h33.33.762,stockport_simplified,2022.2.4,Win32,15.01501502,661e456ee6de07e70aa9ef7b,6628df8841f59130a2be9d84,,,,,,,,,,,,,,,,,,,,,,,,,,,,,,,,,,977.8113,983.1291,"[2,7,5,3,4,1,8,6]","[[0.3,0.2],[-0.3,0.2]]","[[0.125,-0.2],[-0.125,-0.2]]",0.120833333,-0.20625,1,0,0,4.7373,o1_image,983.1297,1,983.8274,983.8274,985.7893,,,,,,,,,,,,,,,,,,0,0,0,0,1,,,,,,,,,,,,,,,,,,,,,,,,,,,,,,,,,
,,5be59ce3520a3300010e28a9,35,female,2024-04-24_11h33.33.762,stockport_simplified,2022.2.4,Win32,15.01501502,661e456ee6de07e70aa9ef7b,6628df8841f59130a2be9d84,,,,,,,,,,,,,,,,,,,,,,,,,,,,,,,,,,,,,,,,,,,,,,,,,,,,,,,,,,,,,A,X,N,o1_image,stimuli/out1.png,stimuli/correct_out1.png,stimuli/out2.png,,,,,,0,4,4,1,1,,,,,,,,,,,,,,,,,,,,,,,,,,,,
,,5be59ce3520a3300010e28a9,35,female,2024-04-24_11h33.33.762,stockport_simplified,2022.2.4,Win32,15.01501502,661e456ee6de07e70aa9ef7b,6628df8841f59130a2be9d84,,,,,,,,,,,,,,,,,,,,,,,,,,,,,,,,,,985.7897,988.4059,"[2,7,5,3,4,1,8,6]","[[-0.3,0.2],[0.3,0.2]]","[[0.125,-0.2],[-0.125,-0.2]]",0.111805556,-0.197222222,1,0,0,1.9403,o1_image,988.4066,0,988.8374,988.8374,990.7979,,,,,,,,,,,,,,,,,,0,0,0,0,1,,,,,,,,,,,,,,,,,,,,,,,,,,,,,,,,,
