counterbalance_2.started,counterbalance_2.stopped,participant,age,gender,date,expName,psychopyVersion,OS,frameRate,STUDY_ID,SESSION_ID,information_2.started,information_2.stopped,information_loop.thisRepN,information_loop.thisTrialN,information_loop.thisN,information_loop.thisIndex,information_loop.ran,information,consent_2.started,consent_2.stopped,slider_1.response,slider_2.response,slider_3.response,slider_4.response,slider_5.response,slider_6.response,instructions.started,instructions.stopped,task1_instr.thisRepN,task1_instr.thisTrialN,task1_instr.thisN,task1_instr.thisIndex,task1_instr.ran,task1,comprehension1_2.started,comprehension1_2.stopped,comp1_mouse.x,comp1_mouse.y,comp1_mouse.leftButton,comp1_mouse.midButton,comp1_mouse.rightButton,comp1_mouse.time,comp1_mouse.clicked_name,cue_o__trial_2.started,cue_o__trial_2.stopped,order,cue_order,out_order,cue_o_mouse.x,cue_o_mouse.y,cue_o_mouse.leftButton,cue_o_mouse.midButton,cue_o_mouse.rightButton,cue_o_mouse.time,cue_o_mouse.clicked_name,cue_selection_2.started,correct_answer,cue_selection_2.stopped,feedback_2.started,feedback_2.stopped,feedback_loop.thisRepN,feedback_loop.thisTrialN,feedback_loop.thisN,feedback_loop.thisIndex,feedback_loop.ran,stage1_trials.thisRepN,stage1_trials.thisTrialN,stage1_trials.thisN,stage1_trials.thisIndex,stage1_trials.ran,cue1,cue2,cue3,outcome,correct_out,o1_feedback,o2_feedback,stage2_feedback_loop.thisRepN,stage2_feedback_loop.thisTrialN,stage2_feedback_loop.thisN,stage2_feedback_loop.thisIndex,stage2_feedback_loop.ran,stage2_trials.thisRepN,stage2_trials.thisTrialN,stage2_trials.thisN,stage2_trials.thisIndex,stage2_trials.ran,stage3_feedback_loop.thisRepN,stage3_feedback_loop.thisTrialN,stage3_feedback_loop.thisN,stage3_feedback_loop.thisIndex,stage3_feedback_loop.ran,stage3_trials.thisRepN,stage3_trials.thisTrialN,stage3_trials.thisN,stage3_trials.thisIndex,stage3_trials.ran,debrief_2.started,debrief_2.stopped,debrief_loop.thisRepN,debrief_loop.thisTrialN,debrief_loop.thisN,debrief_loop.thisIndex,debrief_loop.ran,debrief_img,compr1_completed.thisRepN,compr1_completed.thisTrialN,compr1_completed.thisN,compr1_completed.thisIndex,compr1_completed.ran,consent_loop.thisRepN,consent_loop.thisTrialN,consent_loop.thisN,consent_loop.thisIndex,consent_loop.ran
0.0002,0.0004,61635ae3040c7eba5e61449f,33,female,2024-04-24_12h33.30.383,stockport_simplified,2022.2.4,Win32,60.24096386,661e456ee6de07e70aa9ef7b,6628df8dd46a2121ee749da6,,,,,,,,,,,,,,,,,,,,,,,,,,,,,,,,,,,,,,,,,,,,,,,,,,,,,,,,,,,,,,,,,,,,,,,,,,,,,,,,,,,,,,,,,,,,,,,,,,,,,,,,,
,,61635ae3040c7eba5e61449f,33,female,2024-04-24_12h33.30.383,stockport_simplified,2022.2.4,Win32,60.24096386,661e456ee6de07e70aa9ef7b,6628df8dd46a2121ee749da6,0.0147,42.6583,0,0,0,0,1,instructions/info1.png,,,,,,,,,,,,,,,,,,,,,,,,,,,,,,,,,,,,,,,,,,,,,,,,,,,,,,,,,,,,,,,,,,,,,,,,,,,,,,,,,,,,,,,,,,,,,,,,,
,,61635ae3040c7eba5e61449f,33,female,2024-04-24_12h33.30.383,stockport_simplified,2022.2.4,Win32,60.24096386,661e456ee6de07e70aa9ef7b,6628df8dd46a2121ee749da6,42.6586,59.5705,0,1,1,1,1,instructions/info2.png,,,,,,,,,,,,,,,,,,,,,,,,,,,,,,,,,,,,,,,,,,,,,,,,,,,,,,,,,,,,,,,,,,,,,,,,,,,,,,,,,,,,,,,,,,,,,,,,,
,,61635ae3040c7eba5e61449f,33,female,2024-04-24_12h33.30.383,stockport_simplified,2022.2.4,Win32,60.24096386,661e456ee6de07e70aa9ef7b,6628df8dd46a2121ee749da6,59.5783,63.9375,0,2,2,2,1,instructions/info3.png,,,,,,,,,,,,,,,,,,,,,,,,,,,,,,,,,,,,,,,,,,,,,,,,,,,,,,,,,,,,,,,,,,,,,,,,,,,,,,,,,,,,,,,,,,,,,,,,,
,,61635ae3040c7eba5e61449f,33,female,2024-04-24_12h33.30.383,stockport_simplified,2022.2.4,Win32,60.24096386,661e456ee6de07e70aa9ef7b,6628df8dd46a2121ee749da6,,,,,,,,,63.9446,84.9199,1,1,1,1,1,1,,,,,,,,,,,,,,,,,,,,,,,,,,,,,,,,,,,,,,,,,,,,,,,,,,,,,,,,,,,,,,,,,,,,,,,,,,,,,,,,,,,,,,,,,
,,61635ae3040c7eba5e61449f,33,female,2024-04-24_12h33.30.383,stockport_simplified,2022.2.4,Win32,60.24096386,661e456ee6de07e70aa9ef7b,6628df8dd46a2121ee749da6,,,,,,,,,,,,,,,,,84.9262,118.6206,0,0,0,0,1,instructions/task1_1.png,,,,,,,,,,,,,,,,,,,,,,,,,,,,,,,,,,,,,,,,,,,,,,,,,,,,,,,,,,,,,,,,,,,,,,,,,,,,,,,,,
,,61635ae3040c7eba5e61449f,33,female,2024-04-24_12h33.30.383,stockport_simplified,2022.2.4,Win32,60.24096386,661e456ee6de07e70aa9ef7b,6628df8dd46a2121ee749da6,,,,,,,,,,,,,,,,,118.6283,143.7701,0,1,1,1,1,instructions/task1_2.png,,,,,,,,,,,,,,,,,,,,,,,,,,,,,,,,,,,,,,,,,,,,,,,,,,,,,,,,,,,,,,,,,,,,,,,,,,,,,,,,,
,,61635ae3040c7eba5e61449f,33,female,2024-04-24_12h33.30.383,stockport_simplified,2022.2.4,Win32,60.24096386,661e456ee6de07e70aa9ef7b,6628df8dd46a2121ee749da6,,,,,,,,,,,,,,,,,143.7783,162.7708,0,2,2,2,1,instructions/task1_3.png,,,,,,,,,,,,,,,,,,,,,,,,,,,,,,,,,,,,,,,,,,,,,,,,,,,,,,,,,,,,,,,,,,,,,,,,,,,,,,,,,
,,61635ae3040c7eba5e61449f,33,female,2024-04-24_12h33.30.383,stockport_simplified,2022.2.4,Win32,60.24096386,661e456ee6de07e70aa9ef7b,6628df8dd46a2121ee749da6,,,,,,,,,,,,,,,,,,,,,,,,,162.772,184.1884,-0.14537037,-0.328703704,1,0,0,21.415,comp1_resp1,184.2031,186.3869,"[5,6,1,2,7,4,8,3]","[[-0.3,0.2],[0.3,0.2]]","[[-0.125,-0.2],[0.125,-0.2]]",0.147222222,-0.200925926,1,0,0,1.6819,o2_image,186.3878,0,186.8869,186.887,188.8869,0,0,0,0,1,,,,,,,,,,,,,,,,,,,,,,,,,,,,,,,,,,,,,,,,,,,,,,,,,,
,,61635ae3040c7eba5e61449f,33,female,2024-04-24_12h33.30.383,stockport_simplified,2022.2.4,Win32,60.24096386,661e456ee6de07e70aa9ef7b,6628df8dd46a2121ee749da6,,,,,,,,,,,,,,,,,,,,,,,,,,,,,,,,,,,,,,,,,,,,,,,,,,,,,,,,0,0,0,7,1,A,Y,N,o1_image,stimuli/out1.png,stimuli/correct_out1.png,stimuli/out2.png,,,,,,,,,,,,,,,,,,,,,,,,,,,,,,,,,,,,,,
,,61635ae3040c7eba5e61449f,33,female,2024-04-24_12h33.30.383,stockport_simplified,2022.2.4,Win32,60.24096386,661e456ee6de07e70aa9ef7b,6628df8dd46a2121ee749da6,,,,,,,,,,,,,,,,,,,,,,,,,,,,,,,,,,188.8873,190.6197,"[5,6,1,2,7,4,8,3]","[[0.3,0.2],[-0.3,0.2]]","[[0.125,-0.2],[-0.125,-0.2]]",0.156481481,-0.2,1,0,0,1.2162,o1_image,190.6201,1,191.1205,191.1205,193.1201,0,0,0,0,1,,,,,,,,,,,,,,,,,,,,,,,,,,,,,,,,,,,,,,,,,,,,,,,,,,
,,61635ae3040c7eba5e61449f,33,female,2024-04-24_12h33.30.383,stockport_simplified,2022.2.4,Win32,60.24096386,661e456ee6de07e70aa9ef7b,6628df8dd46a2121ee749da6,,,,,,,,,,,,,,,,,,,,,,,,,,,,,,,,,,,,,,,,,,,,,,,,,,,,,,,,0,1,1,35,1,A,Y,N,o1_image,stimuli/out1.png,stimuli/correct_out1.png,stimuli/out2.png,,,,,,,,,,,,,,,,,,,,,,,,,,,,,,,,,,,,,,
,,61635ae3040c7eba5e61449f,33,female,2024-04-24_12h33.30.383,stockport_simplified,2022.2.4,Win32,60.24096386,661e456ee6de07e70aa9ef7b,6628df8dd46a2121ee749da6,,,,,,,,,,,,,,,,,,,,,,,,,,,,,,,,,,193.1203,195.4036,"[5,6,1,2,7,4,8,3]","[[0.3,0.2],[-0.3,0.2]]","[[-0.125,-0.2],[0.125,-0.2]]",-0.127777778,-0.211111111,1,0,0,1.7668,o1_image,195.404,1,195.9033,195.9033,197.9031,0,0,0,0,1,,,,,,,,,,,,,,,,,,,,,,,,,,,,,,,,,,,,,,,,,,,,,,,,,,
,,61635ae3040c7eba5e61449f,33,female,2024-04-24_12h33.30.383,stockport_simplified,2022.2.4,Win32,60.24096386,661e456ee6de07e70aa9ef7b,6628df8dd46a2121ee749da6,,,,,,,,,,,,,,,,,,,,,,,,,,,,,,,,,,,,,,,,,,,,,,,,,,,,,,,,0,2,2,8,1,A,Y,N,o1_image,stimuli/out1.png,stimuli/correct_out1.png,stimuli/out2.png,,,,,,,,,,,,,,,,,,,,,,,,,,,,,,,,,,,,,,
,,61635ae3040c7eba5e61449f,33,female,2024-04-24_12h33.30.383,stockport_simplified,2022.2.4,Win32,60.24096386,661e456ee6de07e70aa9ef7b,6628df8dd46a2121ee749da6,,,,,,,,,,,,,,,,,,,,,,,,,,,,,,,,,,197.9034,200.3536,"[5,6,1,2,7,4,8,3]","[[-0.3,0.2],[0.3,0.2]]","[[0.125,-0.2],[-0.125,-0.2]]",-0.065740741,-0.2,1,0,0,1.933,o2_image,200.3608,1,200.8535,200.8535,202.8533,0,0,0,0,1,,,,,,,,,,,,,,,,,,,,,,,,,,,,,,,,,,,,,,,,,,,,,,,,,,
,,61635ae3040c7eba5e61449f,33,female,2024-04-24_12h33.30.383,stockport_simplified,2022.2.4,Win32,60.24096386,661e456ee6de07e70aa9ef7b,6628df8dd46a2121ee749da6,,,,,,,,,,,,,,,,,,,,,,,,,,,,,,,,,,,,,,,,,,,,,,,,,,,,,,,,0,3,3,17,1,B,Y,N,o2_image,stimuli/out2.png,stimuli/out1.png,stimuli/correct_out2.png,,,,,,,,,,,,,,,,,,,,,,,,,,,,,,,,,,,,,,
,,61635ae3040c7eba5e61449f,33,female,2024-04-24_12h33.30.383,stockport_simplified,2022.2.4,Win32,60.24096386,661e456ee6de07e70aa9ef7b,6628df8dd46a2121ee749da6,,,,,,,,,,,,,,,,,,,,,,,,,,,,,,,,,,202.8536,204.8878,"[5,6,1,2,7,4,8,3]","[[-0.3,0.2],[0.3,0.2]]","[[-0.125,-0.2],[0.125,-0.2]]",0.138888889,-0.206481481,1,0,0,1.5169,o2_image,204.8891,0,205.3872,205.3872,207.3866,0,0,0,0,1,,,,,,,,,,,,,,,,,,,,,,,,,,,,,,,,,,,,,,,,,,,,,,,,,,
,,61635ae3040c7eba5e61449f,33,female,2024-04-24_12h33.30.383,stockport_simplified,2022.2.4,Win32,60.24096386,661e456ee6de07e70aa9ef7b,6628df8dd46a2121ee749da6,,,,,,,,,,,,,,,,,,,,,,,,,,,,,,,,,,,,,,,,,,,,,,,,,,,,,,,,0,4,4,3,1,A,X,N,o1_image,stimuli/out1.png,stimuli/correct_out1.png,stimuli/out2.png,,,,,,,,,,,,,,,,,,,,,,,,,,,,,,,,,,,,,,
,,61635ae3040c7eba5e61449f,33,female,2024-04-24_12h33.30.383,stockport_simplified,2022.2.4,Win32,60.24096386,661e456ee6de07e70aa9ef7b,6628df8dd46a2121ee749da6,,,,,,,,,,,,,,,,,,,,,,,,,,,,,,,,,,207.3876,209.2698,"[5,6,1,2,7,4,8,3]","[[0.3,0.2],[-0.3,0.2]]","[[0.125,-0.2],[-0.125,-0.2]]",0.15462963,-0.209259259,1,0,0,1.365,o1_image,209.2701,0,209.7596,209.7597,211.7535,0,0,0,0,1,,,,,,,,,,,,,,,,,,,,,,,,,,,,,,,,,,,,,,,,,,,,,,,,,,
,,61635ae3040c7eba5e61449f,33,female,2024-04-24_12h33.30.383,stockport_simplified,2022.2.4,Win32,60.24096386,661e456ee6de07e70aa9ef7b,6628df8dd46a2121ee749da6,,,,,,,,,,,,,,,,,,,,,,,,,,,,,,,,,,,,,,,,,,,,,,,,,,,,,,,,0,5,5,28,1,N,M,D,o2_image,stimuli/out2.png,stimuli/out1.png,stimuli/correct_out2.png,,,,,,,,,,,,,,,,,,,,,,,,,,,,,,,,,,,,,,
,,61635ae3040c7eba5e61449f,33,female,2024-04-24_12h33.30.383,stockport_simplified,2022.2.4,Win32,60.24096386,661e456ee6de07e70aa9ef7b,6628df8dd46a2121ee749da6,,,,,,,,,,,,,,,,,,,,,,,,,,,,,,,,,,211.7537,213.6369,"[5,6,1,2,7,4,8,3]","[[-0.3,0.2],[0.3,0.2]]","[[0.125,-0.2],[-0.125,-0.2]]",-0.148148148,-0.22037037,1,0,0,1.3664,o2_image,213.6375,0,214.137,214.137,216.1369,0,0,0,0,1,,,,,,,,,,,,,,,,,,,,,,,,,,,,,,,,,,,,,,,,,,,,,,,,,,
,,61635ae3040c7eba5e61449f,33,female,2024-04-24_12h33.30.383,stockport_simplified,2022.2.4,Win32,60.24096386,661e456ee6de07e70aa9ef7b,6628df8dd46a2121ee749da6,,,,,,,,,,,,,,,,,,,,,,,,,,,,,,,,,,,,,,,,,,,,,,,,,,,,,,,,0,6,6,50,1,N,M,C,o1_image,stimuli/out1.png,stimuli/correct_out1.png,stimuli/out2.png,,,,,,,,,,,,,,,,,,,,,,,,,,,,,,,,,,,,,,
,,61635ae3040c7eba5e61449f,33,female,2024-04-24_12h33.30.383,stockport_simplified,2022.2.4,Win32,60.24096386,661e456ee6de07e70aa9ef7b,6628df8dd46a2121ee749da6,,,,,,,,,,,,,,,,,,,,,,,,,,,,,,,,,,216.1373,218.487,"[5,6,1,2,7,4,8,3]","[[0.3,0.2],[-0.3,0.2]]","[[0.125,-0.2],[-0.125,-0.2]]",0.137037037,-0.212962963,1,0,0,1.8332,o1_image,218.4941,0,218.9871,218.9872,220.9874,0,0,0,0,1,,,,,,,,,,,,,,,,,,,,,,,,,,,,,,,,,,,,,,,,,,,,,,,,,,
,,61635ae3040c7eba5e61449f,33,female,2024-04-24_12h33.30.383,stockport_simplified,2022.2.4,Win32,60.24096386,661e456ee6de07e70aa9ef7b,6628df8dd46a2121ee749da6,,,,,,,,,,,,,,,,,,,,,,,,,,,,,,,,,,,,,,,,,,,,,,,,,,,,,,,,0,7,7,16,1,B,Y,N,o2_image,stimuli/out2.png,stimuli/out1.png,stimuli/correct_out2.png,,,,,,,,,,,,,,,,,,,,,,,,,,,,,,,,,,,,,,
,,61635ae3040c7eba5e61449f,33,female,2024-04-24_12h33.30.383,stockport_simplified,2022.2.4,Win32,60.24096386,661e456ee6de07e70aa9ef7b,6628df8dd46a2121ee749da6,,,,,,,,,,,,,,,,,,,,,,,,,,,,,,,,,,220.988,223.0537,"[5,6,1,2,7,4,8,3]","[[0.3,0.2],[-0.3,0.2]]","[[0.125,-0.2],[-0.125,-0.2]]",-0.123148148,-0.210185185,1,0,0,1.5488,o2_image,223.055,0,223.5539,223.554,225.5541,0,0,0,0,1,,,,,,,,,,,,,,,,,,,,,,,,,,,,,,,,,,,,,,,,,,,,,,,,,,
,,61635ae3040c7eba5e61449f,33,female,2024-04-24_12h33.30.383,stockport_simplified,2022.2.4,Win32,60.24096386,661e456ee6de07e70aa9ef7b,6628df8dd46a2121ee749da6,,,,,,,,,,,,,,,,,,,,,,,,,,,,,,,,,,,,,,,,,,,,,,,,,,,,,,,,0,8,8,0,1,A,X,N,o1_image,stimuli/out1.png,stimuli/correct_out1.png,stimuli/out2.png,,,,,,,,,,,,,,,,,,,,,,,,,,,,,,,,,,,,,,
,,61635ae3040c7eba5e61449f,33,female,2024-04-24_12h33.30.383,stockport_simplified,2022.2.4,Win32,60.24096386,661e456ee6de07e70aa9ef7b,6628df8dd46a2121ee749da6,,,,,,,,,,,,,,,,,,,,,,,,,,,,,,,,,,225.5547,227.3369,"[5,6,1,2,7,4,8,3]","[[-0.3,0.2],[0.3,0.2]]","[[-0.125,-0.2],[0.125,-0.2]]",-0.105555556,-0.216666667,1,0,0,1.266,o1_image,227.3386,1,227.8372,227.8372,229.8374,0,0,0,0,1,,,,,,,,,,,,,,,,,,,,,,,,,,,,,,,,,,,,,,,,,,,,,,,,,,
,,61635ae3040c7eba5e61449f,33,female,2024-04-24_12h33.30.383,stockport_simplified,2022.2.4,Win32,60.24096386,661e456ee6de07e70aa9ef7b,6628df8dd46a2121ee749da6,,,,,,,,,,,,,,,,,,,,,,,,,,,,,,,,,,,,,,,,,,,,,,,,,,,,,,,,0,9,9,54,1,N,M,C,o1_image,stimuli/out1.png,stimuli/correct_out1.png,stimuli/out2.png,,,,,,,,,,,,,,,,,,,,,,,,,,,,,,,,,,,,,,
,,61635ae3040c7eba5e61449f,33,female,2024-04-24_12h33.30.383,stockport_simplified,2022.2.4,Win32,60.24096386,661e456ee6de07e70aa9ef7b,6628df8dd46a2121ee749da6,,,,,,,,,,,,,,,,,,,,,,,,,,,,,,,,,,229.8384,231.5871,"[5,6,1,2,7,4,8,3]","[[0.3,0.2],[-0.3,0.2]]","[[-0.125,-0.2],[0.125,-0.2]]",0.109259259,-0.197222222,1,0,0,1.2327,o2_image,231.5881,0,232.0761,232.0762,234.0702,0,0,0,0,1,,,,,,,,,,,,,,,,,,,,,,,,,,,,,,,,,,,,,,,,,,,,,,,,,,
,,61635ae3040c7eba5e61449f,33,female,2024-04-24_12h33.30.383,stockport_simplified,2022.2.4,Win32,60.24096386,661e456ee6de07e70aa9ef7b,6628df8dd46a2121ee749da6,,,,,,,,,,,,,,,,,,,,,,,,,,,,,,,,,,,,,,,,,,,,,,,,,,,,,,,,0,10,10,20,1,N,M,C,o1_image,stimuli/out1.png,stimuli/correct_out1.png,stimuli/out2.png,,,,,,,,,,,,,,,,,,,,,,,,,,,,,,,,,,,,,,
,,61635ae3040c7eba5e61449f,33,female,2024-04-24_12h33.30.383,stockport_simplified,2022.2.4,Win32,60.24096386,661e456ee6de07e70aa9ef7b,6628df8dd46a2121ee749da6,,,,,,,,,,,,,,,,,,,,,,,,,,,,,,,,,,234.071,235.603,"[5,6,1,2,7,4,8,3]","[[0.3,0.2],[-0.3,0.2]]","[[-0.125,-0.2],[0.125,-0.2]]",0.110185185,-0.219444444,1,0,0,1.015,o2_image,235.604,0,236.0934,236.0934,238.0869,0,0,0,0,1,,,,,,,,,,,,,,,,,,,,,,,,,,,,,,,,,,,,,,,,,,,,,,,,,,
,,61635ae3040c7eba5e61449f,33,female,2024-04-24_12h33.30.383,stockport_simplified,2022.2.4,Win32,60.24096386,661e456ee6de07e70aa9ef7b,6628df8dd46a2121ee749da6,,,,,,,,,,,,,,,,,,,,,,,,,,,,,,,,,,,,,,,,,,,,,,,,,,,,,,,,0,11,11,6,1,A,Y,N,o1_image,stimuli/out1.png,stimuli/correct_out1.png,stimuli/out2.png,,,,,,,,,,,,,,,,,,,,,,,,,,,,,,,,,,,,,,
,,61635ae3040c7eba5e61449f,33,female,2024-04-24_12h33.30.383,stockport_simplified,2022.2.4,Win32,60.24096386,661e456ee6de07e70aa9ef7b,6628df8dd46a2121ee749da6,,,,,,,,,,,,,,,,,,,,,,,,,,,,,,,,,,238.0871,239.9701,"[5,6,1,2,7,4,8,3]","[[0.3,0.2],[-0.3,0.2]]","[[-0.125,-0.2],[0.125,-0.2]]",-0.077777778,-0.223148148,1,0,0,1.3664,o1_image,239.9707,0,240.4701,240.4702,242.4702,0,0,0,0,1,,,,,,,,,,,,,,,,,,,,,,,,,,,,,,,,,,,,,,,,,,,,,,,,,,
,,61635ae3040c7eba5e61449f,33,female,2024-04-24_12h33.30.383,stockport_simplified,2022.2.4,Win32,60.24096386,661e456ee6de07e70aa9ef7b,6628df8dd46a2121ee749da6,,,,,,,,,,,,,,,,,,,,,,,,,,,,,,,,,,,,,,,,,,,,,,,,,,,,,,,,0,12,12,40,1,B,X,N,o2_image,stimuli/out2.png,stimuli/out1.png,stimuli/correct_out2.png,,,,,,,,,,,,,,,,,,,,,,,,,,,,,,,,,,,,,,
,,61635ae3040c7eba5e61449f,33,female,2024-04-24_12h33.30.383,stockport_simplified,2022.2.4,Win32,60.24096386,661e456ee6de07e70aa9ef7b,6628df8dd46a2121ee749da6,,,,,,,,,,,,,,,,,,,,,,,,,,,,,,,,,,242.4703,244.2199,"[5,6,1,2,7,4,8,3]","[[0.3,0.2],[-0.3,0.2]]","[[0.125,-0.2],[-0.125,-0.2]]",0.118518519,-0.210185185,1,0,0,1.2327,o1_image,244.2206,1,244.7097,244.7097,246.7036,0,0,0,0,1,,,,,,,,,,,,,,,,,,,,,,,,,,,,,,,,,,,,,,,,,,,,,,,,,,
,,61635ae3040c7eba5e61449f,33,female,2024-04-24_12h33.30.383,stockport_simplified,2022.2.4,Win32,60.24096386,661e456ee6de07e70aa9ef7b,6628df8dd46a2121ee749da6,,,,,,,,,,,,,,,,,,,,,,,,,,,,,,,,,,,,,,,,,,,,,,,,,,,,,,,,0,13,13,51,1,N,M,C,o1_image,stimuli/out1.png,stimuli/correct_out1.png,stimuli/out2.png,,,,,,,,,,,,,,,,,,,,,,,,,,,,,,,,,,,,,,
,,61635ae3040c7eba5e61449f,33,female,2024-04-24_12h33.30.383,stockport_simplified,2022.2.4,Win32,60.24096386,661e456ee6de07e70aa9ef7b,6628df8dd46a2121ee749da6,,,,,,,,,,,,,,,,,,,,,,,,,,,,,,,,,,246.7038,248.6206,"[5,6,1,2,7,4,8,3]","[[0.3,0.2],[-0.3,0.2]]","[[-0.125,-0.2],[0.125,-0.2]]",0.136111111,-0.198148148,1,0,0,1.3998,o2_image,248.6219,0,249.1096,249.1096,251.1035,0,0,0,0,1,,,,,,,,,,,,,,,,,,,,,,,,,,,,,,,,,,,,,,,,,,,,,,,,,,
,,61635ae3040c7eba5e61449f,33,female,2024-04-24_12h33.30.383,stockport_simplified,2022.2.4,Win32,60.24096386,661e456ee6de07e70aa9ef7b,6628df8dd46a2121ee749da6,,,,,,,,,,,,,,,,,,,,,,,,,,,,,,,,,,,,,,,,,,,,,,,,,,,,,,,,0,14,14,5,1,A,Y,N,o1_image,stimuli/out1.png,stimuli/correct_out1.png,stimuli/out2.png,,,,,,,,,,,,,,,,,,,,,,,,,,,,,,,,,,,,,,
,,61635ae3040c7eba5e61449f,33,female,2024-04-24_12h33.30.383,stockport_simplified,2022.2.4,Win32,60.24096386,661e456ee6de07e70aa9ef7b,6628df8dd46a2121ee749da6,,,,,,,,,,,,,,,,,,,,,,,,,,,,,,,,,,251.1038,253.2029,"[5,6,1,2,7,4,8,3]","[[0.3,0.2],[-0.3,0.2]]","[[0.125,-0.2],[-0.125,-0.2]]",-0.098148148,-0.20462963,1,0,0,1.5828,o2_image,253.2033,0,253.7038,253.7038,255.7034,0,0,0,0,1,,,,,,,,,,,,,,,,,,,,,,,,,,,,,,,,,,,,,,,,,,,,,,,,,,
,,61635ae3040c7eba5e61449f,33,female,2024-04-24_12h33.30.383,stockport_simplified,2022.2.4,Win32,60.24096386,661e456ee6de07e70aa9ef7b,6628df8dd46a2121ee749da6,,,,,,,,,,,,,,,,,,,,,,,,,,,,,,,,,,,,,,,,,,,,,,,,,,,,,,,,0,15,15,39,1,A,Y,N,o1_image,stimuli/out1.png,stimuli/correct_out1.png,stimuli/out2.png,,,,,,,,,,,,,,,,,,,,,,,,,,,,,,,,,,,,,,
,,61635ae3040c7eba5e61449f,33,female,2024-04-24_12h33.30.383,stockport_simplified,2022.2.4,Win32,60.24096386,661e456ee6de07e70aa9ef7b,6628df8dd46a2121ee749da6,,,,,,,,,,,,,,,,,,,,,,,,,,,,,,,,,,255.7039,257.6533,"[5,6,1,2,7,4,8,3]","[[-0.3,0.2],[0.3,0.2]]","[[0.125,-0.2],[-0.125,-0.2]]",0.117592593,-0.188888889,1,0,0,1.4331,o1_image,257.6543,0,258.1427,258.1428,260.1368,0,0,0,0,1,,,,,,,,,,,,,,,,,,,,,,,,,,,,,,,,,,,,,,,,,,,,,,,,,,
,,61635ae3040c7eba5e61449f,33,female,2024-04-24_12h33.30.383,stockport_simplified,2022.2.4,Win32,60.24096386,661e456ee6de07e70aa9ef7b,6628df8dd46a2121ee749da6,,,,,,,,,,,,,,,,,,,,,,,,,,,,,,,,,,,,,,,,,,,,,,,,,,,,,,,,0,16,16,27,1,N,M,D,o2_image,stimuli/out2.png,stimuli/out1.png,stimuli/correct_out2.png,,,,,,,,,,,,,,,,,,,,,,,,,,,,,,,,,,,,,,
,,61635ae3040c7eba5e61449f,33,female,2024-04-24_12h33.30.383,stockport_simplified,2022.2.4,Win32,60.24096386,661e456ee6de07e70aa9ef7b,6628df8dd46a2121ee749da6,,,,,,,,,,,,,,,,,,,,,,,,,,,,,,,,,,260.137,262.3708,"[5,6,1,2,7,4,8,3]","[[0.3,0.2],[-0.3,0.2]]","[[-0.125,-0.2],[0.125,-0.2]]",0.10462963,-0.206481481,1,0,0,1.7168,o2_image,262.3777,1,262.8704,262.8704,264.8705,0,0,0,0,1,,,,,,,,,,,,,,,,,,,,,,,,,,,,,,,,,,,,,,,,,,,,,,,,,,
,,61635ae3040c7eba5e61449f,33,female,2024-04-24_12h33.30.383,stockport_simplified,2022.2.4,Win32,60.24096386,661e456ee6de07e70aa9ef7b,6628df8dd46a2121ee749da6,,,,,,,,,,,,,,,,,,,,,,,,,,,,,,,,,,,,,,,,,,,,,,,,,,,,,,,,0,17,17,13,1,B,X,N,o2_image,stimuli/out2.png,stimuli/out1.png,stimuli/correct_out2.png,,,,,,,,,,,,,,,,,,,,,,,,,,,,,,,,,,,,,,
,,61635ae3040c7eba5e61449f,33,female,2024-04-24_12h33.30.383,stockport_simplified,2022.2.4,Win32,60.24096386,661e456ee6de07e70aa9ef7b,6628df8dd46a2121ee749da6,,,,,,,,,,,,,,,,,,,,,,,,,,,,,,,,,,264.8712,266.3203,"[5,6,1,2,7,4,8,3]","[[-0.3,0.2],[0.3,0.2]]","[[-0.125,-0.2],[0.125,-0.2]]",-0.148148148,-0.196296296,1,0,0,0.9329,o1_image,266.3214,0,266.8263,266.8264,268.8199,0,0,0,0,1,,,,,,,,,,,,,,,,,,,,,,,,,,,,,,,,,,,,,,,,,,,,,,,,,,
,,61635ae3040c7eba5e61449f,33,female,2024-04-24_12h33.30.383,stockport_simplified,2022.2.4,Win32,60.24096386,661e456ee6de07e70aa9ef7b,6628df8dd46a2121ee749da6,,,,,,,,,,,,,,,,,,,,,,,,,,,,,,,,,,,,,,,,,,,,,,,,,,,,,,,,0,18,18,56,1,N,M,D,o2_image,stimuli/out2.png,stimuli/out1.png,stimuli/correct_out2.png,,,,,,,,,,,,,,,,,,,,,,,,,,,,,,,,,,,,,,
,,61635ae3040c7eba5e61449f,33,female,2024-04-24_12h33.30.383,stockport_simplified,2022.2.4,Win32,60.24096386,661e456ee6de07e70aa9ef7b,6628df8dd46a2121ee749da6,,,,,,,,,,,,,,,,,,,,,,,,,,,,,,,,,,268.8201,270.8034,"[5,6,1,2,7,4,8,3]","[[-0.3,0.2],[0.3,0.2]]","[[-0.125,-0.2],[0.125,-0.2]]",-0.117592593,-0.210185185,1,0,0,1.4664,o1_image,270.8043,0,271.2932,271.2932,273.2865,0,0,0,0,1,,,,,,,,,,,,,,,,,,,,,,,,,,,,,,,,,,,,,,,,,,,,,,,,,,
,,61635ae3040c7eba5e61449f,33,female,2024-04-24_12h33.30.383,stockport_simplified,2022.2.4,Win32,60.24096386,661e456ee6de07e70aa9ef7b,6628df8dd46a2121ee749da6,,,,,,,,,,,,,,,,,,,,,,,,,,,,,,,,,,,,,,,,,,,,,,,,,,,,,,,,0,19,19,42,1,B,X,N,o2_image,stimuli/out2.png,stimuli/out1.png,stimuli/correct_out2.png,,,,,,,,,,,,,,,,,,,,,,,,,,,,,,,,,,,,,,
,,61635ae3040c7eba5e61449f,33,female,2024-04-24_12h33.30.383,stockport_simplified,2022.2.4,Win32,60.24096386,661e456ee6de07e70aa9ef7b,6628df8dd46a2121ee749da6,,,,,,,,,,,,,,,,,,,,,,,,,,,,,,,,,,273.2868,274.9706,"[5,6,1,2,7,4,8,3]","[[0.3,0.2],[-0.3,0.2]]","[[-0.125,-0.2],[0.125,-0.2]]",0.125925926,-0.205555556,1,0,0,1.1669,o2_image,274.9709,1,275.4699,275.4699,277.4701,0,0,0,0,1,,,,,,,,,,,,,,,,,,,,,,,,,,,,,,,,,,,,,,,,,,,,,,,,,,
,,61635ae3040c7eba5e61449f,33,female,2024-04-24_12h33.30.383,stockport_simplified,2022.2.4,Win32,60.24096386,661e456ee6de07e70aa9ef7b,6628df8dd46a2121ee749da6,,,,,,,,,,,,,,,,,,,,,,,,,,,,,,,,,,,,,,,,,,,,,,,,,,,,,,,,0,20,20,15,1,B,Y,N,o2_image,stimuli/out2.png,stimuli/out1.png,stimuli/correct_out2.png,,,,,,,,,,,,,,,,,,,,,,,,,,,,,,,,,,,,,,
,,61635ae3040c7eba5e61449f,33,female,2024-04-24_12h33.30.383,stockport_simplified,2022.2.4,Win32,60.24096386,661e456ee6de07e70aa9ef7b,6628df8dd46a2121ee749da6,,,,,,,,,,,,,,,,,,,,,,,,,,,,,,,,,,277.4703,279.5701,"[5,6,1,2,7,4,8,3]","[[-0.3,0.2],[0.3,0.2]]","[[0.125,-0.2],[-0.125,-0.2]]",0.134259259,-0.198148148,1,0,0,1.5829,o1_image,279.5705,1,280.0702,280.0702,282.07,0,0,0,0,1,,,,,,,,,,,,,,,,,,,,,,,,,,,,,,,,,,,,,,,,,,,,,,,,,,
,,61635ae3040c7eba5e61449f,33,female,2024-04-24_12h33.30.383,stockport_simplified,2022.2.4,Win32,60.24096386,661e456ee6de07e70aa9ef7b,6628df8dd46a2121ee749da6,,,,,,,,,,,,,,,,,,,,,,,,,,,,,,,,,,,,,,,,,,,,,,,,,,,,,,,,0,21,21,32,1,A,X,N,o1_image,stimuli/out1.png,stimuli/correct_out1.png,stimuli/out2.png,,,,,,,,,,,,,,,,,,,,,,,,,,,,,,,,,,,,,,
,,61635ae3040c7eba5e61449f,33,female,2024-04-24_12h33.30.383,stockport_simplified,2022.2.4,Win32,60.24096386,661e456ee6de07e70aa9ef7b,6628df8dd46a2121ee749da6,,,,,,,,,,,,,,,,,,,,,,,,,,,,,,,,,,282.0703,284.2196,"[5,6,1,2,7,4,8,3]","[[-0.3,0.2],[0.3,0.2]]","[[0.125,-0.2],[-0.125,-0.2]]",-0.113888889,-0.209259259,1,0,0,1.6323,o2_image,284.2203,1,284.7206,284.7206,286.7206,0,0,0,0,1,,,,,,,,,,,,,,,,,,,,,,,,,,,,,,,,,,,,,,,,,,,,,,,,,,
,,61635ae3040c7eba5e61449f,33,female,2024-04-24_12h33.30.383,stockport_simplified,2022.2.4,Win32,60.24096386,661e456ee6de07e70aa9ef7b,6628df8dd46a2121ee749da6,,,,,,,,,,,,,,,,,,,,,,,,,,,,,,,,,,,,,,,,,,,,,,,,,,,,,,,,0,22,22,29,1,N,M,D,o2_image,stimuli/out2.png,stimuli/out1.png,stimuli/correct_out2.png,,,,,,,,,,,,,,,,,,,,,,,,,,,,,,,,,,,,,,
,,61635ae3040c7eba5e61449f,33,female,2024-04-24_12h33.30.383,stockport_simplified,2022.2.4,Win32,60.24096386,661e456ee6de07e70aa9ef7b,6628df8dd46a2121ee749da6,,,,,,,,,,,,,,,,,,,,,,,,,,,,,,,,,,286.7212,289.5031,"[5,6,1,2,7,4,8,3]","[[-0.3,0.2],[0.3,0.2]]","[[-0.125,-0.2],[0.125,-0.2]]",-0.123148148,-0.199074074,1,0,0,2.2608,o1_image,289.5034,0,290.0036,290.0037,292.0041,0,0,0,0,1,,,,,,,,,,,,,,,,,,,,,,,,,,,,,,,,,,,,,,,,,,,,,,,,,,
,,61635ae3040c7eba5e61449f,33,female,2024-04-24_12h33.30.383,stockport_simplified,2022.2.4,Win32,60.24096386,661e456ee6de07e70aa9ef7b,6628df8dd46a2121ee749da6,,,,,,,,,,,,,,,,,,,,,,,,,,,,,,,,,,,,,,,,,,,,,,,,,,,,,,,,0,23,23,48,1,B,Y,N,o2_image,stimuli/out2.png,stimuli/out1.png,stimuli/correct_out2.png,,,,,,,,,,,,,,,,,,,,,,,,,,,,,,,,,,,,,,
,,61635ae3040c7eba5e61449f,33,female,2024-04-24_12h33.30.383,stockport_simplified,2022.2.4,Win32,60.24096386,661e456ee6de07e70aa9ef7b,6628df8dd46a2121ee749da6,,,,,,,,,,,,,,,,,,,,,,,,,,,,,,,,,,292.0046,293.8196,"[5,6,1,2,7,4,8,3]","[[-0.3,0.2],[0.3,0.2]]","[[-0.125,-0.2],[0.125,-0.2]]",-0.122222222,-0.186111111,1,0,0,1.2984,o1_image,293.8204,1,294.3264,294.3265,296.3206,0,0,0,0,1,,,,,,,,,,,,,,,,,,,,,,,,,,,,,,,,,,,,,,,,,,,,,,,,,,
,,61635ae3040c7eba5e61449f,33,female,2024-04-24_12h33.30.383,stockport_simplified,2022.2.4,Win32,60.24096386,661e456ee6de07e70aa9ef7b,6628df8dd46a2121ee749da6,,,,,,,,,,,,,,,,,,,,,,,,,,,,,,,,,,,,,,,,,,,,,,,,,,,,,,,,0,24,24,4,1,A,X,N,o1_image,stimuli/out1.png,stimuli/correct_out1.png,stimuli/out2.png,,,,,,,,,,,,,,,,,,,,,,,,,,,,,,,,,,,,,,
,,61635ae3040c7eba5e61449f,33,female,2024-04-24_12h33.30.383,stockport_simplified,2022.2.4,Win32,60.24096386,661e456ee6de07e70aa9ef7b,6628df8dd46a2121ee749da6,,,,,,,,,,,,,,,,,,,,,,,,,,,,,,,,,,296.3213,298.4028,"[5,6,1,2,7,4,8,3]","[[0.3,0.2],[-0.3,0.2]]","[[-0.125,-0.2],[0.125,-0.2]]",-0.117592593,-0.200925926,1,0,0,1.565,o1_image,298.4102,0,298.9046,298.9047,300.904,0,0,0,0,1,,,,,,,,,,,,,,,,,,,,,,,,,,,,,,,,,,,,,,,,,,,,,,,,,,
,,61635ae3040c7eba5e61449f,33,female,2024-04-24_12h33.30.383,stockport_simplified,2022.2.4,Win32,60.24096386,661e456ee6de07e70aa9ef7b,6628df8dd46a2121ee749da6,,,,,,,,,,,,,,,,,,,,,,,,,,,,,,,,,,,,,,,,,,,,,,,,,,,,,,,,0,25,25,49,1,B,Y,N,o2_image,stimuli/out2.png,stimuli/out1.png,stimuli/correct_out2.png,,,,,,,,,,,,,,,,,,,,,,,,,,,,,,,,,,,,,,
,,61635ae3040c7eba5e61449f,33,female,2024-04-24_12h33.30.383,stockport_simplified,2022.2.4,Win32,60.24096386,661e456ee6de07e70aa9ef7b,6628df8dd46a2121ee749da6,,,,,,,,,,,,,,,,,,,,,,,,,,,,,,,,,,300.9046,303.0031,"[5,6,1,2,7,4,8,3]","[[0.3,0.2],[-0.3,0.2]]","[[-0.125,-0.2],[0.125,-0.2]]",-0.109259259,-0.223148148,1,0,0,1.5828,o1_image,303.0041,1,303.5039,303.504,305.5098,0,0,0,0,1,,,,,,,,,,,,,,,,,,,,,,,,,,,,,,,,,,,,,,,,,,,,,,,,,,
,,61635ae3040c7eba5e61449f,33,female,2024-04-24_12h33.30.383,stockport_simplified,2022.2.4,Win32,60.24096386,661e456ee6de07e70aa9ef7b,6628df8dd46a2121ee749da6,,,,,,,,,,,,,,,,,,,,,,,,,,,,,,,,,,,,,,,,,,,,,,,,,,,,,,,,0,26,26,9,1,A,Y,N,o1_image,stimuli/out1.png,stimuli/correct_out1.png,stimuli/out2.png,,,,,,,,,,,,,,,,,,,,,,,,,,,,,,,,,,,,,,
,,61635ae3040c7eba5e61449f,33,female,2024-04-24_12h33.30.383,stockport_simplified,2022.2.4,Win32,60.24096386,661e456ee6de07e70aa9ef7b,6628df8dd46a2121ee749da6,,,,,,,,,,,,,,,,,,,,,,,,,,,,,,,,,,305.51,307.5697,"[5,6,1,2,7,4,8,3]","[[0.3,0.2],[-0.3,0.2]]","[[0.125,-0.2],[-0.125,-0.2]]",-0.094444444,-0.206481481,1,0,0,1.5485,o2_image,307.5707,1,308.0707,308.0708,310.0699,0,0,0,0,1,,,,,,,,,,,,,,,,,,,,,,,,,,,,,,,,,,,,,,,,,,,,,,,,,,
,,61635ae3040c7eba5e61449f,33,female,2024-04-24_12h33.30.383,stockport_simplified,2022.2.4,Win32,60.24096386,661e456ee6de07e70aa9ef7b,6628df8dd46a2121ee749da6,,,,,,,,,,,,,,,,,,,,,,,,,,,,,,,,,,,,,,,,,,,,,,,,,,,,,,,,0,27,27,25,1,N,M,D,o2_image,stimuli/out2.png,stimuli/out1.png,stimuli/correct_out2.png,,,,,,,,,,,,,,,,,,,,,,,,,,,,,,,,,,,,,,
,,61635ae3040c7eba5e61449f,33,female,2024-04-24_12h33.30.383,stockport_simplified,2022.2.4,Win32,60.24096386,661e456ee6de07e70aa9ef7b,6628df8dd46a2121ee749da6,,,,,,,,,,,,,,,,,,,,,,,,,,,,,,,,,,310.0705,312.8704,"[5,6,1,2,7,4,8,3]","[[0.3,0.2],[-0.3,0.2]]","[[-0.125,-0.2],[0.125,-0.2]]",0.127777778,-0.2,1,0,0,2.2823,o2_image,312.8773,0,313.3699,313.3699,315.3708,0,0,0,0,1,,,,,,,,,,,,,,,,,,,,,,,,,,,,,,,,,,,,,,,,,,,,,,,,,,
,,61635ae3040c7eba5e61449f,33,female,2024-04-24_12h33.30.383,stockport_simplified,2022.2.4,Win32,60.24096386,661e456ee6de07e70aa9ef7b,6628df8dd46a2121ee749da6,,,,,,,,,,,,,,,,,,,,,,,,,,,,,,,,,,,,,,,,,,,,,,,,,,,,,,,,0,28,28,53,1,N,M,C,o1_image,stimuli/out1.png,stimuli/correct_out1.png,stimuli/out2.png,,,,,,,,,,,,,,,,,,,,,,,,,,,,,,,,,,,,,,
,,61635ae3040c7eba5e61449f,33,female,2024-04-24_12h33.30.383,stockport_simplified,2022.2.4,Win32,60.24096386,661e456ee6de07e70aa9ef7b,6628df8dd46a2121ee749da6,,,,,,,,,,,,,,,,,,,,,,,,,,,,,,,,,,315.3714,317.7034,"[5,6,1,2,7,4,8,3]","[[-0.3,0.2],[0.3,0.2]]","[[-0.125,-0.2],[0.125,-0.2]]",0.111111111,-0.192592593,1,0,0,1.8161,o2_image,317.7047,1,318.2097,318.2097,320.2033,0,0,0,0,1,,,,,,,,,,,,,,,,,,,,,,,,,,,,,,,,,,,,,,,,,,,,,,,,,,
,,61635ae3040c7eba5e61449f,33,female,2024-04-24_12h33.30.383,stockport_simplified,2022.2.4,Win32,60.24096386,661e456ee6de07e70aa9ef7b,6628df8dd46a2121ee749da6,,,,,,,,,,,,,,,,,,,,,,,,,,,,,,,,,,,,,,,,,,,,,,,,,,,,,,,,0,29,29,45,1,B,Y,N,o2_image,stimuli/out2.png,stimuli/out1.png,stimuli/correct_out2.png,,,,,,,,,,,,,,,,,,,,,,,,,,,,,,,,,,,,,,
,,61635ae3040c7eba5e61449f,33,female,2024-04-24_12h33.30.383,stockport_simplified,2022.2.4,Win32,60.24096386,661e456ee6de07e70aa9ef7b,6628df8dd46a2121ee749da6,,,,,,,,,,,,,,,,,,,,,,,,,,,,,,,,,,320.2036,322.4697,"[5,6,1,2,7,4,8,3]","[[0.3,0.2],[-0.3,0.2]]","[[-0.125,-0.2],[0.125,-0.2]]",0.101851852,-0.198148148,1,0,0,1.7657,o2_image,322.4767,1,322.9703,322.9703,324.9701,0,0,0,0,1,,,,,,,,,,,,,,,,,,,,,,,,,,,,,,,,,,,,,,,,,,,,,,,,,,
,,61635ae3040c7eba5e61449f,33,female,2024-04-24_12h33.30.383,stockport_simplified,2022.2.4,Win32,60.24096386,661e456ee6de07e70aa9ef7b,6628df8dd46a2121ee749da6,,,,,,,,,,,,,,,,,,,,,,,,,,,,,,,,,,,,,,,,,,,,,,,,,,,,,,,,0,30,30,55,1,N,M,D,o2_image,stimuli/out2.png,stimuli/out1.png,stimuli/correct_out2.png,,,,,,,,,,,,,,,,,,,,,,,,,,,,,,,,,,,,,,
,,61635ae3040c7eba5e61449f,33,female,2024-04-24_12h33.30.383,stockport_simplified,2022.2.4,Win32,60.24096386,661e456ee6de07e70aa9ef7b,6628df8dd46a2121ee749da6,,,,,,,,,,,,,,,,,,,,,,,,,,,,,,,,,,324.9704,327.2198,"[5,6,1,2,7,4,8,3]","[[0.3,0.2],[-0.3,0.2]]","[[-0.125,-0.2],[0.125,-0.2]]",-0.148148148,-0.187962963,1,0,0,1.7332,o1_image,327.2205,1,327.7199,327.72,329.7201,0,0,0,0,1,,,,,,,,,,,,,,,,,,,,,,,,,,,,,,,,,,,,,,,,,,,,,,,,,,
,,61635ae3040c7eba5e61449f,33,female,2024-04-24_12h33.30.383,stockport_simplified,2022.2.4,Win32,60.24096386,661e456ee6de07e70aa9ef7b,6628df8dd46a2121ee749da6,,,,,,,,,,,,,,,,,,,,,,,,,,,,,,,,,,,,,,,,,,,,,,,,,,,,,,,,0,31,31,23,1,N,M,C,o1_image,stimuli/out1.png,stimuli/correct_out1.png,stimuli/out2.png,,,,,,,,,,,,,,,,,,,,,,,,,,,,,,,,,,,,,,
,,61635ae3040c7eba5e61449f,33,female,2024-04-24_12h33.30.383,stockport_simplified,2022.2.4,Win32,60.24096386,661e456ee6de07e70aa9ef7b,6628df8dd46a2121ee749da6,,,,,,,,,,,,,,,,,,,,,,,,,,,,,,,,,,329.7204,332.0031,"[5,6,1,2,7,4,8,3]","[[-0.3,0.2],[0.3,0.2]]","[[0.125,-0.2],[-0.125,-0.2]]",0.12962963,-0.199074074,1,0,0,1.766,o1_image,332.0035,1,332.503,332.5031,334.5029,0,0,0,0,1,,,,,,,,,,,,,,,,,,,,,,,,,,,,,,,,,,,,,,,,,,,,,,,,,,
,,61635ae3040c7eba5e61449f,33,female,2024-04-24_12h33.30.383,stockport_simplified,2022.2.4,Win32,60.24096386,661e456ee6de07e70aa9ef7b,6628df8dd46a2121ee749da6,,,,,,,,,,,,,,,,,,,,,,,,,,,,,,,,,,,,,,,,,,,,,,,,,,,,,,,,0,32,32,31,1,A,X,N,o1_image,stimuli/out1.png,stimuli/correct_out1.png,stimuli/out2.png,,,,,,,,,,,,,,,,,,,,,,,,,,,,,,,,,,,,,,
,,61635ae3040c7eba5e61449f,33,female,2024-04-24_12h33.30.383,stockport_simplified,2022.2.4,Win32,60.24096386,661e456ee6de07e70aa9ef7b,6628df8dd46a2121ee749da6,,,,,,,,,,,,,,,,,,,,,,,,,,,,,,,,,,334.5035,336.4539,"[5,6,1,2,7,4,8,3]","[[-0.3,0.2],[0.3,0.2]]","[[0.125,-0.2],[-0.125,-0.2]]",0.113888889,-0.194444444,1,0,0,1.434,o1_image,336.4548,1,336.9541,336.9542,338.9532,0,0,0,0,1,,,,,,,,,,,,,,,,,,,,,,,,,,,,,,,,,,,,,,,,,,,,,,,,,,
,,61635ae3040c7eba5e61449f,33,female,2024-04-24_12h33.30.383,stockport_simplified,2022.2.4,Win32,60.24096386,661e456ee6de07e70aa9ef7b,6628df8dd46a2121ee749da6,,,,,,,,,,,,,,,,,,,,,,,,,,,,,,,,,,,,,,,,,,,,,,,,,,,,,,,,0,33,33,2,1,A,X,N,o1_image,stimuli/out1.png,stimuli/correct_out1.png,stimuli/out2.png,,,,,,,,,,,,,,,,,,,,,,,,,,,,,,,,,,,,,,
,,61635ae3040c7eba5e61449f,33,female,2024-04-24_12h33.30.383,stockport_simplified,2022.2.4,Win32,60.24096386,661e456ee6de07e70aa9ef7b,6628df8dd46a2121ee749da6,,,,,,,,,,,,,,,,,,,,,,,,,,,,,,,,,,338.9538,340.5863,"[5,6,1,2,7,4,8,3]","[[0.3,0.2],[-0.3,0.2]]","[[0.125,-0.2],[-0.125,-0.2]]",-0.142592593,-0.200925926,1,0,0,1.1153,o2_image,340.5873,1,341.0872,341.0873,343.0874,0,0,0,0,1,,,,,,,,,,,,,,,,,,,,,,,,,,,,,,,,,,,,,,,,,,,,,,,,,,
,,61635ae3040c7eba5e61449f,33,female,2024-04-24_12h33.30.383,stockport_simplified,2022.2.4,Win32,60.24096386,661e456ee6de07e70aa9ef7b,6628df8dd46a2121ee749da6,,,,,,,,,,,,,,,,,,,,,,,,,,,,,,,,,,,,,,,,,,,,,,,,,,,,,,,,0,34,34,10,1,B,X,N,o2_image,stimuli/out2.png,stimuli/out1.png,stimuli/correct_out2.png,,,,,,,,,,,,,,,,,,,,,,,,,,,,,,,,,,,,,,
,,61635ae3040c7eba5e61449f,33,female,2024-04-24_12h33.30.383,stockport_simplified,2022.2.4,Win32,60.24096386,661e456ee6de07e70aa9ef7b,6628df8dd46a2121ee749da6,,,,,,,,,,,,,,,,,,,,,,,,,,,,,,,,,,343.088,344.5708,"[5,6,1,2,7,4,8,3]","[[0.3,0.2],[-0.3,0.2]]","[[0.125,-0.2],[-0.125,-0.2]]",-0.087962963,-0.213888889,1,0,0,0.9668,o2_image,344.5717,1,345.0698,345.0699,347.0708,0,0,0,0,1,,,,,,,,,,,,,,,,,,,,,,,,,,,,,,,,,,,,,,,,,,,,,,,,,,
,,61635ae3040c7eba5e61449f,33,female,2024-04-24_12h33.30.383,stockport_simplified,2022.2.4,Win32,60.24096386,661e456ee6de07e70aa9ef7b,6628df8dd46a2121ee749da6,,,,,,,,,,,,,,,,,,,,,,,,,,,,,,,,,,,,,,,,,,,,,,,,,,,,,,,,0,35,35,26,1,N,M,D,o2_image,stimuli/out2.png,stimuli/out1.png,stimuli/correct_out2.png,,,,,,,,,,,,,,,,,,,,,,,,,,,,,,,,,,,,,,
,,61635ae3040c7eba5e61449f,33,female,2024-04-24_12h33.30.383,stockport_simplified,2022.2.4,Win32,60.24096386,661e456ee6de07e70aa9ef7b,6628df8dd46a2121ee749da6,,,,,,,,,,,,,,,,,,,,,,,,,,,,,,,,,,347.0714,349.2032,"[5,6,1,2,7,4,8,3]","[[-0.3,0.2],[0.3,0.2]]","[[-0.125,-0.2],[0.125,-0.2]]",-0.124074074,-0.22037037,1,0,0,1.615,o1_image,349.204,0,349.7036,349.7037,351.7045,0,0,0,0,1,,,,,,,,,,,,,,,,,,,,,,,,,,,,,,,,,,,,,,,,,,,,,,,,,,
,,61635ae3040c7eba5e61449f,33,female,2024-04-24_12h33.30.383,stockport_simplified,2022.2.4,Win32,60.24096386,661e456ee6de07e70aa9ef7b,6628df8dd46a2121ee749da6,,,,,,,,,,,,,,,,,,,,,,,,,,,,,,,,,,,,,,,,,,,,,,,,,,,,,,,,0,36,36,18,1,B,Y,N,o2_image,stimuli/out2.png,stimuli/out1.png,stimuli/correct_out2.png,,,,,,,,,,,,,,,,,,,,,,,,,,,,,,,,,,,,,,
,,61635ae3040c7eba5e61449f,33,female,2024-04-24_12h33.30.383,stockport_simplified,2022.2.4,Win32,60.24096386,661e456ee6de07e70aa9ef7b,6628df8dd46a2121ee749da6,,,,,,,,,,,,,,,,,,,,,,,,,,,,,,,,,,351.7053,355.1211,"[5,6,1,2,7,4,8,3]","[[0.3,0.2],[-0.3,0.2]]","[[0.125,-0.2],[-0.125,-0.2]]",-0.133333333,-0.187037037,1,0,0,2.8996,o2_image,355.1279,0,355.62,355.62,357.6198,0,0,0,0,1,,,,,,,,,,,,,,,,,,,,,,,,,,,,,,,,,,,,,,,,,,,,,,,,,,
,,61635ae3040c7eba5e61449f,33,female,2024-04-24_12h33.30.383,stockport_simplified,2022.2.4,Win32,60.24096386,661e456ee6de07e70aa9ef7b,6628df8dd46a2121ee749da6,,,,,,,,,,,,,,,,,,,,,,,,,,,,,,,,,,,,,,,,,,,,,,,,,,,,,,,,0,37,37,22,1,N,M,C,o1_image,stimuli/out1.png,stimuli/correct_out1.png,stimuli/out2.png,,,,,,,,,,,,,,,,,,,,,,,,,,,,,,,,,,,,,,
,,61635ae3040c7eba5e61449f,33,female,2024-04-24_12h33.30.383,stockport_simplified,2022.2.4,Win32,60.24096386,661e456ee6de07e70aa9ef7b,6628df8dd46a2121ee749da6,,,,,,,,,,,,,,,,,,,,,,,,,,,,,,,,,,357.6201,361.2534,"[5,6,1,2,7,4,8,3]","[[0.3,0.2],[-0.3,0.2]]","[[-0.125,-0.2],[0.125,-0.2]]",-0.197222222,-0.191666667,1,0,0,3.1326,o1_image,361.2604,0,361.7535,361.7535,363.7542,0,0,0,0,1,,,,,,,,,,,,,,,,,,,,,,,,,,,,,,,,,,,,,,,,,,,,,,,,,,
,,61635ae3040c7eba5e61449f,33,female,2024-04-24_12h33.30.383,stockport_simplified,2022.2.4,Win32,60.24096386,661e456ee6de07e70aa9ef7b,6628df8dd46a2121ee749da6,,,,,,,,,,,,,,,,,,,,,,,,,,,,,,,,,,,,,,,,,,,,,,,,,,,,,,,,0,38,38,41,1,B,X,N,o2_image,stimuli/out2.png,stimuli/out1.png,stimuli/correct_out2.png,,,,,,,,,,,,,,,,,,,,,,,,,,,,,,,,,,,,,,
,,61635ae3040c7eba5e61449f,33,female,2024-04-24_12h33.30.383,stockport_simplified,2022.2.4,Win32,60.24096386,661e456ee6de07e70aa9ef7b,6628df8dd46a2121ee749da6,,,,,,,,,,,,,,,,,,,,,,,,,,,,,,,,,,363.7547,365.5374,"[5,6,1,2,7,4,8,3]","[[0.3,0.2],[-0.3,0.2]]","[[-0.125,-0.2],[0.125,-0.2]]",-0.134259259,-0.183333333,1,0,0,1.266,o1_image,365.5384,0,366.0263,366.0264,368.0207,0,0,0,0,1,,,,,,,,,,,,,,,,,,,,,,,,,,,,,,,,,,,,,,,,,,,,,,,,,,
,,61635ae3040c7eba5e61449f,33,female,2024-04-24_12h33.30.383,stockport_simplified,2022.2.4,Win32,60.24096386,661e456ee6de07e70aa9ef7b,6628df8dd46a2121ee749da6,,,,,,,,,,,,,,,,,,,,,,,,,,,,,,,,,,,,,,,,,,,,,,,,,,,,,,,,0,39,39,47,1,B,Y,N,o2_image,stimuli/out2.png,stimuli/out1.png,stimuli/correct_out2.png,,,,,,,,,,,,,,,,,,,,,,,,,,,,,,,,,,,,,,
,,61635ae3040c7eba5e61449f,33,female,2024-04-24_12h33.30.383,stockport_simplified,2022.2.4,Win32,60.24096386,661e456ee6de07e70aa9ef7b,6628df8dd46a2121ee749da6,,,,,,,,,,,,,,,,,,,,,,,,,,,,,,,,,,368.0213,369.9204,"[5,6,1,2,7,4,8,3]","[[0.3,0.2],[-0.3,0.2]]","[[-0.125,-0.2],[0.125,-0.2]]",-0.132407407,-0.17962963,1,0,0,1.3837,o1_image,369.9212,0,370.4198,370.4199,372.4206,0,0,0,0,1,,,,,,,,,,,,,,,,,,,,,,,,,,,,,,,,,,,,,,,,,,,,,,,,,,
,,61635ae3040c7eba5e61449f,33,female,2024-04-24_12h33.30.383,stockport_simplified,2022.2.4,Win32,60.24096386,661e456ee6de07e70aa9ef7b,6628df8dd46a2121ee749da6,,,,,,,,,,,,,,,,,,,,,,,,,,,,,,,,,,,,,,,,,,,,,,,,,,,,,,,,0,40,40,19,1,B,Y,N,o2_image,stimuli/out2.png,stimuli/out1.png,stimuli/correct_out2.png,,,,,,,,,,,,,,,,,,,,,,,,,,,,,,,,,,,,,,
,,61635ae3040c7eba5e61449f,33,female,2024-04-24_12h33.30.383,stockport_simplified,2022.2.4,Win32,60.24096386,661e456ee6de07e70aa9ef7b,6628df8dd46a2121ee749da6,,,,,,,,,,,,,,,,,,,,,,,,,,,,,,,,,,372.4212,374.9213,"[5,6,1,2,7,4,8,3]","[[0.3,0.2],[-0.3,0.2]]","[[-0.125,-0.2],[0.125,-0.2]]",0.126851852,-0.192592593,1,0,0,1.9831,o2_image,374.928,0,375.4204,375.4204,377.4206,0,0,0,0,1,,,,,,,,,,,,,,,,,,,,,,,,,,,,,,,,,,,,,,,,,,,,,,,,,,
,,61635ae3040c7eba5e61449f,33,female,2024-04-24_12h33.30.383,stockport_simplified,2022.2.4,Win32,60.24096386,661e456ee6de07e70aa9ef7b,6628df8dd46a2121ee749da6,,,,,,,,,,,,,,,,,,,,,,,,,,,,,,,,,,,,,,,,,,,,,,,,,,,,,,,,0,41,41,52,1,N,M,C,o1_image,stimuli/out1.png,stimuli/correct_out1.png,stimuli/out2.png,,,,,,,,,,,,,,,,,,,,,,,,,,,,,,,,,,,,,,
,,61635ae3040c7eba5e61449f,33,female,2024-04-24_12h33.30.383,stockport_simplified,2022.2.4,Win32,60.24096386,661e456ee6de07e70aa9ef7b,6628df8dd46a2121ee749da6,,,,,,,,,,,,,,,,,,,,,,,,,,,,,,,,,,377.4208,378.5374,"[5,6,1,2,7,4,8,3]","[[0.3,0.2],[-0.3,0.2]]","[[-0.125,-0.2],[0.125,-0.2]]",-0.088888889,-0.198148148,1,0,0,0.6002,o1_image,378.539,0,379.0373,379.0374,381.0367,0,0,0,0,1,,,,,,,,,,,,,,,,,,,,,,,,,,,,,,,,,,,,,,,,,,,,,,,,,,
,,61635ae3040c7eba5e61449f,33,female,2024-04-24_12h33.30.383,stockport_simplified,2022.2.4,Win32,60.24096386,661e456ee6de07e70aa9ef7b,6628df8dd46a2121ee749da6,,,,,,,,,,,,,,,,,,,,,,,,,,,,,,,,,,,,,,,,,,,,,,,,,,,,,,,,0,42,42,43,1,B,X,N,o2_image,stimuli/out2.png,stimuli/out1.png,stimuli/correct_out2.png,,,,,,,,,,,,,,,,,,,,,,,,,,,,,,,,,,,,,,
,,61635ae3040c7eba5e61449f,33,female,2024-04-24_12h33.30.383,stockport_simplified,2022.2.4,Win32,60.24096386,661e456ee6de07e70aa9ef7b,6628df8dd46a2121ee749da6,,,,,,,,,,,,,,,,,,,,,,,,,,,,,,,,,,381.0373,383.1698,"[5,6,1,2,7,4,8,3]","[[0.3,0.2],[-0.3,0.2]]","[[0.125,-0.2],[-0.125,-0.2]]",0.130555556,-0.2,1,0,0,1.6159,o1_image,383.1712,1,383.6707,383.6707,385.6702,0,0,0,0,1,,,,,,,,,,,,,,,,,,,,,,,,,,,,,,,,,,,,,,,,,,,,,,,,,,
,,61635ae3040c7eba5e61449f,33,female,2024-04-24_12h33.30.383,stockport_simplified,2022.2.4,Win32,60.24096386,661e456ee6de07e70aa9ef7b,6628df8dd46a2121ee749da6,,,,,,,,,,,,,,,,,,,,,,,,,,,,,,,,,,,,,,,,,,,,,,,,,,,,,,,,0,43,43,24,1,N,M,C,o1_image,stimuli/out1.png,stimuli/correct_out1.png,stimuli/out2.png,,,,,,,,,,,,,,,,,,,,,,,,,,,,,,,,,,,,,,
,,61635ae3040c7eba5e61449f,33,female,2024-04-24_12h33.30.383,stockport_simplified,2022.2.4,Win32,60.24096386,661e456ee6de07e70aa9ef7b,6628df8dd46a2121ee749da6,,,,,,,,,,,,,,,,,,,,,,,,,,,,,,,,,,385.6706,387.3034,"[5,6,1,2,7,4,8,3]","[[0.3,0.2],[-0.3,0.2]]","[[0.125,-0.2],[-0.125,-0.2]]",0.128703704,-0.194444444,1,0,0,1.1166,o1_image,387.3038,0,387.8031,387.8031,389.8036,0,0,0,0,1,,,,,,,,,,,,,,,,,,,,,,,,,,,,,,,,,,,,,,,,,,,,,,,,,,
,,61635ae3040c7eba5e61449f,33,female,2024-04-24_12h33.30.383,stockport_simplified,2022.2.4,Win32,60.24096386,661e456ee6de07e70aa9ef7b,6628df8dd46a2121ee749da6,,,,,,,,,,,,,,,,,,,,,,,,,,,,,,,,,,,,,,,,,,,,,,,,,,,,,,,,0,44,44,58,1,N,M,D,o2_image,stimuli/out2.png,stimuli/out1.png,stimuli/correct_out2.png,,,,,,,,,,,,,,,,,,,,,,,,,,,,,,,,,,,,,,
,,61635ae3040c7eba5e61449f,33,female,2024-04-24_12h33.30.383,stockport_simplified,2022.2.4,Win32,60.24096386,661e456ee6de07e70aa9ef7b,6628df8dd46a2121ee749da6,,,,,,,,,,,,,,,,,,,,,,,,,,,,,,,,,,389.804,392.653,"[5,6,1,2,7,4,8,3]","[[-0.3,0.2],[0.3,0.2]]","[[-0.125,-0.2],[0.125,-0.2]]",-0.146296296,-0.210185185,1,0,0,2.3323,o1_image,392.6597,1,393.1533,393.1533,395.1541,0,0,0,0,1,,,,,,,,,,,,,,,,,,,,,,,,,,,,,,,,,,,,,,,,,,,,,,,,,,
,,61635ae3040c7eba5e61449f,33,female,2024-04-24_12h33.30.383,stockport_simplified,2022.2.4,Win32,60.24096386,661e456ee6de07e70aa9ef7b,6628df8dd46a2121ee749da6,,,,,,,,,,,,,,,,,,,,,,,,,,,,,,,,,,,,,,,,,,,,,,,,,,,,,,,,0,45,45,36,1,A,Y,N,o1_image,stimuli/out1.png,stimuli/correct_out1.png,stimuli/out2.png,,,,,,,,,,,,,,,,,,,,,,,,,,,,,,,,,,,,,,
,,61635ae3040c7eba5e61449f,33,female,2024-04-24_12h33.30.383,stockport_simplified,2022.2.4,Win32,60.24096386,661e456ee6de07e70aa9ef7b,6628df8dd46a2121ee749da6,,,,,,,,,,,,,,,,,,,,,,,,,,,,,,,,,,395.1548,396.8864,"[5,6,1,2,7,4,8,3]","[[-0.3,0.2],[0.3,0.2]]","[[0.125,-0.2],[-0.125,-0.2]]",0.147222222,-0.22037037,1,0,0,1.2158,o1_image,396.8872,0,397.3764,397.3764,399.3699,0,0,0,0,1,,,,,,,,,,,,,,,,,,,,,,,,,,,,,,,,,,,,,,,,,,,,,,,,,,
,,61635ae3040c7eba5e61449f,33,female,2024-04-24_12h33.30.383,stockport_simplified,2022.2.4,Win32,60.24096386,661e456ee6de07e70aa9ef7b,6628df8dd46a2121ee749da6,,,,,,,,,,,,,,,,,,,,,,,,,,,,,,,,,,,,,,,,,,,,,,,,,,,,,,,,0,46,46,14,1,B,X,N,o2_image,stimuli/out2.png,stimuli/out1.png,stimuli/correct_out2.png,,,,,,,,,,,,,,,,,,,,,,,,,,,,,,,,,,,,,,
,,61635ae3040c7eba5e61449f,33,female,2024-04-24_12h33.30.383,stockport_simplified,2022.2.4,Win32,60.24096386,661e456ee6de07e70aa9ef7b,6628df8dd46a2121ee749da6,,,,,,,,,,,,,,,,,,,,,,,,,,,,,,,,,,399.3705,401.5702,"[5,6,1,2,7,4,8,3]","[[0.3,0.2],[-0.3,0.2]]","[[-0.125,-0.2],[0.125,-0.2]]",-0.113888889,-0.203703704,1,0,0,1.6833,o1_image,401.5711,0,402.0595,402.0595,404.054,0,0,0,0,1,,,,,,,,,,,,,,,,,,,,,,,,,,,,,,,,,,,,,,,,,,,,,,,,,,
,,61635ae3040c7eba5e61449f,33,female,2024-04-24_12h33.30.383,stockport_simplified,2022.2.4,Win32,60.24096386,661e456ee6de07e70aa9ef7b,6628df8dd46a2121ee749da6,,,,,,,,,,,,,,,,,,,,,,,,,,,,,,,,,,,,,,,,,,,,,,,,,,,,,,,,0,47,47,12,1,B,X,N,o2_image,stimuli/out2.png,stimuli/out1.png,stimuli/correct_out2.png,,,,,,,,,,,,,,,,,,,,,,,,,,,,,,,,,,,,,,
,,61635ae3040c7eba5e61449f,33,female,2024-04-24_12h33.30.383,stockport_simplified,2022.2.4,Win32,60.24096386,661e456ee6de07e70aa9ef7b,6628df8dd46a2121ee749da6,,,,,,,,,,,,,,,,,,,,,,,,,,,,,,,,,,404.0547,405.7706,"[5,6,1,2,7,4,8,3]","[[0.3,0.2],[-0.3,0.2]]","[[-0.125,-0.2],[0.125,-0.2]]",0.137037037,-0.206481481,1,0,0,1.1991,o2_image,405.7715,0,406.2704,406.2704,408.2698,0,0,0,0,1,,,,,,,,,,,,,,,,,,,,,,,,,,,,,,,,,,,,,,,,,,,,,,,,,,
,,61635ae3040c7eba5e61449f,33,female,2024-04-24_12h33.30.383,stockport_simplified,2022.2.4,Win32,60.24096386,661e456ee6de07e70aa9ef7b,6628df8dd46a2121ee749da6,,,,,,,,,,,,,,,,,,,,,,,,,,,,,,,,,,,,,,,,,,,,,,,,,,,,,,,,0,48,48,21,1,N,M,C,o1_image,stimuli/out1.png,stimuli/correct_out1.png,stimuli/out2.png,,,,,,,,,,,,,,,,,,,,,,,,,,,,,,,,,,,,,,
,,61635ae3040c7eba5e61449f,33,female,2024-04-24_12h33.30.383,stockport_simplified,2022.2.4,Win32,60.24096386,661e456ee6de07e70aa9ef7b,6628df8dd46a2121ee749da6,,,,,,,,,,,,,,,,,,,,,,,,,,,,,,,,,,408.2704,410.3038,"[5,6,1,2,7,4,8,3]","[[-0.3,0.2],[0.3,0.2]]","[[-0.125,-0.2],[0.125,-0.2]]",-0.088888889,-0.207407407,1,0,0,1.5322,o1_image,410.3048,0,410.8041,410.8041,412.8038,0,0,0,0,1,,,,,,,,,,,,,,,,,,,,,,,,,,,,,,,,,,,,,,,,,,,,,,,,,,
,,61635ae3040c7eba5e61449f,33,female,2024-04-24_12h33.30.383,stockport_simplified,2022.2.4,Win32,60.24096386,661e456ee6de07e70aa9ef7b,6628df8dd46a2121ee749da6,,,,,,,,,,,,,,,,,,,,,,,,,,,,,,,,,,,,,,,,,,,,,,,,,,,,,,,,0,49,49,11,1,B,X,N,o2_image,stimuli/out2.png,stimuli/out1.png,stimuli/correct_out2.png,,,,,,,,,,,,,,,,,,,,,,,,,,,,,,,,,,,,,,
,,61635ae3040c7eba5e61449f,33,female,2024-04-24_12h33.30.383,stockport_simplified,2022.2.4,Win32,60.24096386,661e456ee6de07e70aa9ef7b,6628df8dd46a2121ee749da6,,,,,,,,,,,,,,,,,,,,,,,,,,,,,,,,,,412.8044,415.9705,"[5,6,1,2,7,4,8,3]","[[-0.3,0.2],[0.3,0.2]]","[[-0.125,-0.2],[0.125,-0.2]]",0.111111111,-0.188888889,1,0,0,2.6491,o2_image,415.9717,0,416.4599,416.4599,418.4542,0,0,0,0,1,,,,,,,,,,,,,,,,,,,,,,,,,,,,,,,,,,,,,,,,,,,,,,,,,,
,,61635ae3040c7eba5e61449f,33,female,2024-04-24_12h33.30.383,stockport_simplified,2022.2.4,Win32,60.24096386,661e456ee6de07e70aa9ef7b,6628df8dd46a2121ee749da6,,,,,,,,,,,,,,,,,,,,,,,,,,,,,,,,,,,,,,,,,,,,,,,,,,,,,,,,0,50,50,1,1,A,X,N,o1_image,stimuli/out1.png,stimuli/correct_out1.png,stimuli/out2.png,,,,,,,,,,,,,,,,,,,,,,,,,,,,,,,,,,,,,,
,,61635ae3040c7eba5e61449f,33,female,2024-04-24_12h33.30.383,stockport_simplified,2022.2.4,Win32,60.24096386,661e456ee6de07e70aa9ef7b,6628df8dd46a2121ee749da6,,,,,,,,,,,,,,,,,,,,,,,,,,,,,,,,,,418.4549,420.3697,"[5,6,1,2,7,4,8,3]","[[0.3,0.2],[-0.3,0.2]]","[[0.125,-0.2],[-0.125,-0.2]]",-0.069444444,-0.197222222,1,0,0,1.3986,o2_image,420.3706,0,420.8701,420.8701,422.8696,0,0,0,0,1,,,,,,,,,,,,,,,,,,,,,,,,,,,,,,,,,,,,,,,,,,,,,,,,,,
,,61635ae3040c7eba5e61449f,33,female,2024-04-24_12h33.30.383,stockport_simplified,2022.2.4,Win32,60.24096386,661e456ee6de07e70aa9ef7b,6628df8dd46a2121ee749da6,,,,,,,,,,,,,,,,,,,,,,,,,,,,,,,,,,,,,,,,,,,,,,,,,,,,,,,,0,51,51,37,1,A,Y,N,o1_image,stimuli/out1.png,stimuli/correct_out1.png,stimuli/out2.png,,,,,,,,,,,,,,,,,,,,,,,,,,,,,,,,,,,,,,
,,61635ae3040c7eba5e61449f,33,female,2024-04-24_12h33.30.383,stockport_simplified,2022.2.4,Win32,60.24096386,661e456ee6de07e70aa9ef7b,6628df8dd46a2121ee749da6,,,,,,,,,,,,,,,,,,,,,,,,,,,,,,,,,,422.8702,425.6042,"[5,6,1,2,7,4,8,3]","[[0.3,0.2],[-0.3,0.2]]","[[-0.125,-0.2],[0.125,-0.2]]",0.119444444,-0.194444444,1,0,0,2.2165,o2_image,425.6053,0,426.1038,426.1038,428.104,0,0,0,0,1,,,,,,,,,,,,,,,,,,,,,,,,,,,,,,,,,,,,,,,,,,,,,,,,,,
,,61635ae3040c7eba5e61449f,33,female,2024-04-24_12h33.30.383,stockport_simplified,2022.2.4,Win32,60.24096386,661e456ee6de07e70aa9ef7b,6628df8dd46a2121ee749da6,,,,,,,,,,,,,,,,,,,,,,,,,,,,,,,,,,,,,,,,,,,,,,,,,,,,,,,,0,52,52,30,1,A,X,N,o1_image,stimuli/out1.png,stimuli/correct_out1.png,stimuli/out2.png,,,,,,,,,,,,,,,,,,,,,,,,,,,,,,,,,,,,,,
,,61635ae3040c7eba5e61449f,33,female,2024-04-24_12h33.30.383,stockport_simplified,2022.2.4,Win32,60.24096386,661e456ee6de07e70aa9ef7b,6628df8dd46a2121ee749da6,,,,,,,,,,,,,,,,,,,,,,,,,,,,,,,,,,428.1045,429.8374,"[5,6,1,2,7,4,8,3]","[[0.3,0.2],[-0.3,0.2]]","[[0.125,-0.2],[-0.125,-0.2]]",-0.105555556,-0.197222222,1,0,0,1.217,o2_image,429.8385,0,430.3374,430.3376,432.3369,0,0,0,0,1,,,,,,,,,,,,,,,,,,,,,,,,,,,,,,,,,,,,,,,,,,,,,,,,,,
,,61635ae3040c7eba5e61449f,33,female,2024-04-24_12h33.30.383,stockport_simplified,2022.2.4,Win32,60.24096386,661e456ee6de07e70aa9ef7b,6628df8dd46a2121ee749da6,,,,,,,,,,,,,,,,,,,,,,,,,,,,,,,,,,,,,,,,,,,,,,,,,,,,,,,,0,53,53,38,1,A,Y,N,o1_image,stimuli/out1.png,stimuli/correct_out1.png,stimuli/out2.png,,,,,,,,,,,,,,,,,,,,,,,,,,,,,,,,,,,,,,
,,61635ae3040c7eba5e61449f,33,female,2024-04-24_12h33.30.383,stockport_simplified,2022.2.4,Win32,60.24096386,661e456ee6de07e70aa9ef7b,6628df8dd46a2121ee749da6,,,,,,,,,,,,,,,,,,,,,,,,,,,,,,,,,,432.3376,433.3372,"[5,6,1,2,7,4,8,3]","[[0.3,0.2],[-0.3,0.2]]","[[0.125,-0.2],[-0.125,-0.2]]",-0.119444444,-0.205555556,1,0,0,0.4826,o2_image,433.3381,1,433.8375,433.8376,435.8371,0,0,0,0,1,,,,,,,,,,,,,,,,,,,,,,,,,,,,,,,,,,,,,,,,,,,,,,,,,,
,,61635ae3040c7eba5e61449f,33,female,2024-04-24_12h33.30.383,stockport_simplified,2022.2.4,Win32,60.24096386,661e456ee6de07e70aa9ef7b,6628df8dd46a2121ee749da6,,,,,,,,,,,,,,,,,,,,,,,,,,,,,,,,,,,,,,,,,,,,,,,,,,,,,,,,0,54,54,44,1,B,X,N,o2_image,stimuli/out2.png,stimuli/out1.png,stimuli/correct_out2.png,,,,,,,,,,,,,,,,,,,,,,,,,,,,,,,,,,,,,,
,,61635ae3040c7eba5e61449f,33,female,2024-04-24_12h33.30.383,stockport_simplified,2022.2.4,Win32,60.24096386,661e456ee6de07e70aa9ef7b,6628df8dd46a2121ee749da6,,,,,,,,,,,,,,,,,,,,,,,,,,,,,,,,,,435.8377,437.6696,"[5,6,1,2,7,4,8,3]","[[0.3,0.2],[-0.3,0.2]]","[[-0.125,-0.2],[0.125,-0.2]]",-0.078703704,-0.193518519,1,0,0,1.3152,o1_image,437.6705,1,438.1706,438.1706,440.1706,0,0,0,0,1,,,,,,,,,,,,,,,,,,,,,,,,,,,,,,,,,,,,,,,,,,,,,,,,,,
,,61635ae3040c7eba5e61449f,33,female,2024-04-24_12h33.30.383,stockport_simplified,2022.2.4,Win32,60.24096386,661e456ee6de07e70aa9ef7b,6628df8dd46a2121ee749da6,,,,,,,,,,,,,,,,,,,,,,,,,,,,,,,,,,,,,,,,,,,,,,,,,,,,,,,,0,55,55,33,1,A,X,N,o1_image,stimuli/out1.png,stimuli/correct_out1.png,stimuli/out2.png,,,,,,,,,,,,,,,,,,,,,,,,,,,,,,,,,,,,,,
,,61635ae3040c7eba5e61449f,33,female,2024-04-24_12h33.30.383,stockport_simplified,2022.2.4,Win32,60.24096386,661e456ee6de07e70aa9ef7b,6628df8dd46a2121ee749da6,,,,,,,,,,,,,,,,,,,,,,,,,,,,,,,,,,440.1712,442.8867,"[5,6,1,2,7,4,8,3]","[[0.3,0.2],[-0.3,0.2]]","[[-0.125,-0.2],[0.125,-0.2]]",-0.109259259,-0.201851852,1,0,0,2.1987,o1_image,442.8939,0,443.3866,443.3866,445.3866,0,0,0,0,1,,,,,,,,,,,,,,,,,,,,,,,,,,,,,,,,,,,,,,,,,,,,,,,,,,
,,61635ae3040c7eba5e61449f,33,female,2024-04-24_12h33.30.383,stockport_simplified,2022.2.4,Win32,60.24096386,661e456ee6de07e70aa9ef7b,6628df8dd46a2121ee749da6,,,,,,,,,,,,,,,,,,,,,,,,,,,,,,,,,,,,,,,,,,,,,,,,,,,,,,,,0,56,56,57,1,N,M,D,o2_image,stimuli/out2.png,stimuli/out1.png,stimuli/correct_out2.png,,,,,,,,,,,,,,,,,,,,,,,,,,,,,,,,,,,,,,
,,61635ae3040c7eba5e61449f,33,female,2024-04-24_12h33.30.383,stockport_simplified,2022.2.4,Win32,60.24096386,661e456ee6de07e70aa9ef7b,6628df8dd46a2121ee749da6,,,,,,,,,,,,,,,,,,,,,,,,,,,,,,,,,,445.3869,447.5868,"[5,6,1,2,7,4,8,3]","[[0.3,0.2],[-0.3,0.2]]","[[-0.125,-0.2],[0.125,-0.2]]",-0.113888889,-0.216666667,1,0,0,1.6999,o1_image,447.5872,0,448.0866,448.0867,450.0868,0,0,0,0,1,,,,,,,,,,,,,,,,,,,,,,,,,,,,,,,,,,,,,,,,,,,,,,,,,,
,,61635ae3040c7eba5e61449f,33,female,2024-04-24_12h33.30.383,stockport_simplified,2022.2.4,Win32,60.24096386,661e456ee6de07e70aa9ef7b,6628df8dd46a2121ee749da6,,,,,,,,,,,,,,,,,,,,,,,,,,,,,,,,,,,,,,,,,,,,,,,,,,,,,,,,0,57,57,59,1,N,M,D,o2_image,stimuli/out2.png,stimuli/out1.png,stimuli/correct_out2.png,,,,,,,,,,,,,,,,,,,,,,,,,,,,,,,,,,,,,,
,,61635ae3040c7eba5e61449f,33,female,2024-04-24_12h33.30.383,stockport_simplified,2022.2.4,Win32,60.24096386,661e456ee6de07e70aa9ef7b,6628df8dd46a2121ee749da6,,,,,,,,,,,,,,,,,,,,,,,,,,,,,,,,,,450.087,451.8864,"[5,6,1,2,7,4,8,3]","[[0.3,0.2],[-0.3,0.2]]","[[-0.125,-0.2],[0.125,-0.2]]",0.137962963,-0.197222222,1,0,0,1.2825,o2_image,451.8875,0,452.3866,452.3866,454.387,0,0,0,0,1,,,,,,,,,,,,,,,,,,,,,,,,,,,,,,,,,,,,,,,,,,,,,,,,,,
,,61635ae3040c7eba5e61449f,33,female,2024-04-24_12h33.30.383,stockport_simplified,2022.2.4,Win32,60.24096386,661e456ee6de07e70aa9ef7b,6628df8dd46a2121ee749da6,,,,,,,,,,,,,,,,,,,,,,,,,,,,,,,,,,,,,,,,,,,,,,,,,,,,,,,,0,58,58,34,1,A,X,N,o1_image,stimuli/out1.png,stimuli/correct_out1.png,stimuli/out2.png,,,,,,,,,,,,,,,,,,,,,,,,,,,,,,,,,,,,,,
,,61635ae3040c7eba5e61449f,33,female,2024-04-24_12h33.30.383,stockport_simplified,2022.2.4,Win32,60.24096386,661e456ee6de07e70aa9ef7b,6628df8dd46a2121ee749da6,,,,,,,,,,,,,,,,,,,,,,,,,,,,,,,,,,454.3876,458.0364,"[5,6,1,2,7,4,8,3]","[[0.3,0.2],[-0.3,0.2]]","[[0.125,-0.2],[-0.125,-0.2]]",0.113888889,-0.188888889,1,0,0,3.1319,o1_image,458.0434,0,458.5366,458.5366,460.5372,0,0,0,0,1,,,,,,,,,,,,,,,,,,,,,,,,,,,,,,,,,,,,,,,,,,,,,,,,,,
,,61635ae3040c7eba5e61449f,33,female,2024-04-24_12h33.30.383,stockport_simplified,2022.2.4,Win32,60.24096386,661e456ee6de07e70aa9ef7b,6628df8dd46a2121ee749da6,,,,,,,,,,,,,,,,,,,,,,,,,,,,,,,,,,,,,,,,,,,,,,,,,,,,,,,,0,59,59,46,1,B,Y,N,o2_image,stimuli/out2.png,stimuli/out1.png,stimuli/correct_out2.png,,,,,,,,,,,,,,,,,,,,,,,,,,,,,,,,,,,,,,
,,61635ae3040c7eba5e61449f,33,female,2024-04-24_12h33.30.383,stockport_simplified,2022.2.4,Win32,60.24096386,661e456ee6de07e70aa9ef7b,6628df8dd46a2121ee749da6,,,,,,,,,,,,,,,,,,,,,,,,,,,,,,,,,,460.5379,462.5367,"[5,6,1,2,7,4,8,3]","[[0.3,0.2],[-0.3,0.2]]","[[-0.125,-0.2],[0.125,-0.2]]",0.140740741,-0.198148148,1,0,0,1.4824,o2_image,462.5376,1,463.0265,463.0266,465.0204,0,0,0,0,1,,,,,,,,,,,,,,,,,,,,,,,,,,,,,,,,,,,,,,,,,,,,,,,,,,
,,61635ae3040c7eba5e61449f,33,female,2024-04-24_12h33.30.383,stockport_simplified,2022.2.4,Win32,60.24096386,661e456ee6de07e70aa9ef7b,6628df8dd46a2121ee749da6,,,,,,,,,,,,,,,,,,,,,,,,,,,,,,,,,,,,,,,,,,,,,,,,,,,,,,,,1,0,60,17,1,B,Y,N,o2_image,stimuli/out2.png,stimuli/out1.png,stimuli/correct_out2.png,,,,,,,,,,,,,,,,,,,,,,,,,,,,,,,,,,,,,,
,,61635ae3040c7eba5e61449f,33,female,2024-04-24_12h33.30.383,stockport_simplified,2022.2.4,Win32,60.24096386,661e456ee6de07e70aa9ef7b,6628df8dd46a2121ee749da6,,,,,,,,,,,,,,,,,,,,,,,,,,,,,,,,,,465.0211,467.2373,"[5,6,1,2,7,4,8,3]","[[-0.3,0.2],[0.3,0.2]]","[[0.125,-0.2],[-0.125,-0.2]]",0.136111111,-0.219444444,1,0,0,1.6998,o1_image,467.2383,0,467.7425,467.7425,469.7374,0,0,0,0,1,,,,,,,,,,,,,,,,,,,,,,,,,,,,,,,,,,,,,,,,,,,,,,,,,,
,,61635ae3040c7eba5e61449f,33,female,2024-04-24_12h33.30.383,stockport_simplified,2022.2.4,Win32,60.24096386,661e456ee6de07e70aa9ef7b,6628df8dd46a2121ee749da6,,,,,,,,,,,,,,,,,,,,,,,,,,,,,,,,,,,,,,,,,,,,,,,,,,,,,,,,1,1,61,18,1,B,Y,N,o2_image,stimuli/out2.png,stimuli/out1.png,stimuli/correct_out2.png,,,,,,,,,,,,,,,,,,,,,,,,,,,,,,,,,,,,,,
,,61635ae3040c7eba5e61449f,33,female,2024-04-24_12h33.30.383,stockport_simplified,2022.2.4,Win32,60.24096386,661e456ee6de07e70aa9ef7b,6628df8dd46a2121ee749da6,,,,,,,,,,,,,,,,,,,,,,,,,,,,,,,,,,469.738,471.7541,"[5,6,1,2,7,4,8,3]","[[-0.3,0.2],[0.3,0.2]]","[[0.125,-0.2],[-0.125,-0.2]]",-0.125,-0.2,1,0,0,1.5003,o2_image,471.755,1,472.2542,472.2542,474.2533,0,0,0,0,1,,,,,,,,,,,,,,,,,,,,,,,,,,,,,,,,,,,,,,,,,,,,,,,,,,
,,61635ae3040c7eba5e61449f,33,female,2024-04-24_12h33.30.383,stockport_simplified,2022.2.4,Win32,60.24096386,661e456ee6de07e70aa9ef7b,6628df8dd46a2121ee749da6,,,,,,,,,,,,,,,,,,,,,,,,,,,,,,,,,,,,,,,,,,,,,,,,,,,,,,,,1,2,62,15,1,B,Y,N,o2_image,stimuli/out2.png,stimuli/out1.png,stimuli/correct_out2.png,,,,,,,,,,,,,,,,,,,,,,,,,,,,,,,,,,,,,,
,,61635ae3040c7eba5e61449f,33,female,2024-04-24_12h33.30.383,stockport_simplified,2022.2.4,Win32,60.24096386,661e456ee6de07e70aa9ef7b,6628df8dd46a2121ee749da6,,,,,,,,,,,,,,,,,,,,,,,,,,,,,,,,,,474.2538,476.8205,"[5,6,1,2,7,4,8,3]","[[0.3,0.2],[-0.3,0.2]]","[[0.125,-0.2],[-0.125,-0.2]]",0.117592593,-0.212037037,1,0,0,2.0501,o1_image,476.8274,1,477.3207,477.3208,479.3199,0,0,0,0,1,,,,,,,,,,,,,,,,,,,,,,,,,,,,,,,,,,,,,,,,,,,,,,,,,,
,,61635ae3040c7eba5e61449f,33,female,2024-04-24_12h33.30.383,stockport_simplified,2022.2.4,Win32,60.24096386,661e456ee6de07e70aa9ef7b,6628df8dd46a2121ee749da6,,,,,,,,,,,,,,,,,,,,,,,,,,,,,,,,,,,,,,,,,,,,,,,,,,,,,,,,1,3,63,36,1,A,Y,N,o1_image,stimuli/out1.png,stimuli/correct_out1.png,stimuli/out2.png,,,,,,,,,,,,,,,,,,,,,,,,,,,,,,,,,,,,,,
,,61635ae3040c7eba5e61449f,33,female,2024-04-24_12h33.30.383,stockport_simplified,2022.2.4,Win32,60.24096386,661e456ee6de07e70aa9ef7b,6628df8dd46a2121ee749da6,,,,,,,,,,,,,,,,,,,,,,,,,,,,,,,,,,479.3205,482.0541,"[5,6,1,2,7,4,8,3]","[[-0.3,0.2],[0.3,0.2]]","[[-0.125,-0.2],[0.125,-0.2]]",-0.134259259,-0.213888889,1,0,0,2.2326,o1_image,482.055,1,482.5542,482.5542,484.554,0,0,0,0,1,,,,,,,,,,,,,,,,,,,,,,,,,,,,,,,,,,,,,,,,,,,,,,,,,,
,,61635ae3040c7eba5e61449f,33,female,2024-04-24_12h33.30.383,stockport_simplified,2022.2.4,Win32,60.24096386,661e456ee6de07e70aa9ef7b,6628df8dd46a2121ee749da6,,,,,,,,,,,,,,,,,,,,,,,,,,,,,,,,,,,,,,,,,,,,,,,,,,,,,,,,1,4,64,4,1,A,X,N,o1_image,stimuli/out1.png,stimuli/correct_out1.png,stimuli/out2.png,,,,,,,,,,,,,,,,,,,,,,,,,,,,,,,,,,,,,,
,,61635ae3040c7eba5e61449f,33,female,2024-04-24_12h33.30.383,stockport_simplified,2022.2.4,Win32,60.24096386,661e456ee6de07e70aa9ef7b,6628df8dd46a2121ee749da6,,,,,,,,,,,,,,,,,,,,,,,,,,,,,,,,,,484.5546,486.7378,"[5,6,1,2,7,4,8,3]","[[0.3,0.2],[-0.3,0.2]]","[[0.125,-0.2],[-0.125,-0.2]]",-0.092592593,-0.215740741,1,0,0,1.6678,o2_image,486.7446,0,487.2369,487.2369,489.2374,0,0,0,0,1,,,,,,,,,,,,,,,,,,,,,,,,,,,,,,,,,,,,,,,,,,,,,,,,,,
,,61635ae3040c7eba5e61449f,33,female,2024-04-24_12h33.30.383,stockport_simplified,2022.2.4,Win32,60.24096386,661e456ee6de07e70aa9ef7b,6628df8dd46a2121ee749da6,,,,,,,,,,,,,,,,,,,,,,,,,,,,,,,,,,,,,,,,,,,,,,,,,,,,,,,,1,5,65,34,1,A,X,N,o1_image,stimuli/out1.png,stimuli/correct_out1.png,stimuli/out2.png,,,,,,,,,,,,,,,,,,,,,,,,,,,,,,,,,,,,,,
,,61635ae3040c7eba5e61449f,33,female,2024-04-24_12h33.30.383,stockport_simplified,2022.2.4,Win32,60.24096386,661e456ee6de07e70aa9ef7b,6628df8dd46a2121ee749da6,,,,,,,,,,,,,,,,,,,,,,,,,,,,,,,,,,489.238,491.3696,"[5,6,1,2,7,4,8,3]","[[0.3,0.2],[-0.3,0.2]]","[[-0.125,-0.2],[0.125,-0.2]]",-0.137962963,-0.20462963,1,0,0,1.6151,o1_image,491.3704,1,491.876,491.876,493.8707,0,0,0,0,1,,,,,,,,,,,,,,,,,,,,,,,,,,,,,,,,,,,,,,,,,,,,,,,,,,
,,61635ae3040c7eba5e61449f,33,female,2024-04-24_12h33.30.383,stockport_simplified,2022.2.4,Win32,60.24096386,661e456ee6de07e70aa9ef7b,6628df8dd46a2121ee749da6,,,,,,,,,,,,,,,,,,,,,,,,,,,,,,,,,,,,,,,,,,,,,,,,,,,,,,,,1,6,66,8,1,A,Y,N,o1_image,stimuli/out1.png,stimuli/correct_out1.png,stimuli/out2.png,,,,,,,,,,,,,,,,,,,,,,,,,,,,,,,,,,,,,,
,,61635ae3040c7eba5e61449f,33,female,2024-04-24_12h33.30.383,stockport_simplified,2022.2.4,Win32,60.24096386,661e456ee6de07e70aa9ef7b,6628df8dd46a2121ee749da6,,,,,,,,,,,,,,,,,,,,,,,,,,,,,,,,,,493.8713,497.2368,"[5,6,1,2,7,4,8,3]","[[-0.3,0.2],[0.3,0.2]]","[[-0.125,-0.2],[0.125,-0.2]]",-0.132407407,-0.215740741,1,0,0,2.8487,o1_image,497.2438,0,497.7429,497.7429,499.7374,0,0,0,0,1,,,,,,,,,,,,,,,,,,,,,,,,,,,,,,,,,,,,,,,,,,,,,,,,,,
,,61635ae3040c7eba5e61449f,33,female,2024-04-24_12h33.30.383,stockport_simplified,2022.2.4,Win32,60.24096386,661e456ee6de07e70aa9ef7b,6628df8dd46a2121ee749da6,,,,,,,,,,,,,,,,,,,,,,,,,,,,,,,,,,,,,,,,,,,,,,,,,,,,,,,,1,7,67,49,1,B,Y,N,o2_image,stimuli/out2.png,stimuli/out1.png,stimuli/correct_out2.png,,,,,,,,,,,,,,,,,,,,,,,,,,,,,,,,,,,,,,
,,61635ae3040c7eba5e61449f,33,female,2024-04-24_12h33.30.383,stockport_simplified,2022.2.4,Win32,60.24096386,661e456ee6de07e70aa9ef7b,6628df8dd46a2121ee749da6,,,,,,,,,,,,,,,,,,,,,,,,,,,,,,,,,,499.738,502.5875,"[5,6,1,2,7,4,8,3]","[[0.3,0.2],[-0.3,0.2]]","[[-0.125,-0.2],[0.125,-0.2]]",-0.125925926,-0.221296296,1,0,0,2.3331,o1_image,502.5891,1,503.0873,503.0874,505.0868,0,0,0,0,1,,,,,,,,,,,,,,,,,,,,,,,,,,,,,,,,,,,,,,,,,,,,,,,,,,
,,61635ae3040c7eba5e61449f,33,female,2024-04-24_12h33.30.383,stockport_simplified,2022.2.4,Win32,60.24096386,661e456ee6de07e70aa9ef7b,6628df8dd46a2121ee749da6,,,,,,,,,,,,,,,,,,,,,,,,,,,,,,,,,,,,,,,,,,,,,,,,,,,,,,,,1,8,68,54,1,N,M,C,o1_image,stimuli/out1.png,stimuli/correct_out1.png,stimuli/out2.png,,,,,,,,,,,,,,,,,,,,,,,,,,,,,,,,,,,,,,
,,61635ae3040c7eba5e61449f,33,female,2024-04-24_12h33.30.383,stockport_simplified,2022.2.4,Win32,60.24096386,661e456ee6de07e70aa9ef7b,6628df8dd46a2121ee749da6,,,,,,,,,,,,,,,,,,,,,,,,,,,,,,,,,,505.0871,508.12,"[5,6,1,2,7,4,8,3]","[[-0.3,0.2],[0.3,0.2]]","[[0.125,-0.2],[-0.125,-0.2]]",0.152777778,-0.202777778,1,0,0,2.516,o1_image,508.1204,1,508.6199,508.6199,510.6205,0,0,0,0,1,,,,,,,,,,,,,,,,,,,,,,,,,,,,,,,,,,,,,,,,,,,,,,,,,,
,,61635ae3040c7eba5e61449f,33,female,2024-04-24_12h33.30.383,stockport_simplified,2022.2.4,Win32,60.24096386,661e456ee6de07e70aa9ef7b,6628df8dd46a2121ee749da6,,,,,,,,,,,,,,,,,,,,,,,,,,,,,,,,,,,,,,,,,,,,,,,,,,,,,,,,1,9,69,9,1,A,Y,N,o1_image,stimuli/out1.png,stimuli/correct_out1.png,stimuli/out2.png,,,,,,,,,,,,,,,,,,,,,,,,,,,,,,,,,,,,,,
,,61635ae3040c7eba5e61449f,33,female,2024-04-24_12h33.30.383,stockport_simplified,2022.2.4,Win32,60.24096386,661e456ee6de07e70aa9ef7b,6628df8dd46a2121ee749da6,,,,,,,,,,,,,,,,,,,,,,,,,,,,,,,,,,510.621,512.8868,"[5,6,1,2,7,4,8,3]","[[-0.3,0.2],[0.3,0.2]]","[[0.125,-0.2],[-0.125,-0.2]]",-0.12037037,-0.187962963,1,0,0,1.749,o2_image,512.894,1,513.3863,513.3863,515.3873,0,0,0,0,1,,,,,,,,,,,,,,,,,,,,,,,,,,,,,,,,,,,,,,,,,,,,,,,,,,
,,61635ae3040c7eba5e61449f,33,female,2024-04-24_12h33.30.383,stockport_simplified,2022.2.4,Win32,60.24096386,661e456ee6de07e70aa9ef7b,6628df8dd46a2121ee749da6,,,,,,,,,,,,,,,,,,,,,,,,,,,,,,,,,,,,,,,,,,,,,,,,,,,,,,,,1,10,70,48,1,B,Y,N,o2_image,stimuli/out2.png,stimuli/out1.png,stimuli/correct_out2.png,,,,,,,,,,,,,,,,,,,,,,,,,,,,,,,,,,,,,,
,,61635ae3040c7eba5e61449f,33,female,2024-04-24_12h33.30.383,stockport_simplified,2022.2.4,Win32,60.24096386,661e456ee6de07e70aa9ef7b,6628df8dd46a2121ee749da6,,,,,,,,,,,,,,,,,,,,,,,,,,,,,,,,,,515.3879,518.0867,"[5,6,1,2,7,4,8,3]","[[0.3,0.2],[-0.3,0.2]]","[[0.125,-0.2],[-0.125,-0.2]]",0.117592593,-0.187962963,1,0,0,2.1819,o1_image,518.0876,0,518.5764,518.5764,520.5698,0,0,0,0,1,,,,,,,,,,,,,,,,,,,,,,,,,,,,,,,,,,,,,,,,,,,,,,,,,,
,,61635ae3040c7eba5e61449f,33,female,2024-04-24_12h33.30.383,stockport_simplified,2022.2.4,Win32,60.24096386,661e456ee6de07e70aa9ef7b,6628df8dd46a2121ee749da6,,,,,,,,,,,,,,,,,,,,,,,,,,,,,,,,,,,,,,,,,,,,,,,,,,,,,,,,1,11,71,57,1,N,M,D,o2_image,stimuli/out2.png,stimuli/out1.png,stimuli/correct_out2.png,,,,,,,,,,,,,,,,,,,,,,,,,,,,,,,,,,,,,,
,,61635ae3040c7eba5e61449f,33,female,2024-04-24_12h33.30.383,stockport_simplified,2022.2.4,Win32,60.24096386,661e456ee6de07e70aa9ef7b,6628df8dd46a2121ee749da6,,,,,,,,,,,,,,,,,,,,,,,,,,,,,,,,,,520.5702,523.853,"[5,6,1,2,7,4,8,3]","[[0.3,0.2],[-0.3,0.2]]","[[0.125,-0.2],[-0.125,-0.2]]",0.128703704,-0.192592593,1,0,0,2.7661,o1_image,523.8602,0,524.3533,524.3533,526.3541,0,0,0,0,1,,,,,,,,,,,,,,,,,,,,,,,,,,,,,,,,,,,,,,,,,,,,,,,,,,
,,61635ae3040c7eba5e61449f,33,female,2024-04-24_12h33.30.383,stockport_simplified,2022.2.4,Win32,60.24096386,661e456ee6de07e70aa9ef7b,6628df8dd46a2121ee749da6,,,,,,,,,,,,,,,,,,,,,,,,,,,,,,,,,,,,,,,,,,,,,,,,,,,,,,,,1,12,72,40,1,B,X,N,o2_image,stimuli/out2.png,stimuli/out1.png,stimuli/correct_out2.png,,,,,,,,,,,,,,,,,,,,,,,,,,,,,,,,,,,,,,
,,61635ae3040c7eba5e61449f,33,female,2024-04-24_12h33.30.383,stockport_simplified,2022.2.4,Win32,60.24096386,661e456ee6de07e70aa9ef7b,6628df8dd46a2121ee749da6,,,,,,,,,,,,,,,,,,,,,,,,,,,,,,,,,,526.3547,528.3205,"[5,6,1,2,7,4,8,3]","[[0.3,0.2],[-0.3,0.2]]","[[0.125,-0.2],[-0.125,-0.2]]",-0.087962963,-0.187962963,1,0,0,1.4492,o2_image,528.3217,1,528.8097,528.8097,530.8033,0,0,0,0,1,,,,,,,,,,,,,,,,,,,,,,,,,,,,,,,,,,,,,,,,,,,,,,,,,,
,,61635ae3040c7eba5e61449f,33,female,2024-04-24_12h33.30.383,stockport_simplified,2022.2.4,Win32,60.24096386,661e456ee6de07e70aa9ef7b,6628df8dd46a2121ee749da6,,,,,,,,,,,,,,,,,,,,,,,,,,,,,,,,,,,,,,,,,,,,,,,,,,,,,,,,1,13,73,45,1,B,Y,N,o2_image,stimuli/out2.png,stimuli/out1.png,stimuli/correct_out2.png,,,,,,,,,,,,,,,,,,,,,,,,,,,,,,,,,,,,,,
,,61635ae3040c7eba5e61449f,33,female,2024-04-24_12h33.30.383,stockport_simplified,2022.2.4,Win32,60.24096386,661e456ee6de07e70aa9ef7b,6628df8dd46a2121ee749da6,,,,,,,,,,,,,,,,,,,,,,,,,,,,,,,,,,530.8039,532.3542,"[5,6,1,2,7,4,8,3]","[[-0.3,0.2],[0.3,0.2]]","[[0.125,-0.2],[-0.125,-0.2]]",-0.087962963,-0.197222222,1,0,0,1.0334,o2_image,532.3551,1,532.8541,532.8542,534.8545,0,0,0,0,1,,,,,,,,,,,,,,,,,,,,,,,,,,,,,,,,,,,,,,,,,,,,,,,,,,
,,61635ae3040c7eba5e61449f,33,female,2024-04-24_12h33.30.383,stockport_simplified,2022.2.4,Win32,60.24096386,661e456ee6de07e70aa9ef7b,6628df8dd46a2121ee749da6,,,,,,,,,,,,,,,,,,,,,,,,,,,,,,,,,,,,,,,,,,,,,,,,,,,,,,,,1,14,74,12,1,B,X,N,o2_image,stimuli/out2.png,stimuli/out1.png,stimuli/correct_out2.png,,,,,,,,,,,,,,,,,,,,,,,,,,,,,,,,,,,,,,
,,61635ae3040c7eba5e61449f,33,female,2024-04-24_12h33.30.383,stockport_simplified,2022.2.4,Win32,60.24096386,661e456ee6de07e70aa9ef7b,6628df8dd46a2121ee749da6,,,,,,,,,,,,,,,,,,,,,,,,,,,,,,,,,,534.8552,536.1038,"[5,6,1,2,7,4,8,3]","[[-0.3,0.2],[0.3,0.2]]","[[0.125,-0.2],[-0.125,-0.2]]",-0.077777778,-0.235185185,1,0,0,0.7331,o2_image,536.1054,1,536.5933,536.5933,538.5874,0,0,0,0,1,,,,,,,,,,,,,,,,,,,,,,,,,,,,,,,,,,,,,,,,,,,,,,,,,,
,,61635ae3040c7eba5e61449f,33,female,2024-04-24_12h33.30.383,stockport_simplified,2022.2.4,Win32,60.24096386,661e456ee6de07e70aa9ef7b,6628df8dd46a2121ee749da6,,,,,,,,,,,,,,,,,,,,,,,,,,,,,,,,,,,,,,,,,,,,,,,,,,,,,,,,1,15,75,42,1,B,X,N,o2_image,stimuli/out2.png,stimuli/out1.png,stimuli/correct_out2.png,,,,,,,,,,,,,,,,,,,,,,,,,,,,,,,,,,,,,,
,,61635ae3040c7eba5e61449f,33,female,2024-04-24_12h33.30.383,stockport_simplified,2022.2.4,Win32,60.24096386,661e456ee6de07e70aa9ef7b,6628df8dd46a2121ee749da6,,,,,,,,,,,,,,,,,,,,,,,,,,,,,,,,,,538.5882,539.9703,"[5,6,1,2,7,4,8,3]","[[-0.3,0.2],[0.3,0.2]]","[[-0.125,-0.2],[0.125,-0.2]]",-0.087962963,-0.230555556,1,0,0,0.8661,o1_image,539.9713,0,540.4598,540.4599,542.454,0,0,0,0,1,,,,,,,,,,,,,,,,,,,,,,,,,,,,,,,,,,,,,,,,,,,,,,,,,,
,,61635ae3040c7eba5e61449f,33,female,2024-04-24_12h33.30.383,stockport_simplified,2022.2.4,Win32,60.24096386,661e456ee6de07e70aa9ef7b,6628df8dd46a2121ee749da6,,,,,,,,,,,,,,,,,,,,,,,,,,,,,,,,,,,,,,,,,,,,,,,,,,,,,,,,1,16,76,14,1,B,X,N,o2_image,stimuli/out2.png,stimuli/out1.png,stimuli/correct_out2.png,,,,,,,,,,,,,,,,,,,,,,,,,,,,,,,,,,,,,,
,,61635ae3040c7eba5e61449f,33,female,2024-04-24_12h33.30.383,stockport_simplified,2022.2.4,Win32,60.24096386,661e456ee6de07e70aa9ef7b,6628df8dd46a2121ee749da6,,,,,,,,,,,,,,,,,,,,,,,,,,,,,,,,,,542.4546,545.3535,"[5,6,1,2,7,4,8,3]","[[-0.3,0.2],[0.3,0.2]]","[[0.125,-0.2],[-0.125,-0.2]]",0.137962963,-0.194444444,1,0,0,2.3823,o1_image,545.3605,1,545.8533,545.8533,547.8533,0,0,0,0,1,,,,,,,,,,,,,,,,,,,,,,,,,,,,,,,,,,,,,,,,,,,,,,,,,,
,,61635ae3040c7eba5e61449f,33,female,2024-04-24_12h33.30.383,stockport_simplified,2022.2.4,Win32,60.24096386,661e456ee6de07e70aa9ef7b,6628df8dd46a2121ee749da6,,,,,,,,,,,,,,,,,,,,,,,,,,,,,,,,,,,,,,,,,,,,,,,,,,,,,,,,1,17,77,38,1,A,Y,N,o1_image,stimuli/out1.png,stimuli/correct_out1.png,stimuli/out2.png,,,,,,,,,,,,,,,,,,,,,,,,,,,,,,,,,,,,,,
,,61635ae3040c7eba5e61449f,33,female,2024-04-24_12h33.30.383,stockport_simplified,2022.2.4,Win32,60.24096386,661e456ee6de07e70aa9ef7b,6628df8dd46a2121ee749da6,,,,,,,,,,,,,,,,,,,,,,,,,,,,,,,,,,547.8538,550.2037,"[5,6,1,2,7,4,8,3]","[[0.3,0.2],[-0.3,0.2]]","[[0.125,-0.2],[-0.125,-0.2]]",0.099074074,-0.210185185,1,0,0,1.8492,o1_image,550.2046,0,550.7044,550.7045,552.704,0,0,0,0,1,,,,,,,,,,,,,,,,,,,,,,,,,,,,,,,,,,,,,,,,,,,,,,,,,,
,,61635ae3040c7eba5e61449f,33,female,2024-04-24_12h33.30.383,stockport_simplified,2022.2.4,Win32,60.24096386,661e456ee6de07e70aa9ef7b,6628df8dd46a2121ee749da6,,,,,,,,,,,,,,,,,,,,,,,,,,,,,,,,,,,,,,,,,,,,,,,,,,,,,,,,1,18,78,47,1,B,Y,N,o2_image,stimuli/out2.png,stimuli/out1.png,stimuli/correct_out2.png,,,,,,,,,,,,,,,,,,,,,,,,,,,,,,,,,,,,,,
,,61635ae3040c7eba5e61449f,33,female,2024-04-24_12h33.30.383,stockport_simplified,2022.2.4,Win32,60.24096386,661e456ee6de07e70aa9ef7b,6628df8dd46a2121ee749da6,,,,,,,,,,,,,,,,,,,,,,,,,,,,,,,,,,552.7047,554.554,"[5,6,1,2,7,4,8,3]","[[0.3,0.2],[-0.3,0.2]]","[[0.125,-0.2],[-0.125,-0.2]]",0.135185185,-0.222222222,1,0,0,1.3334,o1_image,554.5549,1,555.0431,555.0432,557.0367,0,0,0,0,1,,,,,,,,,,,,,,,,,,,,,,,,,,,,,,,,,,,,,,,,,,,,,,,,,,
,,61635ae3040c7eba5e61449f,33,female,2024-04-24_12h33.30.383,stockport_simplified,2022.2.4,Win32,60.24096386,661e456ee6de07e70aa9ef7b,6628df8dd46a2121ee749da6,,,,,,,,,,,,,,,,,,,,,,,,,,,,,,,,,,,,,,,,,,,,,,,,,,,,,,,,1,19,79,50,1,N,M,C,o1_image,stimuli/out1.png,stimuli/correct_out1.png,stimuli/out2.png,,,,,,,,,,,,,,,,,,,,,,,,,,,,,,,,,,,,,,
,,61635ae3040c7eba5e61449f,33,female,2024-04-24_12h33.30.383,stockport_simplified,2022.2.4,Win32,60.24096386,661e456ee6de07e70aa9ef7b,6628df8dd46a2121ee749da6,,,,,,,,,,,,,,,,,,,,,,,,,,,,,,,,,,557.0369,561.27,"[5,6,1,2,7,4,8,3]","[[-0.3,0.2],[0.3,0.2]]","[[-0.125,-0.2],[0.125,-0.2]]",0.128703704,-0.193518519,1,0,0,3.7158,o2_image,561.2771,0,561.7701,561.7701,563.7708,0,0,0,0,1,,,,,,,,,,,,,,,,,,,,,,,,,,,,,,,,,,,,,,,,,,,,,,,,,,
,,61635ae3040c7eba5e61449f,33,female,2024-04-24_12h33.30.383,stockport_simplified,2022.2.4,Win32,60.24096386,661e456ee6de07e70aa9ef7b,6628df8dd46a2121ee749da6,,,,,,,,,,,,,,,,,,,,,,,,,,,,,,,,,,,,,,,,,,,,,,,,,,,,,,,,1,20,80,1,1,A,X,N,o1_image,stimuli/out1.png,stimuli/correct_out1.png,stimuli/out2.png,,,,,,,,,,,,,,,,,,,,,,,,,,,,,,,,,,,,,,
,,61635ae3040c7eba5e61449f,33,female,2024-04-24_12h33.30.383,stockport_simplified,2022.2.4,Win32,60.24096386,661e456ee6de07e70aa9ef7b,6628df8dd46a2121ee749da6,,,,,,,,,,,,,,,,,,,,,,,,,,,,,,,,,,563.7714,566.4208,"[5,6,1,2,7,4,8,3]","[[0.3,0.2],[-0.3,0.2]]","[[-0.125,-0.2],[0.125,-0.2]]",-0.112962963,-0.199074074,1,0,0,2.1327,o1_image,566.4217,1,566.9199,566.9199,568.9206,0,0,0,0,1,,,,,,,,,,,,,,,,,,,,,,,,,,,,,,,,,,,,,,,,,,,,,,,,,,
,,61635ae3040c7eba5e61449f,33,female,2024-04-24_12h33.30.383,stockport_simplified,2022.2.4,Win32,60.24096386,661e456ee6de07e70aa9ef7b,6628df8dd46a2121ee749da6,,,,,,,,,,,,,,,,,,,,,,,,,,,,,,,,,,,,,,,,,,,,,,,,,,,,,,,,1,21,81,5,1,A,Y,N,o1_image,stimuli/out1.png,stimuli/correct_out1.png,stimuli/out2.png,,,,,,,,,,,,,,,,,,,,,,,,,,,,,,,,,,,,,,
,,61635ae3040c7eba5e61449f,33,female,2024-04-24_12h33.30.383,stockport_simplified,2022.2.4,Win32,60.24096386,661e456ee6de07e70aa9ef7b,6628df8dd46a2121ee749da6,,,,,,,,,,,,,,,,,,,,,,,,,,,,,,,,,,568.9212,570.8868,"[5,6,1,2,7,4,8,3]","[[-0.3,0.2],[0.3,0.2]]","[[-0.125,-0.2],[0.125,-0.2]]",-0.112037037,-0.2,1,0,0,1.4497,o1_image,570.8878,0,571.3765,571.3765,573.3698,0,0,0,0,1,,,,,,,,,,,,,,,,,,,,,,,,,,,,,,,,,,,,,,,,,,,,,,,,,,
,,61635ae3040c7eba5e61449f,33,female,2024-04-24_12h33.30.383,stockport_simplified,2022.2.4,Win32,60.24096386,661e456ee6de07e70aa9ef7b,6628df8dd46a2121ee749da6,,,,,,,,,,,,,,,,,,,,,,,,,,,,,,,,,,,,,,,,,,,,,,,,,,,,,,,,1,22,82,27,1,N,M,D,o2_image,stimuli/out2.png,stimuli/out1.png,stimuli/correct_out2.png,,,,,,,,,,,,,,,,,,,,,,,,,,,,,,,,,,,,,,
,,61635ae3040c7eba5e61449f,33,female,2024-04-24_12h33.30.383,stockport_simplified,2022.2.4,Win32,60.24096386,661e456ee6de07e70aa9ef7b,6628df8dd46a2121ee749da6,,,,,,,,,,,,,,,,,,,,,,,,,,,,,,,,,,573.3701,576.7204,"[5,6,1,2,7,4,8,3]","[[-0.3,0.2],[0.3,0.2]]","[[-0.125,-0.2],[0.125,-0.2]]",0.112037037,-0.196296296,1,0,0,2.8332,o2_image,576.7213,1,577.2095,577.2096,579.2035,0,0,0,0,1,,,,,,,,,,,,,,,,,,,,,,,,,,,,,,,,,,,,,,,,,,,,,,,,,,
,,61635ae3040c7eba5e61449f,33,female,2024-04-24_12h33.30.383,stockport_simplified,2022.2.4,Win32,60.24096386,661e456ee6de07e70aa9ef7b,6628df8dd46a2121ee749da6,,,,,,,,,,,,,,,,,,,,,,,,,,,,,,,,,,,,,,,,,,,,,,,,,,,,,,,,1,23,83,11,1,B,X,N,o2_image,stimuli/out2.png,stimuli/out1.png,stimuli/correct_out2.png,,,,,,,,,,,,,,,,,,,,,,,,,,,,,,,,,,,,,,
,,61635ae3040c7eba5e61449f,33,female,2024-04-24_12h33.30.383,stockport_simplified,2022.2.4,Win32,60.24096386,661e456ee6de07e70aa9ef7b,6628df8dd46a2121ee749da6,,,,,,,,,,,,,,,,,,,,,,,,,,,,,,,,,,579.2037,581.4702,"[5,6,1,2,7,4,8,3]","[[-0.3,0.2],[0.3,0.2]]","[[0.125,-0.2],[-0.125,-0.2]]",0.165740741,-0.205555556,1,0,0,1.75,o1_image,581.4707,1,581.9701,581.9701,583.9701,0,0,0,0,1,,,,,,,,,,,,,,,,,,,,,,,,,,,,,,,,,,,,,,,,,,,,,,,,,,
,,61635ae3040c7eba5e61449f,33,female,2024-04-24_12h33.30.383,stockport_simplified,2022.2.4,Win32,60.24096386,661e456ee6de07e70aa9ef7b,6628df8dd46a2121ee749da6,,,,,,,,,,,,,,,,,,,,,,,,,,,,,,,,,,,,,,,,,,,,,,,,,,,,,,,,1,24,84,32,1,A,X,N,o1_image,stimuli/out1.png,stimuli/correct_out1.png,stimuli/out2.png,,,,,,,,,,,,,,,,,,,,,,,,,,,,,,,,,,,,,,
,,61635ae3040c7eba5e61449f,33,female,2024-04-24_12h33.30.383,stockport_simplified,2022.2.4,Win32,60.24096386,661e456ee6de07e70aa9ef7b,6628df8dd46a2121ee749da6,,,,,,,,,,,,,,,,,,,,,,,,,,,,,,,,,,583.9702,585.9539,"[5,6,1,2,7,4,8,3]","[[0.3,0.2],[-0.3,0.2]]","[[0.125,-0.2],[-0.125,-0.2]]",0.114814815,-0.198148148,1,0,0,1.4667,o1_image,585.9548,1,586.443,586.443,588.4369,0,0,0,0,1,,,,,,,,,,,,,,,,,,,,,,,,,,,,,,,,,,,,,,,,,,,,,,,,,,
,,61635ae3040c7eba5e61449f,33,female,2024-04-24_12h33.30.383,stockport_simplified,2022.2.4,Win32,60.24096386,661e456ee6de07e70aa9ef7b,6628df8dd46a2121ee749da6,,,,,,,,,,,,,,,,,,,,,,,,,,,,,,,,,,,,,,,,,,,,,,,,,,,,,,,,1,25,85,22,1,N,M,C,o1_image,stimuli/out1.png,stimuli/correct_out1.png,stimuli/out2.png,,,,,,,,,,,,,,,,,,,,,,,,,,,,,,,,,,,,,,
,,61635ae3040c7eba5e61449f,33,female,2024-04-24_12h33.30.383,stockport_simplified,2022.2.4,Win32,60.24096386,661e456ee6de07e70aa9ef7b,6628df8dd46a2121ee749da6,,,,,,,,,,,,,,,,,,,,,,,,,,,,,,,,,,588.4372,590.9927,"[5,6,1,2,7,4,8,3]","[[-0.3,0.2],[0.3,0.2]]","[[-0.125,-0.2],[0.125,-0.2]]",0.088888889,-0.207407407,1,0,0,2.0391,o2_image,590.999,0,591.5033,591.5033,593.5034,0,0,0,0,1,,,,,,,,,,,,,,,,,,,,,,,,,,,,,,,,,,,,,,,,,,,,,,,,,,
,,61635ae3040c7eba5e61449f,33,female,2024-04-24_12h33.30.383,stockport_simplified,2022.2.4,Win32,60.24096386,661e456ee6de07e70aa9ef7b,6628df8dd46a2121ee749da6,,,,,,,,,,,,,,,,,,,,,,,,,,,,,,,,,,,,,,,,,,,,,,,,,,,,,,,,1,26,86,3,1,A,X,N,o1_image,stimuli/out1.png,stimuli/correct_out1.png,stimuli/out2.png,,,,,,,,,,,,,,,,,,,,,,,,,,,,,,,,,,,,,,
,,61635ae3040c7eba5e61449f,33,female,2024-04-24_12h33.30.383,stockport_simplified,2022.2.4,Win32,60.24096386,661e456ee6de07e70aa9ef7b,6628df8dd46a2121ee749da6,,,,,,,,,,,,,,,,,,,,,,,,,,,,,,,,,,593.5043,595.9706,"[5,6,1,2,7,4,8,3]","[[-0.3,0.2],[0.3,0.2]]","[[-0.125,-0.2],[0.125,-0.2]]",-0.114814815,-0.191666667,1,0,0,1.9502,o1_image,595.9717,1,596.4598,596.4598,598.4536,0,0,0,0,1,,,,,,,,,,,,,,,,,,,,,,,,,,,,,,,,,,,,,,,,,,,,,,,,,,
,,61635ae3040c7eba5e61449f,33,female,2024-04-24_12h33.30.383,stockport_simplified,2022.2.4,Win32,60.24096386,661e456ee6de07e70aa9ef7b,6628df8dd46a2121ee749da6,,,,,,,,,,,,,,,,,,,,,,,,,,,,,,,,,,,,,,,,,,,,,,,,,,,,,,,,1,27,87,24,1,N,M,C,o1_image,stimuli/out1.png,stimuli/correct_out1.png,stimuli/out2.png,,,,,,,,,,,,,,,,,,,,,,,,,,,,,,,,,,,,,,
,,61635ae3040c7eba5e61449f,33,female,2024-04-24_12h33.30.383,stockport_simplified,2022.2.4,Win32,60.24096386,661e456ee6de07e70aa9ef7b,6628df8dd46a2121ee749da6,,,,,,,,,,,,,,,,,,,,,,,,,,,,,,,,,,598.4538,600.9879,"[5,6,1,2,7,4,8,3]","[[-0.3,0.2],[0.3,0.2]]","[[0.125,-0.2],[-0.125,-0.2]]",0.131481481,-0.192592593,1,0,0,2.0173,o1_image,600.9947,1,601.4868,601.4868,603.4869,0,0,0,0,1,,,,,,,,,,,,,,,,,,,,,,,,,,,,,,,,,,,,,,,,,,,,,,,,,,
,,61635ae3040c7eba5e61449f,33,female,2024-04-24_12h33.30.383,stockport_simplified,2022.2.4,Win32,60.24096386,661e456ee6de07e70aa9ef7b,6628df8dd46a2121ee749da6,,,,,,,,,,,,,,,,,,,,,,,,,,,,,,,,,,,,,,,,,,,,,,,,,,,,,,,,1,28,88,30,1,A,X,N,o1_image,stimuli/out1.png,stimuli/correct_out1.png,stimuli/out2.png,,,,,,,,,,,,,,,,,,,,,,,,,,,,,,,,,,,,,,
,,61635ae3040c7eba5e61449f,33,female,2024-04-24_12h33.30.383,stockport_simplified,2022.2.4,Win32,60.24096386,661e456ee6de07e70aa9ef7b,6628df8dd46a2121ee749da6,,,,,,,,,,,,,,,,,,,,,,,,,,,,,,,,,,603.4875,605.4197,"[5,6,1,2,7,4,8,3]","[[0.3,0.2],[-0.3,0.2]]","[[0.125,-0.2],[-0.125,-0.2]]",-0.118518519,-0.202777778,1,0,0,1.4164,o2_image,605.4205,1,605.9207,605.9207,607.9205,0,0,0,0,1,,,,,,,,,,,,,,,,,,,,,,,,,,,,,,,,,,,,,,,,,,,,,,,,,,
,,61635ae3040c7eba5e61449f,33,female,2024-04-24_12h33.30.383,stockport_simplified,2022.2.4,Win32,60.24096386,661e456ee6de07e70aa9ef7b,6628df8dd46a2121ee749da6,,,,,,,,,,,,,,,,,,,,,,,,,,,,,,,,,,,,,,,,,,,,,,,,,,,,,,,,1,29,89,43,1,B,X,N,o2_image,stimuli/out2.png,stimuli/out1.png,stimuli/correct_out2.png,,,,,,,,,,,,,,,,,,,,,,,,,,,,,,,,,,,,,,
,,61635ae3040c7eba5e61449f,33,female,2024-04-24_12h33.30.383,stockport_simplified,2022.2.4,Win32,60.24096386,661e456ee6de07e70aa9ef7b,6628df8dd46a2121ee749da6,,,,,,,,,,,,,,,,,,,,,,,,,,,,,,,,,,607.9211,609.9699,"[5,6,1,2,7,4,8,3]","[[0.3,0.2],[-0.3,0.2]]","[[-0.125,-0.2],[0.125,-0.2]]",0.088888889,-0.183333333,1,0,0,1.532,o2_image,609.9708,0,610.4699,610.4699,612.471,0,0,0,0,1,,,,,,,,,,,,,,,,,,,,,,,,,,,,,,,,,,,,,,,,,,,,,,,,,,
,,61635ae3040c7eba5e61449f,33,female,2024-04-24_12h33.30.383,stockport_simplified,2022.2.4,Win32,60.24096386,661e456ee6de07e70aa9ef7b,6628df8dd46a2121ee749da6,,,,,,,,,,,,,,,,,,,,,,,,,,,,,,,,,,,,,,,,,,,,,,,,,,,,,,,,1,30,90,31,1,A,X,N,o1_image,stimuli/out1.png,stimuli/correct_out1.png,stimuli/out2.png,,,,,,,,,,,,,,,,,,,,,,,,,,,,,,,,,,,,,,
,,61635ae3040c7eba5e61449f,33,female,2024-04-24_12h33.30.383,stockport_simplified,2022.2.4,Win32,60.24096386,661e456ee6de07e70aa9ef7b,6628df8dd46a2121ee749da6,,,,,,,,,,,,,,,,,,,,,,,,,,,,,,,,,,612.4716,616.6931,"[5,6,1,2,7,4,8,3]","[[0.3,0.2],[-0.3,0.2]]","[[0.125,-0.2],[-0.125,-0.2]]",-0.127777778,-0.19537037,1,0,0,3.7048,o2_image,616.6993,0,617.2034,617.2034,619.1927,0,0,0,0,1,,,,,,,,,,,,,,,,,,,,,,,,,,,,,,,,,,,,,,,,,,,,,,,,,,
,,61635ae3040c7eba5e61449f,33,female,2024-04-24_12h33.30.383,stockport_simplified,2022.2.4,Win32,60.24096386,661e456ee6de07e70aa9ef7b,6628df8dd46a2121ee749da6,,,,,,,,,,,,,,,,,,,,,,,,,,,,,,,,,,,,,,,,,,,,,,,,,,,,,,,,1,31,91,35,1,A,Y,N,o1_image,stimuli/out1.png,stimuli/correct_out1.png,stimuli/out2.png,,,,,,,,,,,,,,,,,,,,,,,,,,,,,,,,,,,,,,
,,61635ae3040c7eba5e61449f,33,female,2024-04-24_12h33.30.383,stockport_simplified,2022.2.4,Win32,60.24096386,661e456ee6de07e70aa9ef7b,6628df8dd46a2121ee749da6,,,,,,,,,,,,,,,,,,,,,,,,,,,,,,,,,,619.1928,621.8204,"[5,6,1,2,7,4,8,3]","[[0.3,0.2],[-0.3,0.2]]","[[-0.125,-0.2],[0.125,-0.2]]",0.141666667,-0.190740741,1,0,0,2.1168,o2_image,621.8213,1,622.326,622.326,624.3201,0,0,0,0,1,,,,,,,,,,,,,,,,,,,,,,,,,,,,,,,,,,,,,,,,,,,,,,,,,,
,,61635ae3040c7eba5e61449f,33,female,2024-04-24_12h33.30.383,stockport_simplified,2022.2.4,Win32,60.24096386,661e456ee6de07e70aa9ef7b,6628df8dd46a2121ee749da6,,,,,,,,,,,,,,,,,,,,,,,,,,,,,,,,,,,,,,,,,,,,,,,,,,,,,,,,1,32,92,29,1,N,M,D,o2_image,stimuli/out2.png,stimuli/out1.png,stimuli/correct_out2.png,,,,,,,,,,,,,,,,,,,,,,,,,,,,,,,,,,,,,,
,,61635ae3040c7eba5e61449f,33,female,2024-04-24_12h33.30.383,stockport_simplified,2022.2.4,Win32,60.24096386,661e456ee6de07e70aa9ef7b,6628df8dd46a2121ee749da6,,,,,,,,,,,,,,,,,,,,,,,,,,,,,,,,,,624.3204,626.9701,"[5,6,1,2,7,4,8,3]","[[-0.3,0.2],[0.3,0.2]]","[[-0.125,-0.2],[0.125,-0.2]]",0.111111111,-0.181481481,1,0,0,2.1329,o2_image,626.9711,0,627.4699,627.4699,629.4703,0,0,0,0,1,,,,,,,,,,,,,,,,,,,,,,,,,,,,,,,,,,,,,,,,,,,,,,,,,,
,,61635ae3040c7eba5e61449f,33,female,2024-04-24_12h33.30.383,stockport_simplified,2022.2.4,Win32,60.24096386,661e456ee6de07e70aa9ef7b,6628df8dd46a2121ee749da6,,,,,,,,,,,,,,,,,,,,,,,,,,,,,,,,,,,,,,,,,,,,,,,,,,,,,,,,1,33,93,6,1,A,Y,N,o1_image,stimuli/out1.png,stimuli/correct_out1.png,stimuli/out2.png,,,,,,,,,,,,,,,,,,,,,,,,,,,,,,,,,,,,,,
,,61635ae3040c7eba5e61449f,33,female,2024-04-24_12h33.30.383,stockport_simplified,2022.2.4,Win32,60.24096386,661e456ee6de07e70aa9ef7b,6628df8dd46a2121ee749da6,,,,,,,,,,,,,,,,,,,,,,,,,,,,,,,,,,629.4707,640.9701,"[5,6,1,2,7,4,8,3]","[[-0.3,0.2],[0.3,0.2]]","[[0.125,-0.2],[-0.125,-0.2]]",0.017391304,0.247826087,1,0,0,5.8499,,,,,,,,,,,,1,34,94,0,1,A,X,N,o1_image,stimuli/out1.png,stimuli/correct_out1.png,stimuli/out2.png,,,,,,,,,,,,,,,,,,,,,,,,,,,,,,,,,,,,,,
,,61635ae3040c7eba5e61449f,33,female,2024-04-24_12h33.30.383,stockport_simplified,2022.2.4,Win32,60.24096386,661e456ee6de07e70aa9ef7b,6628df8dd46a2121ee749da6,,,,,,,,,,,,,,,,,,,,,,,,,,,,,,,,,,640.9717,642.4031,"[5,6,1,2,7,4,8,3]","[[0.3,0.2],[-0.3,0.2]]","[[0.125,-0.2],[-0.125,-0.2]]",0.141821946,-0.166666667,1,0,0,0.9156,o1_image,642.4035,0,642.9036,642.9036,644.9035,0,0,0,0,1,,,,,,,,,,,,,,,,,,,,,,,,,,,,,,,,,,,,,,,,,,,,,,,,,,
,,61635ae3040c7eba5e61449f,33,female,2024-04-24_12h33.30.383,stockport_simplified,2022.2.4,Win32,60.24096386,661e456ee6de07e70aa9ef7b,6628df8dd46a2121ee749da6,,,,,,,,,,,,,,,,,,,,,,,,,,,,,,,,,,,,,,,,,,,,,,,,,,,,,,,,1,35,95,46,1,B,Y,N,o2_image,stimuli/out2.png,stimuli/out1.png,stimuli/correct_out2.png,,,,,,,,,,,,,,,,,,,,,,,,,,,,,,,,,,,,,,
,,61635ae3040c7eba5e61449f,33,female,2024-04-24_12h33.30.383,stockport_simplified,2022.2.4,Win32,60.24096386,661e456ee6de07e70aa9ef7b,6628df8dd46a2121ee749da6,,,,,,,,,,,,,,,,,,,,,,,,,,,,,,,,,,644.9039,646.7696,"[5,6,1,2,7,4,8,3]","[[0.3,0.2],[-0.3,0.2]]","[[0.125,-0.2],[-0.125,-0.2]]",-0.102484472,-0.180124224,1,0,0,1.349,o2_image,646.7699,1,647.2704,647.2704,649.2701,0,0,0,0,1,,,,,,,,,,,,,,,,,,,,,,,,,,,,,,,,,,,,,,,,,,,,,,,,,,
,,61635ae3040c7eba5e61449f,33,female,2024-04-24_12h33.30.383,stockport_simplified,2022.2.4,Win32,60.24096386,661e456ee6de07e70aa9ef7b,6628df8dd46a2121ee749da6,,,,,,,,,,,,,,,,,,,,,,,,,,,,,,,,,,,,,,,,,,,,,,,,,,,,,,,,1,36,96,16,1,B,Y,N,o2_image,stimuli/out2.png,stimuli/out1.png,stimuli/correct_out2.png,,,,,,,,,,,,,,,,,,,,,,,,,,,,,,,,,,,,,,
,,61635ae3040c7eba5e61449f,33,female,2024-04-24_12h33.30.383,stockport_simplified,2022.2.4,Win32,60.24096386,661e456ee6de07e70aa9ef7b,6628df8dd46a2121ee749da6,,,,,,,,,,,,,,,,,,,,,,,,,,,,,,,,,,649.2711,651.3696,"[5,6,1,2,7,4,8,3]","[[0.3,0.2],[-0.3,0.2]]","[[0.125,-0.2],[-0.125,-0.2]]",0.109730849,-0.170807453,1,0,0,1.5826,o1_image,651.3699,0,651.8707,651.8708,653.8701,0,0,0,0,1,,,,,,,,,,,,,,,,,,,,,,,,,,,,,,,,,,,,,,,,,,,,,,,,,,
,,61635ae3040c7eba5e61449f,33,female,2024-04-24_12h33.30.383,stockport_simplified,2022.2.4,Win32,60.24096386,661e456ee6de07e70aa9ef7b,6628df8dd46a2121ee749da6,,,,,,,,,,,,,,,,,,,,,,,,,,,,,,,,,,,,,,,,,,,,,,,,,,,,,,,,1,37,97,41,1,B,X,N,o2_image,stimuli/out2.png,stimuli/out1.png,stimuli/correct_out2.png,,,,,,,,,,,,,,,,,,,,,,,,,,,,,,,,,,,,,,
,,61635ae3040c7eba5e61449f,33,female,2024-04-24_12h33.30.383,stockport_simplified,2022.2.4,Win32,60.24096386,661e456ee6de07e70aa9ef7b,6628df8dd46a2121ee749da6,,,,,,,,,,,,,,,,,,,,,,,,,,,,,,,,,,653.8708,655.5703,"[5,6,1,2,7,4,8,3]","[[0.3,0.2],[-0.3,0.2]]","[[-0.125,-0.2],[0.125,-0.2]]",-0.122153209,-0.192546584,1,0,0,1.183,o1_image,655.5714,1,656.07,656.07,658.0701,0,0,0,0,1,,,,,,,,,,,,,,,,,,,,,,,,,,,,,,,,,,,,,,,,,,,,,,,,,,
,,61635ae3040c7eba5e61449f,33,female,2024-04-24_12h33.30.383,stockport_simplified,2022.2.4,Win32,60.24096386,661e456ee6de07e70aa9ef7b,6628df8dd46a2121ee749da6,,,,,,,,,,,,,,,,,,,,,,,,,,,,,,,,,,,,,,,,,,,,,,,,,,,,,,,,1,38,98,52,1,N,M,C,o1_image,stimuli/out1.png,stimuli/correct_out1.png,stimuli/out2.png,,,,,,,,,,,,,,,,,,,,,,,,,,,,,,,,,,,,,,
,,61635ae3040c7eba5e61449f,33,female,2024-04-24_12h33.30.383,stockport_simplified,2022.2.4,Win32,60.24096386,661e456ee6de07e70aa9ef7b,6628df8dd46a2121ee749da6,,,,,,,,,,,,,,,,,,,,,,,,,,,,,,,,,,658.0708,659.737,"[5,6,1,2,7,4,8,3]","[[-0.3,0.2],[0.3,0.2]]","[[0.125,-0.2],[-0.125,-0.2]]",0.129399586,-0.196687371,1,0,0,1.1499,o1_image,659.7382,0,660.237,660.237,662.2369,0,0,0,0,1,,,,,,,,,,,,,,,,,,,,,,,,,,,,,,,,,,,,,,,,,,,,,,,,,,
,,61635ae3040c7eba5e61449f,33,female,2024-04-24_12h33.30.383,stockport_simplified,2022.2.4,Win32,60.24096386,661e456ee6de07e70aa9ef7b,6628df8dd46a2121ee749da6,,,,,,,,,,,,,,,,,,,,,,,,,,,,,,,,,,,,,,,,,,,,,,,,,,,,,,,,1,39,99,59,1,N,M,D,o2_image,stimuli/out2.png,stimuli/out1.png,stimuli/correct_out2.png,,,,,,,,,,,,,,,,,,,,,,,,,,,,,,,,,,,,,,
,,61635ae3040c7eba5e61449f,33,female,2024-04-24_12h33.30.383,stockport_simplified,2022.2.4,Win32,60.24096386,661e456ee6de07e70aa9ef7b,6628df8dd46a2121ee749da6,,,,,,,,,,,,,,,,,,,,,,,,,,,,,,,,,,662.2376,664.3201,"[5,6,1,2,7,4,8,3]","[[-0.3,0.2],[0.3,0.2]]","[[-0.125,-0.2],[0.125,-0.2]]",-0.126293996,-0.196687371,1,0,0,1.5665,o1_image,664.3205,0,664.8202,664.8202,666.82,0,0,0,0,1,,,,,,,,,,,,,,,,,,,,,,,,,,,,,,,,,,,,,,,,,,,,,,,,,,
,,61635ae3040c7eba5e61449f,33,female,2024-04-24_12h33.30.383,stockport_simplified,2022.2.4,Win32,60.24096386,661e456ee6de07e70aa9ef7b,6628df8dd46a2121ee749da6,,,,,,,,,,,,,,,,,,,,,,,,,,,,,,,,,,,,,,,,,,,,,,,,,,,,,,,,1,40,100,28,1,N,M,D,o2_image,stimuli/out2.png,stimuli/out1.png,stimuli/correct_out2.png,,,,,,,,,,,,,,,,,,,,,,,,,,,,,,,,,,,,,,
,,61635ae3040c7eba5e61449f,33,female,2024-04-24_12h33.30.383,stockport_simplified,2022.2.4,Win32,60.24096386,661e456ee6de07e70aa9ef7b,6628df8dd46a2121ee749da6,,,,,,,,,,,,,,,,,,,,,,,,,,,,,,,,,,666.8207,669.1369,"[5,6,1,2,7,4,8,3]","[[-0.3,0.2],[0.3,0.2]]","[[-0.125,-0.2],[0.125,-0.2]]",0.116977226,-0.200828157,1,0,0,1.7998,o2_image,669.1444,1,669.6371,669.6372,671.6368,0,0,0,0,1,,,,,,,,,,,,,,,,,,,,,,,,,,,,,,,,,,,,,,,,,,,,,,,,,,
,,61635ae3040c7eba5e61449f,33,female,2024-04-24_12h33.30.383,stockport_simplified,2022.2.4,Win32,60.24096386,661e456ee6de07e70aa9ef7b,6628df8dd46a2121ee749da6,,,,,,,,,,,,,,,,,,,,,,,,,,,,,,,,,,,,,,,,,,,,,,,,,,,,,,,,1,41,101,44,1,B,X,N,o2_image,stimuli/out2.png,stimuli/out1.png,stimuli/correct_out2.png,,,,,,,,,,,,,,,,,,,,,,,,,,,,,,,,,,,,,,
,,61635ae3040c7eba5e61449f,33,female,2024-04-24_12h33.30.383,stockport_simplified,2022.2.4,Win32,60.24096386,661e456ee6de07e70aa9ef7b,6628df8dd46a2121ee749da6,,,,,,,,,,,,,,,,,,,,,,,,,,,,,,,,,,671.6372,673.7367,"[5,6,1,2,7,4,8,3]","[[-0.3,0.2],[0.3,0.2]]","[[-0.125,-0.2],[0.125,-0.2]]",0.118012422,-0.196687371,1,0,0,1.5835,o2_image,673.7377,1,674.2368,674.2368,676.2369,0,0,0,0,1,,,,,,,,,,,,,,,,,,,,,,,,,,,,,,,,,,,,,,,,,,,,,,,,,,
,,61635ae3040c7eba5e61449f,33,female,2024-04-24_12h33.30.383,stockport_simplified,2022.2.4,Win32,60.24096386,661e456ee6de07e70aa9ef7b,6628df8dd46a2121ee749da6,,,,,,,,,,,,,,,,,,,,,,,,,,,,,,,,,,,,,,,,,,,,,,,,,,,,,,,,1,42,102,13,1,B,X,N,o2_image,stimuli/out2.png,stimuli/out1.png,stimuli/correct_out2.png,,,,,,,,,,,,,,,,,,,,,,,,,,,,,,,,,,,,,,
,,61635ae3040c7eba5e61449f,33,female,2024-04-24_12h33.30.383,stockport_simplified,2022.2.4,Win32,60.24096386,661e456ee6de07e70aa9ef7b,6628df8dd46a2121ee749da6,,,,,,,,,,,,,,,,,,,,,,,,,,,,,,,,,,676.2376,678.2029,"[5,6,1,2,7,4,8,3]","[[0.3,0.2],[-0.3,0.2]]","[[-0.125,-0.2],[0.125,-0.2]]",-0.133540373,-0.185300207,1,0,0,1.4488,o1_image,678.2032,1,678.7036,678.7036,680.7036,0,0,0,0,1,,,,,,,,,,,,,,,,,,,,,,,,,,,,,,,,,,,,,,,,,,,,,,,,,,
,,61635ae3040c7eba5e61449f,33,female,2024-04-24_12h33.30.383,stockport_simplified,2022.2.4,Win32,60.24096386,661e456ee6de07e70aa9ef7b,6628df8dd46a2121ee749da6,,,,,,,,,,,,,,,,,,,,,,,,,,,,,,,,,,,,,,,,,,,,,,,,,,,,,,,,1,43,103,21,1,N,M,C,o1_image,stimuli/out1.png,stimuli/correct_out1.png,stimuli/out2.png,,,,,,,,,,,,,,,,,,,,,,,,,,,,,,,,,,,,,,
,,61635ae3040c7eba5e61449f,33,female,2024-04-24_12h33.30.383,stockport_simplified,2022.2.4,Win32,60.24096386,661e456ee6de07e70aa9ef7b,6628df8dd46a2121ee749da6,,,,,,,,,,,,,,,,,,,,,,,,,,,,,,,,,,680.7042,683.1867,"[5,6,1,2,7,4,8,3]","[[-0.3,0.2],[0.3,0.2]]","[[0.125,-0.2],[-0.125,-0.2]]",0.115942029,-0.177018634,1,0,0,1.9815,o1_image,683.194,1,683.6869,683.6869,685.6885,0,0,0,0,1,,,,,,,,,,,,,,,,,,,,,,,,,,,,,,,,,,,,,,,,,,,,,,,,,,
,,61635ae3040c7eba5e61449f,33,female,2024-04-24_12h33.30.383,stockport_simplified,2022.2.4,Win32,60.24096386,661e456ee6de07e70aa9ef7b,6628df8dd46a2121ee749da6,,,,,,,,,,,,,,,,,,,,,,,,,,,,,,,,,,,,,,,,,,,,,,,,,,,,,,,,1,44,104,7,1,A,Y,N,o1_image,stimuli/out1.png,stimuli/correct_out1.png,stimuli/out2.png,,,,,,,,,,,,,,,,,,,,,,,,,,,,,,,,,,,,,,
,,61635ae3040c7eba5e61449f,33,female,2024-04-24_12h33.30.383,stockport_simplified,2022.2.4,Win32,60.24096386,661e456ee6de07e70aa9ef7b,6628df8dd46a2121ee749da6,,,,,,,,,,,,,,,,,,,,,,,,,,,,,,,,,,685.6888,687.8364,"[5,6,1,2,7,4,8,3]","[[0.3,0.2],[-0.3,0.2]]","[[-0.125,-0.2],[0.125,-0.2]]",0.106625259,-0.186335404,1,0,0,1.6327,o2_image,687.8372,0,688.3374,688.3374,690.337,0,0,0,0,1,,,,,,,,,,,,,,,,,,,,,,,,,,,,,,,,,,,,,,,,,,,,,,,,,,
,,61635ae3040c7eba5e61449f,33,female,2024-04-24_12h33.30.383,stockport_simplified,2022.2.4,Win32,60.24096386,661e456ee6de07e70aa9ef7b,6628df8dd46a2121ee749da6,,,,,,,,,,,,,,,,,,,,,,,,,,,,,,,,,,,,,,,,,,,,,,,,,,,,,,,,1,45,105,2,1,A,X,N,o1_image,stimuli/out1.png,stimuli/correct_out1.png,stimuli/out2.png,,,,,,,,,,,,,,,,,,,,,,,,,,,,,,,,,,,,,,
,,61635ae3040c7eba5e61449f,33,female,2024-04-24_12h33.30.383,stockport_simplified,2022.2.4,Win32,60.24096386,661e456ee6de07e70aa9ef7b,6628df8dd46a2121ee749da6,,,,,,,,,,,,,,,,,,,,,,,,,,,,,,,,,,690.3376,692.7201,"[5,6,1,2,7,4,8,3]","[[-0.3,0.2],[0.3,0.2]]","[[0.125,-0.2],[-0.125,-0.2]]",0.124223602,-0.197722567,1,0,0,1.8662,o1_image,692.7212,0,693.2202,693.2202,695.2202,0,0,0,0,1,,,,,,,,,,,,,,,,,,,,,,,,,,,,,,,,,,,,,,,,,,,,,,,,,,
,,61635ae3040c7eba5e61449f,33,female,2024-04-24_12h33.30.383,stockport_simplified,2022.2.4,Win32,60.24096386,661e456ee6de07e70aa9ef7b,6628df8dd46a2121ee749da6,,,,,,,,,,,,,,,,,,,,,,,,,,,,,,,,,,,,,,,,,,,,,,,,,,,,,,,,1,46,106,58,1,N,M,D,o2_image,stimuli/out2.png,stimuli/out1.png,stimuli/correct_out2.png,,,,,,,,,,,,,,,,,,,,,,,,,,,,,,,,,,,,,,
,,61635ae3040c7eba5e61449f,33,female,2024-04-24_12h33.30.383,stockport_simplified,2022.2.4,Win32,60.24096386,661e456ee6de07e70aa9ef7b,6628df8dd46a2121ee749da6,,,,,,,,,,,,,,,,,,,,,,,,,,,,,,,,,,695.2211,697.4366,"[5,6,1,2,7,4,8,3]","[[-0.3,0.2],[0.3,0.2]]","[[0.125,-0.2],[-0.125,-0.2]]",-0.089026915,-0.204968944,1,0,0,1.6985,o2_image,697.4379,0,697.9369,697.9369,699.9366,0,0,0,0,1,,,,,,,,,,,,,,,,,,,,,,,,,,,,,,,,,,,,,,,,,,,,,,,,,,
,,61635ae3040c7eba5e61449f,33,female,2024-04-24_12h33.30.383,stockport_simplified,2022.2.4,Win32,60.24096386,661e456ee6de07e70aa9ef7b,6628df8dd46a2121ee749da6,,,,,,,,,,,,,,,,,,,,,,,,,,,,,,,,,,,,,,,,,,,,,,,,,,,,,,,,1,47,107,37,1,A,Y,N,o1_image,stimuli/out1.png,stimuli/correct_out1.png,stimuli/out2.png,,,,,,,,,,,,,,,,,,,,,,,,,,,,,,,,,,,,,,
,,61635ae3040c7eba5e61449f,33,female,2024-04-24_12h33.30.383,stockport_simplified,2022.2.4,Win32,60.24096386,661e456ee6de07e70aa9ef7b,6628df8dd46a2121ee749da6,,,,,,,,,,,,,,,,,,,,,,,,,,,,,,,,,,699.9372,701.7534,"[5,6,1,2,7,4,8,3]","[[0.3,0.2],[-0.3,0.2]]","[[-0.125,-0.2],[0.125,-0.2]]",-0.142857143,-0.203933747,1,0,0,1.2995,o1_image,701.7538,0,702.2535,702.2535,704.2532,0,0,0,0,1,,,,,,,,,,,,,,,,,,,,,,,,,,,,,,,,,,,,,,,,,,,,,,,,,,
,,61635ae3040c7eba5e61449f,33,female,2024-04-24_12h33.30.383,stockport_simplified,2022.2.4,Win32,60.24096386,661e456ee6de07e70aa9ef7b,6628df8dd46a2121ee749da6,,,,,,,,,,,,,,,,,,,,,,,,,,,,,,,,,,,,,,,,,,,,,,,,,,,,,,,,1,48,108,55,1,N,M,D,o2_image,stimuli/out2.png,stimuli/out1.png,stimuli/correct_out2.png,,,,,,,,,,,,,,,,,,,,,,,,,,,,,,,,,,,,,,
,,61635ae3040c7eba5e61449f,33,female,2024-04-24_12h33.30.383,stockport_simplified,2022.2.4,Win32,60.24096386,661e456ee6de07e70aa9ef7b,6628df8dd46a2121ee749da6,,,,,,,,,,,,,,,,,,,,,,,,,,,,,,,,,,704.2537,705.8366,"[5,6,1,2,7,4,8,3]","[[0.3,0.2],[-0.3,0.2]]","[[0.125,-0.2],[-0.125,-0.2]]",0.109730849,-0.203933747,1,0,0,1.0664,o1_image,705.8382,1,706.3365,706.3365,711.8748,0,0,0,0,1,,,,,,,,,,,,,,,,,,,,,,,,,,,,,,,,,,,,,,,,,,,,,,,,,,
,,61635ae3040c7eba5e61449f,33,female,2024-04-24_12h33.30.383,stockport_simplified,2022.2.4,Win32,60.24096386,661e456ee6de07e70aa9ef7b,6628df8dd46a2121ee749da6,,,,,,,,,,,,,,,,,,,,,,,,,,,,,,,,,,,,,,,,,,,,,,,,,,,,,,,,1,49,109,53,1,N,M,C,o1_image,stimuli/out1.png,stimuli/correct_out1.png,stimuli/out2.png,,,,,,,,,,,,,,,,,,,,,,,,,,,,,,,,,,,,,,
,,61635ae3040c7eba5e61449f,33,female,2024-04-24_12h33.30.383,stockport_simplified,2022.2.4,Win32,60.24096386,661e456ee6de07e70aa9ef7b,6628df8dd46a2121ee749da6,,,,,,,,,,,,,,,,,,,,,,,,,,,,,,,,,,711.8823,713.2871,"[5,6,1,2,7,4,8,3]","[[0.3,0.2],[-0.3,0.2]]","[[0.125,-0.2],[-0.125,-0.2]]",0.108695652,-0.182194617,1,0,0,0.8991,o1_image,713.2883,0,713.787,713.787,719.2176,0,0,0,0,1,,,,,,,,,,,,,,,,,,,,,,,,,,,,,,,,,,,,,,,,,,,,,,,,,,
,,61635ae3040c7eba5e61449f,33,female,2024-04-24_12h33.30.383,stockport_simplified,2022.2.4,Win32,60.24096386,661e456ee6de07e70aa9ef7b,6628df8dd46a2121ee749da6,,,,,,,,,,,,,,,,,,,,,,,,,,,,,,,,,,,,,,,,,,,,,,,,,,,,,,,,1,50,110,26,1,N,M,D,o2_image,stimuli/out2.png,stimuli/out1.png,stimuli/correct_out2.png,,,,,,,,,,,,,,,,,,,,,,,,,,,,,,,,,,,,,,
,,61635ae3040c7eba5e61449f,33,female,2024-04-24_12h33.30.383,stockport_simplified,2022.2.4,Win32,60.24096386,661e456ee6de07e70aa9ef7b,6628df8dd46a2121ee749da6,,,,,,,,,,,,,,,,,,,,,,,,,,,,,,,,,,719.2254,722.203,"[5,6,1,2,7,4,8,3]","[[-0.3,0.2],[0.3,0.2]]","[[-0.125,-0.2],[0.125,-0.2]]",-0.111801242,-0.179089027,1,0,0,1.9657,o1_image,722.2033,0,722.7034,722.7034,724.7048,0,0,0,0,1,,,,,,,,,,,,,,,,,,,,,,,,,,,,,,,,,,,,,,,,,,,,,,,,,,
,,61635ae3040c7eba5e61449f,33,female,2024-04-24_12h33.30.383,stockport_simplified,2022.2.4,Win32,60.24096386,661e456ee6de07e70aa9ef7b,6628df8dd46a2121ee749da6,,,,,,,,,,,,,,,,,,,,,,,,,,,,,,,,,,,,,,,,,,,,,,,,,,,,,,,,1,51,111,10,1,B,X,N,o2_image,stimuli/out2.png,stimuli/out1.png,stimuli/correct_out2.png,,,,,,,,,,,,,,,,,,,,,,,,,,,,,,,,,,,,,,
,,61635ae3040c7eba5e61449f,33,female,2024-04-24_12h33.30.383,stockport_simplified,2022.2.4,Win32,60.24096386,661e456ee6de07e70aa9ef7b,6628df8dd46a2121ee749da6,,,,,,,,,,,,,,,,,,,,,,,,,,,,,,,,,,724.7051,726.5034,"[5,6,1,2,7,4,8,3]","[[0.3,0.2],[-0.3,0.2]]","[[0.125,-0.2],[-0.125,-0.2]]",0.15942029,-0.197722567,1,0,0,1.2831,o1_image,726.5048,0,727.0038,727.0038,729.0036,0,0,0,0,1,,,,,,,,,,,,,,,,,,,,,,,,,,,,,,,,,,,,,,,,,,,,,,,,,,
,,61635ae3040c7eba5e61449f,33,female,2024-04-24_12h33.30.383,stockport_simplified,2022.2.4,Win32,60.24096386,661e456ee6de07e70aa9ef7b,6628df8dd46a2121ee749da6,,,,,,,,,,,,,,,,,,,,,,,,,,,,,,,,,,,,,,,,,,,,,,,,,,,,,,,,1,52,112,19,1,B,Y,N,o2_image,stimuli/out2.png,stimuli/out1.png,stimuli/correct_out2.png,,,,,,,,,,,,,,,,,,,,,,,,,,,,,,,,,,,,,,
,,61635ae3040c7eba5e61449f,33,female,2024-04-24_12h33.30.383,stockport_simplified,2022.2.4,Win32,60.24096386,661e456ee6de07e70aa9ef7b,6628df8dd46a2121ee749da6,,,,,,,,,,,,,,,,,,,,,,,,,,,,,,,,,,729.0043,730.2535,"[5,6,1,2,7,4,8,3]","[[-0.3,0.2],[0.3,0.2]]","[[0.125,-0.2],[-0.125,-0.2]]",0.138716356,-0.209109731,1,0,0,0.7335,o1_image,730.255,1,730.7533,730.7533,732.7535,0,0,0,0,1,,,,,,,,,,,,,,,,,,,,,,,,,,,,,,,,,,,,,,,,,,,,,,,,,,
,,61635ae3040c7eba5e61449f,33,female,2024-04-24_12h33.30.383,stockport_simplified,2022.2.4,Win32,60.24096386,661e456ee6de07e70aa9ef7b,6628df8dd46a2121ee749da6,,,,,,,,,,,,,,,,,,,,,,,,,,,,,,,,,,,,,,,,,,,,,,,,,,,,,,,,1,53,113,23,1,N,M,C,o1_image,stimuli/out1.png,stimuli/correct_out1.png,stimuli/out2.png,,,,,,,,,,,,,,,,,,,,,,,,,,,,,,,,,,,,,,
,,61635ae3040c7eba5e61449f,33,female,2024-04-24_12h33.30.383,stockport_simplified,2022.2.4,Win32,60.24096386,661e456ee6de07e70aa9ef7b,6628df8dd46a2121ee749da6,,,,,,,,,,,,,,,,,,,,,,,,,,,,,,,,,,732.7538,734.3703,"[5,6,1,2,7,4,8,3]","[[-0.3,0.2],[0.3,0.2]]","[[-0.125,-0.2],[0.125,-0.2]]",-0.111801242,-0.204968944,1,0,0,1.0993,o1_image,734.3716,0,734.8701,734.8701,736.8702,0,0,0,0,1,,,,,,,,,,,,,,,,,,,,,,,,,,,,,,,,,,,,,,,,,,,,,,,,,,
,,61635ae3040c7eba5e61449f,33,female,2024-04-24_12h33.30.383,stockport_simplified,2022.2.4,Win32,60.24096386,661e456ee6de07e70aa9ef7b,6628df8dd46a2121ee749da6,,,,,,,,,,,,,,,,,,,,,,,,,,,,,,,,,,,,,,,,,,,,,,,,,,,,,,,,1,54,114,25,1,N,M,D,o2_image,stimuli/out2.png,stimuli/out1.png,stimuli/correct_out2.png,,,,,,,,,,,,,,,,,,,,,,,,,,,,,,,,,,,,,,
,,61635ae3040c7eba5e61449f,33,female,2024-04-24_12h33.30.383,stockport_simplified,2022.2.4,Win32,60.24096386,661e456ee6de07e70aa9ef7b,6628df8dd46a2121ee749da6,,,,,,,,,,,,,,,,,,,,,,,,,,,,,,,,,,736.8709,739.7535,"[5,6,1,2,7,4,8,3]","[[0.3,0.2],[-0.3,0.2]]","[[0.125,-0.2],[-0.125,-0.2]]",0.129399586,-0.211180124,1,0,0,2.3816,o1_image,739.7605,1,740.2534,740.2534,742.2536,0,0,0,0,1,,,,,,,,,,,,,,,,,,,,,,,,,,,,,,,,,,,,,,,,,,,,,,,,,,
,,61635ae3040c7eba5e61449f,33,female,2024-04-24_12h33.30.383,stockport_simplified,2022.2.4,Win32,60.24096386,661e456ee6de07e70aa9ef7b,6628df8dd46a2121ee749da6,,,,,,,,,,,,,,,,,,,,,,,,,,,,,,,,,,,,,,,,,,,,,,,,,,,,,,,,1,55,115,33,1,A,X,N,o1_image,stimuli/out1.png,stimuli/correct_out1.png,stimuli/out2.png,,,,,,,,,,,,,,,,,,,,,,,,,,,,,,,,,,,,,,
,,61635ae3040c7eba5e61449f,33,female,2024-04-24_12h33.30.383,stockport_simplified,2022.2.4,Win32,60.24096386,661e456ee6de07e70aa9ef7b,6628df8dd46a2121ee749da6,,,,,,,,,,,,,,,,,,,,,,,,,,,,,,,,,,742.2543,744.5035,"[5,6,1,2,7,4,8,3]","[[0.3,0.2],[-0.3,0.2]]","[[0.125,-0.2],[-0.125,-0.2]]",-0.108695652,-0.196687371,1,0,0,1.7335,o2_image,744.5046,0,745.0035,745.0036,747.0036,0,0,0,0,1,,,,,,,,,,,,,,,,,,,,,,,,,,,,,,,,,,,,,,,,,,,,,,,,,,
,,61635ae3040c7eba5e61449f,33,female,2024-04-24_12h33.30.383,stockport_simplified,2022.2.4,Win32,60.24096386,661e456ee6de07e70aa9ef7b,6628df8dd46a2121ee749da6,,,,,,,,,,,,,,,,,,,,,,,,,,,,,,,,,,,,,,,,,,,,,,,,,,,,,,,,1,56,116,39,1,A,Y,N,o1_image,stimuli/out1.png,stimuli/correct_out1.png,stimuli/out2.png,,,,,,,,,,,,,,,,,,,,,,,,,,,,,,,,,,,,,,
,,61635ae3040c7eba5e61449f,33,female,2024-04-24_12h33.30.383,stockport_simplified,2022.2.4,Win32,60.24096386,661e456ee6de07e70aa9ef7b,6628df8dd46a2121ee749da6,,,,,,,,,,,,,,,,,,,,,,,,,,,,,,,,,,747.0042,748.5869,"[5,6,1,2,7,4,8,3]","[[-0.3,0.2],[0.3,0.2]]","[[-0.125,-0.2],[0.125,-0.2]]",-0.124223602,-0.188405797,1,0,0,1.0659,o1_image,748.588,0,749.0868,749.0868,751.0868,0,0,0,0,1,,,,,,,,,,,,,,,,,,,,,,,,,,,,,,,,,,,,,,,,,,,,,,,,,,
,,61635ae3040c7eba5e61449f,33,female,2024-04-24_12h33.30.383,stockport_simplified,2022.2.4,Win32,60.24096386,661e456ee6de07e70aa9ef7b,6628df8dd46a2121ee749da6,,,,,,,,,,,,,,,,,,,,,,,,,,,,,,,,,,,,,,,,,,,,,,,,,,,,,,,,1,57,117,56,1,N,M,D,o2_image,stimuli/out2.png,stimuli/out1.png,stimuli/correct_out2.png,,,,,,,,,,,,,,,,,,,,,,,,,,,,,,,,,,,,,,
,,61635ae3040c7eba5e61449f,33,female,2024-04-24_12h33.30.383,stockport_simplified,2022.2.4,Win32,60.24096386,661e456ee6de07e70aa9ef7b,6628df8dd46a2121ee749da6,,,,,,,,,,,,,,,,,,,,,,,,,,,,,,,,,,751.0873,752.453,"[5,6,1,2,7,4,8,3]","[[-0.3,0.2],[0.3,0.2]]","[[0.125,-0.2],[-0.125,-0.2]]",0.141821946,-0.186335404,1,0,0,0.8491,o1_image,752.4533,1,752.9536,752.9536,754.954,0,0,0,0,1,,,,,,,,,,,,,,,,,,,,,,,,,,,,,,,,,,,,,,,,,,,,,,,,,,
,,61635ae3040c7eba5e61449f,33,female,2024-04-24_12h33.30.383,stockport_simplified,2022.2.4,Win32,60.24096386,661e456ee6de07e70aa9ef7b,6628df8dd46a2121ee749da6,,,,,,,,,,,,,,,,,,,,,,,,,,,,,,,,,,,,,,,,,,,,,,,,,,,,,,,,1,58,118,20,1,N,M,C,o1_image,stimuli/out1.png,stimuli/correct_out1.png,stimuli/out2.png,,,,,,,,,,,,,,,,,,,,,,,,,,,,,,,,,,,,,,
,,61635ae3040c7eba5e61449f,33,female,2024-04-24_12h33.30.383,stockport_simplified,2022.2.4,Win32,60.24096386,661e456ee6de07e70aa9ef7b,6628df8dd46a2121ee749da6,,,,,,,,,,,,,,,,,,,,,,,,,,,,,,,,,,754.9547,756.3033,"[5,6,1,2,7,4,8,3]","[[0.3,0.2],[-0.3,0.2]]","[[0.125,-0.2],[-0.125,-0.2]]",0.114906832,-0.203933747,1,0,0,0.8331,o1_image,756.304,1,756.8035,756.8035,758.8035,0,0,0,0,1,,,,,,,,,,,,,,,,,,,,,,,,,,,,,,,,,,,,,,,,,,,,,,,,,,
,,61635ae3040c7eba5e61449f,33,female,2024-04-24_12h33.30.383,stockport_simplified,2022.2.4,Win32,60.24096386,661e456ee6de07e70aa9ef7b,6628df8dd46a2121ee749da6,,,,,,,,,,,,,,,,,,,,,,,,,,,,,,,,,,,,,,,,,,,,,,,,,,,,,,,,1,59,119,51,1,N,M,C,o1_image,stimuli/out1.png,stimuli/correct_out1.png,stimuli/out2.png,,,,,,,,,,,,,,,,,,,,,,,,,,,,,,,,,,,,,,
,,61635ae3040c7eba5e61449f,33,female,2024-04-24_12h33.30.383,stockport_simplified,2022.2.4,Win32,60.24096386,661e456ee6de07e70aa9ef7b,6628df8dd46a2121ee749da6,,,,,,,,,,,,,,,,,,,,,,,,,,,,,,,,,,758.8133,760.67,"[5,6,1,2,7,4,8,3]","[[-0.3,0.2],[0.3,0.2]]","[[0.125,-0.2],[-0.125,-0.2]]",-0.107660455,-0.164596273,1,0,0,1.3494,o2_image,760.6717,0,761.1706,761.1706,763.1701,,,,,,,,,,,,,,,,,,0,0,0,0,1,,,,,,,,,,,,,,,,,,,,,,,,,,,,,,,,,
,,61635ae3040c7eba5e61449f,33,female,2024-04-24_12h33.30.383,stockport_simplified,2022.2.4,Win32,60.24096386,661e456ee6de07e70aa9ef7b,6628df8dd46a2121ee749da6,,,,,,,,,,,,,,,,,,,,,,,,,,,,,,,,,,,,,,,,,,,,,,,,,,,,,,,,,,,,,A,X,N,o1_image,stimuli/out1.png,stimuli/correct_out1.png,stimuli/out2.png,,,,,,0,0,0,1,1,,,,,,,,,,,,,,,,,,,,,,,,,,,,
,,61635ae3040c7eba5e61449f,33,female,2024-04-24_12h33.30.383,stockport_simplified,2022.2.4,Win32,60.24096386,661e456ee6de07e70aa9ef7b,6628df8dd46a2121ee749da6,,,,,,,,,,,,,,,,,,,,,,,,,,,,,,,,,,763.1717,764.7533,"[5,6,1,2,7,4,8,3]","[[0.3,0.2],[-0.3,0.2]]","[[0.125,-0.2],[-0.125,-0.2]]",0.131469979,-0.191511387,1,0,0,1.0658,o1_image,764.7546,1,765.2535,765.2535,767.2536,,,,,,,,,,,,,,,,,,0,0,0,0,1,,,,,,,,,,,,,,,,,,,,,,,,,,,,,,,,,
,,61635ae3040c7eba5e61449f,33,female,2024-04-24_12h33.30.383,stockport_simplified,2022.2.4,Win32,60.24096386,661e456ee6de07e70aa9ef7b,6628df8dd46a2121ee749da6,,,,,,,,,,,,,,,,,,,,,,,,,,,,,,,,,,,,,,,,,,,,,,,,,,,,,,,,,,,,,N,M,C,o1_image,stimuli/out1.png,stimuli/correct_out1.png,stimuli/out2.png,,,,,,0,1,1,49,1,,,,,,,,,,,,,,,,,,,,,,,,,,,,
,,61635ae3040c7eba5e61449f,33,female,2024-04-24_12h33.30.383,stockport_simplified,2022.2.4,Win32,60.24096386,661e456ee6de07e70aa9ef7b,6628df8dd46a2121ee749da6,,,,,,,,,,,,,,,,,,,,,,,,,,,,,,,,,,767.2544,769.8533,"[5,6,1,2,7,4,8,3]","[[0.3,0.2],[-0.3,0.2]]","[[-0.125,-0.2],[0.125,-0.2]]",-0.109730849,-0.193581781,1,0,0,2.0815,o1_image,769.8545,0,770.3536,770.3537,772.3537,,,,,,,,,,,,,,,,,,0,0,0,0,1,,,,,,,,,,,,,,,,,,,,,,,,,,,,,,,,,
,,61635ae3040c7eba5e61449f,33,female,2024-04-24_12h33.30.383,stockport_simplified,2022.2.4,Win32,60.24096386,661e456ee6de07e70aa9ef7b,6628df8dd46a2121ee749da6,,,,,,,,,,,,,,,,,,,,,,,,,,,,,,,,,,,,,,,,,,,,,,,,,,,,,,,,,,,,,B,X,N,o2_image,stimuli/out2.png,stimuli/out1.png,stimuli/correct_out2.png,,,,,,0,2,2,24,1,,,,,,,,,,,,,,,,,,,,,,,,,,,,
,,61635ae3040c7eba5e61449f,33,female,2024-04-24_12h33.30.383,stockport_simplified,2022.2.4,Win32,60.24096386,661e456ee6de07e70aa9ef7b,6628df8dd46a2121ee749da6,,,,,,,,,,,,,,,,,,,,,,,,,,,,,,,,,,772.3546,774.1201,"[5,6,1,2,7,4,8,3]","[[-0.3,0.2],[0.3,0.2]]","[[-0.125,-0.2],[0.125,-0.2]]",-0.098343685,-0.223602484,1,0,0,1.2491,o1_image,774.1204,0,774.62,774.62,776.6201,,,,,,,,,,,,,,,,,,0,0,0,0,1,,,,,,,,,,,,,,,,,,,,,,,,,,,,,,,,,
,,61635ae3040c7eba5e61449f,33,female,2024-04-24_12h33.30.383,stockport_simplified,2022.2.4,Win32,60.24096386,661e456ee6de07e70aa9ef7b,6628df8dd46a2121ee749da6,,,,,,,,,,,,,,,,,,,,,,,,,,,,,,,,,,,,,,,,,,,,,,,,,,,,,,,,,,,,,N,M,D,o2_image,stimuli/out2.png,stimuli/out1.png,stimuli/correct_out2.png,,,,,,0,3,3,59,1,,,,,,,,,,,,,,,,,,,,,,,,,,,,
