counterbalance_2.started,counterbalance_2.stopped,participant,age,gender,date,expName,psychopyVersion,OS,frameRate,STUDY_ID,SESSION_ID,information_2.started,information_2.stopped,information_loop.thisRepN,information_loop.thisTrialN,information_loop.thisN,information_loop.thisIndex,information_loop.ran,information,consent_2.started,consent_2.stopped,slider_1.response,slider_2.response,slider_3.response,slider_4.response,slider_5.response,slider_6.response,instructions.started,instructions.stopped,task1_instr.thisRepN,task1_instr.thisTrialN,task1_instr.thisN,task1_instr.thisIndex,task1_instr.ran,task1,comprehension1_2.started,comprehension1_2.stopped,comp1_mouse.x,comp1_mouse.y,comp1_mouse.leftButton,comp1_mouse.midButton,comp1_mouse.rightButton,comp1_mouse.time,comp1_mouse.clicked_name,cue_o__trial_2.started,cue_o__trial_2.stopped,order,cue_order,out_order,cue_o_mouse.x,cue_o_mouse.y,cue_o_mouse.leftButton,cue_o_mouse.midButton,cue_o_mouse.rightButton,cue_o_mouse.time,cue_o_mouse.clicked_name,cue_selection_2.started,correct_answer,cue_selection_2.stopped,feedback_2.started,feedback_2.stopped,feedback_loop.thisRepN,feedback_loop.thisTrialN,feedback_loop.thisN,feedback_loop.thisIndex,feedback_loop.ran,stage1_trials.thisRepN,stage1_trials.thisTrialN,stage1_trials.thisN,stage1_trials.thisIndex,stage1_trials.ran,cue1,cue2,cue3,outcome,correct_out,o1_feedback,o2_feedback,stage2_feedback_loop.thisRepN,stage2_feedback_loop.thisTrialN,stage2_feedback_loop.thisN,stage2_feedback_loop.thisIndex,stage2_feedback_loop.ran,stage2_trials.thisRepN,stage2_trials.thisTrialN,stage2_trials.thisN,stage2_trials.thisIndex,stage2_trials.ran,stage3_feedback_loop.thisRepN,stage3_feedback_loop.thisTrialN,stage3_feedback_loop.thisN,stage3_feedback_loop.thisIndex,stage3_feedback_loop.ran,stage3_trials.thisRepN,stage3_trials.thisTrialN,stage3_trials.thisN,stage3_trials.thisIndex,stage3_trials.ran,debrief_2.started,debrief_2.stopped,debrief_loop.thisRepN,debrief_loop.thisTrialN,debrief_loop.thisN,debrief_loop.thisIndex,debrief_loop.ran,debrief_img,compr1_completed.thisRepN,compr1_completed.thisTrialN,compr1_completed.thisN,compr1_completed.thisIndex,compr1_completed.ran,consent_loop.thisRepN,consent_loop.thisTrialN,consent_loop.thisN,consent_loop.thisIndex,consent_loop.ran
0.0003,0.0005,5f4595ac82d8061b45c2c490,26,male,2024-04-16_11h24.15.421,stockport_simplified,2022.2.4,Win32,60.24096386,661e456ee6de07e70aa9ef7b,661e51b63ca98b45e53a8629,,,,,,,,,,,,,,,,,,,,,,,,,,,,,,,,,,,,,,,,,,,,,,,,,,,,,,,,,,,,,,,,,,,,,,,,,,,,,,,,,,,,,,,,,,,,,,,,,,,,,,,,,
,,5f4595ac82d8061b45c2c490,26,male,2024-04-16_11h24.15.421,stockport_simplified,2022.2.4,Win32,60.24096386,661e456ee6de07e70aa9ef7b,661e51b63ca98b45e53a8629,0.0169,5.7357,0,0,0,0,1,instructions/info1.png,,,,,,,,,,,,,,,,,,,,,,,,,,,,,,,,,,,,,,,,,,,,,,,,,,,,,,,,,,,,,,,,,,,,,,,,,,,,,,,,,,,,,,,,,,,,,,,,,
,,5f4595ac82d8061b45c2c490,26,male,2024-04-16_11h24.15.421,stockport_simplified,2022.2.4,Win32,60.24096386,661e456ee6de07e70aa9ef7b,661e51b63ca98b45e53a8629,5.737,10.0501,0,1,1,1,1,instructions/info2.png,,,,,,,,,,,,,,,,,,,,,,,,,,,,,,,,,,,,,,,,,,,,,,,,,,,,,,,,,,,,,,,,,,,,,,,,,,,,,,,,,,,,,,,,,,,,,,,,,
,,5f4595ac82d8061b45c2c490,26,male,2024-04-16_11h24.15.421,stockport_simplified,2022.2.4,Win32,60.24096386,661e456ee6de07e70aa9ef7b,661e51b63ca98b45e53a8629,10.0506,12.0835,0,2,2,2,1,instructions/info3.png,,,,,,,,,,,,,,,,,,,,,,,,,,,,,,,,,,,,,,,,,,,,,,,,,,,,,,,,,,,,,,,,,,,,,,,,,,,,,,,,,,,,,,,,,,,,,,,,,
,,5f4595ac82d8061b45c2c490,26,male,2024-04-16_11h24.15.421,stockport_simplified,2022.2.4,Win32,60.24096386,661e456ee6de07e70aa9ef7b,661e51b63ca98b45e53a8629,,,,,,,,,12.0841,36.2483,1,1,1,1,1,1,,,,,,,,,,,,,,,,,,,,,,,,,,,,,,,,,,,,,,,,,,,,,,,,,,,,,,,,,,,,,,,,,,,,,,,,,,,,,,,,,,,,,,,,,
,,5f4595ac82d8061b45c2c490,26,male,2024-04-16_11h24.15.421,stockport_simplified,2022.2.4,Win32,60.24096386,661e456ee6de07e70aa9ef7b,661e51b63ca98b45e53a8629,,,,,,,,,,,,,,,,,36.2542,77.5427,0,0,0,0,1,instructions/task1_1.png,,,,,,,,,,,,,,,,,,,,,,,,,,,,,,,,,,,,,,,,,,,,,,,,,,,,,,,,,,,,,,,,,,,,,,,,,,,,,,,,,
,,5f4595ac82d8061b45c2c490,26,male,2024-04-16_11h24.15.421,stockport_simplified,2022.2.4,Win32,60.24096386,661e456ee6de07e70aa9ef7b,661e51b63ca98b45e53a8629,,,,,,,,,,,,,,,,,77.5496,86.9071,0,1,1,1,1,instructions/task1_2.png,,,,,,,,,,,,,,,,,,,,,,,,,,,,,,,,,,,,,,,,,,,,,,,,,,,,,,,,,,,,,,,,,,,,,,,,,,,,,,,,,
,,5f4595ac82d8061b45c2c490,26,male,2024-04-16_11h24.15.421,stockport_simplified,2022.2.4,Win32,60.24096386,661e456ee6de07e70aa9ef7b,661e51b63ca98b45e53a8629,,,,,,,,,,,,,,,,,86.9193,148.3235,0,2,2,2,1,instructions/task1_3.png,,,,,,,,,,,,,,,,,,,,,,,,,,,,,,,,,,,,,,,,,,,,,,,,,,,,,,,,,,,,,,,,,,,,,,,,,,,,,,,,,
,,5f4595ac82d8061b45c2c490,26,male,2024-04-16_11h24.15.421,stockport_simplified,2022.2.4,Win32,60.24096386,661e456ee6de07e70aa9ef7b,661e51b63ca98b45e53a8629,,,,,,,,,,,,,,,,,,,,,,,,,148.3328,507.3094,0.075136612,-0.324795165,1,0,0,358.9762,comp1_resp1,507.329,509.8836,"[7,8,6,2,4,1,3,5]","[[-0.3,0.2],[0.3,0.2]]","[[0.125,-0.2],[-0.125,-0.2]]",-0.107012723,-0.193875214,1,0,0,2.0493,o2_image,509.8854,0,510.3837,510.3839,512.3823,0,0,0,0,1,,,,,,,,,,,,,,,,,,,,,,,,,,,,,,,,,,,,,,,,,,,,,,,,,,
,,5f4595ac82d8061b45c2c490,26,male,2024-04-16_11h24.15.421,stockport_simplified,2022.2.4,Win32,60.24096386,661e456ee6de07e70aa9ef7b,661e51b63ca98b45e53a8629,,,,,,,,,,,,,,,,,,,,,,,,,,,,,,,,,,,,,,,,,,,,,,,,,,,,,,,,0,0,0,5,1,A,Y,N,o1_image,stimuli/out1.png,stimuli/correct_out1.png,stimuli/out2.png,,,,,,,,,,,,,,,,,,,,,,,,,,,,,,,,,,,,,,
,,5f4595ac82d8061b45c2c490,26,male,2024-04-16_11h24.15.421,stockport_simplified,2022.2.4,Win32,60.24096386,661e456ee6de07e70aa9ef7b,661e51b63ca98b45e53a8629,,,,,,,,,,,,,,,,,,,,,,,,,,,,,,,,,,512.3827,514.6663,"[7,8,6,2,4,1,3,5]","[[0.3,0.2],[-0.3,0.2]]","[[-0.125,-0.2],[0.125,-0.2]]",0.120673925,-0.181352459,1,0,0,1.7831,o2_image,514.6675,0,515.1657,515.1658,517.1657,0,0,0,0,1,,,,,,,,,,,,,,,,,,,,,,,,,,,,,,,,,,,,,,,,,,,,,,,,,,
,,5f4595ac82d8061b45c2c490,26,male,2024-04-16_11h24.15.421,stockport_simplified,2022.2.4,Win32,60.24096386,661e456ee6de07e70aa9ef7b,661e51b63ca98b45e53a8629,,,,,,,,,,,,,,,,,,,,,,,,,,,,,,,,,,,,,,,,,,,,,,,,,,,,,,,,0,1,1,8,1,A,Y,N,o1_image,stimuli/out1.png,stimuli/correct_out1.png,stimuli/out2.png,,,,,,,,,,,,,,,,,,,,,,,,,,,,,,,,,,,,,,
,,5f4595ac82d8061b45c2c490,26,male,2024-04-16_11h24.15.421,stockport_simplified,2022.2.4,Win32,60.24096386,661e456ee6de07e70aa9ef7b,661e51b63ca98b45e53a8629,,,,,,,,,,,,,,,,,,,,,,,,,,,,,,,,,,517.1668,519.2329,"[7,8,6,2,4,1,3,5]","[[0.3,0.2],[-0.3,0.2]]","[[-0.125,-0.2],[0.125,-0.2]]",-0.091074709,-0.180214012,1,0,0,1.5491,o1_image,519.2338,0,519.7322,519.7322,521.7316,0,0,0,0,1,,,,,,,,,,,,,,,,,,,,,,,,,,,,,,,,,,,,,,,,,,,,,,,,,,
,,5f4595ac82d8061b45c2c490,26,male,2024-04-16_11h24.15.421,stockport_simplified,2022.2.4,Win32,60.24096386,661e456ee6de07e70aa9ef7b,661e51b63ca98b45e53a8629,,,,,,,,,,,,,,,,,,,,,,,,,,,,,,,,,,,,,,,,,,,,,,,,,,,,,,,,0,2,2,25,1,N,M,D,o2_image,stimuli/out2.png,stimuli/out1.png,stimuli/correct_out2.png,,,,,,,,,,,,,,,,,,,,,,,,,,,,,,,,,,,,,,
,,5f4595ac82d8061b45c2c490,26,male,2024-04-16_11h24.15.421,stockport_simplified,2022.2.4,Win32,60.24096386,661e456ee6de07e70aa9ef7b,661e51b63ca98b45e53a8629,,,,,,,,,,,,,,,,,,,,,,,,,,,,,,,,,,521.7321,524.1812,"[7,8,6,2,4,1,3,5]","[[-0.3,0.2],[0.3,0.2]]","[[0.125,-0.2],[-0.125,-0.2]]",-0.095628332,-0.195013661,1,0,0,1.9323,o2_image,524.1823,0,524.6809,524.6809,526.6815,0,0,0,0,1,,,,,,,,,,,,,,,,,,,,,,,,,,,,,,,,,,,,,,,,,,,,,,,,,,
,,5f4595ac82d8061b45c2c490,26,male,2024-04-16_11h24.15.421,stockport_simplified,2022.2.4,Win32,60.24096386,661e456ee6de07e70aa9ef7b,661e51b63ca98b45e53a8629,,,,,,,,,,,,,,,,,,,,,,,,,,,,,,,,,,,,,,,,,,,,,,,,,,,,,,,,0,3,3,1,1,A,X,N,o1_image,stimuli/out1.png,stimuli/correct_out1.png,stimuli/out2.png,,,,,,,,,,,,,,,,,,,,,,,,,,,,,,,,,,,,,,
,,5f4595ac82d8061b45c2c490,26,male,2024-04-16_11h24.15.421,stockport_simplified,2022.2.4,Win32,60.24096386,661e456ee6de07e70aa9ef7b,661e51b63ca98b45e53a8629,,,,,,,,,,,,,,,,,,,,,,,,,,,,,,,,,,526.6823,528.9312,"[7,8,6,2,4,1,3,5]","[[0.3,0.2],[-0.3,0.2]]","[[0.125,-0.2],[-0.125,-0.2]]",0.113843324,-0.240550974,1,0,0,1.7328,o1_image,528.9322,0,529.4309,529.431,531.4303,0,0,0,0,1,,,,,,,,,,,,,,,,,,,,,,,,,,,,,,,,,,,,,,,,,,,,,,,,,,
,,5f4595ac82d8061b45c2c490,26,male,2024-04-16_11h24.15.421,stockport_simplified,2022.2.4,Win32,60.24096386,661e456ee6de07e70aa9ef7b,661e51b63ca98b45e53a8629,,,,,,,,,,,,,,,,,,,,,,,,,,,,,,,,,,,,,,,,,,,,,,,,,,,,,,,,0,4,4,43,1,B,X,N,o2_image,stimuli/out2.png,stimuli/out1.png,stimuli/correct_out2.png,,,,,,,,,,,,,,,,,,,,,,,,,,,,,,,,,,,,,,
,,5f4595ac82d8061b45c2c490,26,male,2024-04-16_11h24.15.421,stockport_simplified,2022.2.4,Win32,60.24096386,661e456ee6de07e70aa9ef7b,661e51b63ca98b45e53a8629,,,,,,,,,,,,,,,,,,,,,,,,,,,,,,,,,,531.4312,533.2314,"[7,8,6,2,4,1,3,5]","[[0.3,0.2],[-0.3,0.2]]","[[-0.125,-0.2],[0.125,-0.2]]",0.113843324,-0.223474471,1,0,0,1.2828,o2_image,533.2323,1,533.7304,533.7307,535.7303,0,0,0,0,1,,,,,,,,,,,,,,,,,,,,,,,,,,,,,,,,,,,,,,,,,,,,,,,,,,
,,5f4595ac82d8061b45c2c490,26,male,2024-04-16_11h24.15.421,stockport_simplified,2022.2.4,Win32,60.24096386,661e456ee6de07e70aa9ef7b,661e51b63ca98b45e53a8629,,,,,,,,,,,,,,,,,,,,,,,,,,,,,,,,,,,,,,,,,,,,,,,,,,,,,,,,0,5,5,19,1,B,Y,N,o2_image,stimuli/out2.png,stimuli/out1.png,stimuli/correct_out2.png,,,,,,,,,,,,,,,,,,,,,,,,,,,,,,,,,,,,,,
,,5f4595ac82d8061b45c2c490,26,male,2024-04-16_11h24.15.421,stockport_simplified,2022.2.4,Win32,60.24096386,661e456ee6de07e70aa9ef7b,661e51b63ca98b45e53a8629,,,,,,,,,,,,,,,,,,,,,,,,,,,,,,,,,,535.7311,538.5795,"[7,8,6,2,4,1,3,5]","[[-0.3,0.2],[0.3,0.2]]","[[0.125,-0.2],[-0.125,-0.2]]",-0.100182122,-0.221197576,1,0,0,2.3283,o2_image,538.5809,1,539.0791,539.0791,541.0797,0,0,0,0,1,,,,,,,,,,,,,,,,,,,,,,,,,,,,,,,,,,,,,,,,,,,,,,,,,,
,,5f4595ac82d8061b45c2c490,26,male,2024-04-16_11h24.15.421,stockport_simplified,2022.2.4,Win32,60.24096386,661e456ee6de07e70aa9ef7b,661e51b63ca98b45e53a8629,,,,,,,,,,,,,,,,,,,,,,,,,,,,,,,,,,,,,,,,,,,,,,,,,,,,,,,,0,6,6,10,1,B,X,N,o2_image,stimuli/out2.png,stimuli/out1.png,stimuli/correct_out2.png,,,,,,,,,,,,,,,,,,,,,,,,,,,,,,,,,,,,,,
,,5f4595ac82d8061b45c2c490,26,male,2024-04-16_11h24.15.421,stockport_simplified,2022.2.4,Win32,60.24096386,661e456ee6de07e70aa9ef7b,661e51b63ca98b45e53a8629,,,,,,,,,,,,,,,,,,,,,,,,,,,,,,,,,,541.0806,542.0799,"[7,8,6,2,4,1,3,5]","[[0.3,0.2],[-0.3,0.2]]","[[-0.125,-0.2],[0.125,-0.2]]",0.104735828,-0.198428962,1,0,0,0.4824,o2_image,542.0807,1,542.585,542.585,544.579,0,0,0,0,1,,,,,,,,,,,,,,,,,,,,,,,,,,,,,,,,,,,,,,,,,,,,,,,,,,
,,5f4595ac82d8061b45c2c490,26,male,2024-04-16_11h24.15.421,stockport_simplified,2022.2.4,Win32,60.24096386,661e456ee6de07e70aa9ef7b,661e51b63ca98b45e53a8629,,,,,,,,,,,,,,,,,,,,,,,,,,,,,,,,,,,,,,,,,,,,,,,,,,,,,,,,0,7,7,58,1,N,M,D,o2_image,stimuli/out2.png,stimuli/out1.png,stimuli/correct_out2.png,,,,,,,,,,,,,,,,,,,,,,,,,,,,,,,,,,,,,,
,,5f4595ac82d8061b45c2c490,26,male,2024-04-16_11h24.15.421,stockport_simplified,2022.2.4,Win32,60.24096386,661e456ee6de07e70aa9ef7b,661e51b63ca98b45e53a8629,,,,,,,,,,,,,,,,,,,,,,,,,,,,,,,,,,544.5799,545.9791,"[7,8,6,2,4,1,3,5]","[[0.3,0.2],[-0.3,0.2]]","[[-0.125,-0.2],[0.125,-0.2]]",-0.116120135,-0.234858779,1,0,0,0.8824,o1_image,545.9799,1,546.4842,546.4843,548.4785,0,0,0,0,1,,,,,,,,,,,,,,,,,,,,,,,,,,,,,,,,,,,,,,,,,,,,,,,,,,
,,5f4595ac82d8061b45c2c490,26,male,2024-04-16_11h24.15.421,stockport_simplified,2022.2.4,Win32,60.24096386,661e456ee6de07e70aa9ef7b,661e51b63ca98b45e53a8629,,,,,,,,,,,,,,,,,,,,,,,,,,,,,,,,,,,,,,,,,,,,,,,,,,,,,,,,0,8,8,54,1,N,M,C,o1_image,stimuli/out1.png,stimuli/correct_out1.png,stimuli/out2.png,,,,,,,,,,,,,,,,,,,,,,,,,,,,,,,,,,,,,,
,,5f4595ac82d8061b45c2c490,26,male,2024-04-16_11h24.15.421,stockport_simplified,2022.2.4,Win32,60.24096386,661e456ee6de07e70aa9ef7b,661e51b63ca98b45e53a8629,,,,,,,,,,,,,,,,,,,,,,,,,,,,,,,,,,548.4794,549.9116,"[7,8,6,2,4,1,3,5]","[[0.3,0.2],[-0.3,0.2]]","[[-0.125,-0.2],[0.125,-0.2]]",0.108151128,-0.208674863,1,0,0,0.9104,o2_image,549.9128,1,550.4122,550.4123,552.4109,0,0,0,0,1,,,,,,,,,,,,,,,,,,,,,,,,,,,,,,,,,,,,,,,,,,,,,,,,,,
,,5f4595ac82d8061b45c2c490,26,male,2024-04-16_11h24.15.421,stockport_simplified,2022.2.4,Win32,60.24096386,661e456ee6de07e70aa9ef7b,661e51b63ca98b45e53a8629,,,,,,,,,,,,,,,,,,,,,,,,,,,,,,,,,,,,,,,,,,,,,,,,,,,,,,,,0,9,9,47,1,B,Y,N,o2_image,stimuli/out2.png,stimuli/out1.png,stimuli/correct_out2.png,,,,,,,,,,,,,,,,,,,,,,,,,,,,,,,,,,,,,,
,,5f4595ac82d8061b45c2c490,26,male,2024-04-16_11h24.15.421,stockport_simplified,2022.2.4,Win32,60.24096386,661e456ee6de07e70aa9ef7b,661e51b63ca98b45e53a8629,,,,,,,,,,,,,,,,,,,,,,,,,,,,,,,,,,552.4119,554.7444,"[7,8,6,2,4,1,3,5]","[[0.3,0.2],[-0.3,0.2]]","[[-0.125,-0.2],[0.125,-0.2]]",0.128642932,-0.191598361,1,0,0,1.816,o2_image,554.7454,1,555.2491,555.2492,557.2439,0,0,0,0,1,,,,,,,,,,,,,,,,,,,,,,,,,,,,,,,,,,,,,,,,,,,,,,,,,,
,,5f4595ac82d8061b45c2c490,26,male,2024-04-16_11h24.15.421,stockport_simplified,2022.2.4,Win32,60.24096386,661e456ee6de07e70aa9ef7b,661e51b63ca98b45e53a8629,,,,,,,,,,,,,,,,,,,,,,,,,,,,,,,,,,,,,,,,,,,,,,,,,,,,,,,,0,10,10,59,1,N,M,D,o2_image,stimuli/out2.png,stimuli/out1.png,stimuli/correct_out2.png,,,,,,,,,,,,,,,,,,,,,,,,,,,,,,,,,,,,,,
,,5f4595ac82d8061b45c2c490,26,male,2024-04-16_11h24.15.421,stockport_simplified,2022.2.4,Win32,60.24096386,661e456ee6de07e70aa9ef7b,661e51b63ca98b45e53a8629,,,,,,,,,,,,,,,,,,,,,,,,,,,,,,,,,,557.2449,558.7776,"[7,8,6,2,4,1,3,5]","[[0.3,0.2],[-0.3,0.2]]","[[-0.125,-0.2],[0.125,-0.2]]",0.142304134,-0.265596484,1,0,0,1.016,o2_image,558.7789,0,559.2769,559.277,561.2764,0,0,0,0,1,,,,,,,,,,,,,,,,,,,,,,,,,,,,,,,,,,,,,,,,,,,,,,,,,,
,,5f4595ac82d8061b45c2c490,26,male,2024-04-16_11h24.15.421,stockport_simplified,2022.2.4,Win32,60.24096386,661e456ee6de07e70aa9ef7b,661e51b63ca98b45e53a8629,,,,,,,,,,,,,,,,,,,,,,,,,,,,,,,,,,,,,,,,,,,,,,,,,,,,,,,,0,11,11,6,1,A,Y,N,o1_image,stimuli/out1.png,stimuli/correct_out1.png,stimuli/out2.png,,,,,,,,,,,,,,,,,,,,,,,,,,,,,,,,,,,,,,
,,5f4595ac82d8061b45c2c490,26,male,2024-04-16_11h24.15.421,stockport_simplified,2022.2.4,Win32,60.24096386,661e456ee6de07e70aa9ef7b,661e51b63ca98b45e53a8629,,,,,,,,,,,,,,,,,,,,,,,,,,,,,,,,,,561.2768,563.2091,"[7,8,6,2,4,1,3,5]","[[0.3,0.2],[-0.3,0.2]]","[[-0.125,-0.2],[0.125,-0.2]]",-0.113843324,-0.197290514,1,0,0,1.4156,o1_image,563.21,1,563.7095,563.7096,565.7091,0,0,0,0,1,,,,,,,,,,,,,,,,,,,,,,,,,,,,,,,,,,,,,,,,,,,,,,,,,,
,,5f4595ac82d8061b45c2c490,26,male,2024-04-16_11h24.15.421,stockport_simplified,2022.2.4,Win32,60.24096386,661e456ee6de07e70aa9ef7b,661e51b63ca98b45e53a8629,,,,,,,,,,,,,,,,,,,,,,,,,,,,,,,,,,,,,,,,,,,,,,,,,,,,,,,,0,12,12,31,1,A,X,N,o1_image,stimuli/out1.png,stimuli/correct_out1.png,stimuli/out2.png,,,,,,,,,,,,,,,,,,,,,,,,,,,,,,,,,,,,,,
,,5f4595ac82d8061b45c2c490,26,male,2024-04-16_11h24.15.421,stockport_simplified,2022.2.4,Win32,60.24096386,661e456ee6de07e70aa9ef7b,661e51b63ca98b45e53a8629,,,,,,,,,,,,,,,,,,,,,,,,,,,,,,,,,,565.7094,569.6752,"[7,8,6,2,4,1,3,5]","[[-0.3,0.2],[0.3,0.2]]","[[0.125,-0.2],[-0.125,-0.2]]",0.128642932,-0.161999061,1,0,0,3.449,o1_image,569.6841,1,570.1755,570.1755,572.1751,0,0,0,0,1,,,,,,,,,,,,,,,,,,,,,,,,,,,,,,,,,,,,,,,,,,,,,,,,,,
,,5f4595ac82d8061b45c2c490,26,male,2024-04-16_11h24.15.421,stockport_simplified,2022.2.4,Win32,60.24096386,661e456ee6de07e70aa9ef7b,661e51b63ca98b45e53a8629,,,,,,,,,,,,,,,,,,,,,,,,,,,,,,,,,,,,,,,,,,,,,,,,,,,,,,,,0,13,13,23,1,N,M,C,o1_image,stimuli/out1.png,stimuli/correct_out1.png,stimuli/out2.png,,,,,,,,,,,,,,,,,,,,,,,,,,,,,,,,,,,,,,
,,5f4595ac82d8061b45c2c490,26,male,2024-04-16_11h24.15.421,stockport_simplified,2022.2.4,Win32,60.24096386,661e456ee6de07e70aa9ef7b,661e51b63ca98b45e53a8629,,,,,,,,,,,,,,,,,,,,,,,,,,,,,,,,,,572.1757,574.1245,"[7,8,6,2,4,1,3,5]","[[-0.3,0.2],[0.3,0.2]]","[[0.125,-0.2],[-0.125,-0.2]]",0.135473533,-0.197290514,1,0,0,1.4324,o1_image,574.1251,0,574.6247,574.6248,577.3895,0,0,0,0,1,,,,,,,,,,,,,,,,,,,,,,,,,,,,,,,,,,,,,,,,,,,,,,,,,,
,,5f4595ac82d8061b45c2c490,26,male,2024-04-16_11h24.15.421,stockport_simplified,2022.2.4,Win32,60.24096386,661e456ee6de07e70aa9ef7b,661e51b63ca98b45e53a8629,,,,,,,,,,,,,,,,,,,,,,,,,,,,,,,,,,,,,,,,,,,,,,,,,,,,,,,,0,14,14,48,1,B,Y,N,o2_image,stimuli/out2.png,stimuli/out1.png,stimuli/correct_out2.png,,,,,,,,,,,,,,,,,,,,,,,,,,,,,,,,,,,,,,
,,5f4595ac82d8061b45c2c490,26,male,2024-04-16_11h24.15.421,stockport_simplified,2022.2.4,Win32,60.24096386,661e456ee6de07e70aa9ef7b,661e51b63ca98b45e53a8629,,,,,,,,,,,,,,,,,,,,,,,,,,,,,,,,,,577.3903,579.4076,"[7,8,6,2,4,1,3,5]","[[-0.3,0.2],[0.3,0.2]]","[[0.125,-0.2],[-0.125,-0.2]]",0.105874317,-0.172244963,1,0,0,1.5114,o1_image,579.4088,1,583.1995,583.1995,583.2414,0,0,0,0,1,,,,,,,,,,,,,,,,,,,,,,,,,,,,,,,,,,,,,,,,,,,,,,,,,,
,,5f4595ac82d8061b45c2c490,26,male,2024-04-16_11h24.15.421,stockport_simplified,2022.2.4,Win32,60.24096386,661e456ee6de07e70aa9ef7b,661e51b63ca98b45e53a8629,,,,,,,,,,,,,,,,,,,,,,,,,,,,,,,,,,,,,,,,,,,,,,,,,,,,,,,,0,15,15,33,1,A,X,N,o1_image,stimuli/out1.png,stimuli/correct_out1.png,stimuli/out2.png,,,,,,,,,,,,,,,,,,,,,,,,,,,,,,,,,,,,,,
,,5f4595ac82d8061b45c2c490,26,male,2024-04-16_11h24.15.421,stockport_simplified,2022.2.4,Win32,60.24096386,661e456ee6de07e70aa9ef7b,661e51b63ca98b45e53a8629,,,,,,,,,,,,,,,,,,,,,,,,,,,,,,,,,,583.2417,584.157,"[7,8,6,2,4,1,3,5]","[[0.3,0.2],[-0.3,0.2]]","[[0.125,-0.2],[-0.125,-0.2]]",-0.121812414,-0.18476776,1,0,0,0.4118,o2_image,584.1583,0,587.6978,587.6978,587.7234,0,0,0,0,1,,,,,,,,,,,,,,,,,,,,,,,,,,,,,,,,,,,,,,,,,,,,,,,,,,
,,5f4595ac82d8061b45c2c490,26,male,2024-04-16_11h24.15.421,stockport_simplified,2022.2.4,Win32,60.24096386,661e456ee6de07e70aa9ef7b,661e51b63ca98b45e53a8629,,,,,,,,,,,,,,,,,,,,,,,,,,,,,,,,,,,,,,,,,,,,,,,,,,,,,,,,0,16,16,4,1,A,X,N,o1_image,stimuli/out1.png,stimuli/correct_out1.png,stimuli/out2.png,,,,,,,,,,,,,,,,,,,,,,,,,,,,,,,,,,,,,,
,,5f4595ac82d8061b45c2c490,26,male,2024-04-16_11h24.15.421,stockport_simplified,2022.2.4,Win32,60.24096386,661e456ee6de07e70aa9ef7b,661e51b63ca98b45e53a8629,,,,,,,,,,,,,,,,,,,,,,,,,,,,,,,,,,587.724,588.6617,"[7,8,6,2,4,1,3,5]","[[-0.3,0.2],[0.3,0.2]]","[[0.125,-0.2],[-0.125,-0.2]]",0.140027322,-0.180214012,1,0,0,0.4311,o1_image,588.6624,0,591.7546,591.7546,591.8042,0,0,0,0,1,,,,,,,,,,,,,,,,,,,,,,,,,,,,,,,,,,,,,,,,,,,,,,,,,,
,,5f4595ac82d8061b45c2c490,26,male,2024-04-16_11h24.15.421,stockport_simplified,2022.2.4,Win32,60.24096386,661e456ee6de07e70aa9ef7b,661e51b63ca98b45e53a8629,,,,,,,,,,,,,,,,,,,,,,,,,,,,,,,,,,,,,,,,,,,,,,,,,,,,,,,,0,17,17,28,1,N,M,D,o2_image,stimuli/out2.png,stimuli/out1.png,stimuli/correct_out2.png,,,,,,,,,,,,,,,,,,,,,,,,,,,,,,,,,,,,,,
,,5f4595ac82d8061b45c2c490,26,male,2024-04-16_11h24.15.421,stockport_simplified,2022.2.4,Win32,60.24096386,661e456ee6de07e70aa9ef7b,661e51b63ca98b45e53a8629,,,,,,,,,,,,,,,,,,,,,,,,,,,,,,,,,,591.8046,593.0564,"[7,8,6,2,4,1,3,5]","[[-0.3,0.2],[0.3,0.2]]","[[0.125,-0.2],[-0.125,-0.2]]",-0.138888917,-0.226889772,1,0,0,0.7444,o2_image,593.0574,1,593.5564,593.5565,596.326,0,0,0,0,1,,,,,,,,,,,,,,,,,,,,,,,,,,,,,,,,,,,,,,,,,,,,,,,,,,
,,5f4595ac82d8061b45c2c490,26,male,2024-04-16_11h24.15.421,stockport_simplified,2022.2.4,Win32,60.24096386,661e456ee6de07e70aa9ef7b,661e51b63ca98b45e53a8629,,,,,,,,,,,,,,,,,,,,,,,,,,,,,,,,,,,,,,,,,,,,,,,,,,,,,,,,0,18,18,29,1,N,M,D,o2_image,stimuli/out2.png,stimuli/out1.png,stimuli/correct_out2.png,,,,,,,,,,,,,,,,,,,,,,,,,,,,,,,,,,,,,,
,,5f4595ac82d8061b45c2c490,26,male,2024-04-16_11h24.15.421,stockport_simplified,2022.2.4,Win32,60.24096386,661e456ee6de07e70aa9ef7b,661e51b63ca98b45e53a8629,,,,,,,,,,,,,,,,,,,,,,,,,,,,,,,,,,596.3333,597.4889,"[7,8,6,2,4,1,3,5]","[[-0.3,0.2],[0.3,0.2]]","[[-0.125,-0.2],[0.125,-0.2]]",0.069444417,-0.176798711,1,0,0,0.6443,o2_image,597.49,1,597.9885,597.9885,599.9879,0,0,0,0,1,,,,,,,,,,,,,,,,,,,,,,,,,,,,,,,,,,,,,,,,,,,,,,,,,,
,,5f4595ac82d8061b45c2c490,26,male,2024-04-16_11h24.15.421,stockport_simplified,2022.2.4,Win32,60.24096386,661e456ee6de07e70aa9ef7b,661e51b63ca98b45e53a8629,,,,,,,,,,,,,,,,,,,,,,,,,,,,,,,,,,,,,,,,,,,,,,,,,,,,,,,,0,19,19,12,1,B,X,N,o2_image,stimuli/out2.png,stimuli/out1.png,stimuli/correct_out2.png,,,,,,,,,,,,,,,,,,,,,,,,,,,,,,,,,,,,,,
,,5f4595ac82d8061b45c2c490,26,male,2024-04-16_11h24.15.421,stockport_simplified,2022.2.4,Win32,60.24096386,661e456ee6de07e70aa9ef7b,661e51b63ca98b45e53a8629,,,,,,,,,,,,,,,,,,,,,,,,,,,,,,,,,,599.9884,601.4376,"[7,8,6,2,4,1,3,5]","[[0.3,0.2],[-0.3,0.2]]","[[0.125,-0.2],[-0.125,-0.2]]",-0.114981813,-0.208674863,1,0,0,0.9325,o2_image,601.4382,0,605.7638,605.7638,605.804,0,0,0,0,1,,,,,,,,,,,,,,,,,,,,,,,,,,,,,,,,,,,,,,,,,,,,,,,,,,
,,5f4595ac82d8061b45c2c490,26,male,2024-04-16_11h24.15.421,stockport_simplified,2022.2.4,Win32,60.24096386,661e456ee6de07e70aa9ef7b,661e51b63ca98b45e53a8629,,,,,,,,,,,,,,,,,,,,,,,,,,,,,,,,,,,,,,,,,,,,,,,,,,,,,,,,0,20,20,38,1,A,Y,N,o1_image,stimuli/out1.png,stimuli/correct_out1.png,stimuli/out2.png,,,,,,,,,,,,,,,,,,,,,,,,,,,,,,,,,,,,,,
,,5f4595ac82d8061b45c2c490,26,male,2024-04-16_11h24.15.421,stockport_simplified,2022.2.4,Win32,60.24096386,661e456ee6de07e70aa9ef7b,661e51b63ca98b45e53a8629,,,,,,,,,,,,,,,,,,,,,,,,,,,,,,,,,,605.8046,606.8541,"[7,8,6,2,4,1,3,5]","[[-0.3,0.2],[0.3,0.2]]","[[-0.125,-0.2],[0.125,-0.2]]",-0.15938072,-0.200705773,1,0,0,0.5429,o1_image,606.8552,1,609.5578,609.5578,614.5966,0,0,0,0,1,,,,,,,,,,,,,,,,,,,,,,,,,,,,,,,,,,,,,,,,,,,,,,,,,,
,,5f4595ac82d8061b45c2c490,26,male,2024-04-16_11h24.15.421,stockport_simplified,2022.2.4,Win32,60.24096386,661e456ee6de07e70aa9ef7b,661e51b63ca98b45e53a8629,,,,,,,,,,,,,,,,,,,,,,,,,,,,,,,,,,,,,,,,,,,,,,,,,,,,,,,,0,21,21,39,1,A,Y,N,o1_image,stimuli/out1.png,stimuli/correct_out1.png,stimuli/out2.png,,,,,,,,,,,,,,,,,,,,,,,,,,,,,,,,,,,,,,
,,5f4595ac82d8061b45c2c490,26,male,2024-04-16_11h24.15.421,stockport_simplified,2022.2.4,Win32,60.24096386,661e456ee6de07e70aa9ef7b,661e51b63ca98b45e53a8629,,,,,,,,,,,,,,,,,,,,,,,,,,,,,,,,,,614.6062,616.0022,"[7,8,6,2,4,1,3,5]","[[-0.3,0.2],[0.3,0.2]]","[[0.125,-0.2],[-0.125,-0.2]]",0.125227631,-0.164275956,1,0,0,0.8817,o1_image,616.0029,1,616.4923,616.4924,618.4951,0,0,0,0,1,,,,,,,,,,,,,,,,,,,,,,,,,,,,,,,,,,,,,,,,,,,,,,,,,,
,,5f4595ac82d8061b45c2c490,26,male,2024-04-16_11h24.15.421,stockport_simplified,2022.2.4,Win32,60.24096386,661e456ee6de07e70aa9ef7b,661e51b63ca98b45e53a8629,,,,,,,,,,,,,,,,,,,,,,,,,,,,,,,,,,,,,,,,,,,,,,,,,,,,,,,,0,22,22,51,1,N,M,C,o1_image,stimuli/out1.png,stimuli/correct_out1.png,stimuli/out2.png,,,,,,,,,,,,,,,,,,,,,,,,,,,,,,,,,,,,,,
,,5f4595ac82d8061b45c2c490,26,male,2024-04-16_11h24.15.421,stockport_simplified,2022.2.4,Win32,60.24096386,661e456ee6de07e70aa9ef7b,661e51b63ca98b45e53a8629,,,,,,,,,,,,,,,,,,,,,,,,,,,,,,,,,,618.4955,620.5222,"[7,8,6,2,4,1,3,5]","[[-0.3,0.2],[0.3,0.2]]","[[-0.125,-0.2],[0.125,-0.2]]",0.095793296,-0.131001372,1,0,0,1.5202,o2_image,620.5228,0,621.0191,621.0191,623.0195,0,0,0,0,1,,,,,,,,,,,,,,,,,,,,,,,,,,,,,,,,,,,,,,,,,,,,,,,,,,
,,5f4595ac82d8061b45c2c490,26,male,2024-04-16_11h24.15.421,stockport_simplified,2022.2.4,Win32,60.24096386,661e456ee6de07e70aa9ef7b,661e51b63ca98b45e53a8629,,,,,,,,,,,,,,,,,,,,,,,,,,,,,,,,,,,,,,,,,,,,,,,,,,,,,,,,0,23,23,32,1,A,X,N,o1_image,stimuli/out1.png,stimuli/correct_out1.png,stimuli/out2.png,,,,,,,,,,,,,,,,,,,,,,,,,,,,,,,,,,,,,,
,,5f4595ac82d8061b45c2c490,26,male,2024-04-16_11h24.15.421,stockport_simplified,2022.2.4,Win32,60.24096386,661e456ee6de07e70aa9ef7b,661e51b63ca98b45e53a8629,,,,,,,,,,,,,,,,,,,,,,,,,,,,,,,,,,623.0202,626.6855,"[7,8,6,2,4,1,3,5]","[[0.3,0.2],[-0.3,0.2]]","[[0.125,-0.2],[-0.125,-0.2]]",-0.116826731,-0.199588477,1,0,0,3.1598,o2_image,626.6977,1,627.2012,627.2012,629.2013,0,0,0,0,1,,,,,,,,,,,,,,,,,,,,,,,,,,,,,,,,,,,,,,,,,,,,,,,,,,
,,5f4595ac82d8061b45c2c490,26,male,2024-04-16_11h24.15.421,stockport_simplified,2022.2.4,Win32,60.24096386,661e456ee6de07e70aa9ef7b,661e51b63ca98b45e53a8629,,,,,,,,,,,,,,,,,,,,,,,,,,,,,,,,,,,,,,,,,,,,,,,,,,,,,,,,0,24,24,55,1,N,M,D,o2_image,stimuli/out2.png,stimuli/out1.png,stimuli/correct_out2.png,,,,,,,,,,,,,,,,,,,,,,,,,,,,,,,,,,,,,,
,,5f4595ac82d8061b45c2c490,26,male,2024-04-16_11h24.15.421,stockport_simplified,2022.2.4,Win32,60.24096386,661e456ee6de07e70aa9ef7b,661e51b63ca98b45e53a8629,,,,,,,,,,,,,,,,,,,,,,,,,,,,,,,,,,629.2022,632.4844,"[7,8,6,2,4,1,3,5]","[[0.3,0.2],[-0.3,0.2]]","[[0.125,-0.2],[-0.125,-0.2]]",0.156378601,-0.160722437,1,0,0,2.7631,o1_image,632.4917,1,632.987,632.987,634.986,0,0,0,0,1,,,,,,,,,,,,,,,,,,,,,,,,,,,,,,,,,,,,,,,,,,,,,,,,,,
,,5f4595ac82d8061b45c2c490,26,male,2024-04-16_11h24.15.421,stockport_simplified,2022.2.4,Win32,60.24096386,661e456ee6de07e70aa9ef7b,661e51b63ca98b45e53a8629,,,,,,,,,,,,,,,,,,,,,,,,,,,,,,,,,,,,,,,,,,,,,,,,,,,,,,,,0,25,25,36,1,A,Y,N,o1_image,stimuli/out1.png,stimuli/correct_out1.png,stimuli/out2.png,,,,,,,,,,,,,,,,,,,,,,,,,,,,,,,,,,,,,,
,,5f4595ac82d8061b45c2c490,26,male,2024-04-16_11h24.15.421,stockport_simplified,2022.2.4,Win32,60.24096386,661e456ee6de07e70aa9ef7b,661e51b63ca98b45e53a8629,,,,,,,,,,,,,,,,,,,,,,,,,,,,,,,,,,634.9863,640.3002,"[7,8,6,2,4,1,3,5]","[[0.3,0.2],[-0.3,0.2]]","[[-0.125,-0.2],[0.125,-0.2]]",-0.101966178,-0.158436214,1,0,0,4.7994,o1_image,640.3112,0,640.8001,640.8001,642.7858,0,0,0,0,1,,,,,,,,,,,,,,,,,,,,,,,,,,,,,,,,,,,,,,,,,,,,,,,,,,
,,5f4595ac82d8061b45c2c490,26,male,2024-04-16_11h24.15.421,stockport_simplified,2022.2.4,Win32,60.24096386,661e456ee6de07e70aa9ef7b,661e51b63ca98b45e53a8629,,,,,,,,,,,,,,,,,,,,,,,,,,,,,,,,,,,,,,,,,,,,,,,,,,,,,,,,0,26,26,49,1,B,Y,N,o2_image,stimuli/out2.png,stimuli/out1.png,stimuli/correct_out2.png,,,,,,,,,,,,,,,,,,,,,,,,,,,,,,,,,,,,,,
,,5f4595ac82d8061b45c2c490,26,male,2024-04-16_11h24.15.421,stockport_simplified,2022.2.4,Win32,60.24096386,661e456ee6de07e70aa9ef7b,661e51b63ca98b45e53a8629,,,,,,,,,,,,,,,,,,,,,,,,,,,,,,,,,,642.7862,645.1668,"[7,8,6,2,4,1,3,5]","[[0.3,0.2],[-0.3,0.2]]","[[-0.125,-0.2],[0.125,-0.2]]",-0.099679913,-0.22245079,1,0,0,1.8669,o1_image,645.1676,0,645.6689,645.669,647.6648,0,0,0,0,1,,,,,,,,,,,,,,,,,,,,,,,,,,,,,,,,,,,,,,,,,,,,,,,,,,
,,5f4595ac82d8061b45c2c490,26,male,2024-04-16_11h24.15.421,stockport_simplified,2022.2.4,Win32,60.24096386,661e456ee6de07e70aa9ef7b,661e51b63ca98b45e53a8629,,,,,,,,,,,,,,,,,,,,,,,,,,,,,,,,,,,,,,,,,,,,,,,,,,,,,,,,0,27,27,11,1,B,X,N,o2_image,stimuli/out2.png,stimuli/out1.png,stimuli/correct_out2.png,,,,,,,,,,,,,,,,,,,,,,,,,,,,,,,,,,,,,,
,,5f4595ac82d8061b45c2c490,26,male,2024-04-16_11h24.15.421,stockport_simplified,2022.2.4,Win32,60.24096386,661e456ee6de07e70aa9ef7b,661e51b63ca98b45e53a8629,,,,,,,,,,,,,,,,,,,,,,,,,,,,,,,,,,647.6654,650.8147,"[7,8,6,2,4,1,3,5]","[[-0.3,0.2],[0.3,0.2]]","[[0.125,-0.2],[-0.125,-0.2]]",0.125514403,-0.158436214,1,0,0,2.6324,o1_image,650.8228,1,651.3149,651.3149,653.315,0,0,0,0,1,,,,,,,,,,,,,,,,,,,,,,,,,,,,,,,,,,,,,,,,,,,,,,,,,,
,,5f4595ac82d8061b45c2c490,26,male,2024-04-16_11h24.15.421,stockport_simplified,2022.2.4,Win32,60.24096386,661e456ee6de07e70aa9ef7b,661e51b63ca98b45e53a8629,,,,,,,,,,,,,,,,,,,,,,,,,,,,,,,,,,,,,,,,,,,,,,,,,,,,,,,,0,28,28,37,1,A,Y,N,o1_image,stimuli/out1.png,stimuli/correct_out1.png,stimuli/out2.png,,,,,,,,,,,,,,,,,,,,,,,,,,,,,,,,,,,,,,
,,5f4595ac82d8061b45c2c490,26,male,2024-04-16_11h24.15.421,stockport_simplified,2022.2.4,Win32,60.24096386,661e456ee6de07e70aa9ef7b,661e51b63ca98b45e53a8629,,,,,,,,,,,,,,,,,,,,,,,,,,,,,,,,,,653.3155,656.0478,"[7,8,6,2,4,1,3,5]","[[-0.3,0.2],[0.3,0.2]]","[[-0.125,-0.2],[0.125,-0.2]]",-0.098536822,-0.164151792,1,0,0,2.2135,o1_image,656.0591,1,656.547,656.547,658.5465,0,0,0,0,1,,,,,,,,,,,,,,,,,,,,,,,,,,,,,,,,,,,,,,,,,,,,,,,,,,
,,5f4595ac82d8061b45c2c490,26,male,2024-04-16_11h24.15.421,stockport_simplified,2022.2.4,Win32,60.24096386,661e456ee6de07e70aa9ef7b,661e51b63ca98b45e53a8629,,,,,,,,,,,,,,,,,,,,,,,,,,,,,,,,,,,,,,,,,,,,,,,,,,,,,,,,0,29,29,50,1,N,M,C,o1_image,stimuli/out1.png,stimuli/correct_out1.png,stimuli/out2.png,,,,,,,,,,,,,,,,,,,,,,,,,,,,,,,,,,,,,,
,,5f4595ac82d8061b45c2c490,26,male,2024-04-16_11h24.15.421,stockport_simplified,2022.2.4,Win32,60.24096386,661e456ee6de07e70aa9ef7b,661e51b63ca98b45e53a8629,,,,,,,,,,,,,,,,,,,,,,,,,,,,,,,,,,658.5469,660.9522,"[7,8,6,2,4,1,3,5]","[[-0.3,0.2],[0.3,0.2]]","[[0.125,-0.2],[-0.125,-0.2]]",0.103795139,-0.173296726,1,0,0,1.8887,o1_image,660.9537,0,661.4467,661.4467,663.4466,0,0,0,0,1,,,,,,,,,,,,,,,,,,,,,,,,,,,,,,,,,,,,,,,,,,,,,,,,,,
,,5f4595ac82d8061b45c2c490,26,male,2024-04-16_11h24.15.421,stockport_simplified,2022.2.4,Win32,60.24096386,661e456ee6de07e70aa9ef7b,661e51b63ca98b45e53a8629,,,,,,,,,,,,,,,,,,,,,,,,,,,,,,,,,,,,,,,,,,,,,,,,,,,,,,,,0,30,30,42,1,B,X,N,o2_image,stimuli/out2.png,stimuli/out1.png,stimuli/correct_out2.png,,,,,,,,,,,,,,,,,,,,,,,,,,,,,,,,,,,,,,
,,5f4595ac82d8061b45c2c490,26,male,2024-04-16_11h24.15.421,stockport_simplified,2022.2.4,Win32,60.24096386,661e456ee6de07e70aa9ef7b,661e51b63ca98b45e53a8629,,,,,,,,,,,,,,,,,,,,,,,,,,,,,,,,,,663.4471,665.5295,"[7,8,6,2,4,1,3,5]","[[-0.3,0.2],[0.3,0.2]]","[[0.125,-0.2],[-0.125,-0.2]]",0.128943759,-0.206447188,1,0,0,1.58,o1_image,665.5303,0,666.0296,666.0296,668.0326,0,0,0,0,1,,,,,,,,,,,,,,,,,,,,,,,,,,,,,,,,,,,,,,,,,,,,,,,,,,
,,5f4595ac82d8061b45c2c490,26,male,2024-04-16_11h24.15.421,stockport_simplified,2022.2.4,Win32,60.24096386,661e456ee6de07e70aa9ef7b,661e51b63ca98b45e53a8629,,,,,,,,,,,,,,,,,,,,,,,,,,,,,,,,,,,,,,,,,,,,,,,,,,,,,,,,0,31,31,15,1,B,Y,N,o2_image,stimuli/out2.png,stimuli/out1.png,stimuli/correct_out2.png,,,,,,,,,,,,,,,,,,,,,,,,,,,,,,,,,,,,,,
,,5f4595ac82d8061b45c2c490,26,male,2024-04-16_11h24.15.421,stockport_simplified,2022.2.4,Win32,60.24096386,661e456ee6de07e70aa9ef7b,661e51b63ca98b45e53a8629,,,,,,,,,,,,,,,,,,,,,,,,,,,,,,,,,,668.0332,669.0623,"[7,8,6,2,4,1,3,5]","[[0.3,0.2],[-0.3,0.2]]","[[0.125,-0.2],[-0.125,-0.2]]",-0.123685442,-0.180155436,1,0,0,0.5159,o2_image,669.063,0,669.5626,669.5626,671.5619,0,0,0,0,1,,,,,,,,,,,,,,,,,,,,,,,,,,,,,,,,,,,,,,,,,,,,,,,,,,
,,5f4595ac82d8061b45c2c490,26,male,2024-04-16_11h24.15.421,stockport_simplified,2022.2.4,Win32,60.24096386,661e456ee6de07e70aa9ef7b,661e51b63ca98b45e53a8629,,,,,,,,,,,,,,,,,,,,,,,,,,,,,,,,,,,,,,,,,,,,,,,,,,,,,,,,0,32,32,30,1,A,X,N,o1_image,stimuli/out1.png,stimuli/correct_out1.png,stimuli/out2.png,,,,,,,,,,,,,,,,,,,,,,,,,,,,,,,,,,,,,,
,,5f4595ac82d8061b45c2c490,26,male,2024-04-16_11h24.15.421,stockport_simplified,2022.2.4,Win32,60.24096386,661e456ee6de07e70aa9ef7b,661e51b63ca98b45e53a8629,,,,,,,,,,,,,,,,,,,,,,,,,,,,,,,,,,671.5625,673.5286,"[7,8,6,2,4,1,3,5]","[[0.3,0.2],[-0.3,0.2]]","[[-0.125,-0.2],[0.125,-0.2]]",-0.12940102,-0.207590278,1,0,0,1.4494,o1_image,673.5293,1,674.0285,674.0285,676.0285,0,0,0,0,1,,,,,,,,,,,,,,,,,,,,,,,,,,,,,,,,,,,,,,,,,,,,,,,,,,
,,5f4595ac82d8061b45c2c490,26,male,2024-04-16_11h24.15.421,stockport_simplified,2022.2.4,Win32,60.24096386,661e456ee6de07e70aa9ef7b,661e51b63ca98b45e53a8629,,,,,,,,,,,,,,,,,,,,,,,,,,,,,,,,,,,,,,,,,,,,,,,,,,,,,,,,0,33,33,34,1,A,X,N,o1_image,stimuli/out1.png,stimuli/correct_out1.png,stimuli/out2.png,,,,,,,,,,,,,,,,,,,,,,,,,,,,,,,,,,,,,,
,,5f4595ac82d8061b45c2c490,26,male,2024-04-16_11h24.15.421,stockport_simplified,2022.2.4,Win32,60.24096386,661e456ee6de07e70aa9ef7b,661e51b63ca98b45e53a8629,,,,,,,,,,,,,,,,,,,,,,,,,,,,,,,,,,676.0289,677.1947,"[7,8,6,2,4,1,3,5]","[[-0.3,0.2],[0.3,0.2]]","[[-0.125,-0.2],[0.125,-0.2]]",0.151806113,-0.191586634,1,0,0,0.6497,o2_image,677.1954,1,677.6948,677.695,679.6945,0,0,0,0,1,,,,,,,,,,,,,,,,,,,,,,,,,,,,,,,,,,,,,,,,,,,,,,,,,,
,,5f4595ac82d8061b45c2c490,26,male,2024-04-16_11h24.15.421,stockport_simplified,2022.2.4,Win32,60.24096386,661e456ee6de07e70aa9ef7b,661e51b63ca98b45e53a8629,,,,,,,,,,,,,,,,,,,,,,,,,,,,,,,,,,,,,,,,,,,,,,,,,,,,,,,,0,34,34,41,1,B,X,N,o2_image,stimuli/out2.png,stimuli/out1.png,stimuli/correct_out2.png,,,,,,,,,,,,,,,,,,,,,,,,,,,,,,,,,,,,,,
,,5f4595ac82d8061b45c2c490,26,male,2024-04-16_11h24.15.421,stockport_simplified,2022.2.4,Win32,60.24096386,661e456ee6de07e70aa9ef7b,661e51b63ca98b45e53a8629,,,,,,,,,,,,,,,,,,,,,,,,,,,,,,,,,,679.6953,684.416,"[7,8,6,2,4,1,3,5]","[[0.3,0.2],[-0.3,0.2]]","[[0.125,-0.2],[-0.125,-0.2]]",0.133516204,-0.197302213,1,0,0,4.2174,o1_image,684.4282,0,684.9265,684.9266,686.9268,0,0,0,0,1,,,,,,,,,,,,,,,,,,,,,,,,,,,,,,,,,,,,,,,,,,,,,,,,,,
,,5f4595ac82d8061b45c2c490,26,male,2024-04-16_11h24.15.421,stockport_simplified,2022.2.4,Win32,60.24096386,661e456ee6de07e70aa9ef7b,661e51b63ca98b45e53a8629,,,,,,,,,,,,,,,,,,,,,,,,,,,,,,,,,,,,,,,,,,,,,,,,,,,,,,,,0,35,35,46,1,B,Y,N,o2_image,stimuli/out2.png,stimuli/out1.png,stimuli/correct_out2.png,,,,,,,,,,,,,,,,,,,,,,,,,,,,,,,,,,,,,,
,,5f4595ac82d8061b45c2c490,26,male,2024-04-16_11h24.15.421,stockport_simplified,2022.2.4,Win32,60.24096386,661e456ee6de07e70aa9ef7b,661e51b63ca98b45e53a8629,,,,,,,,,,,,,,,,,,,,,,,,,,,,,,,,,,686.9272,690.7268,"[7,8,6,2,4,1,3,5]","[[-0.3,0.2],[0.3,0.2]]","[[-0.125,-0.2],[0.125,-0.2]]",0.152949246,-0.166438015,1,0,0,3.2805,o2_image,690.7374,0,691.2255,691.2255,693.2137,0,0,0,0,1,,,,,,,,,,,,,,,,,,,,,,,,,,,,,,,,,,,,,,,,,,,,,,,,,,
,,5f4595ac82d8061b45c2c490,26,male,2024-04-16_11h24.15.421,stockport_simplified,2022.2.4,Win32,60.24096386,661e456ee6de07e70aa9ef7b,661e51b63ca98b45e53a8629,,,,,,,,,,,,,,,,,,,,,,,,,,,,,,,,,,,,,,,,,,,,,,,,,,,,,,,,0,36,36,7,1,A,Y,N,o1_image,stimuli/out1.png,stimuli/correct_out1.png,stimuli/out2.png,,,,,,,,,,,,,,,,,,,,,,,,,,,,,,,,,,,,,,
,,5f4595ac82d8061b45c2c490,26,male,2024-04-16_11h24.15.421,stockport_simplified,2022.2.4,Win32,60.24096386,661e456ee6de07e70aa9ef7b,661e51b63ca98b45e53a8629,,,,,,,,,,,,,,,,,,,,,,,,,,,,,,,,,,693.2144,698.8325,"[7,8,6,2,4,1,3,5]","[[-0.3,0.2],[0.3,0.2]]","[[-0.125,-0.2],[0.125,-0.2]]",0.116369428,-0.182441701,1,0,0,5.1035,o2_image,698.8436,1,699.341,699.3412,701.3415,0,0,0,0,1,,,,,,,,,,,,,,,,,,,,,,,,,,,,,,,,,,,,,,,,,,,,,,,,,,
,,5f4595ac82d8061b45c2c490,26,male,2024-04-16_11h24.15.421,stockport_simplified,2022.2.4,Win32,60.24096386,661e456ee6de07e70aa9ef7b,661e51b63ca98b45e53a8629,,,,,,,,,,,,,,,,,,,,,,,,,,,,,,,,,,,,,,,,,,,,,,,,,,,,,,,,0,37,37,18,1,B,Y,N,o2_image,stimuli/out2.png,stimuli/out1.png,stimuli/correct_out2.png,,,,,,,,,,,,,,,,,,,,,,,,,,,,,,,,,,,,,,
,,5f4595ac82d8061b45c2c490,26,male,2024-04-16_11h24.15.421,stockport_simplified,2022.2.4,Win32,60.24096386,661e456ee6de07e70aa9ef7b,661e51b63ca98b45e53a8629,,,,,,,,,,,,,,,,,,,,,,,,,,,,,,,,,,701.3421,707.658,"[7,8,6,2,4,1,3,5]","[[0.3,0.2],[-0.3,0.2]]","[[-0.125,-0.2],[0.125,-0.2]]",-0.124828532,-0.199588477,1,0,0,5.8,o1_image,707.6692,1,708.1736,708.1737,710.1761,0,0,0,0,1,,,,,,,,,,,,,,,,,,,,,,,,,,,,,,,,,,,,,,,,,,,,,,,,,,
,,5f4595ac82d8061b45c2c490,26,male,2024-04-16_11h24.15.421,stockport_simplified,2022.2.4,Win32,60.24096386,661e456ee6de07e70aa9ef7b,661e51b63ca98b45e53a8629,,,,,,,,,,,,,,,,,,,,,,,,,,,,,,,,,,,,,,,,,,,,,,,,,,,,,,,,0,38,38,52,1,N,M,C,o1_image,stimuli/out1.png,stimuli/correct_out1.png,stimuli/out2.png,,,,,,,,,,,,,,,,,,,,,,,,,,,,,,,,,,,,,,
,,5f4595ac82d8061b45c2c490,26,male,2024-04-16_11h24.15.421,stockport_simplified,2022.2.4,Win32,60.24096386,661e456ee6de07e70aa9ef7b,661e51b63ca98b45e53a8629,,,,,,,,,,,,,,,,,,,,,,,,,,,,,,,,,,710.1766,715.1571,"[7,8,6,2,4,1,3,5]","[[0.3,0.2],[-0.3,0.2]]","[[-0.125,-0.2],[0.125,-0.2]]",0.139231824,-0.17558299,1,0,0,4.4659,o2_image,715.1665,1,715.6552,715.6553,717.6598,0,0,0,0,1,,,,,,,,,,,,,,,,,,,,,,,,,,,,,,,,,,,,,,,,,,,,,,,,,,
,,5f4595ac82d8061b45c2c490,26,male,2024-04-16_11h24.15.421,stockport_simplified,2022.2.4,Win32,60.24096386,661e456ee6de07e70aa9ef7b,661e51b63ca98b45e53a8629,,,,,,,,,,,,,,,,,,,,,,,,,,,,,,,,,,,,,,,,,,,,,,,,,,,,,,,,0,39,39,44,1,B,X,N,o2_image,stimuli/out2.png,stimuli/out1.png,stimuli/correct_out2.png,,,,,,,,,,,,,,,,,,,,,,,,,,,,,,,,,,,,,,
,,5f4595ac82d8061b45c2c490,26,male,2024-04-16_11h24.15.421,stockport_simplified,2022.2.4,Win32,60.24096386,661e456ee6de07e70aa9ef7b,661e51b63ca98b45e53a8629,,,,,,,,,,,,,,,,,,,,,,,,,,,,,,,,,,717.6605,721.8302,"[7,8,6,2,4,1,3,5]","[[0.3,0.2],[-0.3,0.2]]","[[0.125,-0.2],[-0.125,-0.2]]",0.128943759,-0.167581147,1,0,0,3.658,o1_image,721.8397,0,722.3382,722.3382,724.3377,0,0,0,0,1,,,,,,,,,,,,,,,,,,,,,,,,,,,,,,,,,,,,,,,,,,,,,,,,,,
,,5f4595ac82d8061b45c2c490,26,male,2024-04-16_11h24.15.421,stockport_simplified,2022.2.4,Win32,60.24096386,661e456ee6de07e70aa9ef7b,661e51b63ca98b45e53a8629,,,,,,,,,,,,,,,,,,,,,,,,,,,,,,,,,,,,,,,,,,,,,,,,,,,,,,,,0,40,40,14,1,B,X,N,o2_image,stimuli/out2.png,stimuli/out1.png,stimuli/correct_out2.png,,,,,,,,,,,,,,,,,,,,,,,,,,,,,,,,,,,,,,
,,5f4595ac82d8061b45c2c490,26,male,2024-04-16_11h24.15.421,stockport_simplified,2022.2.4,Win32,60.24096386,661e456ee6de07e70aa9ef7b,661e51b63ca98b45e53a8629,,,,,,,,,,,,,,,,,,,,,,,,,,,,,,,,,,724.3384,729.6807,"[7,8,6,2,4,1,3,5]","[[0.3,0.2],[-0.3,0.2]]","[[-0.125,-0.2],[0.125,-0.2]]",-0.06538636,-0.150434371,1,0,0,4.8251,o1_image,729.692,1,730.1914,730.1914,732.187,0,0,0,0,1,,,,,,,,,,,,,,,,,,,,,,,,,,,,,,,,,,,,,,,,,,,,,,,,,,
,,5f4595ac82d8061b45c2c490,26,male,2024-04-16_11h24.15.421,stockport_simplified,2022.2.4,Win32,60.24096386,661e456ee6de07e70aa9ef7b,661e51b63ca98b45e53a8629,,,,,,,,,,,,,,,,,,,,,,,,,,,,,,,,,,,,,,,,,,,,,,,,,,,,,,,,0,41,41,2,1,A,X,N,o1_image,stimuli/out1.png,stimuli/correct_out1.png,stimuli/out2.png,,,,,,,,,,,,,,,,,,,,,,,,,,,,,,,,,,,,,,
,,5f4595ac82d8061b45c2c490,26,male,2024-04-16_11h24.15.421,stockport_simplified,2022.2.4,Win32,60.24096386,661e456ee6de07e70aa9ef7b,661e51b63ca98b45e53a8629,,,,,,,,,,,,,,,,,,,,,,,,,,,,,,,,,,732.1876,739.0377,"[7,8,6,2,4,1,3,5]","[[0.3,0.2],[-0.3,0.2]]","[[0.125,-0.2],[-0.125,-0.2]]",0.183813443,-0.225880145,1,0,0,6.334,o1_image,739.0488,0,739.5519,739.5519,741.5529,0,0,0,0,1,,,,,,,,,,,,,,,,,,,,,,,,,,,,,,,,,,,,,,,,,,,,,,,,,,
,,5f4595ac82d8061b45c2c490,26,male,2024-04-16_11h24.15.421,stockport_simplified,2022.2.4,Win32,60.24096386,661e456ee6de07e70aa9ef7b,661e51b63ca98b45e53a8629,,,,,,,,,,,,,,,,,,,,,,,,,,,,,,,,,,,,,,,,,,,,,,,,,,,,,,,,0,42,42,40,1,B,X,N,o2_image,stimuli/out2.png,stimuli/out1.png,stimuli/correct_out2.png,,,,,,,,,,,,,,,,,,,,,,,,,,,,,,,,,,,,,,
,,5f4595ac82d8061b45c2c490,26,male,2024-04-16_11h24.15.421,stockport_simplified,2022.2.4,Win32,60.24096386,661e456ee6de07e70aa9ef7b,661e51b63ca98b45e53a8629,,,,,,,,,,,,,,,,,,,,,,,,,,,,,,,,,,741.5533,750.4077,"[7,8,6,2,4,1,3,5]","[[0.3,0.2],[-0.3,0.2]]","[[-0.125,-0.2],[0.125,-0.2]]",0.094650206,-0.244170096,1,0,0,8.3381,o2_image,750.4209,1,750.918,750.918,752.9178,0,0,0,0,1,,,,,,,,,,,,,,,,,,,,,,,,,,,,,,,,,,,,,,,,,,,,,,,,,,
,,5f4595ac82d8061b45c2c490,26,male,2024-04-16_11h24.15.421,stockport_simplified,2022.2.4,Win32,60.24096386,661e456ee6de07e70aa9ef7b,661e51b63ca98b45e53a8629,,,,,,,,,,,,,,,,,,,,,,,,,,,,,,,,,,,,,,,,,,,,,,,,,,,,,,,,0,43,43,17,1,B,Y,N,o2_image,stimuli/out2.png,stimuli/out1.png,stimuli/correct_out2.png,,,,,,,,,,,,,,,,,,,,,,,,,,,,,,,,,,,,,,
,,5f4595ac82d8061b45c2c490,26,male,2024-04-16_11h24.15.421,stockport_simplified,2022.2.4,Win32,60.24096386,661e456ee6de07e70aa9ef7b,661e51b63ca98b45e53a8629,,,,,,,,,,,,,,,,,,,,,,,,,,,,,,,,,,752.9184,756.6848,"[7,8,6,2,4,1,3,5]","[[-0.3,0.2],[0.3,0.2]]","[[0.125,-0.2],[-0.125,-0.2]]",0.125514403,-0.189300412,1,0,0,3.2501,o1_image,756.6985,1,757.2003,757.2003,759.2005,0,0,0,0,1,,,,,,,,,,,,,,,,,,,,,,,,,,,,,,,,,,,,,,,,,,,,,,,,,,
,,5f4595ac82d8061b45c2c490,26,male,2024-04-16_11h24.15.421,stockport_simplified,2022.2.4,Win32,60.24096386,661e456ee6de07e70aa9ef7b,661e51b63ca98b45e53a8629,,,,,,,,,,,,,,,,,,,,,,,,,,,,,,,,,,,,,,,,,,,,,,,,,,,,,,,,0,44,44,24,1,N,M,C,o1_image,stimuli/out1.png,stimuli/correct_out1.png,stimuli/out2.png,,,,,,,,,,,,,,,,,,,,,,,,,,,,,,,,,,,,,,
,,5f4595ac82d8061b45c2c490,26,male,2024-04-16_11h24.15.421,stockport_simplified,2022.2.4,Win32,60.24096386,661e456ee6de07e70aa9ef7b,661e51b63ca98b45e53a8629,,,,,,,,,,,,,,,,,,,,,,,,,,,,,,,,,,759.201,763.0047,"[7,8,6,2,4,1,3,5]","[[0.3,0.2],[-0.3,0.2]]","[[0.125,-0.2],[-0.125,-0.2]]",-0.082533136,-0.216735254,1,0,0,3.2872,o2_image,763.0142,1,763.5025,763.5026,765.4992,0,0,0,0,1,,,,,,,,,,,,,,,,,,,,,,,,,,,,,,,,,,,,,,,,,,,,,,,,,,
,,5f4595ac82d8061b45c2c490,26,male,2024-04-16_11h24.15.421,stockport_simplified,2022.2.4,Win32,60.24096386,661e456ee6de07e70aa9ef7b,661e51b63ca98b45e53a8629,,,,,,,,,,,,,,,,,,,,,,,,,,,,,,,,,,,,,,,,,,,,,,,,,,,,,,,,0,45,45,27,1,N,M,D,o2_image,stimuli/out2.png,stimuli/out1.png,stimuli/correct_out2.png,,,,,,,,,,,,,,,,,,,,,,,,,,,,,,,,,,,,,,
,,5f4595ac82d8061b45c2c490,26,male,2024-04-16_11h24.15.421,stockport_simplified,2022.2.4,Win32,60.24096386,661e456ee6de07e70aa9ef7b,661e51b63ca98b45e53a8629,,,,,,,,,,,,,,,,,,,,,,,,,,,,,,,,,,765.4998,766.9827,"[7,8,6,2,4,1,3,5]","[[-0.3,0.2],[0.3,0.2]]","[[-0.125,-0.2],[0.125,-0.2]]",-0.105395533,-0.183584791,1,0,0,0.9661,o1_image,766.9836,1,767.4823,767.4824,769.5018,0,0,0,0,1,,,,,,,,,,,,,,,,,,,,,,,,,,,,,,,,,,,,,,,,,,,,,,,,,,
,,5f4595ac82d8061b45c2c490,26,male,2024-04-16_11h24.15.421,stockport_simplified,2022.2.4,Win32,60.24096386,661e456ee6de07e70aa9ef7b,661e51b63ca98b45e53a8629,,,,,,,,,,,,,,,,,,,,,,,,,,,,,,,,,,,,,,,,,,,,,,,,,,,,,,,,0,46,46,21,1,N,M,C,o1_image,stimuli/out1.png,stimuli/correct_out1.png,stimuli/out2.png,,,,,,,,,,,,,,,,,,,,,,,,,,,,,,,,,,,,,,
,,5f4595ac82d8061b45c2c490,26,male,2024-04-16_11h24.15.421,stockport_simplified,2022.2.4,Win32,60.24096386,661e456ee6de07e70aa9ef7b,661e51b63ca98b45e53a8629,,,,,,,,,,,,,,,,,,,,,,,,,,,,,,,,,,769.5023,780.9967,"[7,8,6,2,4,1,3,5]","[[0.3,0.2],[-0.3,0.2]]","[[0.125,-0.2],[-0.125,-0.2]]",,,,,,,,,,,,,,,,,,0,47,47,9,1,A,Y,N,o1_image,stimuli/out1.png,stimuli/correct_out1.png,stimuli/out2.png,,,,,,,,,,,,,,,,,,,,,,,,,,,,,,,,,,,,,,
,,5f4595ac82d8061b45c2c490,26,male,2024-04-16_11h24.15.421,stockport_simplified,2022.2.4,Win32,60.24096386,661e456ee6de07e70aa9ef7b,661e51b63ca98b45e53a8629,,,,,,,,,,,,,,,,,,,,,,,,,,,,,,,,,,781.0052,782.4913,"[7,8,6,2,4,1,3,5]","[[-0.3,0.2],[0.3,0.2]]","[[0.125,-0.2],[-0.125,-0.2]]",-0.105395533,-0.16300866,1,0,0,0.9774,o2_image,782.4928,0,782.9969,782.9969,784.9962,0,0,0,0,1,,,,,,,,,,,,,,,,,,,,,,,,,,,,,,,,,,,,,,,,,,,,,,,,,,
,,5f4595ac82d8061b45c2c490,26,male,2024-04-16_11h24.15.421,stockport_simplified,2022.2.4,Win32,60.24096386,661e456ee6de07e70aa9ef7b,661e51b63ca98b45e53a8629,,,,,,,,,,,,,,,,,,,,,,,,,,,,,,,,,,,,,,,,,,,,,,,,,,,,,,,,0,48,48,20,1,N,M,C,o1_image,stimuli/out1.png,stimuli/correct_out1.png,stimuli/out2.png,,,,,,,,,,,,,,,,,,,,,,,,,,,,,,,,,,,,,,
,,5f4595ac82d8061b45c2c490,26,male,2024-04-16_11h24.15.421,stockport_simplified,2022.2.4,Win32,60.24096386,661e456ee6de07e70aa9ef7b,661e51b63ca98b45e53a8629,,,,,,,,,,,,,,,,,,,,,,,,,,,,,,,,,,784.9968,787.3131,"[7,8,6,2,4,1,3,5]","[[0.3,0.2],[-0.3,0.2]]","[[-0.125,-0.2],[0.125,-0.2]]",-0.131687243,-0.207590278,1,0,0,1.799,o1_image,787.3196,1,787.8127,787.8128,789.8127,0,0,0,0,1,,,,,,,,,,,,,,,,,,,,,,,,,,,,,,,,,,,,,,,,,,,,,,,,,,
,,5f4595ac82d8061b45c2c490,26,male,2024-04-16_11h24.15.421,stockport_simplified,2022.2.4,Win32,60.24096386,661e456ee6de07e70aa9ef7b,661e51b63ca98b45e53a8629,,,,,,,,,,,,,,,,,,,,,,,,,,,,,,,,,,,,,,,,,,,,,,,,,,,,,,,,0,49,49,35,1,A,Y,N,o1_image,stimuli/out1.png,stimuli/correct_out1.png,stimuli/out2.png,,,,,,,,,,,,,,,,,,,,,,,,,,,,,,,,,,,,,,
,,5f4595ac82d8061b45c2c490,26,male,2024-04-16_11h24.15.421,stockport_simplified,2022.2.4,Win32,60.24096386,661e456ee6de07e70aa9ef7b,661e51b63ca98b45e53a8629,,,,,,,,,,,,,,,,,,,,,,,,,,,,,,,,,,789.8132,791.0623,"[7,8,6,2,4,1,3,5]","[[-0.3,0.2],[0.3,0.2]]","[[0.125,-0.2],[-0.125,-0.2]]",0.127800626,-0.217878344,1,0,0,0.7331,o1_image,791.063,1,791.5626,791.5626,793.5623,0,0,0,0,1,,,,,,,,,,,,,,,,,,,,,,,,,,,,,,,,,,,,,,,,,,,,,,,,,,
,,5f4595ac82d8061b45c2c490,26,male,2024-04-16_11h24.15.421,stockport_simplified,2022.2.4,Win32,60.24096386,661e456ee6de07e70aa9ef7b,661e51b63ca98b45e53a8629,,,,,,,,,,,,,,,,,,,,,,,,,,,,,,,,,,,,,,,,,,,,,,,,,,,,,,,,0,50,50,22,1,N,M,C,o1_image,stimuli/out1.png,stimuli/correct_out1.png,stimuli/out2.png,,,,,,,,,,,,,,,,,,,,,,,,,,,,,,,,,,,,,,
,,5f4595ac82d8061b45c2c490,26,male,2024-04-16_11h24.15.421,stockport_simplified,2022.2.4,Win32,60.24096386,661e456ee6de07e70aa9ef7b,661e51b63ca98b45e53a8629,,,,,,,,,,,,,,,,,,,,,,,,,,,,,,,,,,793.5628,795.0321,"[7,8,6,2,4,1,3,5]","[[0.3,0.2],[-0.3,0.2]]","[[0.125,-0.2],[-0.125,-0.2]]",-0.140832218,-0.2018747,1,0,0,0.9525,o2_image,795.0328,1,795.5287,795.5287,797.5282,0,0,0,0,1,,,,,,,,,,,,,,,,,,,,,,,,,,,,,,,,,,,,,,,,,,,,,,,,,,
,,5f4595ac82d8061b45c2c490,26,male,2024-04-16_11h24.15.421,stockport_simplified,2022.2.4,Win32,60.24096386,661e456ee6de07e70aa9ef7b,661e51b63ca98b45e53a8629,,,,,,,,,,,,,,,,,,,,,,,,,,,,,,,,,,,,,,,,,,,,,,,,,,,,,,,,0,51,51,45,1,B,Y,N,o2_image,stimuli/out2.png,stimuli/out1.png,stimuli/correct_out2.png,,,,,,,,,,,,,,,,,,,,,,,,,,,,,,,,,,,,,,
,,5f4595ac82d8061b45c2c490,26,male,2024-04-16_11h24.15.421,stockport_simplified,2022.2.4,Win32,60.24096386,661e456ee6de07e70aa9ef7b,661e51b63ca98b45e53a8629,,,,,,,,,,,,,,,,,,,,,,,,,,,,,,,,,,797.5287,800.315,"[7,8,6,2,4,1,3,5]","[[-0.3,0.2],[0.3,0.2]]","[[0.125,-0.2],[-0.125,-0.2]]",-0.108824888,-0.217878344,1,0,0,2.2698,o2_image,800.3158,1,800.8114,800.8115,802.8137,0,0,0,0,1,,,,,,,,,,,,,,,,,,,,,,,,,,,,,,,,,,,,,,,,,,,,,,,,,,
,,5f4595ac82d8061b45c2c490,26,male,2024-04-16_11h24.15.421,stockport_simplified,2022.2.4,Win32,60.24096386,661e456ee6de07e70aa9ef7b,661e51b63ca98b45e53a8629,,,,,,,,,,,,,,,,,,,,,,,,,,,,,,,,,,,,,,,,,,,,,,,,,,,,,,,,0,52,52,16,1,B,Y,N,o2_image,stimuli/out2.png,stimuli/out1.png,stimuli/correct_out2.png,,,,,,,,,,,,,,,,,,,,,,,,,,,,,,,,,,,,,,
,,5f4595ac82d8061b45c2c490,26,male,2024-04-16_11h24.15.421,stockport_simplified,2022.2.4,Win32,60.24096386,661e456ee6de07e70aa9ef7b,661e51b63ca98b45e53a8629,,,,,,,,,,,,,,,,,,,,,,,,,,,,,,,,,,802.8143,804.6136,"[7,8,6,2,4,1,3,5]","[[0.3,0.2],[-0.3,0.2]]","[[0.125,-0.2],[-0.125,-0.2]]",0.116369428,-0.219021435,1,0,0,1.2853,o1_image,804.6141,1,805.1108,805.1108,807.1135,0,0,0,0,1,,,,,,,,,,,,,,,,,,,,,,,,,,,,,,,,,,,,,,,,,,,,,,,,,,
,,5f4595ac82d8061b45c2c490,26,male,2024-04-16_11h24.15.421,stockport_simplified,2022.2.4,Win32,60.24096386,661e456ee6de07e70aa9ef7b,661e51b63ca98b45e53a8629,,,,,,,,,,,,,,,,,,,,,,,,,,,,,,,,,,,,,,,,,,,,,,,,,,,,,,,,0,53,53,53,1,N,M,C,o1_image,stimuli/out1.png,stimuli/correct_out1.png,stimuli/out2.png,,,,,,,,,,,,,,,,,,,,,,,,,,,,,,,,,,,,,,
,,5f4595ac82d8061b45c2c490,26,male,2024-04-16_11h24.15.421,stockport_simplified,2022.2.4,Win32,60.24096386,661e456ee6de07e70aa9ef7b,661e51b63ca98b45e53a8629,,,,,,,,,,,,,,,,,,,,,,,,,,,,,,,,,,807.1141,809.1103,"[7,8,6,2,4,1,3,5]","[[-0.3,0.2],[0.3,0.2]]","[[-0.125,-0.2],[0.125,-0.2]]",-0.12940102,-0.236168295,1,0,0,1.4826,o1_image,809.1112,1,809.6102,809.6102,811.6102,0,0,0,0,1,,,,,,,,,,,,,,,,,,,,,,,,,,,,,,,,,,,,,,,,,,,,,,,,,,
,,5f4595ac82d8061b45c2c490,26,male,2024-04-16_11h24.15.421,stockport_simplified,2022.2.4,Win32,60.24096386,661e456ee6de07e70aa9ef7b,661e51b63ca98b45e53a8629,,,,,,,,,,,,,,,,,,,,,,,,,,,,,,,,,,,,,,,,,,,,,,,,,,,,,,,,0,54,54,0,1,A,X,N,o1_image,stimuli/out1.png,stimuli/correct_out1.png,stimuli/out2.png,,,,,,,,,,,,,,,,,,,,,,,,,,,,,,,,,,,,,,
,,5f4595ac82d8061b45c2c490,26,male,2024-04-16_11h24.15.421,stockport_simplified,2022.2.4,Win32,60.24096386,661e456ee6de07e70aa9ef7b,661e51b63ca98b45e53a8629,,,,,,,,,,,,,,,,,,,,,,,,,,,,,,,,,,811.6106,814.9763,"[7,8,6,2,4,1,3,5]","[[-0.3,0.2],[0.3,0.2]]","[[0.125,-0.2],[-0.125,-0.2]]",-0.137402863,-0.22816641,1,0,0,2.8493,o2_image,814.9769,1,815.4759,815.476,817.4758,0,0,0,0,1,,,,,,,,,,,,,,,,,,,,,,,,,,,,,,,,,,,,,,,,,,,,,,,,,,
,,5f4595ac82d8061b45c2c490,26,male,2024-04-16_11h24.15.421,stockport_simplified,2022.2.4,Win32,60.24096386,661e456ee6de07e70aa9ef7b,661e51b63ca98b45e53a8629,,,,,,,,,,,,,,,,,,,,,,,,,,,,,,,,,,,,,,,,,,,,,,,,,,,,,,,,0,55,55,26,1,N,M,D,o2_image,stimuli/out2.png,stimuli/out1.png,stimuli/correct_out2.png,,,,,,,,,,,,,,,,,,,,,,,,,,,,,,,,,,,,,,
,,5f4595ac82d8061b45c2c490,26,male,2024-04-16_11h24.15.421,stockport_simplified,2022.2.4,Win32,60.24096386,661e456ee6de07e70aa9ef7b,661e51b63ca98b45e53a8629,,,,,,,,,,,,,,,,,,,,,,,,,,,,,,,,,,817.4763,818.8254,"[7,8,6,2,4,1,3,5]","[[-0.3,0.2],[0.3,0.2]]","[[0.125,-0.2],[-0.125,-0.2]]",-0.117969822,-0.240740741,1,0,0,0.8327,o2_image,818.8264,1,819.3255,819.3255,821.3246,0,0,0,0,1,,,,,,,,,,,,,,,,,,,,,,,,,,,,,,,,,,,,,,,,,,,,,,,,,,
,,5f4595ac82d8061b45c2c490,26,male,2024-04-16_11h24.15.421,stockport_simplified,2022.2.4,Win32,60.24096386,661e456ee6de07e70aa9ef7b,661e51b63ca98b45e53a8629,,,,,,,,,,,,,,,,,,,,,,,,,,,,,,,,,,,,,,,,,,,,,,,,,,,,,,,,0,56,56,56,1,N,M,D,o2_image,stimuli/out2.png,stimuli/out1.png,stimuli/correct_out2.png,,,,,,,,,,,,,,,,,,,,,,,,,,,,,,,,,,,,,,
,,5f4595ac82d8061b45c2c490,26,male,2024-04-16_11h24.15.421,stockport_simplified,2022.2.4,Win32,60.24096386,661e456ee6de07e70aa9ef7b,661e51b63ca98b45e53a8629,,,,,,,,,,,,,,,,,,,,,,,,,,,,,,,,,,821.3252,822.9746,"[7,8,6,2,4,1,3,5]","[[0.3,0.2],[-0.3,0.2]]","[[-0.125,-0.2],[0.125,-0.2]]",0.165523492,-0.173296726,1,0,0,1.1333,o2_image,822.975,0,823.475,823.475,825.4772,0,0,0,0,1,,,,,,,,,,,,,,,,,,,,,,,,,,,,,,,,,,,,,,,,,,,,,,,,,,
,,5f4595ac82d8061b45c2c490,26,male,2024-04-16_11h24.15.421,stockport_simplified,2022.2.4,Win32,60.24096386,661e456ee6de07e70aa9ef7b,661e51b63ca98b45e53a8629,,,,,,,,,,,,,,,,,,,,,,,,,,,,,,,,,,,,,,,,,,,,,,,,,,,,,,,,0,57,57,3,1,A,X,N,o1_image,stimuli/out1.png,stimuli/correct_out1.png,stimuli/out2.png,,,,,,,,,,,,,,,,,,,,,,,,,,,,,,,,,,,,,,
,,5f4595ac82d8061b45c2c490,26,male,2024-04-16_11h24.15.421,stockport_simplified,2022.2.4,Win32,60.24096386,661e456ee6de07e70aa9ef7b,661e51b63ca98b45e53a8629,,,,,,,,,,,,,,,,,,,,,,,,,,,,,,,,,,825.4777,827.0245,"[7,8,6,2,4,1,3,5]","[[0.3,0.2],[-0.3,0.2]]","[[0.125,-0.2],[-0.125,-0.2]]",-0.104252359,-0.21559208,1,0,0,1.033,o2_image,827.0249,1,827.5273,827.5273,829.5238,0,0,0,0,1,,,,,,,,,,,,,,,,,,,,,,,,,,,,,,,,,,,,,,,,,,,,,,,,,,
,,5f4595ac82d8061b45c2c490,26,male,2024-04-16_11h24.15.421,stockport_simplified,2022.2.4,Win32,60.24096386,661e456ee6de07e70aa9ef7b,661e51b63ca98b45e53a8629,,,,,,,,,,,,,,,,,,,,,,,,,,,,,,,,,,,,,,,,,,,,,,,,,,,,,,,,0,58,58,57,1,N,M,D,o2_image,stimuli/out2.png,stimuli/out1.png,stimuli/correct_out2.png,,,,,,,,,,,,,,,,,,,,,,,,,,,,,,,,,,,,,,
,,5f4595ac82d8061b45c2c490,26,male,2024-04-16_11h24.15.421,stockport_simplified,2022.2.4,Win32,60.24096386,661e456ee6de07e70aa9ef7b,661e51b63ca98b45e53a8629,,,,,,,,,,,,,,,,,,,,,,,,,,,,,,,,,,829.5242,831.3235,"[7,8,6,2,4,1,3,5]","[[-0.3,0.2],[0.3,0.2]]","[[0.125,-0.2],[-0.125,-0.2]]",0.133516204,-0.204160923,1,0,0,1.2825,o1_image,831.3239,0,831.8239,831.8239,833.8238,0,0,0,0,1,,,,,,,,,,,,,,,,,,,,,,,,,,,,,,,,,,,,,,,,,,,,,,,,,,
,,5f4595ac82d8061b45c2c490,26,male,2024-04-16_11h24.15.421,stockport_simplified,2022.2.4,Win32,60.24096386,661e456ee6de07e70aa9ef7b,661e51b63ca98b45e53a8629,,,,,,,,,,,,,,,,,,,,,,,,,,,,,,,,,,,,,,,,,,,,,,,,,,,,,,,,0,59,59,13,1,B,X,N,o2_image,stimuli/out2.png,stimuli/out1.png,stimuli/correct_out2.png,,,,,,,,,,,,,,,,,,,,,,,,,,,,,,,,,,,,,,
,,5f4595ac82d8061b45c2c490,26,male,2024-04-16_11h24.15.421,stockport_simplified,2022.2.4,Win32,60.24096386,661e456ee6de07e70aa9ef7b,661e51b63ca98b45e53a8629,,,,,,,,,,,,,,,,,,,,,,,,,,,,,,,,,,833.8243,835.8588,"[7,8,6,2,4,1,3,5]","[[0.3,0.2],[-0.3,0.2]]","[[-0.125,-0.2],[0.125,-0.2]]",0.094650206,-0.207590278,1,0,0,1.5179,o2_image,835.8596,1,836.3566,836.3566,838.3566,0,0,0,0,1,,,,,,,,,,,,,,,,,,,,,,,,,,,,,,,,,,,,,,,,,,,,,,,,,,
,,5f4595ac82d8061b45c2c490,26,male,2024-04-16_11h24.15.421,stockport_simplified,2022.2.4,Win32,60.24096386,661e456ee6de07e70aa9ef7b,661e51b63ca98b45e53a8629,,,,,,,,,,,,,,,,,,,,,,,,,,,,,,,,,,,,,,,,,,,,,,,,,,,,,,,,1,0,60,25,1,N,M,D,o2_image,stimuli/out2.png,stimuli/out1.png,stimuli/correct_out2.png,,,,,,,,,,,,,,,,,,,,,,,,,,,,,,,,,,,,,,
,,5f4595ac82d8061b45c2c490,26,male,2024-04-16_11h24.15.421,stockport_simplified,2022.2.4,Win32,60.24096386,661e456ee6de07e70aa9ef7b,661e51b63ca98b45e53a8629,,,,,,,,,,,,,,,,,,,,,,,,,,,,,,,,,,838.357,840.5224,"[7,8,6,2,4,1,3,5]","[[0.3,0.2],[-0.3,0.2]]","[[0.125,-0.2],[-0.125,-0.2]]",-0.098536822,-0.180155436,1,0,0,1.6485,o2_image,840.5232,0,841.0231,841.0232,843.025,0,0,0,0,1,,,,,,,,,,,,,,,,,,,,,,,,,,,,,,,,,,,,,,,,,,,,,,,,,,
,,5f4595ac82d8061b45c2c490,26,male,2024-04-16_11h24.15.421,stockport_simplified,2022.2.4,Win32,60.24096386,661e456ee6de07e70aa9ef7b,661e51b63ca98b45e53a8629,,,,,,,,,,,,,,,,,,,,,,,,,,,,,,,,,,,,,,,,,,,,,,,,,,,,,,,,1,1,61,8,1,A,Y,N,o1_image,stimuli/out1.png,stimuli/correct_out1.png,stimuli/out2.png,,,,,,,,,,,,,,,,,,,,,,,,,,,,,,,,,,,,,,
,,5f4595ac82d8061b45c2c490,26,male,2024-04-16_11h24.15.421,stockport_simplified,2022.2.4,Win32,60.24096386,661e456ee6de07e70aa9ef7b,661e51b63ca98b45e53a8629,,,,,,,,,,,,,,,,,,,,,,,,,,,,,,,,,,843.0255,848.2551,"[7,8,6,2,4,1,3,5]","[[0.3,0.2],[-0.3,0.2]]","[[0.125,-0.2],[-0.125,-0.2]]",0.102652007,-0.2018747,1,0,0,4.7158,o1_image,848.2665,0,848.7581,848.7581,850.7549,0,0,0,0,1,,,,,,,,,,,,,,,,,,,,,,,,,,,,,,,,,,,,,,,,,,,,,,,,,,
,,5f4595ac82d8061b45c2c490,26,male,2024-04-16_11h24.15.421,stockport_simplified,2022.2.4,Win32,60.24096386,661e456ee6de07e70aa9ef7b,661e51b63ca98b45e53a8629,,,,,,,,,,,,,,,,,,,,,,,,,,,,,,,,,,,,,,,,,,,,,,,,,,,,,,,,1,2,62,15,1,B,Y,N,o2_image,stimuli/out2.png,stimuli/out1.png,stimuli/correct_out2.png,,,,,,,,,,,,,,,,,,,,,,,,,,,,,,,,,,,,,,
,,5f4595ac82d8061b45c2c490,26,male,2024-04-16_11h24.15.421,stockport_simplified,2022.2.4,Win32,60.24096386,661e456ee6de07e70aa9ef7b,661e51b63ca98b45e53a8629,,,,,,,,,,,,,,,,,,,,,,,,,,,,,,,,,,850.7553,855.2584,"[7,8,6,2,4,1,3,5]","[[-0.3,0.2],[0.3,0.2]]","[[0.125,-0.2],[-0.125,-0.2]]",-0.131687243,-0.223593964,1,0,0,3.9867,o2_image,855.2709,1,855.7702,855.7703,857.7695,0,0,0,0,1,,,,,,,,,,,,,,,,,,,,,,,,,,,,,,,,,,,,,,,,,,,,,,,,,,
,,5f4595ac82d8061b45c2c490,26,male,2024-04-16_11h24.15.421,stockport_simplified,2022.2.4,Win32,60.24096386,661e456ee6de07e70aa9ef7b,661e51b63ca98b45e53a8629,,,,,,,,,,,,,,,,,,,,,,,,,,,,,,,,,,,,,,,,,,,,,,,,,,,,,,,,1,3,63,58,1,N,M,D,o2_image,stimuli/out2.png,stimuli/out1.png,stimuli/correct_out2.png,,,,,,,,,,,,,,,,,,,,,,,,,,,,,,,,,,,,,,
,,5f4595ac82d8061b45c2c490,26,male,2024-04-16_11h24.15.421,stockport_simplified,2022.2.4,Win32,60.24096386,661e456ee6de07e70aa9ef7b,661e51b63ca98b45e53a8629,,,,,,,,,,,,,,,,,,,,,,,,,,,,,,,,,,857.7699,861.3372,"[7,8,6,2,4,1,3,5]","[[0.3,0.2],[-0.3,0.2]]","[[-0.125,-0.2],[0.125,-0.2]]",0.080932785,-0.21559208,1,0,0,3.0506,o2_image,861.3531,1,861.8533,861.8534,863.8522,0,0,0,0,1,,,,,,,,,,,,,,,,,,,,,,,,,,,,,,,,,,,,,,,,,,,,,,,,,,
,,5f4595ac82d8061b45c2c490,26,male,2024-04-16_11h24.15.421,stockport_simplified,2022.2.4,Win32,60.24096386,661e456ee6de07e70aa9ef7b,661e51b63ca98b45e53a8629,,,,,,,,,,,,,,,,,,,,,,,,,,,,,,,,,,,,,,,,,,,,,,,,,,,,,,,,1,4,64,59,1,N,M,D,o2_image,stimuli/out2.png,stimuli/out1.png,stimuli/correct_out2.png,,,,,,,,,,,,,,,,,,,,,,,,,,,,,,,,,,,,,,
,,5f4595ac82d8061b45c2c490,26,male,2024-04-16_11h24.15.421,stockport_simplified,2022.2.4,Win32,60.24096386,661e456ee6de07e70aa9ef7b,661e51b63ca98b45e53a8629,,,,,,,,,,,,,,,,,,,,,,,,,,,,,,,,,,863.8529,867.188,"[7,8,6,2,4,1,3,5]","[[0.3,0.2],[-0.3,0.2]]","[[-0.125,-0.2],[0.125,-0.2]]",0.115226337,-0.231595765,1,0,0,2.8182,o2_image,867.1887,0,867.6849,867.6849,869.6881,0,0,0,0,1,,,,,,,,,,,,,,,,,,,,,,,,,,,,,,,,,,,,,,,,,,,,,,,,,,
,,5f4595ac82d8061b45c2c490,26,male,2024-04-16_11h24.15.421,stockport_simplified,2022.2.4,Win32,60.24096386,661e456ee6de07e70aa9ef7b,661e51b63ca98b45e53a8629,,,,,,,,,,,,,,,,,,,,,,,,,,,,,,,,,,,,,,,,,,,,,,,,,,,,,,,,1,5,65,35,1,A,Y,N,o1_image,stimuli/out1.png,stimuli/correct_out1.png,stimuli/out2.png,,,,,,,,,,,,,,,,,,,,,,,,,,,,,,,,,,,,,,
,,5f4595ac82d8061b45c2c490,26,male,2024-04-16_11h24.15.421,stockport_simplified,2022.2.4,Win32,60.24096386,661e456ee6de07e70aa9ef7b,661e51b63ca98b45e53a8629,,,,,,,,,,,,,,,,,,,,,,,,,,,,,,,,,,869.6885,873.8069,"[7,8,6,2,4,1,3,5]","[[-0.3,0.2],[0.3,0.2]]","[[-0.125,-0.2],[0.125,-0.2]]",0.123228139,-0.174439858,1,0,0,3.6044,o2_image,873.8174,1,874.3183,874.3183,876.3173,0,0,0,0,1,,,,,,,,,,,,,,,,,,,,,,,,,,,,,,,,,,,,,,,,,,,,,,,,,,
,,5f4595ac82d8061b45c2c490,26,male,2024-04-16_11h24.15.421,stockport_simplified,2022.2.4,Win32,60.24096386,661e456ee6de07e70aa9ef7b,661e51b63ca98b45e53a8629,,,,,,,,,,,,,,,,,,,,,,,,,,,,,,,,,,,,,,,,,,,,,,,,,,,,,,,,1,6,66,17,1,B,Y,N,o2_image,stimuli/out2.png,stimuli/out1.png,stimuli/correct_out2.png,,,,,,,,,,,,,,,,,,,,,,,,,,,,,,,,,,,,,,
,,5f4595ac82d8061b45c2c490,26,male,2024-04-16_11h24.15.421,stockport_simplified,2022.2.4,Win32,60.24096386,661e456ee6de07e70aa9ef7b,661e51b63ca98b45e53a8629,,,,,,,,,,,,,,,,,,,,,,,,,,,,,,,,,,876.3176,883.1218,"[7,8,6,2,4,1,3,5]","[[0.3,0.2],[-0.3,0.2]]","[[-0.125,-0.2],[0.125,-0.2]]",0.068358454,-0.159579305,1,0,0,6.3032,o2_image,883.1334,0,883.6335,883.6335,885.6337,0,0,0,0,1,,,,,,,,,,,,,,,,,,,,,,,,,,,,,,,,,,,,,,,,,,,,,,,,,,
,,5f4595ac82d8061b45c2c490,26,male,2024-04-16_11h24.15.421,stockport_simplified,2022.2.4,Win32,60.24096386,661e456ee6de07e70aa9ef7b,661e51b63ca98b45e53a8629,,,,,,,,,,,,,,,,,,,,,,,,,,,,,,,,,,,,,,,,,,,,,,,,,,,,,,,,1,7,67,38,1,A,Y,N,o1_image,stimuli/out1.png,stimuli/correct_out1.png,stimuli/out2.png,,,,,,,,,,,,,,,,,,,,,,,,,,,,,,,,,,,,,,
,,5f4595ac82d8061b45c2c490,26,male,2024-04-16_11h24.15.421,stockport_simplified,2022.2.4,Win32,60.24096386,661e456ee6de07e70aa9ef7b,661e51b63ca98b45e53a8629,,,,,,,,,,,,,,,,,,,,,,,,,,,,,,,,,,885.6341,893.3994,"[7,8,6,2,4,1,3,5]","[[0.3,0.2],[-0.3,0.2]]","[[-0.125,-0.2],[0.125,-0.2]]",-0.127114797,-0.198445345,1,0,0,7.2627,o1_image,893.4093,1,893.8983,893.8983,895.8986,0,0,0,0,1,,,,,,,,,,,,,,,,,,,,,,,,,,,,,,,,,,,,,,,,,,,,,,,,,,
,,5f4595ac82d8061b45c2c490,26,male,2024-04-16_11h24.15.421,stockport_simplified,2022.2.4,Win32,60.24096386,661e456ee6de07e70aa9ef7b,661e51b63ca98b45e53a8629,,,,,,,,,,,,,,,,,,,,,,,,,,,,,,,,,,,,,,,,,,,,,,,,,,,,,,,,1,8,68,50,1,N,M,C,o1_image,stimuli/out1.png,stimuli/correct_out1.png,stimuli/out2.png,,,,,,,,,,,,,,,,,,,,,,,,,,,,,,,,,,,,,,
,,5f4595ac82d8061b45c2c490,26,male,2024-04-16_11h24.15.421,stockport_simplified,2022.2.4,Win32,60.24096386,661e456ee6de07e70aa9ef7b,661e51b63ca98b45e53a8629,,,,,,,,,,,,,,,,,,,,,,,,,,,,,,,,,,895.8992,903.9995,"[7,8,6,2,4,1,3,5]","[[0.3,0.2],[-0.3,0.2]]","[[0.125,-0.2],[-0.125,-0.2]]",-0.164837705,-0.231595765,1,0,0,7.5837,o2_image,904.011,0,904.5134,904.5134,906.5132,0,0,0,0,1,,,,,,,,,,,,,,,,,,,,,,,,,,,,,,,,,,,,,,,,,,,,,,,,,,
,,5f4595ac82d8061b45c2c490,26,male,2024-04-16_11h24.15.421,stockport_simplified,2022.2.4,Win32,60.24096386,661e456ee6de07e70aa9ef7b,661e51b63ca98b45e53a8629,,,,,,,,,,,,,,,,,,,,,,,,,,,,,,,,,,,,,,,,,,,,,,,,,,,,,,,,1,9,69,1,1,A,X,N,o1_image,stimuli/out1.png,stimuli/correct_out1.png,stimuli/out2.png,,,,,,,,,,,,,,,,,,,,,,,,,,,,,,,,,,,,,,
,,5f4595ac82d8061b45c2c490,26,male,2024-04-16_11h24.15.421,stockport_simplified,2022.2.4,Win32,60.24096386,661e456ee6de07e70aa9ef7b,661e51b63ca98b45e53a8629,,,,,,,,,,,,,,,,,,,,,,,,,,,,,,,,,,906.5138,916.413,"[7,8,6,2,4,1,3,5]","[[0.3,0.2],[-0.3,0.2]]","[[0.125,-0.2],[-0.125,-0.2]]",-0.145404664,-0.19501599,1,0,0,9.3984,o2_image,916.4261,1,916.9283,916.9283,918.9286,0,0,0,0,1,,,,,,,,,,,,,,,,,,,,,,,,,,,,,,,,,,,,,,,,,,,,,,,,,,
,,5f4595ac82d8061b45c2c490,26,male,2024-04-16_11h24.15.421,stockport_simplified,2022.2.4,Win32,60.24096386,661e456ee6de07e70aa9ef7b,661e51b63ca98b45e53a8629,,,,,,,,,,,,,,,,,,,,,,,,,,,,,,,,,,,,,,,,,,,,,,,,,,,,,,,,1,10,70,26,1,N,M,D,o2_image,stimuli/out2.png,stimuli/out1.png,stimuli/correct_out2.png,,,,,,,,,,,,,,,,,,,,,,,,,,,,,,,,,,,,,,
,,5f4595ac82d8061b45c2c490,26,male,2024-04-16_11h24.15.421,stockport_simplified,2022.2.4,Win32,60.24096386,661e456ee6de07e70aa9ef7b,661e51b63ca98b45e53a8629,,,,,,,,,,,,,,,,,,,,,,,,,,,,,,,,,,918.9292,924.0845,"[7,8,6,2,4,1,3,5]","[[0.3,0.2],[-0.3,0.2]]","[[0.125,-0.2],[-0.125,-0.2]]",0.125514403,-0.19501599,1,0,0,4.6385,o1_image,924.0961,0,924.5942,924.5942,926.5945,0,0,0,0,1,,,,,,,,,,,,,,,,,,,,,,,,,,,,,,,,,,,,,,,,,,,,,,,,,,
,,5f4595ac82d8061b45c2c490,26,male,2024-04-16_11h24.15.421,stockport_simplified,2022.2.4,Win32,60.24096386,661e456ee6de07e70aa9ef7b,661e51b63ca98b45e53a8629,,,,,,,,,,,,,,,,,,,,,,,,,,,,,,,,,,,,,,,,,,,,,,,,,,,,,,,,1,11,71,18,1,B,Y,N,o2_image,stimuli/out2.png,stimuli/out1.png,stimuli/correct_out2.png,,,,,,,,,,,,,,,,,,,,,,,,,,,,,,,,,,,,,,
,,5f4595ac82d8061b45c2c490,26,male,2024-04-16_11h24.15.421,stockport_simplified,2022.2.4,Win32,60.24096386,661e456ee6de07e70aa9ef7b,661e51b63ca98b45e53a8629,,,,,,,,,,,,,,,,,,,,,,,,,,,,,,,,,,926.595,932.3142,"[7,8,6,2,4,1,3,5]","[[0.3,0.2],[-0.3,0.2]]","[[-0.125,-0.2],[0.125,-0.2]]",0.053497942,-0.209876543,1,0,0,5.2027,o2_image,932.326,0,932.8137,932.8137,934.8094,0,0,0,0,1,,,,,,,,,,,,,,,,,,,,,,,,,,,,,,,,,,,,,,,,,,,,,,,,,,
,,5f4595ac82d8061b45c2c490,26,male,2024-04-16_11h24.15.421,stockport_simplified,2022.2.4,Win32,60.24096386,661e456ee6de07e70aa9ef7b,661e51b63ca98b45e53a8629,,,,,,,,,,,,,,,,,,,,,,,,,,,,,,,,,,,,,,,,,,,,,,,,,,,,,,,,1,12,72,22,1,N,M,C,o1_image,stimuli/out1.png,stimuli/correct_out1.png,stimuli/out2.png,,,,,,,,,,,,,,,,,,,,,,,,,,,,,,,,,,,,,,
,,5f4595ac82d8061b45c2c490,26,male,2024-04-16_11h24.15.421,stockport_simplified,2022.2.4,Win32,60.24096386,661e456ee6de07e70aa9ef7b,661e51b63ca98b45e53a8629,,,,,,,,,,,,,,,,,,,,,,,,,,,,,,,,,,934.8098,938.5838,"[7,8,6,2,4,1,3,5]","[[0.3,0.2],[-0.3,0.2]]","[[0.125,-0.2],[-0.125,-0.2]]",-0.146547796,-0.217878344,1,0,0,3.2568,o2_image,938.5962,1,939.0956,939.0956,941.0922,0,0,0,0,1,,,,,,,,,,,,,,,,,,,,,,,,,,,,,,,,,,,,,,,,,,,,,,,,,,
,,5f4595ac82d8061b45c2c490,26,male,2024-04-16_11h24.15.421,stockport_simplified,2022.2.4,Win32,60.24096386,661e456ee6de07e70aa9ef7b,661e51b63ca98b45e53a8629,,,,,,,,,,,,,,,,,,,,,,,,,,,,,,,,,,,,,,,,,,,,,,,,,,,,,,,,1,13,73,16,1,B,Y,N,o2_image,stimuli/out2.png,stimuli/out1.png,stimuli/correct_out2.png,,,,,,,,,,,,,,,,,,,,,,,,,,,,,,,,,,,,,,
,,5f4595ac82d8061b45c2c490,26,male,2024-04-16_11h24.15.421,stockport_simplified,2022.2.4,Win32,60.24096386,661e456ee6de07e70aa9ef7b,661e51b63ca98b45e53a8629,,,,,,,,,,,,,,,,,,,,,,,,,,,,,,,,,,941.0928,946.6424,"[7,8,6,2,4,1,3,5]","[[0.3,0.2],[-0.3,0.2]]","[[0.125,-0.2],[-0.125,-0.2]]",-0.05967074,-0.190443502,1,0,0,5.0308,o2_image,946.6517,0,947.1447,947.1447,949.1445,0,0,0,0,1,,,,,,,,,,,,,,,,,,,,,,,,,,,,,,,,,,,,,,,,,,,,,,,,,,
,,5f4595ac82d8061b45c2c490,26,male,2024-04-16_11h24.15.421,stockport_simplified,2022.2.4,Win32,60.24096386,661e456ee6de07e70aa9ef7b,661e51b63ca98b45e53a8629,,,,,,,,,,,,,,,,,,,,,,,,,,,,,,,,,,,,,,,,,,,,,,,,,,,,,,,,1,14,74,39,1,A,Y,N,o1_image,stimuli/out1.png,stimuli/correct_out1.png,stimuli/out2.png,,,,,,,,,,,,,,,,,,,,,,,,,,,,,,,,,,,,,,
,,5f4595ac82d8061b45c2c490,26,male,2024-04-16_11h24.15.421,stockport_simplified,2022.2.4,Win32,60.24096386,661e456ee6de07e70aa9ef7b,661e51b63ca98b45e53a8629,,,,,,,,,,,,,,,,,,,,,,,,,,,,,,,,,,949.1451,955.6747,"[7,8,6,2,4,1,3,5]","[[-0.3,0.2],[0.3,0.2]]","[[0.125,-0.2],[-0.125,-0.2]]",-0.075674426,-0.22816641,1,0,0,6.0161,o2_image,955.6871,1,956.1898,956.19,958.1901,0,0,0,0,1,,,,,,,,,,,,,,,,,,,,,,,,,,,,,,,,,,,,,,,,,,,,,,,,,,
,,5f4595ac82d8061b45c2c490,26,male,2024-04-16_11h24.15.421,stockport_simplified,2022.2.4,Win32,60.24096386,661e456ee6de07e70aa9ef7b,661e51b63ca98b45e53a8629,,,,,,,,,,,,,,,,,,,,,,,,,,,,,,,,,,,,,,,,,,,,,,,,,,,,,,,,1,15,75,29,1,N,M,D,o2_image,stimuli/out2.png,stimuli/out1.png,stimuli/correct_out2.png,,,,,,,,,,,,,,,,,,,,,,,,,,,,,,,,,,,,,,
,,5f4595ac82d8061b45c2c490,26,male,2024-04-16_11h24.15.421,stockport_simplified,2022.2.4,Win32,60.24096386,661e456ee6de07e70aa9ef7b,661e51b63ca98b45e53a8629,,,,,,,,,,,,,,,,,,,,,,,,,,,,,,,,,,958.1908,963.7813,"[7,8,6,2,4,1,3,5]","[[0.3,0.2],[-0.3,0.2]]","[[0.125,-0.2],[-0.125,-0.2]]",-0.084819401,-0.185871056,1,0,0,5.0745,o2_image,963.7934,1,964.2895,964.2895,967.6192,0,0,0,0,1,,,,,,,,,,,,,,,,,,,,,,,,,,,,,,,,,,,,,,,,,,,,,,,,,,
,,5f4595ac82d8061b45c2c490,26,male,2024-04-16_11h24.15.421,stockport_simplified,2022.2.4,Win32,60.24096386,661e456ee6de07e70aa9ef7b,661e51b63ca98b45e53a8629,,,,,,,,,,,,,,,,,,,,,,,,,,,,,,,,,,,,,,,,,,,,,,,,,,,,,,,,1,16,76,56,1,N,M,D,o2_image,stimuli/out2.png,stimuli/out1.png,stimuli/correct_out2.png,,,,,,,,,,,,,,,,,,,,,,,,,,,,,,,,,,,,,,
,,5f4595ac82d8061b45c2c490,26,male,2024-04-16_11h24.15.421,stockport_simplified,2022.2.4,Win32,60.24096386,661e456ee6de07e70aa9ef7b,661e51b63ca98b45e53a8629,,,,,,,,,,,,,,,,,,,,,,,,,,,,,,,,,,967.6309,968.693,"[7,8,6,2,4,1,3,5]","[[-0.3,0.2],[0.3,0.2]]","[[-0.125,-0.2],[0.125,-0.2]]",0.147233625,-0.193872857,1,0,0,0.5483,o2_image,968.6939,1,971.7649,971.765,971.8044,0,0,0,0,1,,,,,,,,,,,,,,,,,,,,,,,,,,,,,,,,,,,,,,,,,,,,,,,,,,
,,5f4595ac82d8061b45c2c490,26,male,2024-04-16_11h24.15.421,stockport_simplified,2022.2.4,Win32,60.24096386,661e456ee6de07e70aa9ef7b,661e51b63ca98b45e53a8629,,,,,,,,,,,,,,,,,,,,,,,,,,,,,,,,,,,,,,,,,,,,,,,,,,,,,,,,1,17,77,10,1,B,X,N,o2_image,stimuli/out2.png,stimuli/out1.png,stimuli/correct_out2.png,,,,,,,,,,,,,,,,,,,,,,,,,,,,,,,,,,,,,,
,,5f4595ac82d8061b45c2c490,26,male,2024-04-16_11h24.15.421,stockport_simplified,2022.2.4,Win32,60.24096386,661e456ee6de07e70aa9ef7b,661e51b63ca98b45e53a8629,,,,,,,,,,,,,,,,,,,,,,,,,,,,,,,,,,971.805,973.6379,"[7,8,6,2,4,1,3,5]","[[0.3,0.2],[-0.3,0.2]]","[[0.125,-0.2],[-0.125,-0.2]]",-0.097393648,-0.171010503,1,0,0,1.3159,o2_image,973.6388,1,977.7874,977.7875,977.8054,0,0,0,0,1,,,,,,,,,,,,,,,,,,,,,,,,,,,,,,,,,,,,,,,,,,,,,,,,,,
,,5f4595ac82d8061b45c2c490,26,male,2024-04-16_11h24.15.421,stockport_simplified,2022.2.4,Win32,60.24096386,661e456ee6de07e70aa9ef7b,661e51b63ca98b45e53a8629,,,,,,,,,,,,,,,,,,,,,,,,,,,,,,,,,,,,,,,,,,,,,,,,,,,,,,,,1,18,78,43,1,B,X,N,o2_image,stimuli/out2.png,stimuli/out1.png,stimuli/correct_out2.png,,,,,,,,,,,,,,,,,,,,,,,,,,,,,,,,,,,,,,
,,5f4595ac82d8061b45c2c490,26,male,2024-04-16_11h24.15.421,stockport_simplified,2022.2.4,Win32,60.24096386,661e456ee6de07e70aa9ef7b,661e51b63ca98b45e53a8629,,,,,,,,,,,,,,,,,,,,,,,,,,,,,,,,,,977.8066,979.5366,"[7,8,6,2,4,1,3,5]","[[-0.3,0.2],[0.3,0.2]]","[[0.125,-0.2],[-0.125,-0.2]]",-0.16140835,-0.214448989,1,0,0,1.2159,o2_image,979.5373,0,995.3215,995.3215,995.3751,0,0,0,0,1,,,,,,,,,,,,,,,,,,,,,,,,,,,,,,,,,,,,,,,,,,,,,,,,,,
,,5f4595ac82d8061b45c2c490,26,male,2024-04-16_11h24.15.421,stockport_simplified,2022.2.4,Win32,60.24096386,661e456ee6de07e70aa9ef7b,661e51b63ca98b45e53a8629,,,,,,,,,,,,,,,,,,,,,,,,,,,,,,,,,,,,,,,,,,,,,,,,,,,,,,,,1,19,79,34,1,A,X,N,o1_image,stimuli/out1.png,stimuli/correct_out1.png,stimuli/out2.png,,,,,,,,,,,,,,,,,,,,,,,,,,,,,,,,,,,,,,
,,5f4595ac82d8061b45c2c490,26,male,2024-04-16_11h24.15.421,stockport_simplified,2022.2.4,Win32,60.24096386,661e456ee6de07e70aa9ef7b,661e51b63ca98b45e53a8629,,,,,,,,,,,,,,,,,,,,,,,,,,,,,,,,,,995.3758,996.3681,"[7,8,6,2,4,1,3,5]","[[-0.3,0.2],[0.3,0.2]]","[[-0.125,-0.2],[0.125,-0.2]]",-0.099679913,-0.200731568,1,0,0,0.4781,o1_image,996.3687,0,1002.1185,1002.1185,1002.1647,0,0,0,0,1,,,,,,,,,,,,,,,,,,,,,,,,,,,,,,,,,,,,,,,,,,,,,,,,,,
,,5f4595ac82d8061b45c2c490,26,male,2024-04-16_11h24.15.421,stockport_simplified,2022.2.4,Win32,60.24096386,661e456ee6de07e70aa9ef7b,661e51b63ca98b45e53a8629,,,,,,,,,,,,,,,,,,,,,,,,,,,,,,,,,,,,,,,,,,,,,,,,,,,,,,,,1,20,80,27,1,N,M,D,o2_image,stimuli/out2.png,stimuli/out1.png,stimuli/correct_out2.png,,,,,,,,,,,,,,,,,,,,,,,,,,,,,,,,,,,,,,
,,5f4595ac82d8061b45c2c490,26,male,2024-04-16_11h24.15.421,stockport_simplified,2022.2.4,Win32,60.24096386,661e456ee6de07e70aa9ef7b,661e51b63ca98b45e53a8629,,,,,,,,,,,,,,,,,,,,,,,,,,,,,,,,,,1002.1652,1003.0341,"[7,8,6,2,4,1,3,5]","[[0.3,0.2],[-0.3,0.2]]","[[-0.125,-0.2],[0.125,-0.2]]",-0.083676227,-0.184727924,1,0,0,0.3653,o1_image,1003.0347,0,1005.5641,1005.5641,1008.316,0,0,0,0,1,,,,,,,,,,,,,,,,,,,,,,,,,,,,,,,,,,,,,,,,,,,,,,,,,,
,,5f4595ac82d8061b45c2c490,26,male,2024-04-16_11h24.15.421,stockport_simplified,2022.2.4,Win32,60.24096386,661e456ee6de07e70aa9ef7b,661e51b63ca98b45e53a8629,,,,,,,,,,,,,,,,,,,,,,,,,,,,,,,,,,,,,,,,,,,,,,,,,,,,,,,,1,21,81,47,1,B,Y,N,o2_image,stimuli/out2.png,stimuli/out1.png,stimuli/correct_out2.png,,,,,,,,,,,,,,,,,,,,,,,,,,,,,,,,,,,,,,
,,5f4595ac82d8061b45c2c490,26,male,2024-04-16_11h24.15.421,stockport_simplified,2022.2.4,Win32,60.24096386,661e456ee6de07e70aa9ef7b,661e51b63ca98b45e53a8629,,,,,,,,,,,,,,,,,,,,,,,,,,,,,,,,,,1008.3174,1010.1835,"[7,8,6,2,4,1,3,5]","[[0.3,0.2],[-0.3,0.2]]","[[0.125,-0.2],[-0.125,-0.2]]",-0.106538623,-0.187014147,1,0,0,1.3489,o2_image,1010.1844,1,1017.9155,1017.9155,1017.9443,0,0,0,0,1,,,,,,,,,,,,,,,,,,,,,,,,,,,,,,,,,,,,,,,,,,,,,,,,,,
,,5f4595ac82d8061b45c2c490,26,male,2024-04-16_11h24.15.421,stockport_simplified,2022.2.4,Win32,60.24096386,661e456ee6de07e70aa9ef7b,661e51b63ca98b45e53a8629,,,,,,,,,,,,,,,,,,,,,,,,,,,,,,,,,,,,,,,,,,,,,,,,,,,,,,,,1,22,82,40,1,B,X,N,o2_image,stimuli/out2.png,stimuli/out1.png,stimuli/correct_out2.png,,,,,,,,,,,,,,,,,,,,,,,,,,,,,,,,,,,,,,
,,5f4595ac82d8061b45c2c490,26,male,2024-04-16_11h24.15.421,stockport_simplified,2022.2.4,Win32,60.24096386,661e456ee6de07e70aa9ef7b,661e51b63ca98b45e53a8629,,,,,,,,,,,,,,,,,,,,,,,,,,,,,,,,,,1017.9446,1019.0318,"[7,8,6,2,4,1,3,5]","[[-0.3,0.2],[0.3,0.2]]","[[-0.125,-0.2],[0.125,-0.2]]",0.098079561,-0.217878344,1,0,0,0.5802,o2_image,1019.0323,0,1019.5319,1019.5319,1021.7271,0,0,0,0,1,,,,,,,,,,,,,,,,,,,,,,,,,,,,,,,,,,,,,,,,,,,,,,,,,,
,,5f4595ac82d8061b45c2c490,26,male,2024-04-16_11h24.15.421,stockport_simplified,2022.2.4,Win32,60.24096386,661e456ee6de07e70aa9ef7b,661e51b63ca98b45e53a8629,,,,,,,,,,,,,,,,,,,,,,,,,,,,,,,,,,,,,,,,,,,,,,,,,,,,,,,,1,23,83,51,1,N,M,C,o1_image,stimuli/out1.png,stimuli/correct_out1.png,stimuli/out2.png,,,,,,,,,,,,,,,,,,,,,,,,,,,,,,,,,,,,,,
,,5f4595ac82d8061b45c2c490,26,male,2024-04-16_11h24.15.421,stockport_simplified,2022.2.4,Win32,60.24096386,661e456ee6de07e70aa9ef7b,661e51b63ca98b45e53a8629,,,,,,,,,,,,,,,,,,,,,,,,,,,,,,,,,,1021.7277,1024.698,"[7,8,6,2,4,1,3,5]","[[0.3,0.2],[-0.3,0.2]]","[[0.125,-0.2],[-0.125,-0.2]]",-0.196844993,-0.235025121,1,0,0,2.4568,o2_image,1024.6991,0,1025.1977,1025.1977,1027.1973,0,0,0,0,1,,,,,,,,,,,,,,,,,,,,,,,,,,,,,,,,,,,,,,,,,,,,,,,,,,
,,5f4595ac82d8061b45c2c490,26,male,2024-04-16_11h24.15.421,stockport_simplified,2022.2.4,Win32,60.24096386,661e456ee6de07e70aa9ef7b,661e51b63ca98b45e53a8629,,,,,,,,,,,,,,,,,,,,,,,,,,,,,,,,,,,,,,,,,,,,,,,,,,,,,,,,1,24,84,9,1,A,Y,N,o1_image,stimuli/out1.png,stimuli/correct_out1.png,stimuli/out2.png,,,,,,,,,,,,,,,,,,,,,,,,,,,,,,,,,,,,,,
,,5f4595ac82d8061b45c2c490,26,male,2024-04-16_11h24.15.421,stockport_simplified,2022.2.4,Win32,60.24096386,661e456ee6de07e70aa9ef7b,661e51b63ca98b45e53a8629,,,,,,,,,,,,,,,,,,,,,,,,,,,,,,,,,,1027.1977,1028.1966,"[7,8,6,2,4,1,3,5]","[[-0.3,0.2],[0.3,0.2]]","[[-0.125,-0.2],[0.125,-0.2]]",0.102652007,-0.208733369,1,0,0,0.4827,o2_image,1028.1971,1,1028.697,1028.6971,1031.1837,0,0,0,0,1,,,,,,,,,,,,,,,,,,,,,,,,,,,,,,,,,,,,,,,,,,,,,,,,,,
,,5f4595ac82d8061b45c2c490,26,male,2024-04-16_11h24.15.421,stockport_simplified,2022.2.4,Win32,60.24096386,661e456ee6de07e70aa9ef7b,661e51b63ca98b45e53a8629,,,,,,,,,,,,,,,,,,,,,,,,,,,,,,,,,,,,,,,,,,,,,,,,,,,,,,,,1,25,85,46,1,B,Y,N,o2_image,stimuli/out2.png,stimuli/out1.png,stimuli/correct_out2.png,,,,,,,,,,,,,,,,,,,,,,,,,,,,,,,,,,,,,,
,,5f4595ac82d8061b45c2c490,26,male,2024-04-16_11h24.15.421,stockport_simplified,2022.2.4,Win32,60.24096386,661e456ee6de07e70aa9ef7b,661e51b63ca98b45e53a8629,,,,,,,,,,,,,,,,,,,,,,,,,,,,,,,,,,1031.1841,1033.6002,"[7,8,6,2,4,1,3,5]","[[0.3,0.2],[-0.3,0.2]]","[[0.125,-0.2],[-0.125,-0.2]]",-0.12940102,-0.225880145,1,0,0,1.9154,o2_image,1033.609,0,1034.1133,1034.1133,1036.1131,0,0,0,0,1,,,,,,,,,,,,,,,,,,,,,,,,,,,,,,,,,,,,,,,,,,,,,,,,,,
,,5f4595ac82d8061b45c2c490,26,male,2024-04-16_11h24.15.421,stockport_simplified,2022.2.4,Win32,60.24096386,661e456ee6de07e70aa9ef7b,661e51b63ca98b45e53a8629,,,,,,,,,,,,,,,,,,,,,,,,,,,,,,,,,,,,,,,,,,,,,,,,,,,,,,,,1,26,86,53,1,N,M,C,o1_image,stimuli/out1.png,stimuli/correct_out1.png,stimuli/out2.png,,,,,,,,,,,,,,,,,,,,,,,,,,,,,,,,,,,,,,
,,5f4595ac82d8061b45c2c490,26,male,2024-04-16_11h24.15.421,stockport_simplified,2022.2.4,Win32,60.24096386,661e456ee6de07e70aa9ef7b,661e51b63ca98b45e53a8629,,,,,,,,,,,,,,,,,,,,,,,,,,,,,,,,,,1036.1136,1037.2795,"[7,8,6,2,4,1,3,5]","[[-0.3,0.2],[0.3,0.2]]","[[-0.125,-0.2],[0.125,-0.2]]",0.133516204,-0.203017833,1,0,0,0.6497,o2_image,1037.2804,0,1037.7796,1037.7797,1039.7622,0,0,0,0,1,,,,,,,,,,,,,,,,,,,,,,,,,,,,,,,,,,,,,,,,,,,,,,,,,,
,,5f4595ac82d8061b45c2c490,26,male,2024-04-16_11h24.15.421,stockport_simplified,2022.2.4,Win32,60.24096386,661e456ee6de07e70aa9ef7b,661e51b63ca98b45e53a8629,,,,,,,,,,,,,,,,,,,,,,,,,,,,,,,,,,,,,,,,,,,,,,,,,,,,,,,,1,27,87,20,1,N,M,C,o1_image,stimuli/out1.png,stimuli/correct_out1.png,stimuli/out2.png,,,,,,,,,,,,,,,,,,,,,,,,,,,,,,,,,,,,,,
,,5f4595ac82d8061b45c2c490,26,male,2024-04-16_11h24.15.421,stockport_simplified,2022.2.4,Win32,60.24096386,661e456ee6de07e70aa9ef7b,661e51b63ca98b45e53a8629,,,,,,,,,,,,,,,,,,,,,,,,,,,,,,,,,,1039.7631,1041.3122,"[7,8,6,2,4,1,3,5]","[[-0.3,0.2],[0.3,0.2]]","[[0.125,-0.2],[-0.125,-0.2]]",0.096936429,-0.204160923,1,0,0,1.0325,o1_image,1041.3128,0,1041.8169,1041.8169,1043.3321,0,0,0,0,1,,,,,,,,,,,,,,,,,,,,,,,,,,,,,,,,,,,,,,,,,,,,,,,,,,
,,5f4595ac82d8061b45c2c490,26,male,2024-04-16_11h24.15.421,stockport_simplified,2022.2.4,Win32,60.24096386,661e456ee6de07e70aa9ef7b,661e51b63ca98b45e53a8629,,,,,,,,,,,,,,,,,,,,,,,,,,,,,,,,,,,,,,,,,,,,,,,,,,,,,,,,1,28,88,41,1,B,X,N,o2_image,stimuli/out2.png,stimuli/out1.png,stimuli/correct_out2.png,,,,,,,,,,,,,,,,,,,,,,,,,,,,,,,,,,,,,,
,,5f4595ac82d8061b45c2c490,26,male,2024-04-16_11h24.15.421,stockport_simplified,2022.2.4,Win32,60.24096386,661e456ee6de07e70aa9ef7b,661e51b63ca98b45e53a8629,,,,,,,,,,,,,,,,,,,,,,,,,,,,,,,,,,1043.3331,1045.0126,"[7,8,6,2,4,1,3,5]","[[-0.3,0.2],[0.3,0.2]]","[[-0.125,-0.2],[0.125,-0.2]]",0.132373114,-0.179012346,1,0,0,1.1786,o2_image,1045.0134,0,1045.5153,1045.5153,1047.5119,0,0,0,0,1,,,,,,,,,,,,,,,,,,,,,,,,,,,,,,,,,,,,,,,,,,,,,,,,,,
,,5f4595ac82d8061b45c2c490,26,male,2024-04-16_11h24.15.421,stockport_simplified,2022.2.4,Win32,60.24096386,661e456ee6de07e70aa9ef7b,661e51b63ca98b45e53a8629,,,,,,,,,,,,,,,,,,,,,,,,,,,,,,,,,,,,,,,,,,,,,,,,,,,,,,,,1,29,89,6,1,A,Y,N,o1_image,stimuli/out1.png,stimuli/correct_out1.png,stimuli/out2.png,,,,,,,,,,,,,,,,,,,,,,,,,,,,,,,,,,,,,,
,,5f4595ac82d8061b45c2c490,26,male,2024-04-16_11h24.15.421,stockport_simplified,2022.2.4,Win32,60.24096386,661e456ee6de07e70aa9ef7b,661e51b63ca98b45e53a8629,,,,,,,,,,,,,,,,,,,,,,,,,,,,,,,,,,1047.5124,1049.1274,"[7,8,6,2,4,1,3,5]","[[-0.3,0.2],[0.3,0.2]]","[[-0.125,-0.2],[0.125,-0.2]]",-0.123685442,-0.205304014,1,0,0,1.0967,o1_image,1049.1283,1,1049.6278,1049.6279,1051.6309,0,0,0,0,1,,,,,,,,,,,,,,,,,,,,,,,,,,,,,,,,,,,,,,,,,,,,,,,,,,
,,5f4595ac82d8061b45c2c490,26,male,2024-04-16_11h24.15.421,stockport_simplified,2022.2.4,Win32,60.24096386,661e456ee6de07e70aa9ef7b,661e51b63ca98b45e53a8629,,,,,,,,,,,,,,,,,,,,,,,,,,,,,,,,,,,,,,,,,,,,,,,,,,,,,,,,1,30,90,37,1,A,Y,N,o1_image,stimuli/out1.png,stimuli/correct_out1.png,stimuli/out2.png,,,,,,,,,,,,,,,,,,,,,,,,,,,,,,,,,,,,,,
,,5f4595ac82d8061b45c2c490,26,male,2024-04-16_11h24.15.421,stockport_simplified,2022.2.4,Win32,60.24096386,661e456ee6de07e70aa9ef7b,661e51b63ca98b45e53a8629,,,,,,,,,,,,,,,,,,,,,,,,,,,,,,,,,,1051.6315,1053.2778,"[7,8,6,2,4,1,3,5]","[[0.3,0.2],[-0.3,0.2]]","[[-0.125,-0.2],[0.125,-0.2]]",0.128943759,-0.172153635,1,0,0,1.133,o2_image,1053.2785,1,1053.7769,1053.7769,1056.3519,0,0,0,0,1,,,,,,,,,,,,,,,,,,,,,,,,,,,,,,,,,,,,,,,,,,,,,,,,,,
,,5f4595ac82d8061b45c2c490,26,male,2024-04-16_11h24.15.421,stockport_simplified,2022.2.4,Win32,60.24096386,661e456ee6de07e70aa9ef7b,661e51b63ca98b45e53a8629,,,,,,,,,,,,,,,,,,,,,,,,,,,,,,,,,,,,,,,,,,,,,,,,,,,,,,,,1,31,91,19,1,B,Y,N,o2_image,stimuli/out2.png,stimuli/out1.png,stimuli/correct_out2.png,,,,,,,,,,,,,,,,,,,,,,,,,,,,,,,,,,,,,,
,,5f4595ac82d8061b45c2c490,26,male,2024-04-16_11h24.15.421,stockport_simplified,2022.2.4,Win32,60.24096386,661e456ee6de07e70aa9ef7b,661e51b63ca98b45e53a8629,,,,,,,,,,,,,,,,,,,,,,,,,,,,,,,,,,1056.3521,1058.2099,"[7,8,6,2,4,1,3,5]","[[0.3,0.2],[-0.3,0.2]]","[[-0.125,-0.2],[0.125,-0.2]]",-0.115683599,-0.22245079,1,0,0,1.3465,o1_image,1058.2104,0,1058.7094,1058.7095,1060.8725,0,0,0,0,1,,,,,,,,,,,,,,,,,,,,,,,,,,,,,,,,,,,,,,,,,,,,,,,,,,
,,5f4595ac82d8061b45c2c490,26,male,2024-04-16_11h24.15.421,stockport_simplified,2022.2.4,Win32,60.24096386,661e456ee6de07e70aa9ef7b,661e51b63ca98b45e53a8629,,,,,,,,,,,,,,,,,,,,,,,,,,,,,,,,,,,,,,,,,,,,,,,,,,,,,,,,1,32,92,55,1,N,M,D,o2_image,stimuli/out2.png,stimuli/out1.png,stimuli/correct_out2.png,,,,,,,,,,,,,,,,,,,,,,,,,,,,,,,,,,,,,,
,,5f4595ac82d8061b45c2c490,26,male,2024-04-16_11h24.15.421,stockport_simplified,2022.2.4,Win32,60.24096386,661e456ee6de07e70aa9ef7b,661e51b63ca98b45e53a8629,,,,,,,,,,,,,,,,,,,,,,,,,,,,,,,,,,1060.8729,1063.0593,"[7,8,6,2,4,1,3,5]","[[0.3,0.2],[-0.3,0.2]]","[[-0.125,-0.2],[0.125,-0.2]]",0.200960219,-0.161865569,1,0,0,1.6818,o2_image,1063.0597,0,1063.5589,1063.5589,1065.5586,0,0,0,0,1,,,,,,,,,,,,,,,,,,,,,,,,,,,,,,,,,,,,,,,,,,,,,,,,,,
,,5f4595ac82d8061b45c2c490,26,male,2024-04-16_11h24.15.421,stockport_simplified,2022.2.4,Win32,60.24096386,661e456ee6de07e70aa9ef7b,661e51b63ca98b45e53a8629,,,,,,,,,,,,,,,,,,,,,,,,,,,,,,,,,,,,,,,,,,,,,,,,,,,,,,,,1,33,93,5,1,A,Y,N,o1_image,stimuli/out1.png,stimuli/correct_out1.png,stimuli/out2.png,,,,,,,,,,,,,,,,,,,,,,,,,,,,,,,,,,,,,,
,,5f4595ac82d8061b45c2c490,26,male,2024-04-16_11h24.15.421,stockport_simplified,2022.2.4,Win32,60.24096386,661e456ee6de07e70aa9ef7b,661e51b63ca98b45e53a8629,,,,,,,,,,,,,,,,,,,,,,,,,,,,,,,,,,1065.5591,1067.9965,"[7,8,6,2,4,1,3,5]","[[-0.3,0.2],[0.3,0.2]]","[[-0.125,-0.2],[0.125,-0.2]]",-0.107681756,-0.212162724,1,0,0,1.9207,o1_image,1068.0055,1,1068.5087,1068.5087,1070.4247,0,0,0,0,1,,,,,,,,,,,,,,,,,,,,,,,,,,,,,,,,,,,,,,,,,,,,,,,,,,
,,5f4595ac82d8061b45c2c490,26,male,2024-04-16_11h24.15.421,stockport_simplified,2022.2.4,Win32,60.24096386,661e456ee6de07e70aa9ef7b,661e51b63ca98b45e53a8629,,,,,,,,,,,,,,,,,,,,,,,,,,,,,,,,,,,,,,,,,,,,,,,,,,,,,,,,1,34,94,30,1,A,X,N,o1_image,stimuli/out1.png,stimuli/correct_out1.png,stimuli/out2.png,,,,,,,,,,,,,,,,,,,,,,,,,,,,,,,,,,,,,,
,,5f4595ac82d8061b45c2c490,26,male,2024-04-16_11h24.15.421,stockport_simplified,2022.2.4,Win32,60.24096386,661e456ee6de07e70aa9ef7b,661e51b63ca98b45e53a8629,,,,,,,,,,,,,,,,,,,,,,,,,,,,,,,,,,1070.4256,1073.6586,"[7,8,6,2,4,1,3,5]","[[0.3,0.2],[-0.3,0.2]]","[[0.125,-0.2],[-0.125,-0.2]]",-0.146547796,-0.172153635,1,0,0,2.7165,o2_image,1073.6689,0,1074.1578,1074.1579,1076.1609,0,0,0,0,1,,,,,,,,,,,,,,,,,,,,,,,,,,,,,,,,,,,,,,,,,,,,,,,,,,
,,5f4595ac82d8061b45c2c490,26,male,2024-04-16_11h24.15.421,stockport_simplified,2022.2.4,Win32,60.24096386,661e456ee6de07e70aa9ef7b,661e51b63ca98b45e53a8629,,,,,,,,,,,,,,,,,,,,,,,,,,,,,,,,,,,,,,,,,,,,,,,,,,,,,,,,1,35,95,33,1,A,X,N,o1_image,stimuli/out1.png,stimuli/correct_out1.png,stimuli/out2.png,,,,,,,,,,,,,,,,,,,,,,,,,,,,,,,,,,,,,,
,,5f4595ac82d8061b45c2c490,26,male,2024-04-16_11h24.15.421,stockport_simplified,2022.2.4,Win32,60.24096386,661e456ee6de07e70aa9ef7b,661e51b63ca98b45e53a8629,,,,,,,,,,,,,,,,,,,,,,,,,,,,,,,,,,1076.1612,1078.0074,"[7,8,6,2,4,1,3,5]","[[0.3,0.2],[-0.3,0.2]]","[[-0.125,-0.2],[0.125,-0.2]]",-0.067672625,-0.189300412,1,0,0,1.3438,o1_image,1078.0083,1,1078.5071,1078.5072,1080.5067,0,0,0,0,1,,,,,,,,,,,,,,,,,,,,,,,,,,,,,,,,,,,,,,,,,,,,,,,,,,
,,5f4595ac82d8061b45c2c490,26,male,2024-04-16_11h24.15.421,stockport_simplified,2022.2.4,Win32,60.24096386,661e456ee6de07e70aa9ef7b,661e51b63ca98b45e53a8629,,,,,,,,,,,,,,,,,,,,,,,,,,,,,,,,,,,,,,,,,,,,,,,,,,,,,,,,1,36,96,4,1,A,X,N,o1_image,stimuli/out1.png,stimuli/correct_out1.png,stimuli/out2.png,,,,,,,,,,,,,,,,,,,,,,,,,,,,,,,,,,,,,,
,,5f4595ac82d8061b45c2c490,26,male,2024-04-16_11h24.15.421,stockport_simplified,2022.2.4,Win32,60.24096386,661e456ee6de07e70aa9ef7b,661e51b63ca98b45e53a8629,,,,,,,,,,,,,,,,,,,,,,,,,,,,,,,,,,1080.5075,1083.2941,"[7,8,6,2,4,1,3,5]","[[-0.3,0.2],[0.3,0.2]]","[[0.125,-0.2],[-0.125,-0.2]]",0.140374915,-0.173296726,1,0,0,2.2701,o1_image,1083.2948,0,1083.7909,1083.791,1085.789,0,0,0,0,1,,,,,,,,,,,,,,,,,,,,,,,,,,,,,,,,,,,,,,,,,,,,,,,,,,
,,5f4595ac82d8061b45c2c490,26,male,2024-04-16_11h24.15.421,stockport_simplified,2022.2.4,Win32,60.24096386,661e456ee6de07e70aa9ef7b,661e51b63ca98b45e53a8629,,,,,,,,,,,,,,,,,,,,,,,,,,,,,,,,,,,,,,,,,,,,,,,,,,,,,,,,1,37,97,48,1,B,Y,N,o2_image,stimuli/out2.png,stimuli/out1.png,stimuli/correct_out2.png,,,,,,,,,,,,,,,,,,,,,,,,,,,,,,,,,,,,,,
,,5f4595ac82d8061b45c2c490,26,male,2024-04-16_11h24.15.421,stockport_simplified,2022.2.4,Win32,60.24096386,661e456ee6de07e70aa9ef7b,661e51b63ca98b45e53a8629,,,,,,,,,,,,,,,,,,,,,,,,,,,,,,,,,,1085.7895,1088.089,"[7,8,6,2,4,1,3,5]","[[-0.3,0.2],[0.3,0.2]]","[[0.125,-0.2],[-0.125,-0.2]]",0.133516204,-0.196159122,1,0,0,1.7966,o1_image,1088.09,1,1088.5895,1088.5896,1090.5893,0,0,0,0,1,,,,,,,,,,,,,,,,,,,,,,,,,,,,,,,,,,,,,,,,,,,,,,,,,,
,,5f4595ac82d8061b45c2c490,26,male,2024-04-16_11h24.15.421,stockport_simplified,2022.2.4,Win32,60.24096386,661e456ee6de07e70aa9ef7b,661e51b63ca98b45e53a8629,,,,,,,,,,,,,,,,,,,,,,,,,,,,,,,,,,,,,,,,,,,,,,,,,,,,,,,,1,38,98,3,1,A,X,N,o1_image,stimuli/out1.png,stimuli/correct_out1.png,stimuli/out2.png,,,,,,,,,,,,,,,,,,,,,,,,,,,,,,,,,,,,,,
,,5f4595ac82d8061b45c2c490,26,male,2024-04-16_11h24.15.421,stockport_simplified,2022.2.4,Win32,60.24096386,661e456ee6de07e70aa9ef7b,661e51b63ca98b45e53a8629,,,,,,,,,,,,,,,,,,,,,,,,,,,,,,,,,,1090.5898,1092.1056,"[7,8,6,2,4,1,3,5]","[[-0.3,0.2],[0.3,0.2]]","[[0.125,-0.2],[-0.125,-0.2]]",-0.072245071,-0.193872857,1,0,0,0.9989,o2_image,1092.1065,1,1092.6055,1092.6056,1094.6056,0,0,0,0,1,,,,,,,,,,,,,,,,,,,,,,,,,,,,,,,,,,,,,,,,,,,,,,,,,,
,,5f4595ac82d8061b45c2c490,26,male,2024-04-16_11h24.15.421,stockport_simplified,2022.2.4,Win32,60.24096386,661e456ee6de07e70aa9ef7b,661e51b63ca98b45e53a8629,,,,,,,,,,,,,,,,,,,,,,,,,,,,,,,,,,,,,,,,,,,,,,,,,,,,,,,,1,39,99,42,1,B,X,N,o2_image,stimuli/out2.png,stimuli/out1.png,stimuli/correct_out2.png,,,,,,,,,,,,,,,,,,,,,,,,,,,,,,,,,,,,,,
,,5f4595ac82d8061b45c2c490,26,male,2024-04-16_11h24.15.421,stockport_simplified,2022.2.4,Win32,60.24096386,661e456ee6de07e70aa9ef7b,661e51b63ca98b45e53a8629,,,,,,,,,,,,,,,,,,,,,,,,,,,,,,,,,,1094.606,1096.5552,"[7,8,6,2,4,1,3,5]","[[-0.3,0.2],[0.3,0.2]]","[[0.125,-0.2],[-0.125,-0.2]]",-0.153406507,-0.219021435,1,0,0,1.4325,o2_image,1096.5558,1,1097.0555,1097.0555,1099.0553,0,0,0,0,1,,,,,,,,,,,,,,,,,,,,,,,,,,,,,,,,,,,,,,,,,,,,,,,,,,
,,5f4595ac82d8061b45c2c490,26,male,2024-04-16_11h24.15.421,stockport_simplified,2022.2.4,Win32,60.24096386,661e456ee6de07e70aa9ef7b,661e51b63ca98b45e53a8629,,,,,,,,,,,,,,,,,,,,,,,,,,,,,,,,,,,,,,,,,,,,,,,,,,,,,,,,1,40,100,28,1,N,M,D,o2_image,stimuli/out2.png,stimuli/out1.png,stimuli/correct_out2.png,,,,,,,,,,,,,,,,,,,,,,,,,,,,,,,,,,,,,,
,,5f4595ac82d8061b45c2c490,26,male,2024-04-16_11h24.15.421,stockport_simplified,2022.2.4,Win32,60.24096386,661e456ee6de07e70aa9ef7b,661e51b63ca98b45e53a8629,,,,,,,,,,,,,,,,,,,,,,,,,,,,,,,,,,1099.0558,1101.2712,"[7,8,6,2,4,1,3,5]","[[0.3,0.2],[-0.3,0.2]]","[[-0.125,-0.2],[0.125,-0.2]]",-0.124828532,-0.189300412,1,0,0,1.7129,o1_image,1101.2718,1,1101.7713,1101.7713,1103.7735,0,0,0,0,1,,,,,,,,,,,,,,,,,,,,,,,,,,,,,,,,,,,,,,,,,,,,,,,,,,
,,5f4595ac82d8061b45c2c490,26,male,2024-04-16_11h24.15.421,stockport_simplified,2022.2.4,Win32,60.24096386,661e456ee6de07e70aa9ef7b,661e51b63ca98b45e53a8629,,,,,,,,,,,,,,,,,,,,,,,,,,,,,,,,,,,,,,,,,,,,,,,,,,,,,,,,1,41,101,21,1,N,M,C,o1_image,stimuli/out1.png,stimuli/correct_out1.png,stimuli/out2.png,,,,,,,,,,,,,,,,,,,,,,,,,,,,,,,,,,,,,,
,,5f4595ac82d8061b45c2c490,26,male,2024-04-16_11h24.15.421,stockport_simplified,2022.2.4,Win32,60.24096386,661e456ee6de07e70aa9ef7b,661e51b63ca98b45e53a8629,,,,,,,,,,,,,,,,,,,,,,,,,,,,,,,,,,1103.7741,1109.7914,"[7,8,6,2,4,1,3,5]","[[0.3,0.2],[-0.3,0.2]]","[[0.125,-0.2],[-0.125,-0.2]]",-0.124828532,-0.240740741,1,0,0,5.5141,o2_image,1109.8012,0,1110.3026,1110.3026,1112.3031,0,0,0,0,1,,,,,,,,,,,,,,,,,,,,,,,,,,,,,,,,,,,,,,,,,,,,,,,,,,
,,5f4595ac82d8061b45c2c490,26,male,2024-04-16_11h24.15.421,stockport_simplified,2022.2.4,Win32,60.24096386,661e456ee6de07e70aa9ef7b,661e51b63ca98b45e53a8629,,,,,,,,,,,,,,,,,,,,,,,,,,,,,,,,,,,,,,,,,,,,,,,,,,,,,,,,1,42,102,36,1,A,Y,N,o1_image,stimuli/out1.png,stimuli/correct_out1.png,stimuli/out2.png,,,,,,,,,,,,,,,,,,,,,,,,,,,,,,,,,,,,,,
,,5f4595ac82d8061b45c2c490,26,male,2024-04-16_11h24.15.421,stockport_simplified,2022.2.4,Win32,60.24096386,661e456ee6de07e70aa9ef7b,661e51b63ca98b45e53a8629,,,,,,,,,,,,,,,,,,,,,,,,,,,,,,,,,,1112.3038,1114.8259,"[7,8,6,2,4,1,3,5]","[[-0.3,0.2],[0.3,0.2]]","[[0.125,-0.2],[-0.125,-0.2]]",0.13694556,-0.179012346,1,0,0,2.0054,o1_image,1114.8264,1,1115.3193,1115.3194,1117.3221,0,0,0,0,1,,,,,,,,,,,,,,,,,,,,,,,,,,,,,,,,,,,,,,,,,,,,,,,,,,
,,5f4595ac82d8061b45c2c490,26,male,2024-04-16_11h24.15.421,stockport_simplified,2022.2.4,Win32,60.24096386,661e456ee6de07e70aa9ef7b,661e51b63ca98b45e53a8629,,,,,,,,,,,,,,,,,,,,,,,,,,,,,,,,,,,,,,,,,,,,,,,,,,,,,,,,1,43,103,24,1,N,M,C,o1_image,stimuli/out1.png,stimuli/correct_out1.png,stimuli/out2.png,,,,,,,,,,,,,,,,,,,,,,,,,,,,,,,,,,,,,,
,,5f4595ac82d8061b45c2c490,26,male,2024-04-16_11h24.15.421,stockport_simplified,2022.2.4,Win32,60.24096386,661e456ee6de07e70aa9ef7b,661e51b63ca98b45e53a8629,,,,,,,,,,,,,,,,,,,,,,,,,,,,,,,,,,1117.3227,1120.2384,"[7,8,6,2,4,1,3,5]","[[0.3,0.2],[-0.3,0.2]]","[[0.125,-0.2],[-0.125,-0.2]]",0.092363941,-0.188157279,1,0,0,2.4001,o1_image,1120.2475,0,1120.7513,1120.7513,1122.7509,0,0,0,0,1,,,,,,,,,,,,,,,,,,,,,,,,,,,,,,,,,,,,,,,,,,,,,,,,,,
,,5f4595ac82d8061b45c2c490,26,male,2024-04-16_11h24.15.421,stockport_simplified,2022.2.4,Win32,60.24096386,661e456ee6de07e70aa9ef7b,661e51b63ca98b45e53a8629,,,,,,,,,,,,,,,,,,,,,,,,,,,,,,,,,,,,,,,,,,,,,,,,,,,,,,,,1,44,104,13,1,B,X,N,o2_image,stimuli/out2.png,stimuli/out1.png,stimuli/correct_out2.png,,,,,,,,,,,,,,,,,,,,,,,,,,,,,,,,,,,,,,
,,5f4595ac82d8061b45c2c490,26,male,2024-04-16_11h24.15.421,stockport_simplified,2022.2.4,Win32,60.24096386,661e456ee6de07e70aa9ef7b,661e51b63ca98b45e53a8629,,,,,,,,,,,,,,,,,,,,,,,,,,,,,,,,,,1122.7513,1126.922,"[7,8,6,2,4,1,3,5]","[[0.3,0.2],[-0.3,0.2]]","[[0.125,-0.2],[-0.125,-0.2]]",-0.105395533,-0.206447188,1,0,0,3.6504,o2_image,1126.9304,1,1127.434,1127.4341,1129.4335,0,0,0,0,1,,,,,,,,,,,,,,,,,,,,,,,,,,,,,,,,,,,,,,,,,,,,,,,,,,
,,5f4595ac82d8061b45c2c490,26,male,2024-04-16_11h24.15.421,stockport_simplified,2022.2.4,Win32,60.24096386,661e456ee6de07e70aa9ef7b,661e51b63ca98b45e53a8629,,,,,,,,,,,,,,,,,,,,,,,,,,,,,,,,,,,,,,,,,,,,,,,,,,,,,,,,1,45,105,45,1,B,Y,N,o2_image,stimuli/out2.png,stimuli/out1.png,stimuli/correct_out2.png,,,,,,,,,,,,,,,,,,,,,,,,,,,,,,,,,,,,,,
,,5f4595ac82d8061b45c2c490,26,male,2024-04-16_11h24.15.421,stockport_simplified,2022.2.4,Win32,60.24096386,661e456ee6de07e70aa9ef7b,661e51b63ca98b45e53a8629,,,,,,,,,,,,,,,,,,,,,,,,,,,,,,,,,,1129.4341,1134.3829,"[7,8,6,2,4,1,3,5]","[[-0.3,0.2],[0.3,0.2]]","[[0.125,-0.2],[-0.125,-0.2]]",0.099222652,-0.235025121,1,0,0,4.4321,o1_image,1134.392,0,1134.8834,1134.8834,1136.8834,0,0,0,0,1,,,,,,,,,,,,,,,,,,,,,,,,,,,,,,,,,,,,,,,,,,,,,,,,,,
,,5f4595ac82d8061b45c2c490,26,male,2024-04-16_11h24.15.421,stockport_simplified,2022.2.4,Win32,60.24096386,661e456ee6de07e70aa9ef7b,661e51b63ca98b45e53a8629,,,,,,,,,,,,,,,,,,,,,,,,,,,,,,,,,,,,,,,,,,,,,,,,,,,,,,,,1,46,106,12,1,B,X,N,o2_image,stimuli/out2.png,stimuli/out1.png,stimuli/correct_out2.png,,,,,,,,,,,,,,,,,,,,,,,,,,,,,,,,,,,,,,
,,5f4595ac82d8061b45c2c490,26,male,2024-04-16_11h24.15.421,stockport_simplified,2022.2.4,Win32,60.24096386,661e456ee6de07e70aa9ef7b,661e51b63ca98b45e53a8629,,,,,,,,,,,,,,,,,,,,,,,,,,,,,,,,,,1136.8838,1141.3663,"[7,8,6,2,4,1,3,5]","[[-0.3,0.2],[0.3,0.2]]","[[0.125,-0.2],[-0.125,-0.2]]",0.107224495,-0.16872428,1,0,0,3.9812,o1_image,1141.378,0,1141.8661,1141.8661,1145.4214,0,0,0,0,1,,,,,,,,,,,,,,,,,,,,,,,,,,,,,,,,,,,,,,,,,,,,,,,,,,
,,5f4595ac82d8061b45c2c490,26,male,2024-04-16_11h24.15.421,stockport_simplified,2022.2.4,Win32,60.24096386,661e456ee6de07e70aa9ef7b,661e51b63ca98b45e53a8629,,,,,,,,,,,,,,,,,,,,,,,,,,,,,,,,,,,,,,,,,,,,,,,,,,,,,,,,1,47,107,44,1,B,X,N,o2_image,stimuli/out2.png,stimuli/out1.png,stimuli/correct_out2.png,,,,,,,,,,,,,,,,,,,,,,,,,,,,,,,,,,,,,,
,,5f4595ac82d8061b45c2c490,26,male,2024-04-16_11h24.15.421,stockport_simplified,2022.2.4,Win32,60.24096386,661e456ee6de07e70aa9ef7b,661e51b63ca98b45e53a8629,,,,,,,,,,,,,,,,,,,,,,,,,,,,,,,,,,1145.4373,1147.7511,"[7,8,6,2,4,1,3,5]","[[0.3,0.2],[-0.3,0.2]]","[[-0.125,-0.2],[0.125,-0.2]]",0.159807956,-0.196159122,1,0,0,1.8026,o2_image,1147.7521,1,1148.2508,1148.2508,1150.2513,0,0,0,0,1,,,,,,,,,,,,,,,,,,,,,,,,,,,,,,,,,,,,,,,,,,,,,,,,,,
,,5f4595ac82d8061b45c2c490,26,male,2024-04-16_11h24.15.421,stockport_simplified,2022.2.4,Win32,60.24096386,661e456ee6de07e70aa9ef7b,661e51b63ca98b45e53a8629,,,,,,,,,,,,,,,,,,,,,,,,,,,,,,,,,,,,,,,,,,,,,,,,,,,,,,,,1,48,108,49,1,B,Y,N,o2_image,stimuli/out2.png,stimuli/out1.png,stimuli/correct_out2.png,,,,,,,,,,,,,,,,,,,,,,,,,,,,,,,,,,,,,,
,,5f4595ac82d8061b45c2c490,26,male,2024-04-16_11h24.15.421,stockport_simplified,2022.2.4,Win32,60.24096386,661e456ee6de07e70aa9ef7b,661e51b63ca98b45e53a8629,,,,,,,,,,,,,,,,,,,,,,,,,,,,,,,,,,1150.2517,1154.2252,"[7,8,6,2,4,1,3,5]","[[-0.3,0.2],[0.3,0.2]]","[[0.125,-0.2],[-0.125,-0.2]]",0.125514403,-0.190443502,1,0,0,3.4604,o1_image,1154.2365,1,1154.7297,1154.7297,1160.0167,0,0,0,0,1,,,,,,,,,,,,,,,,,,,,,,,,,,,,,,,,,,,,,,,,,,,,,,,,,,
,,5f4595ac82d8061b45c2c490,26,male,2024-04-16_11h24.15.421,stockport_simplified,2022.2.4,Win32,60.24096386,661e456ee6de07e70aa9ef7b,661e51b63ca98b45e53a8629,,,,,,,,,,,,,,,,,,,,,,,,,,,,,,,,,,,,,,,,,,,,,,,,,,,,,,,,1,49,109,32,1,A,X,N,o1_image,stimuli/out1.png,stimuli/correct_out1.png,stimuli/out2.png,,,,,,,,,,,,,,,,,,,,,,,,,,,,,,,,,,,,,,
,,5f4595ac82d8061b45c2c490,26,male,2024-04-16_11h24.15.421,stockport_simplified,2022.2.4,Win32,60.24096386,661e456ee6de07e70aa9ef7b,661e51b63ca98b45e53a8629,,,,,,,,,,,,,,,,,,,,,,,,,,,,,,,,,,1160.0245,1161.4133,"[7,8,6,2,4,1,3,5]","[[-0.3,0.2],[0.3,0.2]]","[[-0.125,-0.2],[0.125,-0.2]]",-0.125971665,-0.199588477,1,0,0,0.8828,o1_image,1161.414,0,1161.9129,1161.9129,1167.0365,0,0,0,0,1,,,,,,,,,,,,,,,,,,,,,,,,,,,,,,,,,,,,,,,,,,,,,,,,,,
,,5f4595ac82d8061b45c2c490,26,male,2024-04-16_11h24.15.421,stockport_simplified,2022.2.4,Win32,60.24096386,661e456ee6de07e70aa9ef7b,661e51b63ca98b45e53a8629,,,,,,,,,,,,,,,,,,,,,,,,,,,,,,,,,,,,,,,,,,,,,,,,,,,,,,,,1,50,110,14,1,B,X,N,o2_image,stimuli/out2.png,stimuli/out1.png,stimuli/correct_out2.png,,,,,,,,,,,,,,,,,,,,,,,,,,,,,,,,,,,,,,
,,5f4595ac82d8061b45c2c490,26,male,2024-04-16_11h24.15.421,stockport_simplified,2022.2.4,Win32,60.24096386,661e456ee6de07e70aa9ef7b,661e51b63ca98b45e53a8629,,,,,,,,,,,,,,,,,,,,,,,,,,,,,,,,,,1167.0458,1168.0451,"[7,8,6,2,4,1,3,5]","[[-0.3,0.2],[0.3,0.2]]","[[0.125,-0.2],[-0.125,-0.2]]",-0.092821202,-0.21559208,1,0,0,0.4826,o2_image,1168.0458,0,1168.5648,1168.5648,1170.5662,0,0,0,0,1,,,,,,,,,,,,,,,,,,,,,,,,,,,,,,,,,,,,,,,,,,,,,,,,,,
,,5f4595ac82d8061b45c2c490,26,male,2024-04-16_11h24.15.421,stockport_simplified,2022.2.4,Win32,60.24096386,661e456ee6de07e70aa9ef7b,661e51b63ca98b45e53a8629,,,,,,,,,,,,,,,,,,,,,,,,,,,,,,,,,,,,,,,,,,,,,,,,,,,,,,,,1,51,111,31,1,A,X,N,o1_image,stimuli/out1.png,stimuli/correct_out1.png,stimuli/out2.png,,,,,,,,,,,,,,,,,,,,,,,,,,,,,,,,,,,,,,
,,5f4595ac82d8061b45c2c490,26,male,2024-04-16_11h24.15.421,stockport_simplified,2022.2.4,Win32,60.24096386,661e456ee6de07e70aa9ef7b,661e51b63ca98b45e53a8629,,,,,,,,,,,,,,,,,,,,,,,,,,,,,,,,,,1170.5668,1173.0672,"[7,8,6,2,4,1,3,5]","[[-0.3,0.2],[0.3,0.2]]","[[0.125,-0.2],[-0.125,-0.2]]",0.138088692,-0.213305898,1,0,0,1.9882,o1_image,1173.0681,1,1173.5645,1173.5645,1175.5612,0,0,0,0,1,,,,,,,,,,,,,,,,,,,,,,,,,,,,,,,,,,,,,,,,,,,,,,,,,,
,,5f4595ac82d8061b45c2c490,26,male,2024-04-16_11h24.15.421,stockport_simplified,2022.2.4,Win32,60.24096386,661e456ee6de07e70aa9ef7b,661e51b63ca98b45e53a8629,,,,,,,,,,,,,,,,,,,,,,,,,,,,,,,,,,,,,,,,,,,,,,,,,,,,,,,,1,52,112,52,1,N,M,C,o1_image,stimuli/out1.png,stimuli/correct_out1.png,stimuli/out2.png,,,,,,,,,,,,,,,,,,,,,,,,,,,,,,,,,,,,,,
,,5f4595ac82d8061b45c2c490,26,male,2024-04-16_11h24.15.421,stockport_simplified,2022.2.4,Win32,60.24096386,661e456ee6de07e70aa9ef7b,661e51b63ca98b45e53a8629,,,,,,,,,,,,,,,,,,,,,,,,,,,,,,,,,,1175.5619,1177.3606,"[7,8,6,2,4,1,3,5]","[[-0.3,0.2],[0.3,0.2]]","[[0.125,-0.2],[-0.125,-0.2]]",-0.087105582,-0.16986737,1,0,0,1.2829,o2_image,1177.3614,1,1177.8606,1177.8606,1179.8609,0,0,0,0,1,,,,,,,,,,,,,,,,,,,,,,,,,,,,,,,,,,,,,,,,,,,,,,,,,,
,,5f4595ac82d8061b45c2c490,26,male,2024-04-16_11h24.15.421,stockport_simplified,2022.2.4,Win32,60.24096386,661e456ee6de07e70aa9ef7b,661e51b63ca98b45e53a8629,,,,,,,,,,,,,,,,,,,,,,,,,,,,,,,,,,,,,,,,,,,,,,,,,,,,,,,,1,53,113,57,1,N,M,D,o2_image,stimuli/out2.png,stimuli/out1.png,stimuli/correct_out2.png,,,,,,,,,,,,,,,,,,,,,,,,,,,,,,,,,,,,,,
,,5f4595ac82d8061b45c2c490,26,male,2024-04-16_11h24.15.421,stockport_simplified,2022.2.4,Win32,60.24096386,661e456ee6de07e70aa9ef7b,661e51b63ca98b45e53a8629,,,,,,,,,,,,,,,,,,,,,,,,,,,,,,,,,,1179.8614,1182.1278,"[7,8,6,2,4,1,3,5]","[[-0.3,0.2],[0.3,0.2]]","[[-0.125,-0.2],[0.125,-0.2]]",0.134659337,-0.139003173,1,0,0,1.75,o2_image,1182.1401,1,1182.6432,1182.6432,1184.6427,0,0,0,0,1,,,,,,,,,,,,,,,,,,,,,,,,,,,,,,,,,,,,,,,,,,,,,,,,,,
,,5f4595ac82d8061b45c2c490,26,male,2024-04-16_11h24.15.421,stockport_simplified,2022.2.4,Win32,60.24096386,661e456ee6de07e70aa9ef7b,661e51b63ca98b45e53a8629,,,,,,,,,,,,,,,,,,,,,,,,,,,,,,,,,,,,,,,,,,,,,,,,,,,,,,,,1,54,114,11,1,B,X,N,o2_image,stimuli/out2.png,stimuli/out1.png,stimuli/correct_out2.png,,,,,,,,,,,,,,,,,,,,,,,,,,,,,,,,,,,,,,
,,5f4595ac82d8061b45c2c490,26,male,2024-04-16_11h24.15.421,stockport_simplified,2022.2.4,Win32,60.24096386,661e456ee6de07e70aa9ef7b,661e51b63ca98b45e53a8629,,,,,,,,,,,,,,,,,,,,,,,,,,,,,,,,,,1184.643,1187.3427,"[7,8,6,2,4,1,3,5]","[[-0.3,0.2],[0.3,0.2]]","[[0.125,-0.2],[-0.125,-0.2]]",0.212391376,-0.172153635,1,0,0,1.8832,o1_image,1187.3435,1,1187.8427,1187.8428,1189.8421,0,0,0,0,1,,,,,,,,,,,,,,,,,,,,,,,,,,,,,,,,,,,,,,,,,,,,,,,,,,
,,5f4595ac82d8061b45c2c490,26,male,2024-04-16_11h24.15.421,stockport_simplified,2022.2.4,Win32,60.24096386,661e456ee6de07e70aa9ef7b,661e51b63ca98b45e53a8629,,,,,,,,,,,,,,,,,,,,,,,,,,,,,,,,,,,,,,,,,,,,,,,,,,,,,,,,1,55,115,2,1,A,X,N,o1_image,stimuli/out1.png,stimuli/correct_out1.png,stimuli/out2.png,,,,,,,,,,,,,,,,,,,,,,,,,,,,,,,,,,,,,,
,,5f4595ac82d8061b45c2c490,26,male,2024-04-16_11h24.15.421,stockport_simplified,2022.2.4,Win32,60.24096386,661e456ee6de07e70aa9ef7b,661e51b63ca98b45e53a8629,,,,,,,,,,,,,,,,,,,,,,,,,,,,,,,,,,1189.8426,1191.3422,"[7,8,6,2,4,1,3,5]","[[0.3,0.2],[-0.3,0.2]]","[[-0.125,-0.2],[0.125,-0.2]]",-0.095107467,-0.253315071,1,0,0,0.9827,o1_image,1191.343,1,1191.8422,1191.8422,1193.8416,0,0,0,0,1,,,,,,,,,,,,,,,,,,,,,,,,,,,,,,,,,,,,,,,,,,,,,,,,,,
,,5f4595ac82d8061b45c2c490,26,male,2024-04-16_11h24.15.421,stockport_simplified,2022.2.4,Win32,60.24096386,661e456ee6de07e70aa9ef7b,661e51b63ca98b45e53a8629,,,,,,,,,,,,,,,,,,,,,,,,,,,,,,,,,,,,,,,,,,,,,,,,,,,,,,,,1,56,116,23,1,N,M,C,o1_image,stimuli/out1.png,stimuli/correct_out1.png,stimuli/out2.png,,,,,,,,,,,,,,,,,,,,,,,,,,,,,,,,,,,,,,
,,5f4595ac82d8061b45c2c490,26,male,2024-04-16_11h24.15.421,stockport_simplified,2022.2.4,Win32,60.24096386,661e456ee6de07e70aa9ef7b,661e51b63ca98b45e53a8629,,,,,,,,,,,,,,,,,,,,,,,,,,,,,,,,,,1193.842,1196.0247,"[7,8,6,2,4,1,3,5]","[[-0.3,0.2],[0.3,0.2]]","[[-0.125,-0.2],[0.125,-0.2]]",0.132373114,-0.17558299,1,0,0,1.6666,o2_image,1196.0256,0,1196.5251,1196.5251,1198.5243,0,0,0,0,1,,,,,,,,,,,,,,,,,,,,,,,,,,,,,,,,,,,,,,,,,,,,,,,,,,
,,5f4595ac82d8061b45c2c490,26,male,2024-04-16_11h24.15.421,stockport_simplified,2022.2.4,Win32,60.24096386,661e456ee6de07e70aa9ef7b,661e51b63ca98b45e53a8629,,,,,,,,,,,,,,,,,,,,,,,,,,,,,,,,,,,,,,,,,,,,,,,,,,,,,,,,1,57,117,54,1,N,M,C,o1_image,stimuli/out1.png,stimuli/correct_out1.png,stimuli/out2.png,,,,,,,,,,,,,,,,,,,,,,,,,,,,,,,,,,,,,,
,,5f4595ac82d8061b45c2c490,26,male,2024-04-16_11h24.15.421,stockport_simplified,2022.2.4,Win32,60.24096386,661e456ee6de07e70aa9ef7b,661e51b63ca98b45e53a8629,,,,,,,,,,,,,,,,,,,,,,,,,,,,,,,,,,1198.5246,1200.4411,"[7,8,6,2,4,1,3,5]","[[0.3,0.2],[-0.3,0.2]]","[[-0.125,-0.2],[0.125,-0.2]]",-0.084819401,-0.193872857,1,0,0,1.3994,o1_image,1200.4418,1,1200.9405,1200.9405,1202.9405,0,0,0,0,1,,,,,,,,,,,,,,,,,,,,,,,,,,,,,,,,,,,,,,,,,,,,,,,,,,
,,5f4595ac82d8061b45c2c490,26,male,2024-04-16_11h24.15.421,stockport_simplified,2022.2.4,Win32,60.24096386,661e456ee6de07e70aa9ef7b,661e51b63ca98b45e53a8629,,,,,,,,,,,,,,,,,,,,,,,,,,,,,,,,,,,,,,,,,,,,,,,,,,,,,,,,1,58,118,0,1,A,X,N,o1_image,stimuli/out1.png,stimuli/correct_out1.png,stimuli/out2.png,,,,,,,,,,,,,,,,,,,,,,,,,,,,,,,,,,,,,,
,,5f4595ac82d8061b45c2c490,26,male,2024-04-16_11h24.15.421,stockport_simplified,2022.2.4,Win32,60.24096386,661e456ee6de07e70aa9ef7b,661e51b63ca98b45e53a8629,,,,,,,,,,,,,,,,,,,,,,,,,,,,,,,,,,1202.9409,1205.407,"[7,8,6,2,4,1,3,5]","[[0.3,0.2],[-0.3,0.2]]","[[-0.125,-0.2],[0.125,-0.2]]",0.132373114,-0.17558299,1,0,0,1.9491,o2_image,1205.4079,0,1205.9071,1205.9071,1207.9067,0,0,0,0,1,,,,,,,,,,,,,,,,,,,,,,,,,,,,,,,,,,,,,,,,,,,,,,,,,,
,,5f4595ac82d8061b45c2c490,26,male,2024-04-16_11h24.15.421,stockport_simplified,2022.2.4,Win32,60.24096386,661e456ee6de07e70aa9ef7b,661e51b63ca98b45e53a8629,,,,,,,,,,,,,,,,,,,,,,,,,,,,,,,,,,,,,,,,,,,,,,,,,,,,,,,,1,59,119,7,1,A,Y,N,o1_image,stimuli/out1.png,stimuli/correct_out1.png,stimuli/out2.png,,,,,,,,,,,,,,,,,,,,,,,,,,,,,,,,,,,,,,
,,5f4595ac82d8061b45c2c490,26,male,2024-04-16_11h24.15.421,stockport_simplified,2022.2.4,Win32,60.24096386,661e456ee6de07e70aa9ef7b,661e51b63ca98b45e53a8629,,,,,,,,,,,,,,,,,,,,,,,,,,,,,,,,,,1207.922,1213.8224,"[7,8,6,2,4,1,3,5]","[[0.3,0.2],[-0.3,0.2]]","[[0.125,-0.2],[-0.125,-0.2]]",0.116369428,-0.192729767,1,0,0,5.3987,o1_image,1213.8314,1,1214.3227,1214.3228,1216.3224,,,,,,,,,,,,,,,,,,0,0,0,0,1,,,,,,,,,,,,,,,,,,,,,,,,,,,,,,,,,
,,5f4595ac82d8061b45c2c490,26,male,2024-04-16_11h24.15.421,stockport_simplified,2022.2.4,Win32,60.24096386,661e456ee6de07e70aa9ef7b,661e51b63ca98b45e53a8629,,,,,,,,,,,,,,,,,,,,,,,,,,,,,,,,,,,,,,,,,,,,,,,,,,,,,,,,,,,,,N,M,C,o1_image,stimuli/out1.png,stimuli/correct_out1.png,stimuli/out2.png,,,,,,0,0,0,45,1,,,,,,,,,,,,,,,,,,,,,,,,,,,,
,,5f4595ac82d8061b45c2c490,26,male,2024-04-16_11h24.15.421,stockport_simplified,2022.2.4,Win32,60.24096386,661e456ee6de07e70aa9ef7b,661e51b63ca98b45e53a8629,,,,,,,,,,,,,,,,,,,,,,,,,,,,,,,,,,1216.3239,1223.7044,"[7,8,6,2,4,1,3,5]","[[0.3,0.2],[-0.3,0.2]]","[[0.125,-0.2],[-0.125,-0.2]]",0.125514403,-0.185871056,1,0,0,6.8656,o1_image,1223.7124,0,1224.2044,1224.2045,1226.2044,,,,,,,,,,,,,,,,,,0,0,0,0,1,,,,,,,,,,,,,,,,,,,,,,,,,,,,,,,,,
,,5f4595ac82d8061b45c2c490,26,male,2024-04-16_11h24.15.421,stockport_simplified,2022.2.4,Win32,60.24096386,661e456ee6de07e70aa9ef7b,661e51b63ca98b45e53a8629,,,,,,,,,,,,,,,,,,,,,,,,,,,,,,,,,,,,,,,,,,,,,,,,,,,,,,,,,,,,,B,X,N,o2_image,stimuli/out2.png,stimuli/out1.png,stimuli/correct_out2.png,,,,,,0,1,1,23,1,,,,,,,,,,,,,,,,,,,,,,,,,,,,
,,5f4595ac82d8061b45c2c490,26,male,2024-04-16_11h24.15.421,stockport_simplified,2022.2.4,Win32,60.24096386,661e456ee6de07e70aa9ef7b,661e51b63ca98b45e53a8629,,,,,,,,,,,,,,,,,,,,,,,,,,,,,,,,,,1226.205,1230.5277,"[7,8,6,2,4,1,3,5]","[[-0.3,0.2],[0.3,0.2]]","[[-0.125,-0.2],[0.125,-0.2]]",-0.067672625,-0.155006859,1,0,0,3.8062,o1_image,1230.535,1,1231.024,1231.024,1233.0197,,,,,,,,,,,,,,,,,,0,0,0,0,1,,,,,,,,,,,,,,,,,,,,,,,,,,,,,,,,,
,,5f4595ac82d8061b45c2c490,26,male,2024-04-16_11h24.15.421,stockport_simplified,2022.2.4,Win32,60.24096386,661e456ee6de07e70aa9ef7b,661e51b63ca98b45e53a8629,,,,,,,,,,,,,,,,,,,,,,,,,,,,,,,,,,,,,,,,,,,,,,,,,,,,,,,,,,,,,N,M,C,o1_image,stimuli/out1.png,stimuli/correct_out1.png,stimuli/out2.png,,,,,,0,2,2,48,1,,,,,,,,,,,,,,,,,,,,,,,,,,,,
,,5f4595ac82d8061b45c2c490,26,male,2024-04-16_11h24.15.421,stockport_simplified,2022.2.4,Win32,60.24096386,661e456ee6de07e70aa9ef7b,661e51b63ca98b45e53a8629,,,,,,,,,,,,,,,,,,,,,,,,,,,,,,,,,,1233.0201,1236.1029,"[7,8,6,2,4,1,3,5]","[[0.3,0.2],[-0.3,0.2]]","[[0.125,-0.2],[-0.125,-0.2]]",0.144947403,-0.166438015,1,0,0,2.566,o1_image,1236.1037,1,1236.6033,1236.6033,1238.6057,,,,,,,,,,,,,,,,,,0,0,0,0,1,,,,,,,,,,,,,,,,,,,,,,,,,,,,,,,,,
,,5f4595ac82d8061b45c2c490,26,male,2024-04-16_11h24.15.421,stockport_simplified,2022.2.4,Win32,60.24096386,661e456ee6de07e70aa9ef7b,661e51b63ca98b45e53a8629,,,,,,,,,,,,,,,,,,,,,,,,,,,,,,,,,,,,,,,,,,,,,,,,,,,,,,,,,,,,,A,Y,N,o1_image,stimuli/out1.png,stimuli/correct_out1.png,stimuli/out2.png,,,,,,0,3,3,17,1,,,,,,,,,,,,,,,,,,,,,,,,,,,,
,,5f4595ac82d8061b45c2c490,26,male,2024-04-16_11h24.15.421,stockport_simplified,2022.2.4,Win32,60.24096386,661e456ee6de07e70aa9ef7b,661e51b63ca98b45e53a8629,,,,,,,,,,,,,,,,,,,,,,,,,,,,,,,,,,1238.6061,1239.9263,"[7,8,6,2,4,1,3,5]","[[0.3,0.2],[-0.3,0.2]]","[[0.125,-0.2],[-0.125,-0.2]]",0.166666667,-0.16872428,1,0,0,0.8073,o1_image,1239.9274,0,1240.4193,1240.4193,1242.7443,,,,,,,,,,,,,,,,,,0,0,0,0,1,,,,,,,,,,,,,,,,,,,,,,,,,,,,,,,,,
