counterbalance_2.started,counterbalance_2.stopped,participant,age,gender,date,expName,psychopyVersion,OS,frameRate,STUDY_ID,SESSION_ID,information_2.started,information_2.stopped,information_loop.thisRepN,information_loop.thisTrialN,information_loop.thisN,information_loop.thisIndex,information_loop.ran,information,consent_2.started,consent_2.stopped,slider_1.response,slider_2.response,slider_3.response,slider_4.response,slider_5.response,slider_6.response,instructions.started,instructions.stopped,task1_instr.thisRepN,task1_instr.thisTrialN,task1_instr.thisN,task1_instr.thisIndex,task1_instr.ran,task1,comprehension1_2.started,comprehension1_2.stopped,comp1_mouse.x,comp1_mouse.y,comp1_mouse.leftButton,comp1_mouse.midButton,comp1_mouse.rightButton,comp1_mouse.time,comp1_mouse.clicked_name,cue_o__trial_2.started,cue_o__trial_2.stopped,order,cue_order,out_order,cue_o_mouse.x,cue_o_mouse.y,cue_o_mouse.leftButton,cue_o_mouse.midButton,cue_o_mouse.rightButton,cue_o_mouse.time,cue_o_mouse.clicked_name,cue_selection_2.started,correct_answer,cue_selection_2.stopped,feedback_2.started,feedback_2.stopped,feedback_loop.thisRepN,feedback_loop.thisTrialN,feedback_loop.thisN,feedback_loop.thisIndex,feedback_loop.ran,stage1_trials.thisRepN,stage1_trials.thisTrialN,stage1_trials.thisN,stage1_trials.thisIndex,stage1_trials.ran,cue1,cue2,cue3,outcome,correct_out,o1_feedback,o2_feedback,stage2_feedback_loop.thisRepN,stage2_feedback_loop.thisTrialN,stage2_feedback_loop.thisN,stage2_feedback_loop.thisIndex,stage2_feedback_loop.ran,stage2_trials.thisRepN,stage2_trials.thisTrialN,stage2_trials.thisN,stage2_trials.thisIndex,stage2_trials.ran,stage3_feedback_loop.thisRepN,stage3_feedback_loop.thisTrialN,stage3_feedback_loop.thisN,stage3_feedback_loop.thisIndex,stage3_feedback_loop.ran,stage3_trials.thisRepN,stage3_trials.thisTrialN,stage3_trials.thisN,stage3_trials.thisIndex,stage3_trials.ran,debrief_2.started,debrief_2.stopped,debrief_loop.thisRepN,debrief_loop.thisTrialN,debrief_loop.thisN,debrief_loop.thisIndex,debrief_loop.ran,debrief_img,compr1_completed.thisRepN,compr1_completed.thisTrialN,compr1_completed.thisN,compr1_completed.thisIndex,compr1_completed.ran,consent_loop.thisRepN,consent_loop.thisTrialN,consent_loop.thisN,consent_loop.thisIndex,consent_loop.ran
0.000200001,0.0005,5cdeaeb3557fbd00018a2c59,27,female,2024-04-24_12h32.58.411,stockport_simplified,2022.2.4,Win32,59.88023952,661e456ee6de07e70aa9ef7b,6628df88863cc09001a89a5e,,,,,,,,,,,,,,,,,,,,,,,,,,,,,,,,,,,,,,,,,,,,,,,,,,,,,,,,,,,,,,,,,,,,,,,,,,,,,,,,,,,,,,,,,,,,,,,,,,,,,,,,,
,,5cdeaeb3557fbd00018a2c59,27,female,2024-04-24_12h32.58.411,stockport_simplified,2022.2.4,Win32,59.88023952,661e456ee6de07e70aa9ef7b,6628df88863cc09001a89a5e,0.0166,27.8242,0,0,0,0,1,instructions/info1.png,,,,,,,,,,,,,,,,,,,,,,,,,,,,,,,,,,,,,,,,,,,,,,,,,,,,,,,,,,,,,,,,,,,,,,,,,,,,,,,,,,,,,,,,,,,,,,,,,
,,5cdeaeb3557fbd00018a2c59,27,female,2024-04-24_12h32.58.411,stockport_simplified,2022.2.4,Win32,59.88023952,661e456ee6de07e70aa9ef7b,6628df88863cc09001a89a5e,27.8259,57.7156,0,1,1,1,1,instructions/info2.png,,,,,,,,,,,,,,,,,,,,,,,,,,,,,,,,,,,,,,,,,,,,,,,,,,,,,,,,,,,,,,,,,,,,,,,,,,,,,,,,,,,,,,,,,,,,,,,,,
,,5cdeaeb3557fbd00018a2c59,27,female,2024-04-24_12h32.58.411,stockport_simplified,2022.2.4,Win32,59.88023952,661e456ee6de07e70aa9ef7b,6628df88863cc09001a89a5e,57.7509,73.7652,0,2,2,2,1,instructions/info3.png,,,,,,,,,,,,,,,,,,,,,,,,,,,,,,,,,,,,,,,,,,,,,,,,,,,,,,,,,,,,,,,,,,,,,,,,,,,,,,,,,,,,,,,,,,,,,,,,,
,,5cdeaeb3557fbd00018a2c59,27,female,2024-04-24_12h32.58.411,stockport_simplified,2022.2.4,Win32,59.88023952,661e456ee6de07e70aa9ef7b,6628df88863cc09001a89a5e,,,,,,,,,73.7766,88.3092,1,1,1,1,1,1,,,,,,,,,,,,,,,,,,,,,,,,,,,,,,,,,,,,,,,,,,,,,,,,,,,,,,,,,,,,,,,,,,,,,,,,,,,,,,,,,,,,,,,,,
,,5cdeaeb3557fbd00018a2c59,27,female,2024-04-24_12h32.58.411,stockport_simplified,2022.2.4,Win32,59.88023952,661e456ee6de07e70aa9ef7b,6628df88863cc09001a89a5e,,,,,,,,,,,,,,,,,88.3263,102.67,0,0,0,0,1,instructions/task1_1.png,,,,,,,,,,,,,,,,,,,,,,,,,,,,,,,,,,,,,,,,,,,,,,,,,,,,,,,,,,,,,,,,,,,,,,,,,,,,,,,,,
,,5cdeaeb3557fbd00018a2c59,27,female,2024-04-24_12h32.58.411,stockport_simplified,2022.2.4,Win32,59.88023952,661e456ee6de07e70aa9ef7b,6628df88863cc09001a89a5e,,,,,,,,,,,,,,,,,102.7149,115.6401,0,1,1,1,1,instructions/task1_2.png,,,,,,,,,,,,,,,,,,,,,,,,,,,,,,,,,,,,,,,,,,,,,,,,,,,,,,,,,,,,,,,,,,,,,,,,,,,,,,,,,
,,5cdeaeb3557fbd00018a2c59,27,female,2024-04-24_12h32.58.411,stockport_simplified,2022.2.4,Win32,59.88023952,661e456ee6de07e70aa9ef7b,6628df88863cc09001a89a5e,,,,,,,,,,,,,,,,,115.6802,131.3101,0,2,2,2,1,instructions/task1_3.png,,,,,,,,,,,,,,,,,,,,,,,,,,,,,,,,,,,,,,,,,,,,,,,,,,,,,,,,,,,,,,,,,,,,,,,,,,,,,,,,,
,,5cdeaeb3557fbd00018a2c59,27,female,2024-04-24_12h32.58.411,stockport_simplified,2022.2.4,Win32,59.88023952,661e456ee6de07e70aa9ef7b,6628df88863cc09001a89a5e,,,,,,,,,,,,,,,,,,,,,,,,,131.3138,149.4268,0.053703732,-0.328703704,1,0,0,18.1113,comp1_resp1,149.468,151.8658,"[5,8,7,3,1,2,6,4]","[[0.3,0.2],[-0.3,0.2]]","[[-0.125,-0.2],[0.125,-0.2]]",-0.118518476,-0.220370399,1,0,0,1.8827,o1_image,151.8679,0,152.3644,152.3653,154.3625,0,0,0,0,1,,,,,,,,,,,,,,,,,,,,,,,,,,,,,,,,,,,,,,,,,,,,,,,,,,
,,5cdeaeb3557fbd00018a2c59,27,female,2024-04-24_12h32.58.411,stockport_simplified,2022.2.4,Win32,59.88023952,661e456ee6de07e70aa9ef7b,6628df88863cc09001a89a5e,,,,,,,,,,,,,,,,,,,,,,,,,,,,,,,,,,,,,,,,,,,,,,,,,,,,,,,,0,0,0,40,1,B,X,N,o2_image,stimuli/out2.png,stimuli/out1.png,stimuli/correct_out2.png,,,,,,,,,,,,,,,,,,,,,,,,,,,,,,,,,,,,,,
,,5cdeaeb3557fbd00018a2c59,27,female,2024-04-24_12h32.58.411,stockport_simplified,2022.2.4,Win32,59.88023952,661e456ee6de07e70aa9ef7b,6628df88863cc09001a89a5e,,,,,,,,,,,,,,,,,,,,,,,,,,,,,,,,,,154.3644,156.5817,"[5,8,7,3,1,2,6,4]","[[-0.3,0.2],[0.3,0.2]]","[[-0.125,-0.2],[0.125,-0.2]]",0.108333376,-0.199999986,1,0,0,1.7014,o2_image,156.5844,1,157.0768,157.077,159.0822,0,0,0,0,1,,,,,,,,,,,,,,,,,,,,,,,,,,,,,,,,,,,,,,,,,,,,,,,,,,
,,5cdeaeb3557fbd00018a2c59,27,female,2024-04-24_12h32.58.411,stockport_simplified,2022.2.4,Win32,59.88023952,661e456ee6de07e70aa9ef7b,6628df88863cc09001a89a5e,,,,,,,,,,,,,,,,,,,,,,,,,,,,,,,,,,,,,,,,,,,,,,,,,,,,,,,,0,1,1,48,1,B,Y,N,o2_image,stimuli/out2.png,stimuli/out1.png,stimuli/correct_out2.png,,,,,,,,,,,,,,,,,,,,,,,,,,,,,,,,,,,,,,
,,5cdeaeb3557fbd00018a2c59,27,female,2024-04-24_12h32.58.411,stockport_simplified,2022.2.4,Win32,59.88023952,661e456ee6de07e70aa9ef7b,6628df88863cc09001a89a5e,,,,,,,,,,,,,,,,,,,,,,,,,,,,,,,,,,159.085,161.0219,"[5,8,7,3,1,2,6,4]","[[0.3,0.2],[-0.3,0.2]]","[[0.125,-0.2],[-0.125,-0.2]]",0.103703746,-0.205555598,1,0,0,1.4291,o1_image,161.0226,1,161.5225,161.5227,163.5222,0,0,0,0,1,,,,,,,,,,,,,,,,,,,,,,,,,,,,,,,,,,,,,,,,,,,,,,,,,,
,,5cdeaeb3557fbd00018a2c59,27,female,2024-04-24_12h32.58.411,stockport_simplified,2022.2.4,Win32,59.88023952,661e456ee6de07e70aa9ef7b,6628df88863cc09001a89a5e,,,,,,,,,,,,,,,,,,,,,,,,,,,,,,,,,,,,,,,,,,,,,,,,,,,,,,,,0,2,2,38,1,A,Y,N,o1_image,stimuli/out1.png,stimuli/correct_out1.png,stimuli/out2.png,,,,,,,,,,,,,,,,,,,,,,,,,,,,,,,,,,,,,,
,,5cdeaeb3557fbd00018a2c59,27,female,2024-04-24_12h32.58.411,stockport_simplified,2022.2.4,Win32,59.88023952,661e456ee6de07e70aa9ef7b,6628df88863cc09001a89a5e,,,,,,,,,,,,,,,,,,,,,,,,,,,,,,,,,,163.5235,165.6177,"[5,8,7,3,1,2,6,4]","[[-0.3,0.2],[0.3,0.2]]","[[-0.125,-0.2],[0.125,-0.2]]",-0.093518504,-0.211111139,1,0,0,1.5773,o1_image,165.6183,1,166.1223,166.1223,168.1174,0,0,0,0,1,,,,,,,,,,,,,,,,,,,,,,,,,,,,,,,,,,,,,,,,,,,,,,,,,,
,,5cdeaeb3557fbd00018a2c59,27,female,2024-04-24_12h32.58.411,stockport_simplified,2022.2.4,Win32,59.88023952,661e456ee6de07e70aa9ef7b,6628df88863cc09001a89a5e,,,,,,,,,,,,,,,,,,,,,,,,,,,,,,,,,,,,,,,,,,,,,,,,,,,,,,,,0,3,3,20,1,N,M,C,o1_image,stimuli/out1.png,stimuli/correct_out1.png,stimuli/out2.png,,,,,,,,,,,,,,,,,,,,,,,,,,,,,,,,,,,,,,
,,5cdeaeb3557fbd00018a2c59,27,female,2024-04-24_12h32.58.411,stockport_simplified,2022.2.4,Win32,59.88023952,661e456ee6de07e70aa9ef7b,6628df88863cc09001a89a5e,,,,,,,,,,,,,,,,,,,,,,,,,,,,,,,,,,168.1198,169.9493,"[5,8,7,3,1,2,6,4]","[[0.3,0.2],[-0.3,0.2]]","[[0.125,-0.2],[-0.125,-0.2]]",-0.087037051,-0.211111139,1,0,0,1.3147,o2_image,169.9517,0,170.4483,170.4485,172.4533,0,0,0,0,1,,,,,,,,,,,,,,,,,,,,,,,,,,,,,,,,,,,,,,,,,,,,,,,,,,
,,5cdeaeb3557fbd00018a2c59,27,female,2024-04-24_12h32.58.411,stockport_simplified,2022.2.4,Win32,59.88023952,661e456ee6de07e70aa9ef7b,6628df88863cc09001a89a5e,,,,,,,,,,,,,,,,,,,,,,,,,,,,,,,,,,,,,,,,,,,,,,,,,,,,,,,,0,4,4,4,1,A,X,N,o1_image,stimuli/out1.png,stimuli/correct_out1.png,stimuli/out2.png,,,,,,,,,,,,,,,,,,,,,,,,,,,,,,,,,,,,,,
,,5cdeaeb3557fbd00018a2c59,27,female,2024-04-24_12h32.58.411,stockport_simplified,2022.2.4,Win32,59.88023952,661e456ee6de07e70aa9ef7b,6628df88863cc09001a89a5e,,,,,,,,,,,,,,,,,,,,,,,,,,,,,,,,,,172.4547,173.9341,"[5,8,7,3,1,2,6,4]","[[0.3,0.2],[-0.3,0.2]]","[[0.125,-0.2],[-0.125,-0.2]]",0.111111111,-0.217592593,1,0,0,0.972099999,o1_image,173.9373,1,174.4281,174.4283,176.4315,0,0,0,0,1,,,,,,,,,,,,,,,,,,,,,,,,,,,,,,,,,,,,,,,,,,,,,,,,,,
,,5cdeaeb3557fbd00018a2c59,27,female,2024-04-24_12h32.58.411,stockport_simplified,2022.2.4,Win32,59.88023952,661e456ee6de07e70aa9ef7b,6628df88863cc09001a89a5e,,,,,,,,,,,,,,,,,,,,,,,,,,,,,,,,,,,,,,,,,,,,,,,,,,,,,,,,0,5,5,34,1,A,X,N,o1_image,stimuli/out1.png,stimuli/correct_out1.png,stimuli/out2.png,,,,,,,,,,,,,,,,,,,,,,,,,,,,,,,,,,,,,,
,,5cdeaeb3557fbd00018a2c59,27,female,2024-04-24_12h32.58.411,stockport_simplified,2022.2.4,Win32,59.88023952,661e456ee6de07e70aa9ef7b,6628df88863cc09001a89a5e,,,,,,,,,,,,,,,,,,,,,,,,,,,,,,,,,,176.4321,178.3267,"[5,8,7,3,1,2,6,4]","[[-0.3,0.2],[0.3,0.2]]","[[-0.125,-0.2],[0.125,-0.2]]",0.09629631,-0.217592593,1,0,0,1.375700001,o2_image,178.3295,0,178.825,178.8251,180.8221,0,0,0,0,1,,,,,,,,,,,,,,,,,,,,,,,,,,,,,,,,,,,,,,,,,,,,,,,,,,
,,5cdeaeb3557fbd00018a2c59,27,female,2024-04-24_12h32.58.411,stockport_simplified,2022.2.4,Win32,59.88023952,661e456ee6de07e70aa9ef7b,6628df88863cc09001a89a5e,,,,,,,,,,,,,,,,,,,,,,,,,,,,,,,,,,,,,,,,,,,,,,,,,,,,,,,,0,6,6,53,1,N,M,C,o1_image,stimuli/out1.png,stimuli/correct_out1.png,stimuli/out2.png,,,,,,,,,,,,,,,,,,,,,,,,,,,,,,,,,,,,,,
,,5cdeaeb3557fbd00018a2c59,27,female,2024-04-24_12h32.58.411,stockport_simplified,2022.2.4,Win32,59.88023952,661e456ee6de07e70aa9ef7b,6628df88863cc09001a89a5e,,,,,,,,,,,,,,,,,,,,,,,,,,,,,,,,,,180.8241,183.5759,"[5,8,7,3,1,2,6,4]","[[0.3,0.2],[-0.3,0.2]]","[[0.125,-0.2],[-0.125,-0.2]]",-0.084259245,-0.217592593,1,0,0,2.2329,o2_image,183.6092,0,184.1036,184.1038,186.1083,0,0,0,0,1,,,,,,,,,,,,,,,,,,,,,,,,,,,,,,,,,,,,,,,,,,,,,,,,,,
,,5cdeaeb3557fbd00018a2c59,27,female,2024-04-24_12h32.58.411,stockport_simplified,2022.2.4,Win32,59.88023952,661e456ee6de07e70aa9ef7b,6628df88863cc09001a89a5e,,,,,,,,,,,,,,,,,,,,,,,,,,,,,,,,,,,,,,,,,,,,,,,,,,,,,,,,0,7,7,5,1,A,Y,N,o1_image,stimuli/out1.png,stimuli/correct_out1.png,stimuli/out2.png,,,,,,,,,,,,,,,,,,,,,,,,,,,,,,,,,,,,,,
,,5cdeaeb3557fbd00018a2c59,27,female,2024-04-24_12h32.58.411,stockport_simplified,2022.2.4,Win32,59.88023952,661e456ee6de07e70aa9ef7b,6628df88863cc09001a89a5e,,,,,,,,,,,,,,,,,,,,,,,,,,,,,,,,,,186.1101,187.9829,"[5,8,7,3,1,2,6,4]","[[-0.3,0.2],[0.3,0.2]]","[[0.125,-0.2],[-0.125,-0.2]]",-0.087037051,-0.209259245,1,0,0,1.361599999,o2_image,187.9856,1,188.4829,188.483,190.4801,0,0,0,0,1,,,,,,,,,,,,,,,,,,,,,,,,,,,,,,,,,,,,,,,,,,,,,,,,,,
,,5cdeaeb3557fbd00018a2c59,27,female,2024-04-24_12h32.58.411,stockport_simplified,2022.2.4,Win32,59.88023952,661e456ee6de07e70aa9ef7b,6628df88863cc09001a89a5e,,,,,,,,,,,,,,,,,,,,,,,,,,,,,,,,,,,,,,,,,,,,,,,,,,,,,,,,0,8,8,27,1,N,M,D,o2_image,stimuli/out2.png,stimuli/out1.png,stimuli/correct_out2.png,,,,,,,,,,,,,,,,,,,,,,,,,,,,,,,,,,,,,,
,,5cdeaeb3557fbd00018a2c59,27,female,2024-04-24_12h32.58.411,stockport_simplified,2022.2.4,Win32,59.88023952,661e456ee6de07e70aa9ef7b,6628df88863cc09001a89a5e,,,,,,,,,,,,,,,,,,,,,,,,,,,,,,,,,,190.4817,192.8447,"[5,8,7,3,1,2,6,4]","[[0.3,0.2],[-0.3,0.2]]","[[-0.125,-0.2],[0.125,-0.2]]",-0.106481481,-0.202777792,1,0,0,1.8457,o1_image,192.8465,1,193.3448,193.345,195.3434,0,0,0,0,1,,,,,,,,,,,,,,,,,,,,,,,,,,,,,,,,,,,,,,,,,,,,,,,,,,
,,5cdeaeb3557fbd00018a2c59,27,female,2024-04-24_12h32.58.411,stockport_simplified,2022.2.4,Win32,59.88023952,661e456ee6de07e70aa9ef7b,6628df88863cc09001a89a5e,,,,,,,,,,,,,,,,,,,,,,,,,,,,,,,,,,,,,,,,,,,,,,,,,,,,,,,,0,9,9,36,1,A,Y,N,o1_image,stimuli/out1.png,stimuli/correct_out1.png,stimuli/out2.png,,,,,,,,,,,,,,,,,,,,,,,,,,,,,,,,,,,,,,
,,5cdeaeb3557fbd00018a2c59,27,female,2024-04-24_12h32.58.411,stockport_simplified,2022.2.4,Win32,59.88023952,661e456ee6de07e70aa9ef7b,6628df88863cc09001a89a5e,,,,,,,,,,,,,,,,,,,,,,,,,,,,,,,,,,195.3448,197.2758,"[5,8,7,3,1,2,6,4]","[[0.3,0.2],[-0.3,0.2]]","[[-0.125,-0.2],[0.125,-0.2]]",0.097222222,-0.205555598,1,0,0,1.4122,o2_image,197.2789,1,197.7741,197.7743,199.7717,0,0,0,0,1,,,,,,,,,,,,,,,,,,,,,,,,,,,,,,,,,,,,,,,,,,,,,,,,,,
,,5cdeaeb3557fbd00018a2c59,27,female,2024-04-24_12h32.58.411,stockport_simplified,2022.2.4,Win32,59.88023952,661e456ee6de07e70aa9ef7b,6628df88863cc09001a89a5e,,,,,,,,,,,,,,,,,,,,,,,,,,,,,,,,,,,,,,,,,,,,,,,,,,,,,,,,0,10,10,12,1,B,X,N,o2_image,stimuli/out2.png,stimuli/out1.png,stimuli/correct_out2.png,,,,,,,,,,,,,,,,,,,,,,,,,,,,,,,,,,,,,,
,,5cdeaeb3557fbd00018a2c59,27,female,2024-04-24_12h32.58.411,stockport_simplified,2022.2.4,Win32,59.88023952,661e456ee6de07e70aa9ef7b,6628df88863cc09001a89a5e,,,,,,,,,,,,,,,,,,,,,,,,,,,,,,,,,,199.7728,201.8929,"[5,8,7,3,1,2,6,4]","[[-0.3,0.2],[0.3,0.2]]","[[0.125,-0.2],[-0.125,-0.2]]",0.141666695,-0.203703704,1,0,0,1.6027,o1_image,201.894,0,202.3932,202.3933,204.39,0,0,0,0,1,,,,,,,,,,,,,,,,,,,,,,,,,,,,,,,,,,,,,,,,,,,,,,,,,,
,,5cdeaeb3557fbd00018a2c59,27,female,2024-04-24_12h32.58.411,stockport_simplified,2022.2.4,Win32,59.88023952,661e456ee6de07e70aa9ef7b,6628df88863cc09001a89a5e,,,,,,,,,,,,,,,,,,,,,,,,,,,,,,,,,,,,,,,,,,,,,,,,,,,,,,,,0,11,11,16,1,B,Y,N,o2_image,stimuli/out2.png,stimuli/out1.png,stimuli/correct_out2.png,,,,,,,,,,,,,,,,,,,,,,,,,,,,,,,,,,,,,,
,,5cdeaeb3557fbd00018a2c59,27,female,2024-04-24_12h32.58.411,stockport_simplified,2022.2.4,Win32,59.88023952,661e456ee6de07e70aa9ef7b,6628df88863cc09001a89a5e,,,,,,,,,,,,,,,,,,,,,,,,,,,,,,,,,,204.3908,206.403,"[5,8,7,3,1,2,6,4]","[[-0.3,0.2],[0.3,0.2]]","[[-0.125,-0.2],[0.125,-0.2]]",0.110185199,-0.202777792,1,0,0,1.4992,o2_image,206.4045,1,206.8997,206.8998,208.8972,0,0,0,0,1,,,,,,,,,,,,,,,,,,,,,,,,,,,,,,,,,,,,,,,,,,,,,,,,,,
,,5cdeaeb3557fbd00018a2c59,27,female,2024-04-24_12h32.58.411,stockport_simplified,2022.2.4,Win32,59.88023952,661e456ee6de07e70aa9ef7b,6628df88863cc09001a89a5e,,,,,,,,,,,,,,,,,,,,,,,,,,,,,,,,,,,,,,,,,,,,,,,,,,,,,,,,0,12,12,26,1,N,M,D,o2_image,stimuli/out2.png,stimuli/out1.png,stimuli/correct_out2.png,,,,,,,,,,,,,,,,,,,,,,,,,,,,,,,,,,,,,,
,,5cdeaeb3557fbd00018a2c59,27,female,2024-04-24_12h32.58.411,stockport_simplified,2022.2.4,Win32,59.88023952,661e456ee6de07e70aa9ef7b,6628df88863cc09001a89a5e,,,,,,,,,,,,,,,,,,,,,,,,,,,,,,,,,,208.8982,210.9958,"[5,8,7,3,1,2,6,4]","[[-0.3,0.2],[0.3,0.2]]","[[0.125,-0.2],[-0.125,-0.2]]",0.107407393,-0.205555598,1,0,0,1.5785,o1_image,210.9973,1,211.4956,211.4957,213.4933,0,0,0,0,1,,,,,,,,,,,,,,,,,,,,,,,,,,,,,,,,,,,,,,,,,,,,,,,,,,
,,5cdeaeb3557fbd00018a2c59,27,female,2024-04-24_12h32.58.411,stockport_simplified,2022.2.4,Win32,59.88023952,661e456ee6de07e70aa9ef7b,6628df88863cc09001a89a5e,,,,,,,,,,,,,,,,,,,,,,,,,,,,,,,,,,,,,,,,,,,,,,,,,,,,,,,,0,13,13,35,1,A,Y,N,o1_image,stimuli/out1.png,stimuli/correct_out1.png,stimuli/out2.png,,,,,,,,,,,,,,,,,,,,,,,,,,,,,,,,,,,,,,
,,5cdeaeb3557fbd00018a2c59,27,female,2024-04-24_12h32.58.411,stockport_simplified,2022.2.4,Win32,59.88023952,661e456ee6de07e70aa9ef7b,6628df88863cc09001a89a5e,,,,,,,,,,,,,,,,,,,,,,,,,,,,,,,,,,213.4946,215.2652,"[5,8,7,3,1,2,6,4]","[[0.3,0.2],[-0.3,0.2]]","[[-0.125,-0.2],[0.125,-0.2]]",-0.079629616,-0.200925968,1,0,0,1.2487,o1_image,215.2663,1,215.7585,215.7586,217.7565,0,0,0,0,1,,,,,,,,,,,,,,,,,,,,,,,,,,,,,,,,,,,,,,,,,,,,,,,,,,
,,5cdeaeb3557fbd00018a2c59,27,female,2024-04-24_12h32.58.411,stockport_simplified,2022.2.4,Win32,59.88023952,661e456ee6de07e70aa9ef7b,6628df88863cc09001a89a5e,,,,,,,,,,,,,,,,,,,,,,,,,,,,,,,,,,,,,,,,,,,,,,,,,,,,,,,,0,14,14,39,1,A,Y,N,o1_image,stimuli/out1.png,stimuli/correct_out1.png,stimuli/out2.png,,,,,,,,,,,,,,,,,,,,,,,,,,,,,,,,,,,,,,
,,5cdeaeb3557fbd00018a2c59,27,female,2024-04-24_12h32.58.411,stockport_simplified,2022.2.4,Win32,59.88023952,661e456ee6de07e70aa9ef7b,6628df88863cc09001a89a5e,,,,,,,,,,,,,,,,,,,,,,,,,,,,,,,,,,217.7572,219.4448,"[5,8,7,3,1,2,6,4]","[[-0.3,0.2],[0.3,0.2]]","[[0.125,-0.2],[-0.125,-0.2]]",-0.087037051,-0.200925968,1,0,0,1.1708,o2_image,219.446,0,219.9387,219.9388,221.9373,0,0,0,0,1,,,,,,,,,,,,,,,,,,,,,,,,,,,,,,,,,,,,,,,,,,,,,,,,,,
,,5cdeaeb3557fbd00018a2c59,27,female,2024-04-24_12h32.58.411,stockport_simplified,2022.2.4,Win32,59.88023952,661e456ee6de07e70aa9ef7b,6628df88863cc09001a89a5e,,,,,,,,,,,,,,,,,,,,,,,,,,,,,,,,,,,,,,,,,,,,,,,,,,,,,,,,0,15,15,2,1,A,X,N,o1_image,stimuli/out1.png,stimuli/correct_out1.png,stimuli/out2.png,,,,,,,,,,,,,,,,,,,,,,,,,,,,,,,,,,,,,,
,,5cdeaeb3557fbd00018a2c59,27,female,2024-04-24_12h32.58.411,stockport_simplified,2022.2.4,Win32,59.88023952,661e456ee6de07e70aa9ef7b,6628df88863cc09001a89a5e,,,,,,,,,,,,,,,,,,,,,,,,,,,,,,,,,,221.9393,223.5861,"[5,8,7,3,1,2,6,4]","[[0.3,0.2],[-0.3,0.2]]","[[-0.125,-0.2],[0.125,-0.2]]",-0.087037051,-0.200925968,1,0,0,1.1303,o1_image,223.589,0,224.0846,224.0847,226.0728,0,0,0,0,1,,,,,,,,,,,,,,,,,,,,,,,,,,,,,,,,,,,,,,,,,,,,,,,,,,
,,5cdeaeb3557fbd00018a2c59,27,female,2024-04-24_12h32.58.411,stockport_simplified,2022.2.4,Win32,59.88023952,661e456ee6de07e70aa9ef7b,6628df88863cc09001a89a5e,,,,,,,,,,,,,,,,,,,,,,,,,,,,,,,,,,,,,,,,,,,,,,,,,,,,,,,,0,16,16,49,1,B,Y,N,o2_image,stimuli/out2.png,stimuli/out1.png,stimuli/correct_out2.png,,,,,,,,,,,,,,,,,,,,,,,,,,,,,,,,,,,,,,
,,5cdeaeb3557fbd00018a2c59,27,female,2024-04-24_12h32.58.411,stockport_simplified,2022.2.4,Win32,59.88023952,661e456ee6de07e70aa9ef7b,6628df88863cc09001a89a5e,,,,,,,,,,,,,,,,,,,,,,,,,,,,,,,,,,226.0745,228.3639,"[5,8,7,3,1,2,6,4]","[[0.3,0.2],[-0.3,0.2]]","[[-0.125,-0.2],[0.125,-0.2]]",0.10092594,-0.214814857,1,0,0,1.773200001,o2_image,228.3655,0,228.8688,228.8689,230.8618,0,0,0,0,1,,,,,,,,,,,,,,,,,,,,,,,,,,,,,,,,,,,,,,,,,,,,,,,,,,
,,5cdeaeb3557fbd00018a2c59,27,female,2024-04-24_12h32.58.411,stockport_simplified,2022.2.4,Win32,59.88023952,661e456ee6de07e70aa9ef7b,6628df88863cc09001a89a5e,,,,,,,,,,,,,,,,,,,,,,,,,,,,,,,,,,,,,,,,,,,,,,,,,,,,,,,,0,17,17,22,1,N,M,C,o1_image,stimuli/out1.png,stimuli/correct_out1.png,stimuli/out2.png,,,,,,,,,,,,,,,,,,,,,,,,,,,,,,,,,,,,,,
,,5cdeaeb3557fbd00018a2c59,27,female,2024-04-24_12h32.58.411,stockport_simplified,2022.2.4,Win32,59.88023952,661e456ee6de07e70aa9ef7b,6628df88863cc09001a89a5e,,,,,,,,,,,,,,,,,,,,,,,,,,,,,,,,,,230.8632,233.2097,"[5,8,7,3,1,2,6,4]","[[-0.3,0.2],[0.3,0.2]]","[[-0.125,-0.2],[0.125,-0.2]]",0.061111097,-0.212962963,1,0,0,1.8296,o2_image,233.2117,0,233.7093,233.7096,235.7076,0,0,0,0,1,,,,,,,,,,,,,,,,,,,,,,,,,,,,,,,,,,,,,,,,,,,,,,,,,,
,,5cdeaeb3557fbd00018a2c59,27,female,2024-04-24_12h32.58.411,stockport_simplified,2022.2.4,Win32,59.88023952,661e456ee6de07e70aa9ef7b,6628df88863cc09001a89a5e,,,,,,,,,,,,,,,,,,,,,,,,,,,,,,,,,,,,,,,,,,,,,,,,,,,,,,,,0,18,18,31,1,A,X,N,o1_image,stimuli/out1.png,stimuli/correct_out1.png,stimuli/out2.png,,,,,,,,,,,,,,,,,,,,,,,,,,,,,,,,,,,,,,
,,5cdeaeb3557fbd00018a2c59,27,female,2024-04-24_12h32.58.411,stockport_simplified,2022.2.4,Win32,59.88023952,661e456ee6de07e70aa9ef7b,6628df88863cc09001a89a5e,,,,,,,,,,,,,,,,,,,,,,,,,,,,,,,,,,235.7095,237.498,"[5,8,7,3,1,2,6,4]","[[-0.3,0.2],[0.3,0.2]]","[[0.125,-0.2],[-0.125,-0.2]]",-0.125925912,-0.20648151,1,0,0,1.272599999,o2_image,237.5004,1,237.9894,237.9894,239.9873,0,0,0,0,1,,,,,,,,,,,,,,,,,,,,,,,,,,,,,,,,,,,,,,,,,,,,,,,,,,
,,5cdeaeb3557fbd00018a2c59,27,female,2024-04-24_12h32.58.411,stockport_simplified,2022.2.4,Win32,59.88023952,661e456ee6de07e70aa9ef7b,6628df88863cc09001a89a5e,,,,,,,,,,,,,,,,,,,,,,,,,,,,,,,,,,,,,,,,,,,,,,,,,,,,,,,,0,19,19,14,1,B,X,N,o2_image,stimuli/out2.png,stimuli/out1.png,stimuli/correct_out2.png,,,,,,,,,,,,,,,,,,,,,,,,,,,,,,,,,,,,,,
,,5cdeaeb3557fbd00018a2c59,27,female,2024-04-24_12h32.58.411,stockport_simplified,2022.2.4,Win32,59.88023952,661e456ee6de07e70aa9ef7b,6628df88863cc09001a89a5e,,,,,,,,,,,,,,,,,,,,,,,,,,,,,,,,,,239.9891,241.5859,"[5,8,7,3,1,2,6,4]","[[0.3,0.2],[-0.3,0.2]]","[[-0.125,-0.2],[0.125,-0.2]]",-0.099074046,-0.207407422,1,0,0,1.0778,o1_image,241.5875,1,242.0855,242.0855,244.0832,0,0,0,0,1,,,,,,,,,,,,,,,,,,,,,,,,,,,,,,,,,,,,,,,,,,,,,,,,,,
,,5cdeaeb3557fbd00018a2c59,27,female,2024-04-24_12h32.58.411,stockport_simplified,2022.2.4,Win32,59.88023952,661e456ee6de07e70aa9ef7b,6628df88863cc09001a89a5e,,,,,,,,,,,,,,,,,,,,,,,,,,,,,,,,,,,,,,,,,,,,,,,,,,,,,,,,0,20,20,50,1,N,M,C,o1_image,stimuli/out1.png,stimuli/correct_out1.png,stimuli/out2.png,,,,,,,,,,,,,,,,,,,,,,,,,,,,,,,,,,,,,,
,,5cdeaeb3557fbd00018a2c59,27,female,2024-04-24_12h32.58.411,stockport_simplified,2022.2.4,Win32,59.88023952,661e456ee6de07e70aa9ef7b,6628df88863cc09001a89a5e,,,,,,,,,,,,,,,,,,,,,,,,,,,,,,,,,,244.0843,245.8213,"[5,8,7,3,1,2,6,4]","[[0.3,0.2],[-0.3,0.2]]","[[-0.125,-0.2],[0.125,-0.2]]",-0.102777764,-0.207407422,1,0,0,1.2301,o1_image,245.8222,0,246.3151,246.3153,248.3123,0,0,0,0,1,,,,,,,,,,,,,,,,,,,,,,,,,,,,,,,,,,,,,,,,,,,,,,,,,,
,,5cdeaeb3557fbd00018a2c59,27,female,2024-04-24_12h32.58.411,stockport_simplified,2022.2.4,Win32,59.88023952,661e456ee6de07e70aa9ef7b,6628df88863cc09001a89a5e,,,,,,,,,,,,,,,,,,,,,,,,,,,,,,,,,,,,,,,,,,,,,,,,,,,,,,,,0,21,21,45,1,B,Y,N,o2_image,stimuli/out2.png,stimuli/out1.png,stimuli/correct_out2.png,,,,,,,,,,,,,,,,,,,,,,,,,,,,,,,,,,,,,,
,,5cdeaeb3557fbd00018a2c59,27,female,2024-04-24_12h32.58.411,stockport_simplified,2022.2.4,Win32,59.88023952,661e456ee6de07e70aa9ef7b,6628df88863cc09001a89a5e,,,,,,,,,,,,,,,,,,,,,,,,,,,,,,,,,,248.3129,250.0609,"[5,8,7,3,1,2,6,4]","[[-0.3,0.2],[0.3,0.2]]","[[0.125,-0.2],[-0.125,-0.2]]",-0.09629631,-0.207407422,1,0,0,1.2299,o2_image,250.0618,1,250.5607,250.5608,252.5596,0,0,0,0,1,,,,,,,,,,,,,,,,,,,,,,,,,,,,,,,,,,,,,,,,,,,,,,,,,,
,,5cdeaeb3557fbd00018a2c59,27,female,2024-04-24_12h32.58.411,stockport_simplified,2022.2.4,Win32,59.88023952,661e456ee6de07e70aa9ef7b,6628df88863cc09001a89a5e,,,,,,,,,,,,,,,,,,,,,,,,,,,,,,,,,,,,,,,,,,,,,,,,,,,,,,,,0,22,22,57,1,N,M,D,o2_image,stimuli/out2.png,stimuli/out1.png,stimuli/correct_out2.png,,,,,,,,,,,,,,,,,,,,,,,,,,,,,,,,,,,,,,
,,5cdeaeb3557fbd00018a2c59,27,female,2024-04-24_12h32.58.411,stockport_simplified,2022.2.4,Win32,59.88023952,661e456ee6de07e70aa9ef7b,6628df88863cc09001a89a5e,,,,,,,,,,,,,,,,,,,,,,,,,,,,,,,,,,252.5612,254.2409,"[5,8,7,3,1,2,6,4]","[[0.3,0.2],[-0.3,0.2]]","[[-0.125,-0.2],[0.125,-0.2]]",0.094444487,-0.213888875,1,0,0,1.1642,o2_image,254.2426,1,254.741,254.7412,256.7394,0,0,0,0,1,,,,,,,,,,,,,,,,,,,,,,,,,,,,,,,,,,,,,,,,,,,,,,,,,,
,,5cdeaeb3557fbd00018a2c59,27,female,2024-04-24_12h32.58.411,stockport_simplified,2022.2.4,Win32,59.88023952,661e456ee6de07e70aa9ef7b,6628df88863cc09001a89a5e,,,,,,,,,,,,,,,,,,,,,,,,,,,,,,,,,,,,,,,,,,,,,,,,,,,,,,,,0,23,23,55,1,N,M,D,o2_image,stimuli/out2.png,stimuli/out1.png,stimuli/correct_out2.png,,,,,,,,,,,,,,,,,,,,,,,,,,,,,,,,,,,,,,
,,5cdeaeb3557fbd00018a2c59,27,female,2024-04-24_12h32.58.411,stockport_simplified,2022.2.4,Win32,59.88023952,661e456ee6de07e70aa9ef7b,6628df88863cc09001a89a5e,,,,,,,,,,,,,,,,,,,,,,,,,,,,,,,,,,256.741,258.7707,"[5,8,7,3,1,2,6,4]","[[0.3,0.2],[-0.3,0.2]]","[[-0.125,-0.2],[0.125,-0.2]]",-0.087962963,-0.20648151,1,0,0,1.5131,o1_image,258.7719,1,259.2702,259.2703,261.2682,0,0,0,0,1,,,,,,,,,,,,,,,,,,,,,,,,,,,,,,,,,,,,,,,,,,,,,,,,,,
,,5cdeaeb3557fbd00018a2c59,27,female,2024-04-24_12h32.58.411,stockport_simplified,2022.2.4,Win32,59.88023952,661e456ee6de07e70aa9ef7b,6628df88863cc09001a89a5e,,,,,,,,,,,,,,,,,,,,,,,,,,,,,,,,,,,,,,,,,,,,,,,,,,,,,,,,0,24,24,33,1,A,X,N,o1_image,stimuli/out1.png,stimuli/correct_out1.png,stimuli/out2.png,,,,,,,,,,,,,,,,,,,,,,,,,,,,,,,,,,,,,,
,,5cdeaeb3557fbd00018a2c59,27,female,2024-04-24_12h32.58.411,stockport_simplified,2022.2.4,Win32,59.88023952,661e456ee6de07e70aa9ef7b,6628df88863cc09001a89a5e,,,,,,,,,,,,,,,,,,,,,,,,,,,,,,,,,,261.2692,263.2502,"[5,8,7,3,1,2,6,4]","[[-0.3,0.2],[0.3,0.2]]","[[0.125,-0.2],[-0.125,-0.2]]",0.130555541,-0.215740769,1,0,0,1.453900001,o1_image,263.2516,0,263.7511,263.7512,265.7489,0,0,0,0,1,,,,,,,,,,,,,,,,,,,,,,,,,,,,,,,,,,,,,,,,,,,,,,,,,,
,,5cdeaeb3557fbd00018a2c59,27,female,2024-04-24_12h32.58.411,stockport_simplified,2022.2.4,Win32,59.88023952,661e456ee6de07e70aa9ef7b,6628df88863cc09001a89a5e,,,,,,,,,,,,,,,,,,,,,,,,,,,,,,,,,,,,,,,,,,,,,,,,,,,,,,,,0,25,25,42,1,B,X,N,o2_image,stimuli/out2.png,stimuli/out1.png,stimuli/correct_out2.png,,,,,,,,,,,,,,,,,,,,,,,,,,,,,,,,,,,,,,
,,5cdeaeb3557fbd00018a2c59,27,female,2024-04-24_12h32.58.411,stockport_simplified,2022.2.4,Win32,59.88023952,661e456ee6de07e70aa9ef7b,6628df88863cc09001a89a5e,,,,,,,,,,,,,,,,,,,,,,,,,,,,,,,,,,265.7505,267.5859,"[5,8,7,3,1,2,6,4]","[[0.3,0.2],[-0.3,0.2]]","[[0.125,-0.2],[-0.125,-0.2]]",-0.140740712,-0.20185188,1,0,0,1.3155,o2_image,267.587,1,268.0792,268.0792,270.0782,0,0,0,0,1,,,,,,,,,,,,,,,,,,,,,,,,,,,,,,,,,,,,,,,,,,,,,,,,,,
,,5cdeaeb3557fbd00018a2c59,27,female,2024-04-24_12h32.58.411,stockport_simplified,2022.2.4,Win32,59.88023952,661e456ee6de07e70aa9ef7b,6628df88863cc09001a89a5e,,,,,,,,,,,,,,,,,,,,,,,,,,,,,,,,,,,,,,,,,,,,,,,,,,,,,,,,0,26,26,43,1,B,X,N,o2_image,stimuli/out2.png,stimuli/out1.png,stimuli/correct_out2.png,,,,,,,,,,,,,,,,,,,,,,,,,,,,,,,,,,,,,,
,,5cdeaeb3557fbd00018a2c59,27,female,2024-04-24_12h32.58.411,stockport_simplified,2022.2.4,Win32,59.88023952,661e456ee6de07e70aa9ef7b,6628df88863cc09001a89a5e,,,,,,,,,,,,,,,,,,,,,,,,,,,,,,,,,,270.0802,272.2911,"[5,8,7,3,1,2,6,4]","[[0.3,0.2],[-0.3,0.2]]","[[0.125,-0.2],[-0.125,-0.2]]",0.101851852,-0.211111139,1,0,0,1.6896,o1_image,272.2915,1,272.7917,272.7919,274.7897,0,0,0,0,1,,,,,,,,,,,,,,,,,,,,,,,,,,,,,,,,,,,,,,,,,,,,,,,,,,
,,5cdeaeb3557fbd00018a2c59,27,female,2024-04-24_12h32.58.411,stockport_simplified,2022.2.4,Win32,59.88023952,661e456ee6de07e70aa9ef7b,6628df88863cc09001a89a5e,,,,,,,,,,,,,,,,,,,,,,,,,,,,,,,,,,,,,,,,,,,,,,,,,,,,,,,,0,27,27,7,1,A,Y,N,o1_image,stimuli/out1.png,stimuli/correct_out1.png,stimuli/out2.png,,,,,,,,,,,,,,,,,,,,,,,,,,,,,,,,,,,,,,
,,5cdeaeb3557fbd00018a2c59,27,female,2024-04-24_12h32.58.411,stockport_simplified,2022.2.4,Win32,59.88023952,661e456ee6de07e70aa9ef7b,6628df88863cc09001a89a5e,,,,,,,,,,,,,,,,,,,,,,,,,,,,,,,,,,274.7906,276.4946,"[5,8,7,3,1,2,6,4]","[[0.3,0.2],[-0.3,0.2]]","[[-0.125,-0.2],[0.125,-0.2]]",0.173148191,-0.209259245,1,0,0,1.1875,o2_image,276.496,1,276.9883,276.9884,278.9864,0,0,0,0,1,,,,,,,,,,,,,,,,,,,,,,,,,,,,,,,,,,,,,,,,,,,,,,,,,,
,,5cdeaeb3557fbd00018a2c59,27,female,2024-04-24_12h32.58.411,stockport_simplified,2022.2.4,Win32,59.88023952,661e456ee6de07e70aa9ef7b,6628df88863cc09001a89a5e,,,,,,,,,,,,,,,,,,,,,,,,,,,,,,,,,,,,,,,,,,,,,,,,,,,,,,,,0,28,28,15,1,B,Y,N,o2_image,stimuli/out2.png,stimuli/out1.png,stimuli/correct_out2.png,,,,,,,,,,,,,,,,,,,,,,,,,,,,,,,,,,,,,,
,,5cdeaeb3557fbd00018a2c59,27,female,2024-04-24_12h32.58.411,stockport_simplified,2022.2.4,Win32,59.88023952,661e456ee6de07e70aa9ef7b,6628df88863cc09001a89a5e,,,,,,,,,,,,,,,,,,,,,,,,,,,,,,,,,,278.9878,280.7201,"[5,8,7,3,1,2,6,4]","[[0.3,0.2],[-0.3,0.2]]","[[0.125,-0.2],[-0.125,-0.2]]",0.136111153,-0.215740769,1,0,0,1.217,o1_image,280.7232,1,281.2179,281.2181,283.2152,0,0,0,0,1,,,,,,,,,,,,,,,,,,,,,,,,,,,,,,,,,,,,,,,,,,,,,,,,,,
,,5cdeaeb3557fbd00018a2c59,27,female,2024-04-24_12h32.58.411,stockport_simplified,2022.2.4,Win32,59.88023952,661e456ee6de07e70aa9ef7b,6628df88863cc09001a89a5e,,,,,,,,,,,,,,,,,,,,,,,,,,,,,,,,,,,,,,,,,,,,,,,,,,,,,,,,0,29,29,51,1,N,M,C,o1_image,stimuli/out1.png,stimuli/correct_out1.png,stimuli/out2.png,,,,,,,,,,,,,,,,,,,,,,,,,,,,,,,,,,,,,,
,,5cdeaeb3557fbd00018a2c59,27,female,2024-04-24_12h32.58.411,stockport_simplified,2022.2.4,Win32,59.88023952,661e456ee6de07e70aa9ef7b,6628df88863cc09001a89a5e,,,,,,,,,,,,,,,,,,,,,,,,,,,,,,,,,,283.2162,285.1029,"[5,8,7,3,1,2,6,4]","[[0.3,0.2],[-0.3,0.2]]","[[0.125,-0.2],[-0.125,-0.2]]",0.123148176,-0.214814857,1,0,0,1.3679,o1_image,285.1049,1,285.5967,285.5969,287.602,0,0,0,0,1,,,,,,,,,,,,,,,,,,,,,,,,,,,,,,,,,,,,,,,,,,,,,,,,,,
,,5cdeaeb3557fbd00018a2c59,27,female,2024-04-24_12h32.58.411,stockport_simplified,2022.2.4,Win32,59.88023952,661e456ee6de07e70aa9ef7b,6628df88863cc09001a89a5e,,,,,,,,,,,,,,,,,,,,,,,,,,,,,,,,,,,,,,,,,,,,,,,,,,,,,,,,0,30,30,1,1,A,X,N,o1_image,stimuli/out1.png,stimuli/correct_out1.png,stimuli/out2.png,,,,,,,,,,,,,,,,,,,,,,,,,,,,,,,,,,,,,,
,,5cdeaeb3557fbd00018a2c59,27,female,2024-04-24_12h32.58.411,stockport_simplified,2022.2.4,Win32,59.88023952,661e456ee6de07e70aa9ef7b,6628df88863cc09001a89a5e,,,,,,,,,,,,,,,,,,,,,,,,,,,,,,,,,,287.6036,289.0609,"[5,8,7,3,1,2,6,4]","[[0.3,0.2],[-0.3,0.2]]","[[0.125,-0.2],[-0.125,-0.2]]",0.107407393,-0.214814857,1,0,0,0.9414,o1_image,289.0633,1,289.5603,289.5604,291.5592,0,0,0,0,1,,,,,,,,,,,,,,,,,,,,,,,,,,,,,,,,,,,,,,,,,,,,,,,,,,
,,5cdeaeb3557fbd00018a2c59,27,female,2024-04-24_12h32.58.411,stockport_simplified,2022.2.4,Win32,59.88023952,661e456ee6de07e70aa9ef7b,6628df88863cc09001a89a5e,,,,,,,,,,,,,,,,,,,,,,,,,,,,,,,,,,,,,,,,,,,,,,,,,,,,,,,,0,31,31,23,1,N,M,C,o1_image,stimuli/out1.png,stimuli/correct_out1.png,stimuli/out2.png,,,,,,,,,,,,,,,,,,,,,,,,,,,,,,,,,,,,,,
,,5cdeaeb3557fbd00018a2c59,27,female,2024-04-24_12h32.58.411,stockport_simplified,2022.2.4,Win32,59.88023952,661e456ee6de07e70aa9ef7b,6628df88863cc09001a89a5e,,,,,,,,,,,,,,,,,,,,,,,,,,,,,,,,,,291.5606,292.9402,"[5,8,7,3,1,2,6,4]","[[0.3,0.2],[-0.3,0.2]]","[[-0.125,-0.2],[0.125,-0.2]]",0.125,-0.216666681,1,0,0,0.8641,o2_image,292.9418,1,293.4409,293.441,295.4437,0,0,0,0,1,,,,,,,,,,,,,,,,,,,,,,,,,,,,,,,,,,,,,,,,,,,,,,,,,,
,,5cdeaeb3557fbd00018a2c59,27,female,2024-04-24_12h32.58.411,stockport_simplified,2022.2.4,Win32,59.88023952,661e456ee6de07e70aa9ef7b,6628df88863cc09001a89a5e,,,,,,,,,,,,,,,,,,,,,,,,,,,,,,,,,,,,,,,,,,,,,,,,,,,,,,,,0,32,32,58,1,N,M,D,o2_image,stimuli/out2.png,stimuli/out1.png,stimuli/correct_out2.png,,,,,,,,,,,,,,,,,,,,,,,,,,,,,,,,,,,,,,
,,5cdeaeb3557fbd00018a2c59,27,female,2024-04-24_12h32.58.411,stockport_simplified,2022.2.4,Win32,59.88023952,661e456ee6de07e70aa9ef7b,6628df88863cc09001a89a5e,,,,,,,,,,,,,,,,,,,,,,,,,,,,,,,,,,295.4447,296.8595,"[5,8,7,3,1,2,6,4]","[[-0.3,0.2],[0.3,0.2]]","[[0.125,-0.2],[-0.125,-0.2]]",0.128703718,-0.215740769,1,0,0,0.9029,o1_image,296.8602,1,297.3604,297.3605,299.3519,0,0,0,0,1,,,,,,,,,,,,,,,,,,,,,,,,,,,,,,,,,,,,,,,,,,,,,,,,,,
,,5cdeaeb3557fbd00018a2c59,27,female,2024-04-24_12h32.58.411,stockport_simplified,2022.2.4,Win32,59.88023952,661e456ee6de07e70aa9ef7b,6628df88863cc09001a89a5e,,,,,,,,,,,,,,,,,,,,,,,,,,,,,,,,,,,,,,,,,,,,,,,,,,,,,,,,0,33,33,54,1,N,M,C,o1_image,stimuli/out1.png,stimuli/correct_out1.png,stimuli/out2.png,,,,,,,,,,,,,,,,,,,,,,,,,,,,,,,,,,,,,,
,,5cdeaeb3557fbd00018a2c59,27,female,2024-04-24_12h32.58.411,stockport_simplified,2022.2.4,Win32,59.88023952,661e456ee6de07e70aa9ef7b,6628df88863cc09001a89a5e,,,,,,,,,,,,,,,,,,,,,,,,,,,,,,,,,,299.3533,301.2233,"[5,8,7,3,1,2,6,4]","[[0.3,0.2],[-0.3,0.2]]","[[0.125,-0.2],[-0.125,-0.2]]",-0.073148162,-0.205555598,1,0,0,1.353400001,o2_image,301.2245,0,301.7162,301.7163,303.715,0,0,0,0,1,,,,,,,,,,,,,,,,,,,,,,,,,,,,,,,,,,,,,,,,,,,,,,,,,,
,,5cdeaeb3557fbd00018a2c59,27,female,2024-04-24_12h32.58.411,stockport_simplified,2022.2.4,Win32,59.88023952,661e456ee6de07e70aa9ef7b,6628df88863cc09001a89a5e,,,,,,,,,,,,,,,,,,,,,,,,,,,,,,,,,,,,,,,,,,,,,,,,,,,,,,,,0,34,34,8,1,A,Y,N,o1_image,stimuli/out1.png,stimuli/correct_out1.png,stimuli/out2.png,,,,,,,,,,,,,,,,,,,,,,,,,,,,,,,,,,,,,,
,,5cdeaeb3557fbd00018a2c59,27,female,2024-04-24_12h32.58.411,stockport_simplified,2022.2.4,Win32,59.88023952,661e456ee6de07e70aa9ef7b,6628df88863cc09001a89a5e,,,,,,,,,,,,,,,,,,,,,,,,,,,,,,,,,,303.7166,305.314,"[5,8,7,3,1,2,6,4]","[[0.3,0.2],[-0.3,0.2]]","[[-0.125,-0.2],[0.125,-0.2]]",0.126851894,-0.231481481,1,0,0,1.082799999,o2_image,305.3168,1,305.813,305.8132,307.81,0,0,0,0,1,,,,,,,,,,,,,,,,,,,,,,,,,,,,,,,,,,,,,,,,,,,,,,,,,,
,,5cdeaeb3557fbd00018a2c59,27,female,2024-04-24_12h32.58.411,stockport_simplified,2022.2.4,Win32,59.88023952,661e456ee6de07e70aa9ef7b,6628df88863cc09001a89a5e,,,,,,,,,,,,,,,,,,,,,,,,,,,,,,,,,,,,,,,,,,,,,,,,,,,,,,,,0,35,35,11,1,B,X,N,o2_image,stimuli/out2.png,stimuli/out1.png,stimuli/correct_out2.png,,,,,,,,,,,,,,,,,,,,,,,,,,,,,,,,,,,,,,
,,5cdeaeb3557fbd00018a2c59,27,female,2024-04-24_12h32.58.411,stockport_simplified,2022.2.4,Win32,59.88023952,661e456ee6de07e70aa9ef7b,6628df88863cc09001a89a5e,,,,,,,,,,,,,,,,,,,,,,,,,,,,,,,,,,307.8103,309.4114,"[5,8,7,3,1,2,6,4]","[[0.3,0.2],[-0.3,0.2]]","[[0.125,-0.2],[-0.125,-0.2]]",0.124074088,-0.224074116,1,0,0,1.0986,o1_image,309.4138,1,309.9103,309.9104,311.908,0,0,0,0,1,,,,,,,,,,,,,,,,,,,,,,,,,,,,,,,,,,,,,,,,,,,,,,,,,,
,,5cdeaeb3557fbd00018a2c59,27,female,2024-04-24_12h32.58.411,stockport_simplified,2022.2.4,Win32,59.88023952,661e456ee6de07e70aa9ef7b,6628df88863cc09001a89a5e,,,,,,,,,,,,,,,,,,,,,,,,,,,,,,,,,,,,,,,,,,,,,,,,,,,,,,,,0,36,36,3,1,A,X,N,o1_image,stimuli/out1.png,stimuli/correct_out1.png,stimuli/out2.png,,,,,,,,,,,,,,,,,,,,,,,,,,,,,,,,,,,,,,
,,5cdeaeb3557fbd00018a2c59,27,female,2024-04-24_12h32.58.411,stockport_simplified,2022.2.4,Win32,59.88023952,661e456ee6de07e70aa9ef7b,6628df88863cc09001a89a5e,,,,,,,,,,,,,,,,,,,,,,,,,,,,,,,,,,311.9098,313.5636,"[5,8,7,3,1,2,6,4]","[[-0.3,0.2],[0.3,0.2]]","[[0.125,-0.2],[-0.125,-0.2]]",0.102777764,-0.223148134,1,0,0,1.1525,o1_image,313.5655,1,314.0623,314.0625,316.0547,0,0,0,0,1,,,,,,,,,,,,,,,,,,,,,,,,,,,,,,,,,,,,,,,,,,,,,,,,,,
,,5cdeaeb3557fbd00018a2c59,27,female,2024-04-24_12h32.58.411,stockport_simplified,2022.2.4,Win32,59.88023952,661e456ee6de07e70aa9ef7b,6628df88863cc09001a89a5e,,,,,,,,,,,,,,,,,,,,,,,,,,,,,,,,,,,,,,,,,,,,,,,,,,,,,,,,0,37,37,30,1,A,X,N,o1_image,stimuli/out1.png,stimuli/correct_out1.png,stimuli/out2.png,,,,,,,,,,,,,,,,,,,,,,,,,,,,,,,,,,,,,,
,,5cdeaeb3557fbd00018a2c59,27,female,2024-04-24_12h32.58.411,stockport_simplified,2022.2.4,Win32,59.88023952,661e456ee6de07e70aa9ef7b,6628df88863cc09001a89a5e,,,,,,,,,,,,,,,,,,,,,,,,,,,,,,,,,,316.0562,318.4918,"[5,8,7,3,1,2,6,4]","[[-0.3,0.2],[0.3,0.2]]","[[-0.125,-0.2],[0.125,-0.2]]",-0.09629631,-0.20648151,1,0,0,1.9303,o1_image,318.4933,1,318.9849,318.9851,320.9871,0,0,0,0,1,,,,,,,,,,,,,,,,,,,,,,,,,,,,,,,,,,,,,,,,,,,,,,,,,,
,,5cdeaeb3557fbd00018a2c59,27,female,2024-04-24_12h32.58.411,stockport_simplified,2022.2.4,Win32,59.88023952,661e456ee6de07e70aa9ef7b,6628df88863cc09001a89a5e,,,,,,,,,,,,,,,,,,,,,,,,,,,,,,,,,,,,,,,,,,,,,,,,,,,,,,,,0,38,38,6,1,A,Y,N,o1_image,stimuli/out1.png,stimuli/correct_out1.png,stimuli/out2.png,,,,,,,,,,,,,,,,,,,,,,,,,,,,,,,,,,,,,,
,,5cdeaeb3557fbd00018a2c59,27,female,2024-04-24_12h32.58.411,stockport_simplified,2022.2.4,Win32,59.88023952,661e456ee6de07e70aa9ef7b,6628df88863cc09001a89a5e,,,,,,,,,,,,,,,,,,,,,,,,,,,,,,,,,,320.9875,322.2995,"[5,8,7,3,1,2,6,4]","[[0.3,0.2],[-0.3,0.2]]","[[-0.125,-0.2],[0.125,-0.2]]",0.082407422,-0.20648151,1,0,0,0.807299999,o2_image,322.3013,1,322.7984,322.7985,324.7963,0,0,0,0,1,,,,,,,,,,,,,,,,,,,,,,,,,,,,,,,,,,,,,,,,,,,,,,,,,,
,,5cdeaeb3557fbd00018a2c59,27,female,2024-04-24_12h32.58.411,stockport_simplified,2022.2.4,Win32,59.88023952,661e456ee6de07e70aa9ef7b,6628df88863cc09001a89a5e,,,,,,,,,,,,,,,,,,,,,,,,,,,,,,,,,,,,,,,,,,,,,,,,,,,,,,,,0,39,39,28,1,N,M,D,o2_image,stimuli/out2.png,stimuli/out1.png,stimuli/correct_out2.png,,,,,,,,,,,,,,,,,,,,,,,,,,,,,,,,,,,,,,
,,5cdeaeb3557fbd00018a2c59,27,female,2024-04-24_12h32.58.411,stockport_simplified,2022.2.4,Win32,59.88023952,661e456ee6de07e70aa9ef7b,6628df88863cc09001a89a5e,,,,,,,,,,,,,,,,,,,,,,,,,,,,,,,,,,324.7983,326.1961,"[5,8,7,3,1,2,6,4]","[[0.3,0.2],[-0.3,0.2]]","[[0.125,-0.2],[-0.125,-0.2]]",-0.112962935,-0.193518533,1,0,0,0.882,o2_image,326.1977,1,326.6956,326.6956,328.6932,0,0,0,0,1,,,,,,,,,,,,,,,,,,,,,,,,,,,,,,,,,,,,,,,,,,,,,,,,,,
,,5cdeaeb3557fbd00018a2c59,27,female,2024-04-24_12h32.58.411,stockport_simplified,2022.2.4,Win32,59.88023952,661e456ee6de07e70aa9ef7b,6628df88863cc09001a89a5e,,,,,,,,,,,,,,,,,,,,,,,,,,,,,,,,,,,,,,,,,,,,,,,,,,,,,,,,0,40,40,29,1,N,M,D,o2_image,stimuli/out2.png,stimuli/out1.png,stimuli/correct_out2.png,,,,,,,,,,,,,,,,,,,,,,,,,,,,,,,,,,,,,,
,,5cdeaeb3557fbd00018a2c59,27,female,2024-04-24_12h32.58.411,stockport_simplified,2022.2.4,Win32,59.88023952,661e456ee6de07e70aa9ef7b,6628df88863cc09001a89a5e,,,,,,,,,,,,,,,,,,,,,,,,,,,,,,,,,,328.6941,330.5654,"[5,8,7,3,1,2,6,4]","[[-0.3,0.2],[0.3,0.2]]","[[-0.125,-0.2],[0.125,-0.2]]",-0.122222194,-0.196296339,1,0,0,1.3527,o1_image,330.5669,1,331.0571,331.0572,333.0585,0,0,0,0,1,,,,,,,,,,,,,,,,,,,,,,,,,,,,,,,,,,,,,,,,,,,,,,,,,,
,,5cdeaeb3557fbd00018a2c59,27,female,2024-04-24_12h32.58.411,stockport_simplified,2022.2.4,Win32,59.88023952,661e456ee6de07e70aa9ef7b,6628df88863cc09001a89a5e,,,,,,,,,,,,,,,,,,,,,,,,,,,,,,,,,,,,,,,,,,,,,,,,,,,,,,,,0,41,41,0,1,A,X,N,o1_image,stimuli/out1.png,stimuli/correct_out1.png,stimuli/out2.png,,,,,,,,,,,,,,,,,,,,,,,,,,,,,,,,,,,,,,
,,5cdeaeb3557fbd00018a2c59,27,female,2024-04-24_12h32.58.411,stockport_simplified,2022.2.4,Win32,59.88023952,661e456ee6de07e70aa9ef7b,6628df88863cc09001a89a5e,,,,,,,,,,,,,,,,,,,,,,,,,,,,,,,,,,333.0613,334.7434,"[5,8,7,3,1,2,6,4]","[[-0.3,0.2],[0.3,0.2]]","[[0.125,-0.2],[-0.125,-0.2]]",-0.135185171,-0.184259273,1,0,0,1.1699,o2_image,334.7469,1,335.2373,335.2374,337.2353,0,0,0,0,1,,,,,,,,,,,,,,,,,,,,,,,,,,,,,,,,,,,,,,,,,,,,,,,,,,
,,5cdeaeb3557fbd00018a2c59,27,female,2024-04-24_12h32.58.411,stockport_simplified,2022.2.4,Win32,59.88023952,661e456ee6de07e70aa9ef7b,6628df88863cc09001a89a5e,,,,,,,,,,,,,,,,,,,,,,,,,,,,,,,,,,,,,,,,,,,,,,,,,,,,,,,,0,42,42,41,1,B,X,N,o2_image,stimuli/out2.png,stimuli/out1.png,stimuli/correct_out2.png,,,,,,,,,,,,,,,,,,,,,,,,,,,,,,,,,,,,,,
,,5cdeaeb3557fbd00018a2c59,27,female,2024-04-24_12h32.58.411,stockport_simplified,2022.2.4,Win32,59.88023952,661e456ee6de07e70aa9ef7b,6628df88863cc09001a89a5e,,,,,,,,,,,,,,,,,,,,,,,,,,,,,,,,,,337.236,338.7498,"[5,8,7,3,1,2,6,4]","[[0.3,0.2],[-0.3,0.2]]","[[0.125,-0.2],[-0.125,-0.2]]",-0.104629587,-0.19722225,1,0,0,0.9971,o2_image,338.7503,1,339.2512,339.2514,341.2475,0,0,0,0,1,,,,,,,,,,,,,,,,,,,,,,,,,,,,,,,,,,,,,,,,,,,,,,,,,,
,,5cdeaeb3557fbd00018a2c59,27,female,2024-04-24_12h32.58.411,stockport_simplified,2022.2.4,Win32,59.88023952,661e456ee6de07e70aa9ef7b,6628df88863cc09001a89a5e,,,,,,,,,,,,,,,,,,,,,,,,,,,,,,,,,,,,,,,,,,,,,,,,,,,,,,,,0,43,43,59,1,N,M,D,o2_image,stimuli/out2.png,stimuli/out1.png,stimuli/correct_out2.png,,,,,,,,,,,,,,,,,,,,,,,,,,,,,,,,,,,,,,
,,5cdeaeb3557fbd00018a2c59,27,female,2024-04-24_12h32.58.411,stockport_simplified,2022.2.4,Win32,59.88023952,661e456ee6de07e70aa9ef7b,6628df88863cc09001a89a5e,,,,,,,,,,,,,,,,,,,,,,,,,,,,,,,,,,341.248,343.2973,"[5,8,7,3,1,2,6,4]","[[-0.3,0.2],[0.3,0.2]]","[[-0.125,-0.2],[0.125,-0.2]]",0.068518533,-0.209259245,1,0,0,1.530400001,o2_image,343.2988,1,343.7967,343.7968,345.7949,0,0,0,0,1,,,,,,,,,,,,,,,,,,,,,,,,,,,,,,,,,,,,,,,,,,,,,,,,,,
,,5cdeaeb3557fbd00018a2c59,27,female,2024-04-24_12h32.58.411,stockport_simplified,2022.2.4,Win32,59.88023952,661e456ee6de07e70aa9ef7b,6628df88863cc09001a89a5e,,,,,,,,,,,,,,,,,,,,,,,,,,,,,,,,,,,,,,,,,,,,,,,,,,,,,,,,0,44,44,18,1,B,Y,N,o2_image,stimuli/out2.png,stimuli/out1.png,stimuli/correct_out2.png,,,,,,,,,,,,,,,,,,,,,,,,,,,,,,,,,,,,,,
,,5cdeaeb3557fbd00018a2c59,27,female,2024-04-24_12h32.58.411,stockport_simplified,2022.2.4,Win32,59.88023952,661e456ee6de07e70aa9ef7b,6628df88863cc09001a89a5e,,,,,,,,,,,,,,,,,,,,,,,,,,,,,,,,,,345.7971,347.5929,"[5,8,7,3,1,2,6,4]","[[0.3,0.2],[-0.3,0.2]]","[[-0.125,-0.2],[0.125,-0.2]]",-0.109259217,-0.208333333,1,0,0,1.2914,o1_image,347.5944,1,348.0923,348.0924,350.0982,0,0,0,0,1,,,,,,,,,,,,,,,,,,,,,,,,,,,,,,,,,,,,,,,,,,,,,,,,,,
,,5cdeaeb3557fbd00018a2c59,27,female,2024-04-24_12h32.58.411,stockport_simplified,2022.2.4,Win32,59.88023952,661e456ee6de07e70aa9ef7b,6628df88863cc09001a89a5e,,,,,,,,,,,,,,,,,,,,,,,,,,,,,,,,,,,,,,,,,,,,,,,,,,,,,,,,0,45,45,32,1,A,X,N,o1_image,stimuli/out1.png,stimuli/correct_out1.png,stimuli/out2.png,,,,,,,,,,,,,,,,,,,,,,,,,,,,,,,,,,,,,,
,,5cdeaeb3557fbd00018a2c59,27,female,2024-04-24_12h32.58.411,stockport_simplified,2022.2.4,Win32,59.88023952,661e456ee6de07e70aa9ef7b,6628df88863cc09001a89a5e,,,,,,,,,,,,,,,,,,,,,,,,,,,,,,,,,,350.0998,351.6475,"[5,8,7,3,1,2,6,4]","[[-0.3,0.2],[0.3,0.2]]","[[-0.125,-0.2],[0.125,-0.2]]",-0.107407393,-0.208333333,1,0,0,1.039,o1_image,351.6493,1,352.1456,352.1468,354.1373,0,0,0,0,1,,,,,,,,,,,,,,,,,,,,,,,,,,,,,,,,,,,,,,,,,,,,,,,,,,
,,5cdeaeb3557fbd00018a2c59,27,female,2024-04-24_12h32.58.411,stockport_simplified,2022.2.4,Win32,59.88023952,661e456ee6de07e70aa9ef7b,6628df88863cc09001a89a5e,,,,,,,,,,,,,,,,,,,,,,,,,,,,,,,,,,,,,,,,,,,,,,,,,,,,,,,,0,46,46,37,1,A,Y,N,o1_image,stimuli/out1.png,stimuli/correct_out1.png,stimuli/out2.png,,,,,,,,,,,,,,,,,,,,,,,,,,,,,,,,,,,,,,
,,5cdeaeb3557fbd00018a2c59,27,female,2024-04-24_12h32.58.411,stockport_simplified,2022.2.4,Win32,59.88023952,661e456ee6de07e70aa9ef7b,6628df88863cc09001a89a5e,,,,,,,,,,,,,,,,,,,,,,,,,,,,,,,,,,354.1391,355.9379,"[5,8,7,3,1,2,6,4]","[[-0.3,0.2],[0.3,0.2]]","[[0.125,-0.2],[-0.125,-0.2]]",-0.095370328,-0.207407422,1,0,0,1.2753,o2_image,355.9425,1,356.4371,356.4372,358.44,0,0,0,0,1,,,,,,,,,,,,,,,,,,,,,,,,,,,,,,,,,,,,,,,,,,,,,,,,,,
,,5cdeaeb3557fbd00018a2c59,27,female,2024-04-24_12h32.58.411,stockport_simplified,2022.2.4,Win32,59.88023952,661e456ee6de07e70aa9ef7b,6628df88863cc09001a89a5e,,,,,,,,,,,,,,,,,,,,,,,,,,,,,,,,,,,,,,,,,,,,,,,,,,,,,,,,0,47,47,10,1,B,X,N,o2_image,stimuli/out2.png,stimuli/out1.png,stimuli/correct_out2.png,,,,,,,,,,,,,,,,,,,,,,,,,,,,,,,,,,,,,,
,,5cdeaeb3557fbd00018a2c59,27,female,2024-04-24_12h32.58.411,stockport_simplified,2022.2.4,Win32,59.88023952,661e456ee6de07e70aa9ef7b,6628df88863cc09001a89a5e,,,,,,,,,,,,,,,,,,,,,,,,,,,,,,,,,,358.4418,360.2811,"[5,8,7,3,1,2,6,4]","[[0.3,0.2],[-0.3,0.2]]","[[0.125,-0.2],[-0.125,-0.2]]",0.112963005,-0.219444487,1,0,0,1.3315,o1_image,360.2816,1,360.7817,360.7817,362.7791,0,0,0,0,1,,,,,,,,,,,,,,,,,,,,,,,,,,,,,,,,,,,,,,,,,,,,,,,,,,
,,5cdeaeb3557fbd00018a2c59,27,female,2024-04-24_12h32.58.411,stockport_simplified,2022.2.4,Win32,59.88023952,661e456ee6de07e70aa9ef7b,6628df88863cc09001a89a5e,,,,,,,,,,,,,,,,,,,,,,,,,,,,,,,,,,,,,,,,,,,,,,,,,,,,,,,,0,48,48,24,1,N,M,C,o1_image,stimuli/out1.png,stimuli/correct_out1.png,stimuli/out2.png,,,,,,,,,,,,,,,,,,,,,,,,,,,,,,,,,,,,,,
,,5cdeaeb3557fbd00018a2c59,27,female,2024-04-24_12h32.58.411,stockport_simplified,2022.2.4,Win32,59.88023952,661e456ee6de07e70aa9ef7b,6628df88863cc09001a89a5e,,,,,,,,,,,,,,,,,,,,,,,,,,,,,,,,,,362.7798,364.2113,"[5,8,7,3,1,2,6,4]","[[0.3,0.2],[-0.3,0.2]]","[[0.125,-0.2],[-0.125,-0.2]]",-0.14907406,-0.208333333,1,0,0,0.9129,o2_image,364.212,1,364.7113,364.7114,366.7103,0,0,0,0,1,,,,,,,,,,,,,,,,,,,,,,,,,,,,,,,,,,,,,,,,,,,,,,,,,,
,,5cdeaeb3557fbd00018a2c59,27,female,2024-04-24_12h32.58.411,stockport_simplified,2022.2.4,Win32,59.88023952,661e456ee6de07e70aa9ef7b,6628df88863cc09001a89a5e,,,,,,,,,,,,,,,,,,,,,,,,,,,,,,,,,,,,,,,,,,,,,,,,,,,,,,,,0,49,49,13,1,B,X,N,o2_image,stimuli/out2.png,stimuli/out1.png,stimuli/correct_out2.png,,,,,,,,,,,,,,,,,,,,,,,,,,,,,,,,,,,,,,
,,5cdeaeb3557fbd00018a2c59,27,female,2024-04-24_12h32.58.411,stockport_simplified,2022.2.4,Win32,59.88023952,661e456ee6de07e70aa9ef7b,6628df88863cc09001a89a5e,,,,,,,,,,,,,,,,,,,,,,,,,,,,,,,,,,366.712,368.3246,"[5,8,7,3,1,2,6,4]","[[0.3,0.2],[-0.3,0.2]]","[[0.125,-0.2],[-0.125,-0.2]]",0.101851852,-0.222222222,1,0,0,1.098200001,o1_image,368.3256,1,368.831,368.831,370.8227,0,0,0,0,1,,,,,,,,,,,,,,,,,,,,,,,,,,,,,,,,,,,,,,,,,,,,,,,,,,
,,5cdeaeb3557fbd00018a2c59,27,female,2024-04-24_12h32.58.411,stockport_simplified,2022.2.4,Win32,59.88023952,661e456ee6de07e70aa9ef7b,6628df88863cc09001a89a5e,,,,,,,,,,,,,,,,,,,,,,,,,,,,,,,,,,,,,,,,,,,,,,,,,,,,,,,,0,50,50,9,1,A,Y,N,o1_image,stimuli/out1.png,stimuli/correct_out1.png,stimuli/out2.png,,,,,,,,,,,,,,,,,,,,,,,,,,,,,,,,,,,,,,
,,5cdeaeb3557fbd00018a2c59,27,female,2024-04-24_12h32.58.411,stockport_simplified,2022.2.4,Win32,59.88023952,661e456ee6de07e70aa9ef7b,6628df88863cc09001a89a5e,,,,,,,,,,,,,,,,,,,,,,,,,,,,,,,,,,370.8243,372.2104,"[5,8,7,3,1,2,6,4]","[[0.3,0.2],[-0.3,0.2]]","[[-0.125,-0.2],[0.125,-0.2]]",0.084259245,-0.217592593,1,0,0,0.868700001,o2_image,372.2129,1,372.7051,372.7053,374.7028,0,0,0,0,1,,,,,,,,,,,,,,,,,,,,,,,,,,,,,,,,,,,,,,,,,,,,,,,,,,
,,5cdeaeb3557fbd00018a2c59,27,female,2024-04-24_12h32.58.411,stockport_simplified,2022.2.4,Win32,59.88023952,661e456ee6de07e70aa9ef7b,6628df88863cc09001a89a5e,,,,,,,,,,,,,,,,,,,,,,,,,,,,,,,,,,,,,,,,,,,,,,,,,,,,,,,,0,51,51,56,1,N,M,D,o2_image,stimuli/out2.png,stimuli/out1.png,stimuli/correct_out2.png,,,,,,,,,,,,,,,,,,,,,,,,,,,,,,,,,,,,,,
,,5cdeaeb3557fbd00018a2c59,27,female,2024-04-24_12h32.58.411,stockport_simplified,2022.2.4,Win32,59.88023952,661e456ee6de07e70aa9ef7b,6628df88863cc09001a89a5e,,,,,,,,,,,,,,,,,,,,,,,,,,,,,,,,,,374.7044,376.1779,"[5,8,7,3,1,2,6,4]","[[-0.3,0.2],[0.3,0.2]]","[[0.125,-0.2],[-0.125,-0.2]]",0.094444487,-0.210185228,1,0,0,0.956900001,o1_image,376.1814,1,376.6845,376.6846,378.6733,0,0,0,0,1,,,,,,,,,,,,,,,,,,,,,,,,,,,,,,,,,,,,,,,,,,,,,,,,,,
,,5cdeaeb3557fbd00018a2c59,27,female,2024-04-24_12h32.58.411,stockport_simplified,2022.2.4,Win32,59.88023952,661e456ee6de07e70aa9ef7b,6628df88863cc09001a89a5e,,,,,,,,,,,,,,,,,,,,,,,,,,,,,,,,,,,,,,,,,,,,,,,,,,,,,,,,0,52,52,21,1,N,M,C,o1_image,stimuli/out1.png,stimuli/correct_out1.png,stimuli/out2.png,,,,,,,,,,,,,,,,,,,,,,,,,,,,,,,,,,,,,,
,,5cdeaeb3557fbd00018a2c59,27,female,2024-04-24_12h32.58.411,stockport_simplified,2022.2.4,Win32,59.88023952,661e456ee6de07e70aa9ef7b,6628df88863cc09001a89a5e,,,,,,,,,,,,,,,,,,,,,,,,,,,,,,,,,,378.6755,379.9575,"[5,8,7,3,1,2,6,4]","[[0.3,0.2],[-0.3,0.2]]","[[-0.125,-0.2],[0.125,-0.2]]",0.094444487,-0.210185228,1,0,0,0.7675,o2_image,379.96,1,380.4646,380.4648,382.4619,0,0,0,0,1,,,,,,,,,,,,,,,,,,,,,,,,,,,,,,,,,,,,,,,,,,,,,,,,,,
,,5cdeaeb3557fbd00018a2c59,27,female,2024-04-24_12h32.58.411,stockport_simplified,2022.2.4,Win32,59.88023952,661e456ee6de07e70aa9ef7b,6628df88863cc09001a89a5e,,,,,,,,,,,,,,,,,,,,,,,,,,,,,,,,,,,,,,,,,,,,,,,,,,,,,,,,0,53,53,46,1,B,Y,N,o2_image,stimuli/out2.png,stimuli/out1.png,stimuli/correct_out2.png,,,,,,,,,,,,,,,,,,,,,,,,,,,,,,,,,,,,,,
,,5cdeaeb3557fbd00018a2c59,27,female,2024-04-24_12h32.58.411,stockport_simplified,2022.2.4,Win32,59.88023952,661e456ee6de07e70aa9ef7b,6628df88863cc09001a89a5e,,,,,,,,,,,,,,,,,,,,,,,,,,,,,,,,,,382.4626,383.7625,"[5,8,7,3,1,2,6,4]","[[0.3,0.2],[-0.3,0.2]]","[[-0.125,-0.2],[0.125,-0.2]]",0.094444487,-0.210185228,1,0,0,0.7842,o2_image,383.7648,1,384.2673,384.2675,386.2595,0,0,0,0,1,,,,,,,,,,,,,,,,,,,,,,,,,,,,,,,,,,,,,,,,,,,,,,,,,,
,,5cdeaeb3557fbd00018a2c59,27,female,2024-04-24_12h32.58.411,stockport_simplified,2022.2.4,Win32,59.88023952,661e456ee6de07e70aa9ef7b,6628df88863cc09001a89a5e,,,,,,,,,,,,,,,,,,,,,,,,,,,,,,,,,,,,,,,,,,,,,,,,,,,,,,,,0,54,54,44,1,B,X,N,o2_image,stimuli/out2.png,stimuli/out1.png,stimuli/correct_out2.png,,,,,,,,,,,,,,,,,,,,,,,,,,,,,,,,,,,,,,
,,5cdeaeb3557fbd00018a2c59,27,female,2024-04-24_12h32.58.411,stockport_simplified,2022.2.4,Win32,59.88023952,661e456ee6de07e70aa9ef7b,6628df88863cc09001a89a5e,,,,,,,,,,,,,,,,,,,,,,,,,,,,,,,,,,386.2619,387.7404,"[5,8,7,3,1,2,6,4]","[[0.3,0.2],[-0.3,0.2]]","[[-0.125,-0.2],[0.125,-0.2]]",0.091666681,-0.208333333,1,0,0,0.962400001,o2_image,387.741,1,388.2441,388.2442,390.2394,0,0,0,0,1,,,,,,,,,,,,,,,,,,,,,,,,,,,,,,,,,,,,,,,,,,,,,,,,,,
,,5cdeaeb3557fbd00018a2c59,27,female,2024-04-24_12h32.58.411,stockport_simplified,2022.2.4,Win32,59.88023952,661e456ee6de07e70aa9ef7b,6628df88863cc09001a89a5e,,,,,,,,,,,,,,,,,,,,,,,,,,,,,,,,,,,,,,,,,,,,,,,,,,,,,,,,0,55,55,25,1,N,M,D,o2_image,stimuli/out2.png,stimuli/out1.png,stimuli/correct_out2.png,,,,,,,,,,,,,,,,,,,,,,,,,,,,,,,,,,,,,,
,,5cdeaeb3557fbd00018a2c59,27,female,2024-04-24_12h32.58.411,stockport_simplified,2022.2.4,Win32,59.88023952,661e456ee6de07e70aa9ef7b,6628df88863cc09001a89a5e,,,,,,,,,,,,,,,,,,,,,,,,,,,,,,,,,,390.2407,391.8713,"[5,8,7,3,1,2,6,4]","[[-0.3,0.2],[0.3,0.2]]","[[-0.125,-0.2],[0.125,-0.2]]",0.112963005,-0.200925968,1,0,0,1.1139,o2_image,391.8732,1,392.3709,392.371,394.3689,0,0,0,0,1,,,,,,,,,,,,,,,,,,,,,,,,,,,,,,,,,,,,,,,,,,,,,,,,,,
,,5cdeaeb3557fbd00018a2c59,27,female,2024-04-24_12h32.58.411,stockport_simplified,2022.2.4,Win32,59.88023952,661e456ee6de07e70aa9ef7b,6628df88863cc09001a89a5e,,,,,,,,,,,,,,,,,,,,,,,,,,,,,,,,,,,,,,,,,,,,,,,,,,,,,,,,0,56,56,47,1,B,Y,N,o2_image,stimuli/out2.png,stimuli/out1.png,stimuli/correct_out2.png,,,,,,,,,,,,,,,,,,,,,,,,,,,,,,,,,,,,,,
,,5cdeaeb3557fbd00018a2c59,27,female,2024-04-24_12h32.58.411,stockport_simplified,2022.2.4,Win32,59.88023952,661e456ee6de07e70aa9ef7b,6628df88863cc09001a89a5e,,,,,,,,,,,,,,,,,,,,,,,,,,,,,,,,,,394.3709,395.6767,"[5,8,7,3,1,2,6,4]","[[-0.3,0.2],[0.3,0.2]]","[[-0.125,-0.2],[0.125,-0.2]]",0.112963005,-0.200925968,1,0,0,0.8014,o2_image,395.6789,1,396.1676,396.1676,398.1561,0,0,0,0,1,,,,,,,,,,,,,,,,,,,,,,,,,,,,,,,,,,,,,,,,,,,,,,,,,,
,,5cdeaeb3557fbd00018a2c59,27,female,2024-04-24_12h32.58.411,stockport_simplified,2022.2.4,Win32,59.88023952,661e456ee6de07e70aa9ef7b,6628df88863cc09001a89a5e,,,,,,,,,,,,,,,,,,,,,,,,,,,,,,,,,,,,,,,,,,,,,,,,,,,,,,,,0,57,57,19,1,B,Y,N,o2_image,stimuli/out2.png,stimuli/out1.png,stimuli/correct_out2.png,,,,,,,,,,,,,,,,,,,,,,,,,,,,,,,,,,,,,,
,,5cdeaeb3557fbd00018a2c59,27,female,2024-04-24_12h32.58.411,stockport_simplified,2022.2.4,Win32,59.88023952,661e456ee6de07e70aa9ef7b,6628df88863cc09001a89a5e,,,,,,,,,,,,,,,,,,,,,,,,,,,,,,,,,,398.1576,399.4374,"[5,8,7,3,1,2,6,4]","[[0.3,0.2],[-0.3,0.2]]","[[-0.125,-0.2],[0.125,-0.2]]",0.112963005,-0.200925968,1,0,0,0.7715,o2_image,399.4402,1,399.9334,399.9335,401.9355,0,0,0,0,1,,,,,,,,,,,,,,,,,,,,,,,,,,,,,,,,,,,,,,,,,,,,,,,,,,
,,5cdeaeb3557fbd00018a2c59,27,female,2024-04-24_12h32.58.411,stockport_simplified,2022.2.4,Win32,59.88023952,661e456ee6de07e70aa9ef7b,6628df88863cc09001a89a5e,,,,,,,,,,,,,,,,,,,,,,,,,,,,,,,,,,,,,,,,,,,,,,,,,,,,,,,,0,58,58,17,1,B,Y,N,o2_image,stimuli/out2.png,stimuli/out1.png,stimuli/correct_out2.png,,,,,,,,,,,,,,,,,,,,,,,,,,,,,,,,,,,,,,
,,5cdeaeb3557fbd00018a2c59,27,female,2024-04-24_12h32.58.411,stockport_simplified,2022.2.4,Win32,59.88023952,661e456ee6de07e70aa9ef7b,6628df88863cc09001a89a5e,,,,,,,,,,,,,,,,,,,,,,,,,,,,,,,,,,401.9372,403.3461,"[5,8,7,3,1,2,6,4]","[[0.3,0.2],[-0.3,0.2]]","[[0.125,-0.2],[-0.125,-0.2]]",0.112037023,-0.199999986,1,0,0,0.8924,o1_image,403.3489,1,403.8443,403.8443,405.8326,0,0,0,0,1,,,,,,,,,,,,,,,,,,,,,,,,,,,,,,,,,,,,,,,,,,,,,,,,,,
,,5cdeaeb3557fbd00018a2c59,27,female,2024-04-24_12h32.58.411,stockport_simplified,2022.2.4,Win32,59.88023952,661e456ee6de07e70aa9ef7b,6628df88863cc09001a89a5e,,,,,,,,,,,,,,,,,,,,,,,,,,,,,,,,,,,,,,,,,,,,,,,,,,,,,,,,0,59,59,52,1,N,M,C,o1_image,stimuli/out1.png,stimuli/correct_out1.png,stimuli/out2.png,,,,,,,,,,,,,,,,,,,,,,,,,,,,,,,,,,,,,,
,,5cdeaeb3557fbd00018a2c59,27,female,2024-04-24_12h32.58.411,stockport_simplified,2022.2.4,Win32,59.88023952,661e456ee6de07e70aa9ef7b,6628df88863cc09001a89a5e,,,,,,,,,,,,,,,,,,,,,,,,,,,,,,,,,,405.8343,407.9086,"[5,8,7,3,1,2,6,4]","[[0.3,0.2],[-0.3,0.2]]","[[0.125,-0.2],[-0.125,-0.2]]",0.122222265,-0.185185185,1,0,0,1.560599999,o1_image,407.9118,1,408.4067,408.4069,410.405,0,0,0,0,1,,,,,,,,,,,,,,,,,,,,,,,,,,,,,,,,,,,,,,,,,,,,,,,,,,
,,5cdeaeb3557fbd00018a2c59,27,female,2024-04-24_12h32.58.411,stockport_simplified,2022.2.4,Win32,59.88023952,661e456ee6de07e70aa9ef7b,6628df88863cc09001a89a5e,,,,,,,,,,,,,,,,,,,,,,,,,,,,,,,,,,,,,,,,,,,,,,,,,,,,,,,,1,0,60,35,1,A,Y,N,o1_image,stimuli/out1.png,stimuli/correct_out1.png,stimuli/out2.png,,,,,,,,,,,,,,,,,,,,,,,,,,,,,,,,,,,,,,
,,5cdeaeb3557fbd00018a2c59,27,female,2024-04-24_12h32.58.411,stockport_simplified,2022.2.4,Win32,59.88023952,661e456ee6de07e70aa9ef7b,6628df88863cc09001a89a5e,,,,,,,,,,,,,,,,,,,,,,,,,,,,,,,,,,410.4066,412.339,"[5,8,7,3,1,2,6,4]","[[0.3,0.2],[-0.3,0.2]]","[[-0.125,-0.2],[0.125,-0.2]]",-0.05277775,-0.185185185,1,0,0,1.4182,o1_image,412.3413,1,412.8364,412.8365,414.8249,0,0,0,0,1,,,,,,,,,,,,,,,,,,,,,,,,,,,,,,,,,,,,,,,,,,,,,,,,,,
,,5cdeaeb3557fbd00018a2c59,27,female,2024-04-24_12h32.58.411,stockport_simplified,2022.2.4,Win32,59.88023952,661e456ee6de07e70aa9ef7b,6628df88863cc09001a89a5e,,,,,,,,,,,,,,,,,,,,,,,,,,,,,,,,,,,,,,,,,,,,,,,,,,,,,,,,1,1,61,37,1,A,Y,N,o1_image,stimuli/out1.png,stimuli/correct_out1.png,stimuli/out2.png,,,,,,,,,,,,,,,,,,,,,,,,,,,,,,,,,,,,,,
,,5cdeaeb3557fbd00018a2c59,27,female,2024-04-24_12h32.58.411,stockport_simplified,2022.2.4,Win32,59.88023952,661e456ee6de07e70aa9ef7b,6628df88863cc09001a89a5e,,,,,,,,,,,,,,,,,,,,,,,,,,,,,,,,,,414.8263,416.4669,"[5,8,7,3,1,2,6,4]","[[-0.3,0.2],[0.3,0.2]]","[[-0.125,-0.2],[0.125,-0.2]]",-0.139814801,-0.189814815,1,0,0,1.1307,o1_image,416.4685,1,416.9666,416.9667,418.9643,0,0,0,0,1,,,,,,,,,,,,,,,,,,,,,,,,,,,,,,,,,,,,,,,,,,,,,,,,,,
,,5cdeaeb3557fbd00018a2c59,27,female,2024-04-24_12h32.58.411,stockport_simplified,2022.2.4,Win32,59.88023952,661e456ee6de07e70aa9ef7b,6628df88863cc09001a89a5e,,,,,,,,,,,,,,,,,,,,,,,,,,,,,,,,,,,,,,,,,,,,,,,,,,,,,,,,1,2,62,51,1,N,M,C,o1_image,stimuli/out1.png,stimuli/correct_out1.png,stimuli/out2.png,,,,,,,,,,,,,,,,,,,,,,,,,,,,,,,,,,,,,,
,,5cdeaeb3557fbd00018a2c59,27,female,2024-04-24_12h32.58.411,stockport_simplified,2022.2.4,Win32,59.88023952,661e456ee6de07e70aa9ef7b,6628df88863cc09001a89a5e,,,,,,,,,,,,,,,,,,,,,,,,,,,,,,,,,,418.966,420.7623,"[5,8,7,3,1,2,6,4]","[[-0.3,0.2],[0.3,0.2]]","[[0.125,-0.2],[-0.125,-0.2]]",0.099074116,-0.202777792,1,0,0,1.2794,o1_image,420.7632,1,421.2619,421.2619,423.2602,0,0,0,0,1,,,,,,,,,,,,,,,,,,,,,,,,,,,,,,,,,,,,,,,,,,,,,,,,,,
,,5cdeaeb3557fbd00018a2c59,27,female,2024-04-24_12h32.58.411,stockport_simplified,2022.2.4,Win32,59.88023952,661e456ee6de07e70aa9ef7b,6628df88863cc09001a89a5e,,,,,,,,,,,,,,,,,,,,,,,,,,,,,,,,,,,,,,,,,,,,,,,,,,,,,,,,1,3,63,33,1,A,X,N,o1_image,stimuli/out1.png,stimuli/correct_out1.png,stimuli/out2.png,,,,,,,,,,,,,,,,,,,,,,,,,,,,,,,,,,,,,,
,,5cdeaeb3557fbd00018a2c59,27,female,2024-04-24_12h32.58.411,stockport_simplified,2022.2.4,Win32,59.88023952,661e456ee6de07e70aa9ef7b,6628df88863cc09001a89a5e,,,,,,,,,,,,,,,,,,,,,,,,,,,,,,,,,,423.2617,424.7672,"[5,8,7,3,1,2,6,4]","[[-0.3,0.2],[0.3,0.2]]","[[-0.125,-0.2],[0.125,-0.2]]",0.094444487,-0.202777792,1,0,0,0.9893,o2_image,424.7698,1,425.2588,425.259,427.2572,0,0,0,0,1,,,,,,,,,,,,,,,,,,,,,,,,,,,,,,,,,,,,,,,,,,,,,,,,,,
,,5cdeaeb3557fbd00018a2c59,27,female,2024-04-24_12h32.58.411,stockport_simplified,2022.2.4,Win32,59.88023952,661e456ee6de07e70aa9ef7b,6628df88863cc09001a89a5e,,,,,,,,,,,,,,,,,,,,,,,,,,,,,,,,,,,,,,,,,,,,,,,,,,,,,,,,1,4,64,11,1,B,X,N,o2_image,stimuli/out2.png,stimuli/out1.png,stimuli/correct_out2.png,,,,,,,,,,,,,,,,,,,,,,,,,,,,,,,,,,,,,,
,,5cdeaeb3557fbd00018a2c59,27,female,2024-04-24_12h32.58.411,stockport_simplified,2022.2.4,Win32,59.88023952,661e456ee6de07e70aa9ef7b,6628df88863cc09001a89a5e,,,,,,,,,,,,,,,,,,,,,,,,,,,,,,,,,,427.2587,429.0495,"[5,8,7,3,1,2,6,4]","[[0.3,0.2],[-0.3,0.2]]","[[-0.125,-0.2],[0.125,-0.2]]",-0.116666653,-0.186111097,1,0,0,1.2751,o1_image,429.0514,1,429.5549,429.555,431.5524,0,0,0,0,1,,,,,,,,,,,,,,,,,,,,,,,,,,,,,,,,,,,,,,,,,,,,,,,,,,
,,5cdeaeb3557fbd00018a2c59,27,female,2024-04-24_12h32.58.411,stockport_simplified,2022.2.4,Win32,59.88023952,661e456ee6de07e70aa9ef7b,6628df88863cc09001a89a5e,,,,,,,,,,,,,,,,,,,,,,,,,,,,,,,,,,,,,,,,,,,,,,,,,,,,,,,,1,5,65,38,1,A,Y,N,o1_image,stimuli/out1.png,stimuli/correct_out1.png,stimuli/out2.png,,,,,,,,,,,,,,,,,,,,,,,,,,,,,,,,,,,,,,
,,5cdeaeb3557fbd00018a2c59,27,female,2024-04-24_12h32.58.411,stockport_simplified,2022.2.4,Win32,59.88023952,661e456ee6de07e70aa9ef7b,6628df88863cc09001a89a5e,,,,,,,,,,,,,,,,,,,,,,,,,,,,,,,,,,431.5532,433.2688,"[5,8,7,3,1,2,6,4]","[[0.3,0.2],[-0.3,0.2]]","[[0.125,-0.2],[-0.125,-0.2]]",0.090740769,-0.189814815,1,0,0,1.198099999,o1_image,433.2703,1,433.7681,433.7682,435.7728,0,0,0,0,1,,,,,,,,,,,,,,,,,,,,,,,,,,,,,,,,,,,,,,,,,,,,,,,,,,
,,5cdeaeb3557fbd00018a2c59,27,female,2024-04-24_12h32.58.411,stockport_simplified,2022.2.4,Win32,59.88023952,661e456ee6de07e70aa9ef7b,6628df88863cc09001a89a5e,,,,,,,,,,,,,,,,,,,,,,,,,,,,,,,,,,,,,,,,,,,,,,,,,,,,,,,,1,6,66,32,1,A,X,N,o1_image,stimuli/out1.png,stimuli/correct_out1.png,stimuli/out2.png,,,,,,,,,,,,,,,,,,,,,,,,,,,,,,,,,,,,,,
,,5cdeaeb3557fbd00018a2c59,27,female,2024-04-24_12h32.58.411,stockport_simplified,2022.2.4,Win32,59.88023952,661e456ee6de07e70aa9ef7b,6628df88863cc09001a89a5e,,,,,,,,,,,,,,,,,,,,,,,,,,,,,,,,,,435.7744,437.098,"[5,8,7,3,1,2,6,4]","[[0.3,0.2],[-0.3,0.2]]","[[-0.125,-0.2],[0.125,-0.2]]",0.093518504,-0.189814815,1,0,0,0.8127,o2_image,437.0988,1,437.5974,437.5974,439.5964,0,0,0,0,1,,,,,,,,,,,,,,,,,,,,,,,,,,,,,,,,,,,,,,,,,,,,,,,,,,
,,5cdeaeb3557fbd00018a2c59,27,female,2024-04-24_12h32.58.411,stockport_simplified,2022.2.4,Win32,59.88023952,661e456ee6de07e70aa9ef7b,6628df88863cc09001a89a5e,,,,,,,,,,,,,,,,,,,,,,,,,,,,,,,,,,,,,,,,,,,,,,,,,,,,,,,,1,7,67,59,1,N,M,D,o2_image,stimuli/out2.png,stimuli/out1.png,stimuli/correct_out2.png,,,,,,,,,,,,,,,,,,,,,,,,,,,,,,,,,,,,,,
,,5cdeaeb3557fbd00018a2c59,27,female,2024-04-24_12h32.58.411,stockport_simplified,2022.2.4,Win32,59.88023952,661e456ee6de07e70aa9ef7b,6628df88863cc09001a89a5e,,,,,,,,,,,,,,,,,,,,,,,,,,,,,,,,,,439.5982,441.2697,"[5,8,7,3,1,2,6,4]","[[0.3,0.2],[-0.3,0.2]]","[[-0.125,-0.2],[0.125,-0.2]]",0.17777782,-0.215740769,1,0,0,1.153900001,o2_image,441.2717,1,441.7613,441.7614,443.7587,0,0,0,0,1,,,,,,,,,,,,,,,,,,,,,,,,,,,,,,,,,,,,,,,,,,,,,,,,,,
,,5cdeaeb3557fbd00018a2c59,27,female,2024-04-24_12h32.58.411,stockport_simplified,2022.2.4,Win32,59.88023952,661e456ee6de07e70aa9ef7b,6628df88863cc09001a89a5e,,,,,,,,,,,,,,,,,,,,,,,,,,,,,,,,,,,,,,,,,,,,,,,,,,,,,,,,1,8,68,10,1,B,X,N,o2_image,stimuli/out2.png,stimuli/out1.png,stimuli/correct_out2.png,,,,,,,,,,,,,,,,,,,,,,,,,,,,,,,,,,,,,,
,,5cdeaeb3557fbd00018a2c59,27,female,2024-04-24_12h32.58.411,stockport_simplified,2022.2.4,Win32,59.88023952,661e456ee6de07e70aa9ef7b,6628df88863cc09001a89a5e,,,,,,,,,,,,,,,,,,,,,,,,,,,,,,,,,,443.76,445.063,"[5,8,7,3,1,2,6,4]","[[0.3,0.2],[-0.3,0.2]]","[[-0.125,-0.2],[0.125,-0.2]]",0.125925912,-0.20648151,1,0,0,0.7986,o2_image,445.0636,1,445.5609,445.561,447.5559,0,0,0,0,1,,,,,,,,,,,,,,,,,,,,,,,,,,,,,,,,,,,,,,,,,,,,,,,,,,
,,5cdeaeb3557fbd00018a2c59,27,female,2024-04-24_12h32.58.411,stockport_simplified,2022.2.4,Win32,59.88023952,661e456ee6de07e70aa9ef7b,6628df88863cc09001a89a5e,,,,,,,,,,,,,,,,,,,,,,,,,,,,,,,,,,,,,,,,,,,,,,,,,,,,,,,,1,9,69,13,1,B,X,N,o2_image,stimuli/out2.png,stimuli/out1.png,stimuli/correct_out2.png,,,,,,,,,,,,,,,,,,,,,,,,,,,,,,,,,,,,,,
,,5cdeaeb3557fbd00018a2c59,27,female,2024-04-24_12h32.58.411,stockport_simplified,2022.2.4,Win32,59.88023952,661e456ee6de07e70aa9ef7b,6628df88863cc09001a89a5e,,,,,,,,,,,,,,,,,,,,,,,,,,,,,,,,,,447.5579,449.3042,"[5,8,7,3,1,2,6,4]","[[-0.3,0.2],[0.3,0.2]]","[[0.125,-0.2],[-0.125,-0.2]]",0.145370413,-0.193518533,1,0,0,1.2307,o1_image,449.305,1,449.8041,449.8041,451.802,0,0,0,0,1,,,,,,,,,,,,,,,,,,,,,,,,,,,,,,,,,,,,,,,,,,,,,,,,,,
,,5cdeaeb3557fbd00018a2c59,27,female,2024-04-24_12h32.58.411,stockport_simplified,2022.2.4,Win32,59.88023952,661e456ee6de07e70aa9ef7b,6628df88863cc09001a89a5e,,,,,,,,,,,,,,,,,,,,,,,,,,,,,,,,,,,,,,,,,,,,,,,,,,,,,,,,1,10,70,1,1,A,X,N,o1_image,stimuli/out1.png,stimuli/correct_out1.png,stimuli/out2.png,,,,,,,,,,,,,,,,,,,,,,,,,,,,,,,,,,,,,,
,,5cdeaeb3557fbd00018a2c59,27,female,2024-04-24_12h32.58.411,stockport_simplified,2022.2.4,Win32,59.88023952,661e456ee6de07e70aa9ef7b,6628df88863cc09001a89a5e,,,,,,,,,,,,,,,,,,,,,,,,,,,,,,,,,,451.8039,453.3912,"[5,8,7,3,1,2,6,4]","[[0.3,0.2],[-0.3,0.2]]","[[-0.125,-0.2],[0.125,-0.2]]",0.109259288,-0.192592621,1,0,0,1.0707,o2_image,453.3938,1,453.8839,453.8839,455.8828,0,0,0,0,1,,,,,,,,,,,,,,,,,,,,,,,,,,,,,,,,,,,,,,,,,,,,,,,,,,
,,5cdeaeb3557fbd00018a2c59,27,female,2024-04-24_12h32.58.411,stockport_simplified,2022.2.4,Win32,59.88023952,661e456ee6de07e70aa9ef7b,6628df88863cc09001a89a5e,,,,,,,,,,,,,,,,,,,,,,,,,,,,,,,,,,,,,,,,,,,,,,,,,,,,,,,,1,11,71,44,1,B,X,N,o2_image,stimuli/out2.png,stimuli/out1.png,stimuli/correct_out2.png,,,,,,,,,,,,,,,,,,,,,,,,,,,,,,,,,,,,,,
,,5cdeaeb3557fbd00018a2c59,27,female,2024-04-24_12h32.58.411,stockport_simplified,2022.2.4,Win32,59.88023952,661e456ee6de07e70aa9ef7b,6628df88863cc09001a89a5e,,,,,,,,,,,,,,,,,,,,,,,,,,,,,,,,,,455.8839,457.1491,"[5,8,7,3,1,2,6,4]","[[0.3,0.2],[-0.3,0.2]]","[[-0.125,-0.2],[0.125,-0.2]]",0.111111111,-0.192592621,1,0,0,0.7435,o2_image,457.1518,1,457.6464,457.6465,459.6353,0,0,0,0,1,,,,,,,,,,,,,,,,,,,,,,,,,,,,,,,,,,,,,,,,,,,,,,,,,,
,,5cdeaeb3557fbd00018a2c59,27,female,2024-04-24_12h32.58.411,stockport_simplified,2022.2.4,Win32,59.88023952,661e456ee6de07e70aa9ef7b,6628df88863cc09001a89a5e,,,,,,,,,,,,,,,,,,,,,,,,,,,,,,,,,,,,,,,,,,,,,,,,,,,,,,,,1,12,72,15,1,B,Y,N,o2_image,stimuli/out2.png,stimuli/out1.png,stimuli/correct_out2.png,,,,,,,,,,,,,,,,,,,,,,,,,,,,,,,,,,,,,,
,,5cdeaeb3557fbd00018a2c59,27,female,2024-04-24_12h32.58.411,stockport_simplified,2022.2.4,Win32,59.88023952,661e456ee6de07e70aa9ef7b,6628df88863cc09001a89a5e,,,,,,,,,,,,,,,,,,,,,,,,,,,,,,,,,,459.6371,461.3119,"[5,8,7,3,1,2,6,4]","[[-0.3,0.2],[0.3,0.2]]","[[-0.125,-0.2],[0.125,-0.2]]",-0.111111111,-0.179629644,1,0,0,1.1588,o1_image,461.3144,1,461.8111,461.8111,463.815,0,0,0,0,1,,,,,,,,,,,,,,,,,,,,,,,,,,,,,,,,,,,,,,,,,,,,,,,,,,
,,5cdeaeb3557fbd00018a2c59,27,female,2024-04-24_12h32.58.411,stockport_simplified,2022.2.4,Win32,59.88023952,661e456ee6de07e70aa9ef7b,6628df88863cc09001a89a5e,,,,,,,,,,,,,,,,,,,,,,,,,,,,,,,,,,,,,,,,,,,,,,,,,,,,,,,,1,13,73,6,1,A,Y,N,o1_image,stimuli/out1.png,stimuli/correct_out1.png,stimuli/out2.png,,,,,,,,,,,,,,,,,,,,,,,,,,,,,,,,,,,,,,
,,5cdeaeb3557fbd00018a2c59,27,female,2024-04-24_12h32.58.411,stockport_simplified,2022.2.4,Win32,59.88023952,661e456ee6de07e70aa9ef7b,6628df88863cc09001a89a5e,,,,,,,,,,,,,,,,,,,,,,,,,,,,,,,,,,463.8181,465.4116,"[5,8,7,3,1,2,6,4]","[[0.3,0.2],[-0.3,0.2]]","[[0.125,-0.2],[-0.125,-0.2]]",-0.102777764,-0.172222208,1,0,0,1.087099999,o2_image,465.412,1,465.9063,465.9063,467.9042,0,0,0,0,1,,,,,,,,,,,,,,,,,,,,,,,,,,,,,,,,,,,,,,,,,,,,,,,,,,
,,5cdeaeb3557fbd00018a2c59,27,female,2024-04-24_12h32.58.411,stockport_simplified,2022.2.4,Win32,59.88023952,661e456ee6de07e70aa9ef7b,6628df88863cc09001a89a5e,,,,,,,,,,,,,,,,,,,,,,,,,,,,,,,,,,,,,,,,,,,,,,,,,,,,,,,,1,14,74,46,1,B,Y,N,o2_image,stimuli/out2.png,stimuli/out1.png,stimuli/correct_out2.png,,,,,,,,,,,,,,,,,,,,,,,,,,,,,,,,,,,,,,
,,5cdeaeb3557fbd00018a2c59,27,female,2024-04-24_12h32.58.411,stockport_simplified,2022.2.4,Win32,59.88023952,661e456ee6de07e70aa9ef7b,6628df88863cc09001a89a5e,,,,,,,,,,,,,,,,,,,,,,,,,,,,,,,,,,467.9049,469.6198,"[5,8,7,3,1,2,6,4]","[[-0.3,0.2],[0.3,0.2]]","[[-0.125,-0.2],[0.125,-0.2]]",-0.12037037,-0.180555556,1,0,0,1.1998,o1_image,469.6213,1,470.1196,470.1197,472.1177,0,0,0,0,1,,,,,,,,,,,,,,,,,,,,,,,,,,,,,,,,,,,,,,,,,,,,,,,,,,
,,5cdeaeb3557fbd00018a2c59,27,female,2024-04-24_12h32.58.411,stockport_simplified,2022.2.4,Win32,59.88023952,661e456ee6de07e70aa9ef7b,6628df88863cc09001a89a5e,,,,,,,,,,,,,,,,,,,,,,,,,,,,,,,,,,,,,,,,,,,,,,,,,,,,,,,,1,15,75,4,1,A,X,N,o1_image,stimuli/out1.png,stimuli/correct_out1.png,stimuli/out2.png,,,,,,,,,,,,,,,,,,,,,,,,,,,,,,,,,,,,,,
,,5cdeaeb3557fbd00018a2c59,27,female,2024-04-24_12h32.58.411,stockport_simplified,2022.2.4,Win32,59.88023952,661e456ee6de07e70aa9ef7b,6628df88863cc09001a89a5e,,,,,,,,,,,,,,,,,,,,,,,,,,,,,,,,,,472.1192,473.7384,"[5,8,7,3,1,2,6,4]","[[0.3,0.2],[-0.3,0.2]]","[[0.125,-0.2],[-0.125,-0.2]]",0.124074088,-0.192592621,1,0,0,1.1041,o1_image,473.7392,1,474.2327,474.2329,476.2308,0,0,0,0,1,,,,,,,,,,,,,,,,,,,,,,,,,,,,,,,,,,,,,,,,,,,,,,,,,,
,,5cdeaeb3557fbd00018a2c59,27,female,2024-04-24_12h32.58.411,stockport_simplified,2022.2.4,Win32,59.88023952,661e456ee6de07e70aa9ef7b,6628df88863cc09001a89a5e,,,,,,,,,,,,,,,,,,,,,,,,,,,,,,,,,,,,,,,,,,,,,,,,,,,,,,,,1,16,76,2,1,A,X,N,o1_image,stimuli/out1.png,stimuli/correct_out1.png,stimuli/out2.png,,,,,,,,,,,,,,,,,,,,,,,,,,,,,,,,,,,,,,
,,5cdeaeb3557fbd00018a2c59,27,female,2024-04-24_12h32.58.411,stockport_simplified,2022.2.4,Win32,59.88023952,661e456ee6de07e70aa9ef7b,6628df88863cc09001a89a5e,,,,,,,,,,,,,,,,,,,,,,,,,,,,,,,,,,476.2322,477.6968,"[5,8,7,3,1,2,6,4]","[[0.3,0.2],[-0.3,0.2]]","[[-0.125,-0.2],[0.125,-0.2]]",-0.102777764,-0.187962991,1,0,0,0.9459,o1_image,477.6984,1,478.1962,478.1962,480.1936,0,0,0,0,1,,,,,,,,,,,,,,,,,,,,,,,,,,,,,,,,,,,,,,,,,,,,,,,,,,
,,5cdeaeb3557fbd00018a2c59,27,female,2024-04-24_12h32.58.411,stockport_simplified,2022.2.4,Win32,59.88023952,661e456ee6de07e70aa9ef7b,6628df88863cc09001a89a5e,,,,,,,,,,,,,,,,,,,,,,,,,,,,,,,,,,,,,,,,,,,,,,,,,,,,,,,,1,17,77,20,1,N,M,C,o1_image,stimuli/out1.png,stimuli/correct_out1.png,stimuli/out2.png,,,,,,,,,,,,,,,,,,,,,,,,,,,,,,,,,,,,,,
,,5cdeaeb3557fbd00018a2c59,27,female,2024-04-24_12h32.58.411,stockport_simplified,2022.2.4,Win32,59.88023952,661e456ee6de07e70aa9ef7b,6628df88863cc09001a89a5e,,,,,,,,,,,,,,,,,,,,,,,,,,,,,,,,,,480.1948,481.7773,"[5,8,7,3,1,2,6,4]","[[-0.3,0.2],[0.3,0.2]]","[[0.125,-0.2],[-0.125,-0.2]]",0.084259245,-0.190740727,1,0,0,1.0755,o1_image,481.7802,1,482.2801,482.2801,484.2804,0,0,0,0,1,,,,,,,,,,,,,,,,,,,,,,,,,,,,,,,,,,,,,,,,,,,,,,,,,,
,,5cdeaeb3557fbd00018a2c59,27,female,2024-04-24_12h32.58.411,stockport_simplified,2022.2.4,Win32,59.88023952,661e456ee6de07e70aa9ef7b,6628df88863cc09001a89a5e,,,,,,,,,,,,,,,,,,,,,,,,,,,,,,,,,,,,,,,,,,,,,,,,,,,,,,,,1,18,78,34,1,A,X,N,o1_image,stimuli/out1.png,stimuli/correct_out1.png,stimuli/out2.png,,,,,,,,,,,,,,,,,,,,,,,,,,,,,,,,,,,,,,
,,5cdeaeb3557fbd00018a2c59,27,female,2024-04-24_12h32.58.411,stockport_simplified,2022.2.4,Win32,59.88023952,661e456ee6de07e70aa9ef7b,6628df88863cc09001a89a5e,,,,,,,,,,,,,,,,,,,,,,,,,,,,,,,,,,484.2821,485.6977,"[5,8,7,3,1,2,6,4]","[[0.3,0.2],[-0.3,0.2]]","[[-0.125,-0.2],[0.125,-0.2]]",0.099074116,-0.196296339,1,0,0,0.8997,o2_image,485.7004,1,486.2045,486.2045,488.2039,0,0,0,0,1,,,,,,,,,,,,,,,,,,,,,,,,,,,,,,,,,,,,,,,,,,,,,,,,,,
,,5cdeaeb3557fbd00018a2c59,27,female,2024-04-24_12h32.58.411,stockport_simplified,2022.2.4,Win32,59.88023952,661e456ee6de07e70aa9ef7b,6628df88863cc09001a89a5e,,,,,,,,,,,,,,,,,,,,,,,,,,,,,,,,,,,,,,,,,,,,,,,,,,,,,,,,1,19,79,40,1,B,X,N,o2_image,stimuli/out2.png,stimuli/out1.png,stimuli/correct_out2.png,,,,,,,,,,,,,,,,,,,,,,,,,,,,,,,,,,,,,,
,,5cdeaeb3557fbd00018a2c59,27,female,2024-04-24_12h32.58.411,stockport_simplified,2022.2.4,Win32,59.88023952,661e456ee6de07e70aa9ef7b,6628df88863cc09001a89a5e,,,,,,,,,,,,,,,,,,,,,,,,,,,,,,,,,,488.2056,489.7183,"[5,8,7,3,1,2,6,4]","[[0.3,0.2],[-0.3,0.2]]","[[0.125,-0.2],[-0.125,-0.2]]",-0.092592593,-0.196296339,1,0,0,0.9995,o2_image,489.719,1,490.2189,490.2189,492.2179,0,0,0,0,1,,,,,,,,,,,,,,,,,,,,,,,,,,,,,,,,,,,,,,,,,,,,,,,,,,
,,5cdeaeb3557fbd00018a2c59,27,female,2024-04-24_12h32.58.411,stockport_simplified,2022.2.4,Win32,59.88023952,661e456ee6de07e70aa9ef7b,6628df88863cc09001a89a5e,,,,,,,,,,,,,,,,,,,,,,,,,,,,,,,,,,,,,,,,,,,,,,,,,,,,,,,,1,20,80,41,1,B,X,N,o2_image,stimuli/out2.png,stimuli/out1.png,stimuli/correct_out2.png,,,,,,,,,,,,,,,,,,,,,,,,,,,,,,,,,,,,,,
,,5cdeaeb3557fbd00018a2c59,27,female,2024-04-24_12h32.58.411,stockport_simplified,2022.2.4,Win32,59.88023952,661e456ee6de07e70aa9ef7b,6628df88863cc09001a89a5e,,,,,,,,,,,,,,,,,,,,,,,,,,,,,,,,,,492.2195,493.599,"[5,8,7,3,1,2,6,4]","[[0.3,0.2],[-0.3,0.2]]","[[-0.125,-0.2],[0.125,-0.2]]",-0.097222222,-0.203703704,1,0,0,0.8658,o1_image,493.6002,1,494.0989,494.0991,496.0966,0,0,0,0,1,,,,,,,,,,,,,,,,,,,,,,,,,,,,,,,,,,,,,,,,,,,,,,,,,,
,,5cdeaeb3557fbd00018a2c59,27,female,2024-04-24_12h32.58.411,stockport_simplified,2022.2.4,Win32,59.88023952,661e456ee6de07e70aa9ef7b,6628df88863cc09001a89a5e,,,,,,,,,,,,,,,,,,,,,,,,,,,,,,,,,,,,,,,,,,,,,,,,,,,,,,,,1,21,81,3,1,A,X,N,o1_image,stimuli/out1.png,stimuli/correct_out1.png,stimuli/out2.png,,,,,,,,,,,,,,,,,,,,,,,,,,,,,,,,,,,,,,
,,5cdeaeb3557fbd00018a2c59,27,female,2024-04-24_12h32.58.411,stockport_simplified,2022.2.4,Win32,59.88023952,661e456ee6de07e70aa9ef7b,6628df88863cc09001a89a5e,,,,,,,,,,,,,,,,,,,,,,,,,,,,,,,,,,496.0986,497.8449,"[5,8,7,3,1,2,6,4]","[[-0.3,0.2],[0.3,0.2]]","[[0.125,-0.2],[-0.125,-0.2]]",-0.140740712,-0.212037051,1,0,0,1.232,o2_image,497.8454,1,498.3444,498.3445,500.3432,0,0,0,0,1,,,,,,,,,,,,,,,,,,,,,,,,,,,,,,,,,,,,,,,,,,,,,,,,,,
,,5cdeaeb3557fbd00018a2c59,27,female,2024-04-24_12h32.58.411,stockport_simplified,2022.2.4,Win32,59.88023952,661e456ee6de07e70aa9ef7b,6628df88863cc09001a89a5e,,,,,,,,,,,,,,,,,,,,,,,,,,,,,,,,,,,,,,,,,,,,,,,,,,,,,,,,1,22,82,48,1,B,Y,N,o2_image,stimuli/out2.png,stimuli/out1.png,stimuli/correct_out2.png,,,,,,,,,,,,,,,,,,,,,,,,,,,,,,,,,,,,,,
,,5cdeaeb3557fbd00018a2c59,27,female,2024-04-24_12h32.58.411,stockport_simplified,2022.2.4,Win32,59.88023952,661e456ee6de07e70aa9ef7b,6628df88863cc09001a89a5e,,,,,,,,,,,,,,,,,,,,,,,,,,,,,,,,,,500.3445,501.7252,"[5,8,7,3,1,2,6,4]","[[0.3,0.2],[-0.3,0.2]]","[[0.125,-0.2],[-0.125,-0.2]]",-0.109259217,-0.212037051,1,0,0,0.865400001,o2_image,501.7261,1,502.2239,502.224,504.2282,0,0,0,0,1,,,,,,,,,,,,,,,,,,,,,,,,,,,,,,,,,,,,,,,,,,,,,,,,,,
,,5cdeaeb3557fbd00018a2c59,27,female,2024-04-24_12h32.58.411,stockport_simplified,2022.2.4,Win32,59.88023952,661e456ee6de07e70aa9ef7b,6628df88863cc09001a89a5e,,,,,,,,,,,,,,,,,,,,,,,,,,,,,,,,,,,,,,,,,,,,,,,,,,,,,,,,1,23,83,56,1,N,M,D,o2_image,stimuli/out2.png,stimuli/out1.png,stimuli/correct_out2.png,,,,,,,,,,,,,,,,,,,,,,,,,,,,,,,,,,,,,,
,,5cdeaeb3557fbd00018a2c59,27,female,2024-04-24_12h32.58.411,stockport_simplified,2022.2.4,Win32,59.88023952,661e456ee6de07e70aa9ef7b,6628df88863cc09001a89a5e,,,,,,,,,,,,,,,,,,,,,,,,,,,,,,,,,,504.2298,505.7712,"[5,8,7,3,1,2,6,4]","[[0.3,0.2],[-0.3,0.2]]","[[-0.125,-0.2],[0.125,-0.2]]",0.116666653,-0.216666681,1,0,0,1.029799999,o2_image,505.7718,1,506.2711,506.2711,508.2759,0,0,0,0,1,,,,,,,,,,,,,,,,,,,,,,,,,,,,,,,,,,,,,,,,,,,,,,,,,,
,,5cdeaeb3557fbd00018a2c59,27,female,2024-04-24_12h32.58.411,stockport_simplified,2022.2.4,Win32,59.88023952,661e456ee6de07e70aa9ef7b,6628df88863cc09001a89a5e,,,,,,,,,,,,,,,,,,,,,,,,,,,,,,,,,,,,,,,,,,,,,,,,,,,,,,,,1,24,84,45,1,B,Y,N,o2_image,stimuli/out2.png,stimuli/out1.png,stimuli/correct_out2.png,,,,,,,,,,,,,,,,,,,,,,,,,,,,,,,,,,,,,,
,,5cdeaeb3557fbd00018a2c59,27,female,2024-04-24_12h32.58.411,stockport_simplified,2022.2.4,Win32,59.88023952,661e456ee6de07e70aa9ef7b,6628df88863cc09001a89a5e,,,,,,,,,,,,,,,,,,,,,,,,,,,,,,,,,,508.2775,509.6692,"[5,8,7,3,1,2,6,4]","[[0.3,0.2],[-0.3,0.2]]","[[0.125,-0.2],[-0.125,-0.2]]",-0.046296296,-0.216666681,1,0,0,0.8794,o2_image,509.6703,1,510.1674,510.1675,512.1729,0,0,0,0,1,,,,,,,,,,,,,,,,,,,,,,,,,,,,,,,,,,,,,,,,,,,,,,,,,,
,,5cdeaeb3557fbd00018a2c59,27,female,2024-04-24_12h32.58.411,stockport_simplified,2022.2.4,Win32,59.88023952,661e456ee6de07e70aa9ef7b,6628df88863cc09001a89a5e,,,,,,,,,,,,,,,,,,,,,,,,,,,,,,,,,,,,,,,,,,,,,,,,,,,,,,,,1,25,85,57,1,N,M,D,o2_image,stimuli/out2.png,stimuli/out1.png,stimuli/correct_out2.png,,,,,,,,,,,,,,,,,,,,,,,,,,,,,,,,,,,,,,
,,5cdeaeb3557fbd00018a2c59,27,female,2024-04-24_12h32.58.411,stockport_simplified,2022.2.4,Win32,59.88023952,661e456ee6de07e70aa9ef7b,6628df88863cc09001a89a5e,,,,,,,,,,,,,,,,,,,,,,,,,,,,,,,,,,512.1745,514.1812,"[5,8,7,3,1,2,6,4]","[[0.3,0.2],[-0.3,0.2]]","[[0.125,-0.2],[-0.125,-0.2]]",0.090740769,-0.216666681,1,0,0,1.4965,o1_image,514.1846,1,514.6812,514.6812,516.6788,0,0,0,0,1,,,,,,,,,,,,,,,,,,,,,,,,,,,,,,,,,,,,,,,,,,,,,,,,,,
,,5cdeaeb3557fbd00018a2c59,27,female,2024-04-24_12h32.58.411,stockport_simplified,2022.2.4,Win32,59.88023952,661e456ee6de07e70aa9ef7b,6628df88863cc09001a89a5e,,,,,,,,,,,,,,,,,,,,,,,,,,,,,,,,,,,,,,,,,,,,,,,,,,,,,,,,1,26,86,9,1,A,Y,N,o1_image,stimuli/out1.png,stimuli/correct_out1.png,stimuli/out2.png,,,,,,,,,,,,,,,,,,,,,,,,,,,,,,,,,,,,,,
,,5cdeaeb3557fbd00018a2c59,27,female,2024-04-24_12h32.58.411,stockport_simplified,2022.2.4,Win32,59.88023952,661e456ee6de07e70aa9ef7b,6628df88863cc09001a89a5e,,,,,,,,,,,,,,,,,,,,,,,,,,,,,,,,,,516.6801,518.0495,"[5,8,7,3,1,2,6,4]","[[0.3,0.2],[-0.3,0.2]]","[[-0.125,-0.2],[0.125,-0.2]]",0.10555557,-0.224074116,1,0,0,0.8535,o2_image,518.0503,1,518.5485,518.5486,520.5421,0,0,0,0,1,,,,,,,,,,,,,,,,,,,,,,,,,,,,,,,,,,,,,,,,,,,,,,,,,,
,,5cdeaeb3557fbd00018a2c59,27,female,2024-04-24_12h32.58.411,stockport_simplified,2022.2.4,Win32,59.88023952,661e456ee6de07e70aa9ef7b,6628df88863cc09001a89a5e,,,,,,,,,,,,,,,,,,,,,,,,,,,,,,,,,,,,,,,,,,,,,,,,,,,,,,,,1,27,87,18,1,B,Y,N,o2_image,stimuli/out2.png,stimuli/out1.png,stimuli/correct_out2.png,,,,,,,,,,,,,,,,,,,,,,,,,,,,,,,,,,,,,,
,,5cdeaeb3557fbd00018a2c59,27,female,2024-04-24_12h32.58.411,stockport_simplified,2022.2.4,Win32,59.88023952,661e456ee6de07e70aa9ef7b,6628df88863cc09001a89a5e,,,,,,,,,,,,,,,,,,,,,,,,,,,,,,,,,,520.544,522.2968,"[5,8,7,3,1,2,6,4]","[[0.3,0.2],[-0.3,0.2]]","[[-0.125,-0.2],[0.125,-0.2]]",-0.064814815,-0.211111139,1,0,0,1.2345,o1_image,522.2981,1,522.7908,522.791,524.7899,0,0,0,0,1,,,,,,,,,,,,,,,,,,,,,,,,,,,,,,,,,,,,,,,,,,,,,,,,,,
,,5cdeaeb3557fbd00018a2c59,27,female,2024-04-24_12h32.58.411,stockport_simplified,2022.2.4,Win32,59.88023952,661e456ee6de07e70aa9ef7b,6628df88863cc09001a89a5e,,,,,,,,,,,,,,,,,,,,,,,,,,,,,,,,,,,,,,,,,,,,,,,,,,,,,,,,1,28,88,7,1,A,Y,N,o1_image,stimuli/out1.png,stimuli/correct_out1.png,stimuli/out2.png,,,,,,,,,,,,,,,,,,,,,,,,,,,,,,,,,,,,,,
,,5cdeaeb3557fbd00018a2c59,27,female,2024-04-24_12h32.58.411,stockport_simplified,2022.2.4,Win32,59.88023952,661e456ee6de07e70aa9ef7b,6628df88863cc09001a89a5e,,,,,,,,,,,,,,,,,,,,,,,,,,,,,,,,,,524.7915,526.2375,"[5,8,7,3,1,2,6,4]","[[0.3,0.2],[-0.3,0.2]]","[[-0.125,-0.2],[0.125,-0.2]]",0.122222265,-0.220370399,1,0,0,0.930400001,o2_image,526.239,1,526.7375,526.7375,528.734,0,0,0,0,1,,,,,,,,,,,,,,,,,,,,,,,,,,,,,,,,,,,,,,,,,,,,,,,,,,
,,5cdeaeb3557fbd00018a2c59,27,female,2024-04-24_12h32.58.411,stockport_simplified,2022.2.4,Win32,59.88023952,661e456ee6de07e70aa9ef7b,6628df88863cc09001a89a5e,,,,,,,,,,,,,,,,,,,,,,,,,,,,,,,,,,,,,,,,,,,,,,,,,,,,,,,,1,29,89,28,1,N,M,D,o2_image,stimuli/out2.png,stimuli/out1.png,stimuli/correct_out2.png,,,,,,,,,,,,,,,,,,,,,,,,,,,,,,,,,,,,,,
,,5cdeaeb3557fbd00018a2c59,27,female,2024-04-24_12h32.58.411,stockport_simplified,2022.2.4,Win32,59.88023952,661e456ee6de07e70aa9ef7b,6628df88863cc09001a89a5e,,,,,,,,,,,,,,,,,,,,,,,,,,,,,,,,,,528.7345,530.233,"[5,8,7,3,1,2,6,4]","[[0.3,0.2],[-0.3,0.2]]","[[-0.125,-0.2],[0.125,-0.2]]",-0.12962963,-0.20648151,1,0,0,0.9915,o1_image,530.2347,1,530.7325,530.7325,532.7376,0,0,0,0,1,,,,,,,,,,,,,,,,,,,,,,,,,,,,,,,,,,,,,,,,,,,,,,,,,,
,,5cdeaeb3557fbd00018a2c59,27,female,2024-04-24_12h32.58.411,stockport_simplified,2022.2.4,Win32,59.88023952,661e456ee6de07e70aa9ef7b,6628df88863cc09001a89a5e,,,,,,,,,,,,,,,,,,,,,,,,,,,,,,,,,,,,,,,,,,,,,,,,,,,,,,,,1,30,90,53,1,N,M,C,o1_image,stimuli/out1.png,stimuli/correct_out1.png,stimuli/out2.png,,,,,,,,,,,,,,,,,,,,,,,,,,,,,,,,,,,,,,
,,5cdeaeb3557fbd00018a2c59,27,female,2024-04-24_12h32.58.411,stockport_simplified,2022.2.4,Win32,59.88023952,661e456ee6de07e70aa9ef7b,6628df88863cc09001a89a5e,,,,,,,,,,,,,,,,,,,,,,,,,,,,,,,,,,532.7391,534.5028,"[5,8,7,3,1,2,6,4]","[[-0.3,0.2],[0.3,0.2]]","[[-0.125,-0.2],[0.125,-0.2]]",-0.112037023,-0.211111139,1,0,0,1.2511,o1_image,534.5042,1,535.0006,535.0006,536.9965,0,0,0,0,1,,,,,,,,,,,,,,,,,,,,,,,,,,,,,,,,,,,,,,,,,,,,,,,,,,
,,5cdeaeb3557fbd00018a2c59,27,female,2024-04-24_12h32.58.411,stockport_simplified,2022.2.4,Win32,59.88023952,661e456ee6de07e70aa9ef7b,6628df88863cc09001a89a5e,,,,,,,,,,,,,,,,,,,,,,,,,,,,,,,,,,,,,,,,,,,,,,,,,,,,,,,,1,31,91,31,1,A,X,N,o1_image,stimuli/out1.png,stimuli/correct_out1.png,stimuli/out2.png,,,,,,,,,,,,,,,,,,,,,,,,,,,,,,,,,,,,,,
,,5cdeaeb3557fbd00018a2c59,27,female,2024-04-24_12h32.58.411,stockport_simplified,2022.2.4,Win32,59.88023952,661e456ee6de07e70aa9ef7b,6628df88863cc09001a89a5e,,,,,,,,,,,,,,,,,,,,,,,,,,,,,,,,,,536.9971,538.5427,"[5,8,7,3,1,2,6,4]","[[0.3,0.2],[-0.3,0.2]]","[[0.125,-0.2],[-0.125,-0.2]]",-0.116666653,-0.211111139,1,0,0,1.0267,o2_image,538.5436,1,539.0425,539.0425,541.0408,0,0,0,0,1,,,,,,,,,,,,,,,,,,,,,,,,,,,,,,,,,,,,,,,,,,,,,,,,,,
,,5cdeaeb3557fbd00018a2c59,27,female,2024-04-24_12h32.58.411,stockport_simplified,2022.2.4,Win32,59.88023952,661e456ee6de07e70aa9ef7b,6628df88863cc09001a89a5e,,,,,,,,,,,,,,,,,,,,,,,,,,,,,,,,,,,,,,,,,,,,,,,,,,,,,,,,1,32,92,26,1,N,M,D,o2_image,stimuli/out2.png,stimuli/out1.png,stimuli/correct_out2.png,,,,,,,,,,,,,,,,,,,,,,,,,,,,,,,,,,,,,,
,,5cdeaeb3557fbd00018a2c59,27,female,2024-04-24_12h32.58.411,stockport_simplified,2022.2.4,Win32,59.88023952,661e456ee6de07e70aa9ef7b,6628df88863cc09001a89a5e,,,,,,,,,,,,,,,,,,,,,,,,,,,,,,,,,,541.0423,542.774,"[5,8,7,3,1,2,6,4]","[[-0.3,0.2],[0.3,0.2]]","[[-0.125,-0.2],[0.125,-0.2]]",0.136111153,-0.227777764,1,0,0,1.2175,o2_image,542.7768,1,543.2724,543.2724,545.2705,0,0,0,0,1,,,,,,,,,,,,,,,,,,,,,,,,,,,,,,,,,,,,,,,,,,,,,,,,,,
,,5cdeaeb3557fbd00018a2c59,27,female,2024-04-24_12h32.58.411,stockport_simplified,2022.2.4,Win32,59.88023952,661e456ee6de07e70aa9ef7b,6628df88863cc09001a89a5e,,,,,,,,,,,,,,,,,,,,,,,,,,,,,,,,,,,,,,,,,,,,,,,,,,,,,,,,1,33,93,29,1,N,M,D,o2_image,stimuli/out2.png,stimuli/out1.png,stimuli/correct_out2.png,,,,,,,,,,,,,,,,,,,,,,,,,,,,,,,,,,,,,,
,,5cdeaeb3557fbd00018a2c59,27,female,2024-04-24_12h32.58.411,stockport_simplified,2022.2.4,Win32,59.88023952,661e456ee6de07e70aa9ef7b,6628df88863cc09001a89a5e,,,,,,,,,,,,,,,,,,,,,,,,,,,,,,,,,,545.2723,546.6191,"[5,8,7,3,1,2,6,4]","[[0.3,0.2],[-0.3,0.2]]","[[0.125,-0.2],[-0.125,-0.2]]",-0.097222222,-0.225000028,1,0,0,0.832599999,o2_image,546.6201,1,547.1194,547.1194,549.1167,0,0,0,0,1,,,,,,,,,,,,,,,,,,,,,,,,,,,,,,,,,,,,,,,,,,,,,,,,,,
,,5cdeaeb3557fbd00018a2c59,27,female,2024-04-24_12h32.58.411,stockport_simplified,2022.2.4,Win32,59.88023952,661e456ee6de07e70aa9ef7b,6628df88863cc09001a89a5e,,,,,,,,,,,,,,,,,,,,,,,,,,,,,,,,,,,,,,,,,,,,,,,,,,,,,,,,1,34,94,55,1,N,M,D,o2_image,stimuli/out2.png,stimuli/out1.png,stimuli/correct_out2.png,,,,,,,,,,,,,,,,,,,,,,,,,,,,,,,,,,,,,,
,,5cdeaeb3557fbd00018a2c59,27,female,2024-04-24_12h32.58.411,stockport_simplified,2022.2.4,Win32,59.88023952,661e456ee6de07e70aa9ef7b,6628df88863cc09001a89a5e,,,,,,,,,,,,,,,,,,,,,,,,,,,,,,,,,,549.1175,550.7164,"[5,8,7,3,1,2,6,4]","[[0.3,0.2],[-0.3,0.2]]","[[0.125,-0.2],[-0.125,-0.2]]",0.104629658,-0.215740769,1,0,0,1.0829,o1_image,550.7181,1,551.2145,551.2145,553.2038,0,0,0,0,1,,,,,,,,,,,,,,,,,,,,,,,,,,,,,,,,,,,,,,,,,,,,,,,,,,
,,5cdeaeb3557fbd00018a2c59,27,female,2024-04-24_12h32.58.411,stockport_simplified,2022.2.4,Win32,59.88023952,661e456ee6de07e70aa9ef7b,6628df88863cc09001a89a5e,,,,,,,,,,,,,,,,,,,,,,,,,,,,,,,,,,,,,,,,,,,,,,,,,,,,,,,,1,35,95,8,1,A,Y,N,o1_image,stimuli/out1.png,stimuli/correct_out1.png,stimuli/out2.png,,,,,,,,,,,,,,,,,,,,,,,,,,,,,,,,,,,,,,
,,5cdeaeb3557fbd00018a2c59,27,female,2024-04-24_12h32.58.411,stockport_simplified,2022.2.4,Win32,59.88023952,661e456ee6de07e70aa9ef7b,6628df88863cc09001a89a5e,,,,,,,,,,,,,,,,,,,,,,,,,,,,,,,,,,553.2055,554.5639,"[5,8,7,3,1,2,6,4]","[[0.3,0.2],[-0.3,0.2]]","[[-0.125,-0.2],[0.125,-0.2]]",-0.125925912,-0.208333333,1,0,0,0.8481,o1_image,554.5662,1,555.0623,555.0624,557.0648,0,0,0,0,1,,,,,,,,,,,,,,,,,,,,,,,,,,,,,,,,,,,,,,,,,,,,,,,,,,
,,5cdeaeb3557fbd00018a2c59,27,female,2024-04-24_12h32.58.411,stockport_simplified,2022.2.4,Win32,59.88023952,661e456ee6de07e70aa9ef7b,6628df88863cc09001a89a5e,,,,,,,,,,,,,,,,,,,,,,,,,,,,,,,,,,,,,,,,,,,,,,,,,,,,,,,,1,36,96,50,1,N,M,C,o1_image,stimuli/out1.png,stimuli/correct_out1.png,stimuli/out2.png,,,,,,,,,,,,,,,,,,,,,,,,,,,,,,,,,,,,,,
,,5cdeaeb3557fbd00018a2c59,27,female,2024-04-24_12h32.58.411,stockport_simplified,2022.2.4,Win32,59.88023952,661e456ee6de07e70aa9ef7b,6628df88863cc09001a89a5e,,,,,,,,,,,,,,,,,,,,,,,,,,,,,,,,,,557.0668,558.7128,"[5,8,7,3,1,2,6,4]","[[-0.3,0.2],[0.3,0.2]]","[[0.125,-0.2],[-0.125,-0.2]]",0.117592635,-0.214814857,1,0,0,1.131099999,o1_image,558.7146,1,559.2115,559.2116,561.2069,0,0,0,0,1,,,,,,,,,,,,,,,,,,,,,,,,,,,,,,,,,,,,,,,,,,,,,,,,,,
,,5cdeaeb3557fbd00018a2c59,27,female,2024-04-24_12h32.58.411,stockport_simplified,2022.2.4,Win32,59.88023952,661e456ee6de07e70aa9ef7b,6628df88863cc09001a89a5e,,,,,,,,,,,,,,,,,,,,,,,,,,,,,,,,,,,,,,,,,,,,,,,,,,,,,,,,1,37,97,5,1,A,Y,N,o1_image,stimuli/out1.png,stimuli/correct_out1.png,stimuli/out2.png,,,,,,,,,,,,,,,,,,,,,,,,,,,,,,,,,,,,,,
,,5cdeaeb3557fbd00018a2c59,27,female,2024-04-24_12h32.58.411,stockport_simplified,2022.2.4,Win32,59.88023952,661e456ee6de07e70aa9ef7b,6628df88863cc09001a89a5e,,,,,,,,,,,,,,,,,,,,,,,,,,,,,,,,,,561.2085,562.5315,"[5,8,7,3,1,2,6,4]","[[0.3,0.2],[-0.3,0.2]]","[[-0.125,-0.2],[0.125,-0.2]]",0.078703704,-0.211111139,1,0,0,0.811200001,o2_image,562.534,1,563.0375,563.0376,565.037,0,0,0,0,1,,,,,,,,,,,,,,,,,,,,,,,,,,,,,,,,,,,,,,,,,,,,,,,,,,
,,5cdeaeb3557fbd00018a2c59,27,female,2024-04-24_12h32.58.411,stockport_simplified,2022.2.4,Win32,59.88023952,661e456ee6de07e70aa9ef7b,6628df88863cc09001a89a5e,,,,,,,,,,,,,,,,,,,,,,,,,,,,,,,,,,,,,,,,,,,,,,,,,,,,,,,,1,38,98,27,1,N,M,D,o2_image,stimuli/out2.png,stimuli/out1.png,stimuli/correct_out2.png,,,,,,,,,,,,,,,,,,,,,,,,,,,,,,,,,,,,,,
,,5cdeaeb3557fbd00018a2c59,27,female,2024-04-24_12h32.58.411,stockport_simplified,2022.2.4,Win32,59.88023952,661e456ee6de07e70aa9ef7b,6628df88863cc09001a89a5e,,,,,,,,,,,,,,,,,,,,,,,,,,,,,,,,,,565.0386,566.6409,"[5,8,7,3,1,2,6,4]","[[0.3,0.2],[-0.3,0.2]]","[[-0.125,-0.2],[0.125,-0.2]]",0.103703746,-0.20648151,1,0,0,1.0867,o2_image,566.6416,1,567.1349,567.135,569.1327,0,0,0,0,1,,,,,,,,,,,,,,,,,,,,,,,,,,,,,,,,,,,,,,,,,,,,,,,,,,
,,5cdeaeb3557fbd00018a2c59,27,female,2024-04-24_12h32.58.411,stockport_simplified,2022.2.4,Win32,59.88023952,661e456ee6de07e70aa9ef7b,6628df88863cc09001a89a5e,,,,,,,,,,,,,,,,,,,,,,,,,,,,,,,,,,,,,,,,,,,,,,,,,,,,,,,,1,39,99,17,1,B,Y,N,o2_image,stimuli/out2.png,stimuli/out1.png,stimuli/correct_out2.png,,,,,,,,,,,,,,,,,,,,,,,,,,,,,,,,,,,,,,
,,5cdeaeb3557fbd00018a2c59,27,female,2024-04-24_12h32.58.411,stockport_simplified,2022.2.4,Win32,59.88023952,661e456ee6de07e70aa9ef7b,6628df88863cc09001a89a5e,,,,,,,,,,,,,,,,,,,,,,,,,,,,,,,,,,569.1332,571.6321,"[5,8,7,3,1,2,6,4]","[[0.3,0.2],[-0.3,0.2]]","[[0.125,-0.2],[-0.125,-0.2]]",-0.125925912,-0.187037079,1,0,0,1.981400001,o2_image,571.6345,1,572.132,572.132,574.1296,0,0,0,0,1,,,,,,,,,,,,,,,,,,,,,,,,,,,,,,,,,,,,,,,,,,,,,,,,,,
,,5cdeaeb3557fbd00018a2c59,27,female,2024-04-24_12h32.58.411,stockport_simplified,2022.2.4,Win32,59.88023952,661e456ee6de07e70aa9ef7b,6628df88863cc09001a89a5e,,,,,,,,,,,,,,,,,,,,,,,,,,,,,,,,,,,,,,,,,,,,,,,,,,,,,,,,1,40,100,19,1,B,Y,N,o2_image,stimuli/out2.png,stimuli/out1.png,stimuli/correct_out2.png,,,,,,,,,,,,,,,,,,,,,,,,,,,,,,,,,,,,,,
,,5cdeaeb3557fbd00018a2c59,27,female,2024-04-24_12h32.58.411,stockport_simplified,2022.2.4,Win32,59.88023952,661e456ee6de07e70aa9ef7b,6628df88863cc09001a89a5e,,,,,,,,,,,,,,,,,,,,,,,,,,,,,,,,,,574.1308,575.4109,"[5,8,7,3,1,2,6,4]","[[-0.3,0.2],[0.3,0.2]]","[[-0.125,-0.2],[0.125,-0.2]]",-0.099999958,-0.194444444,1,0,0,0.7658,o1_image,575.4136,1,575.9107,575.9108,577.9089,0,0,0,0,1,,,,,,,,,,,,,,,,,,,,,,,,,,,,,,,,,,,,,,,,,,,,,,,,,,
,,5cdeaeb3557fbd00018a2c59,27,female,2024-04-24_12h32.58.411,stockport_simplified,2022.2.4,Win32,59.88023952,661e456ee6de07e70aa9ef7b,6628df88863cc09001a89a5e,,,,,,,,,,,,,,,,,,,,,,,,,,,,,,,,,,,,,,,,,,,,,,,,,,,,,,,,1,41,101,23,1,N,M,C,o1_image,stimuli/out1.png,stimuli/correct_out1.png,stimuli/out2.png,,,,,,,,,,,,,,,,,,,,,,,,,,,,,,,,,,,,,,
,,5cdeaeb3557fbd00018a2c59,27,female,2024-04-24_12h32.58.411,stockport_simplified,2022.2.4,Win32,59.88023952,661e456ee6de07e70aa9ef7b,6628df88863cc09001a89a5e,,,,,,,,,,,,,,,,,,,,,,,,,,,,,,,,,,577.9108,579.4911,"[5,8,7,3,1,2,6,4]","[[0.3,0.2],[-0.3,0.2]]","[[-0.125,-0.2],[0.125,-0.2]]",0.113888917,-0.19722225,1,0,0,1.064200001,o2_image,579.4927,1,579.9902,579.9903,581.9887,0,0,0,0,1,,,,,,,,,,,,,,,,,,,,,,,,,,,,,,,,,,,,,,,,,,,,,,,,,,
,,5cdeaeb3557fbd00018a2c59,27,female,2024-04-24_12h32.58.411,stockport_simplified,2022.2.4,Win32,59.88023952,661e456ee6de07e70aa9ef7b,6628df88863cc09001a89a5e,,,,,,,,,,,,,,,,,,,,,,,,,,,,,,,,,,,,,,,,,,,,,,,,,,,,,,,,1,42,102,16,1,B,Y,N,o2_image,stimuli/out2.png,stimuli/out1.png,stimuli/correct_out2.png,,,,,,,,,,,,,,,,,,,,,,,,,,,,,,,,,,,,,,
,,5cdeaeb3557fbd00018a2c59,27,female,2024-04-24_12h32.58.411,stockport_simplified,2022.2.4,Win32,59.88023952,661e456ee6de07e70aa9ef7b,6628df88863cc09001a89a5e,,,,,,,,,,,,,,,,,,,,,,,,,,,,,,,,,,581.9906,583.6207,"[5,8,7,3,1,2,6,4]","[[-0.3,0.2],[0.3,0.2]]","[[-0.125,-0.2],[0.125,-0.2]]",0.086111139,-0.198148162,1,0,0,1.1148,o2_image,583.6221,1,584.1263,584.1265,586.1177,0,0,0,0,1,,,,,,,,,,,,,,,,,,,,,,,,,,,,,,,,,,,,,,,,,,,,,,,,,,
,,5cdeaeb3557fbd00018a2c59,27,female,2024-04-24_12h32.58.411,stockport_simplified,2022.2.4,Win32,59.88023952,661e456ee6de07e70aa9ef7b,6628df88863cc09001a89a5e,,,,,,,,,,,,,,,,,,,,,,,,,,,,,,,,,,,,,,,,,,,,,,,,,,,,,,,,1,43,103,12,1,B,X,N,o2_image,stimuli/out2.png,stimuli/out1.png,stimuli/correct_out2.png,,,,,,,,,,,,,,,,,,,,,,,,,,,,,,,,,,,,,,
,,5cdeaeb3557fbd00018a2c59,27,female,2024-04-24_12h32.58.411,stockport_simplified,2022.2.4,Win32,59.88023952,661e456ee6de07e70aa9ef7b,6628df88863cc09001a89a5e,,,,,,,,,,,,,,,,,,,,,,,,,,,,,,,,,,586.1191,587.4342,"[5,8,7,3,1,2,6,4]","[[0.3,0.2],[-0.3,0.2]]","[[-0.125,-0.2],[0.125,-0.2]]",-0.09629631,-0.198148162,1,0,0,0.797,o1_image,587.4369,1,587.9326,587.9327,589.9206,0,0,0,0,1,,,,,,,,,,,,,,,,,,,,,,,,,,,,,,,,,,,,,,,,,,,,,,,,,,
,,5cdeaeb3557fbd00018a2c59,27,female,2024-04-24_12h32.58.411,stockport_simplified,2022.2.4,Win32,59.88023952,661e456ee6de07e70aa9ef7b,6628df88863cc09001a89a5e,,,,,,,,,,,,,,,,,,,,,,,,,,,,,,,,,,,,,,,,,,,,,,,,,,,,,,,,1,44,104,21,1,N,M,C,o1_image,stimuli/out1.png,stimuli/correct_out1.png,stimuli/out2.png,,,,,,,,,,,,,,,,,,,,,,,,,,,,,,,,,,,,,,
,,5cdeaeb3557fbd00018a2c59,27,female,2024-04-24_12h32.58.411,stockport_simplified,2022.2.4,Win32,59.88023952,661e456ee6de07e70aa9ef7b,6628df88863cc09001a89a5e,,,,,,,,,,,,,,,,,,,,,,,,,,,,,,,,,,589.9219,591.3476,"[5,8,7,3,1,2,6,4]","[[-0.3,0.2],[0.3,0.2]]","[[-0.125,-0.2],[0.125,-0.2]]",0.124074088,-0.198148162,1,0,0,0.9153,o2_image,591.3489,1,591.8467,591.8468,593.8447,0,0,0,0,1,,,,,,,,,,,,,,,,,,,,,,,,,,,,,,,,,,,,,,,,,,,,,,,,,,
,,5cdeaeb3557fbd00018a2c59,27,female,2024-04-24_12h32.58.411,stockport_simplified,2022.2.4,Win32,59.88023952,661e456ee6de07e70aa9ef7b,6628df88863cc09001a89a5e,,,,,,,,,,,,,,,,,,,,,,,,,,,,,,,,,,,,,,,,,,,,,,,,,,,,,,,,1,45,105,58,1,N,M,D,o2_image,stimuli/out2.png,stimuli/out1.png,stimuli/correct_out2.png,,,,,,,,,,,,,,,,,,,,,,,,,,,,,,,,,,,,,,
,,5cdeaeb3557fbd00018a2c59,27,female,2024-04-24_12h32.58.411,stockport_simplified,2022.2.4,Win32,59.88023952,661e456ee6de07e70aa9ef7b,6628df88863cc09001a89a5e,,,,,,,,,,,,,,,,,,,,,,,,,,,,,,,,,,593.8466,595.2767,"[5,8,7,3,1,2,6,4]","[[0.3,0.2],[-0.3,0.2]]","[[0.125,-0.2],[-0.125,-0.2]]",-0.099999958,-0.19722225,1,0,0,0.915,o2_image,595.2778,1,595.7773,595.7773,597.7744,0,0,0,0,1,,,,,,,,,,,,,,,,,,,,,,,,,,,,,,,,,,,,,,,,,,,,,,,,,,
,,5cdeaeb3557fbd00018a2c59,27,female,2024-04-24_12h32.58.411,stockport_simplified,2022.2.4,Win32,59.88023952,661e456ee6de07e70aa9ef7b,6628df88863cc09001a89a5e,,,,,,,,,,,,,,,,,,,,,,,,,,,,,,,,,,,,,,,,,,,,,,,,,,,,,,,,1,46,106,25,1,N,M,D,o2_image,stimuli/out2.png,stimuli/out1.png,stimuli/correct_out2.png,,,,,,,,,,,,,,,,,,,,,,,,,,,,,,,,,,,,,,
,,5cdeaeb3557fbd00018a2c59,27,female,2024-04-24_12h32.58.411,stockport_simplified,2022.2.4,Win32,59.88023952,661e456ee6de07e70aa9ef7b,6628df88863cc09001a89a5e,,,,,,,,,,,,,,,,,,,,,,,,,,,,,,,,,,597.775,599.3155,"[5,8,7,3,1,2,6,4]","[[-0.3,0.2],[0.3,0.2]]","[[-0.125,-0.2],[0.125,-0.2]]",-0.10555557,-0.199074074,1,0,0,1.023,o1_image,599.3175,1,599.8063,599.8064,601.8066,0,0,0,0,1,,,,,,,,,,,,,,,,,,,,,,,,,,,,,,,,,,,,,,,,,,,,,,,,,,
,,5cdeaeb3557fbd00018a2c59,27,female,2024-04-24_12h32.58.411,stockport_simplified,2022.2.4,Win32,59.88023952,661e456ee6de07e70aa9ef7b,6628df88863cc09001a89a5e,,,,,,,,,,,,,,,,,,,,,,,,,,,,,,,,,,,,,,,,,,,,,,,,,,,,,,,,1,47,107,24,1,N,M,C,o1_image,stimuli/out1.png,stimuli/correct_out1.png,stimuli/out2.png,,,,,,,,,,,,,,,,,,,,,,,,,,,,,,,,,,,,,,
,,5cdeaeb3557fbd00018a2c59,27,female,2024-04-24_12h32.58.411,stockport_simplified,2022.2.4,Win32,59.88023952,661e456ee6de07e70aa9ef7b,6628df88863cc09001a89a5e,,,,,,,,,,,,,,,,,,,,,,,,,,,,,,,,,,601.8077,603.3357,"[5,8,7,3,1,2,6,4]","[[0.3,0.2],[-0.3,0.2]]","[[0.125,-0.2],[-0.125,-0.2]]",-0.134259259,-0.20185188,1,0,0,1.0112,o2_image,603.3369,1,603.8355,603.8355,605.8345,0,0,0,0,1,,,,,,,,,,,,,,,,,,,,,,,,,,,,,,,,,,,,,,,,,,,,,,,,,,
,,5cdeaeb3557fbd00018a2c59,27,female,2024-04-24_12h32.58.411,stockport_simplified,2022.2.4,Win32,59.88023952,661e456ee6de07e70aa9ef7b,6628df88863cc09001a89a5e,,,,,,,,,,,,,,,,,,,,,,,,,,,,,,,,,,,,,,,,,,,,,,,,,,,,,,,,1,48,108,43,1,B,X,N,o2_image,stimuli/out2.png,stimuli/out1.png,stimuli/correct_out2.png,,,,,,,,,,,,,,,,,,,,,,,,,,,,,,,,,,,,,,
,,5cdeaeb3557fbd00018a2c59,27,female,2024-04-24_12h32.58.411,stockport_simplified,2022.2.4,Win32,59.88023952,661e456ee6de07e70aa9ef7b,6628df88863cc09001a89a5e,,,,,,,,,,,,,,,,,,,,,,,,,,,,,,,,,,605.8361,607.3082,"[5,8,7,3,1,2,6,4]","[[0.3,0.2],[-0.3,0.2]]","[[0.125,-0.2],[-0.125,-0.2]]",0.095370399,-0.217592593,1,0,0,0.955799999,o1_image,607.3103,1,607.7997,607.7998,609.7977,0,0,0,0,1,,,,,,,,,,,,,,,,,,,,,,,,,,,,,,,,,,,,,,,,,,,,,,,,,,
,,5cdeaeb3557fbd00018a2c59,27,female,2024-04-24_12h32.58.411,stockport_simplified,2022.2.4,Win32,59.88023952,661e456ee6de07e70aa9ef7b,6628df88863cc09001a89a5e,,,,,,,,,,,,,,,,,,,,,,,,,,,,,,,,,,,,,,,,,,,,,,,,,,,,,,,,1,49,109,22,1,N,M,C,o1_image,stimuli/out1.png,stimuli/correct_out1.png,stimuli/out2.png,,,,,,,,,,,,,,,,,,,,,,,,,,,,,,,,,,,,,,
,,5cdeaeb3557fbd00018a2c59,27,female,2024-04-24_12h32.58.411,stockport_simplified,2022.2.4,Win32,59.88023952,661e456ee6de07e70aa9ef7b,6628df88863cc09001a89a5e,,,,,,,,,,,,,,,,,,,,,,,,,,,,,,,,,,609.8002,611.0803,"[5,8,7,3,1,2,6,4]","[[-0.3,0.2],[0.3,0.2]]","[[0.125,-0.2],[-0.125,-0.2]]",0.101851852,-0.220370399,1,0,0,0.766700001,o1_image,611.0817,1,611.5795,611.5795,613.5778,0,0,0,0,1,,,,,,,,,,,,,,,,,,,,,,,,,,,,,,,,,,,,,,,,,,,,,,,,,,
,,5cdeaeb3557fbd00018a2c59,27,female,2024-04-24_12h32.58.411,stockport_simplified,2022.2.4,Win32,59.88023952,661e456ee6de07e70aa9ef7b,6628df88863cc09001a89a5e,,,,,,,,,,,,,,,,,,,,,,,,,,,,,,,,,,,,,,,,,,,,,,,,,,,,,,,,1,50,110,54,1,N,M,C,o1_image,stimuli/out1.png,stimuli/correct_out1.png,stimuli/out2.png,,,,,,,,,,,,,,,,,,,,,,,,,,,,,,,,,,,,,,
,,5cdeaeb3557fbd00018a2c59,27,female,2024-04-24_12h32.58.411,stockport_simplified,2022.2.4,Win32,59.88023952,661e456ee6de07e70aa9ef7b,6628df88863cc09001a89a5e,,,,,,,,,,,,,,,,,,,,,,,,,,,,,,,,,,613.5796,615.0931,"[5,8,7,3,1,2,6,4]","[[-0.3,0.2],[0.3,0.2]]","[[0.125,-0.2],[-0.125,-0.2]]",0.090740769,-0.209259245,1,0,0,0.998900001,o1_image,615.095,1,615.5833,615.5835,617.5734,0,0,0,0,1,,,,,,,,,,,,,,,,,,,,,,,,,,,,,,,,,,,,,,,,,,,,,,,,,,
,,5cdeaeb3557fbd00018a2c59,27,female,2024-04-24_12h32.58.411,stockport_simplified,2022.2.4,Win32,59.88023952,661e456ee6de07e70aa9ef7b,6628df88863cc09001a89a5e,,,,,,,,,,,,,,,,,,,,,,,,,,,,,,,,,,,,,,,,,,,,,,,,,,,,,,,,1,51,111,52,1,N,M,C,o1_image,stimuli/out1.png,stimuli/correct_out1.png,stimuli/out2.png,,,,,,,,,,,,,,,,,,,,,,,,,,,,,,,,,,,,,,
,,5cdeaeb3557fbd00018a2c59,27,female,2024-04-24_12h32.58.411,stockport_simplified,2022.2.4,Win32,59.88023952,661e456ee6de07e70aa9ef7b,6628df88863cc09001a89a5e,,,,,,,,,,,,,,,,,,,,,,,,,,,,,,,,,,617.5743,619.3899,"[5,8,7,3,1,2,6,4]","[[0.3,0.2],[-0.3,0.2]]","[[-0.125,-0.2],[0.125,-0.2]]",-0.134259259,-0.194444444,1,0,0,1.3004,o1_image,619.3913,1,619.8879,619.8879,621.8757,0,0,0,0,1,,,,,,,,,,,,,,,,,,,,,,,,,,,,,,,,,,,,,,,,,,,,,,,,,,
,,5cdeaeb3557fbd00018a2c59,27,female,2024-04-24_12h32.58.411,stockport_simplified,2022.2.4,Win32,59.88023952,661e456ee6de07e70aa9ef7b,6628df88863cc09001a89a5e,,,,,,,,,,,,,,,,,,,,,,,,,,,,,,,,,,,,,,,,,,,,,,,,,,,,,,,,1,52,112,36,1,A,Y,N,o1_image,stimuli/out1.png,stimuli/correct_out1.png,stimuli/out2.png,,,,,,,,,,,,,,,,,,,,,,,,,,,,,,,,,,,,,,
,,5cdeaeb3557fbd00018a2c59,27,female,2024-04-24_12h32.58.411,stockport_simplified,2022.2.4,Win32,59.88023952,661e456ee6de07e70aa9ef7b,6628df88863cc09001a89a5e,,,,,,,,,,,,,,,,,,,,,,,,,,,,,,,,,,621.8766,623.4515,"[5,8,7,3,1,2,6,4]","[[-0.3,0.2],[0.3,0.2]]","[[0.125,-0.2],[-0.125,-0.2]]",-0.107407393,-0.202777792,1,0,0,1.0643,o2_image,623.4521,1,623.9534,623.9535,625.9555,0,0,0,0,1,,,,,,,,,,,,,,,,,,,,,,,,,,,,,,,,,,,,,,,,,,,,,,,,,,
,,5cdeaeb3557fbd00018a2c59,27,female,2024-04-24_12h32.58.411,stockport_simplified,2022.2.4,Win32,59.88023952,661e456ee6de07e70aa9ef7b,6628df88863cc09001a89a5e,,,,,,,,,,,,,,,,,,,,,,,,,,,,,,,,,,,,,,,,,,,,,,,,,,,,,,,,1,53,113,42,1,B,X,N,o2_image,stimuli/out2.png,stimuli/out1.png,stimuli/correct_out2.png,,,,,,,,,,,,,,,,,,,,,,,,,,,,,,,,,,,,,,
,,5cdeaeb3557fbd00018a2c59,27,female,2024-04-24_12h32.58.411,stockport_simplified,2022.2.4,Win32,59.88023952,661e456ee6de07e70aa9ef7b,6628df88863cc09001a89a5e,,,,,,,,,,,,,,,,,,,,,,,,,,,,,,,,,,625.9568,627.5157,"[5,8,7,3,1,2,6,4]","[[-0.3,0.2],[0.3,0.2]]","[[-0.125,-0.2],[0.125,-0.2]]",0.169444473,-0.212037051,1,0,0,1.047900001,o2_image,627.5188,1,628.0151,628.0152,630.0122,0,0,0,0,1,,,,,,,,,,,,,,,,,,,,,,,,,,,,,,,,,,,,,,,,,,,,,,,,,,
,,5cdeaeb3557fbd00018a2c59,27,female,2024-04-24_12h32.58.411,stockport_simplified,2022.2.4,Win32,59.88023952,661e456ee6de07e70aa9ef7b,6628df88863cc09001a89a5e,,,,,,,,,,,,,,,,,,,,,,,,,,,,,,,,,,,,,,,,,,,,,,,,,,,,,,,,1,54,114,47,1,B,Y,N,o2_image,stimuli/out2.png,stimuli/out1.png,stimuli/correct_out2.png,,,,,,,,,,,,,,,,,,,,,,,,,,,,,,,,,,,,,,
,,5cdeaeb3557fbd00018a2c59,27,female,2024-04-24_12h32.58.411,stockport_simplified,2022.2.4,Win32,59.88023952,661e456ee6de07e70aa9ef7b,6628df88863cc09001a89a5e,,,,,,,,,,,,,,,,,,,,,,,,,,,,,,,,,,630.0128,631.5949,"[5,8,7,3,1,2,6,4]","[[0.3,0.2],[-0.3,0.2]]","[[-0.125,-0.2],[0.125,-0.2]]",0.106481481,-0.207407422,1,0,0,1.0645,o2_image,631.5962,1,632.0844,632.0845,634.0763,0,0,0,0,1,,,,,,,,,,,,,,,,,,,,,,,,,,,,,,,,,,,,,,,,,,,,,,,,,,
,,5cdeaeb3557fbd00018a2c59,27,female,2024-04-24_12h32.58.411,stockport_simplified,2022.2.4,Win32,59.88023952,661e456ee6de07e70aa9ef7b,6628df88863cc09001a89a5e,,,,,,,,,,,,,,,,,,,,,,,,,,,,,,,,,,,,,,,,,,,,,,,,,,,,,,,,1,55,115,14,1,B,X,N,o2_image,stimuli/out2.png,stimuli/out1.png,stimuli/correct_out2.png,,,,,,,,,,,,,,,,,,,,,,,,,,,,,,,,,,,,,,
,,5cdeaeb3557fbd00018a2c59,27,female,2024-04-24_12h32.58.411,stockport_simplified,2022.2.4,Win32,59.88023952,661e456ee6de07e70aa9ef7b,6628df88863cc09001a89a5e,,,,,,,,,,,,,,,,,,,,,,,,,,,,,,,,,,634.0778,635.6085,"[5,8,7,3,1,2,6,4]","[[-0.3,0.2],[0.3,0.2]]","[[-0.125,-0.2],[0.125,-0.2]]",0.154629672,-0.22129631,1,0,0,1.0153,o2_image,635.6116,1,636.1079,636.108,638.11,0,0,0,0,1,,,,,,,,,,,,,,,,,,,,,,,,,,,,,,,,,,,,,,,,,,,,,,,,,,
,,5cdeaeb3557fbd00018a2c59,27,female,2024-04-24_12h32.58.411,stockport_simplified,2022.2.4,Win32,59.88023952,661e456ee6de07e70aa9ef7b,6628df88863cc09001a89a5e,,,,,,,,,,,,,,,,,,,,,,,,,,,,,,,,,,,,,,,,,,,,,,,,,,,,,,,,1,56,116,49,1,B,Y,N,o2_image,stimuli/out2.png,stimuli/out1.png,stimuli/correct_out2.png,,,,,,,,,,,,,,,,,,,,,,,,,,,,,,,,,,,,,,
,,5cdeaeb3557fbd00018a2c59,27,female,2024-04-24_12h32.58.411,stockport_simplified,2022.2.4,Win32,59.88023952,661e456ee6de07e70aa9ef7b,6628df88863cc09001a89a5e,,,,,,,,,,,,,,,,,,,,,,,,,,,,,,,,,,638.1111,639.8714,"[5,8,7,3,1,2,6,4]","[[0.3,0.2],[-0.3,0.2]]","[[0.125,-0.2],[-0.125,-0.2]]",0.087037051,-0.215740769,1,0,0,1.257,o1_image,639.8719,1,640.3716,640.3717,642.3692,0,0,0,0,1,,,,,,,,,,,,,,,,,,,,,,,,,,,,,,,,,,,,,,,,,,,,,,,,,,
,,5cdeaeb3557fbd00018a2c59,27,female,2024-04-24_12h32.58.411,stockport_simplified,2022.2.4,Win32,59.88023952,661e456ee6de07e70aa9ef7b,6628df88863cc09001a89a5e,,,,,,,,,,,,,,,,,,,,,,,,,,,,,,,,,,,,,,,,,,,,,,,,,,,,,,,,1,57,117,0,1,A,X,N,o1_image,stimuli/out1.png,stimuli/correct_out1.png,stimuli/out2.png,,,,,,,,,,,,,,,,,,,,,,,,,,,,,,,,,,,,,,
,,5cdeaeb3557fbd00018a2c59,27,female,2024-04-24_12h32.58.411,stockport_simplified,2022.2.4,Win32,59.88023952,661e456ee6de07e70aa9ef7b,6628df88863cc09001a89a5e,,,,,,,,,,,,,,,,,,,,,,,,,,,,,,,,,,642.3709,644.219,"[5,8,7,3,1,2,6,4]","[[-0.3,0.2],[0.3,0.2]]","[[-0.125,-0.2],[0.125,-0.2]]",-0.135185171,-0.189814815,1,0,0,1.333200001,o1_image,644.2217,1,644.7199,644.72,646.7155,0,0,0,0,1,,,,,,,,,,,,,,,,,,,,,,,,,,,,,,,,,,,,,,,,,,,,,,,,,,
,,5cdeaeb3557fbd00018a2c59,27,female,2024-04-24_12h32.58.411,stockport_simplified,2022.2.4,Win32,59.88023952,661e456ee6de07e70aa9ef7b,6628df88863cc09001a89a5e,,,,,,,,,,,,,,,,,,,,,,,,,,,,,,,,,,,,,,,,,,,,,,,,,,,,,,,,1,58,118,39,1,A,Y,N,o1_image,stimuli/out1.png,stimuli/correct_out1.png,stimuli/out2.png,,,,,,,,,,,,,,,,,,,,,,,,,,,,,,,,,,,,,,
,,5cdeaeb3557fbd00018a2c59,27,female,2024-04-24_12h32.58.411,stockport_simplified,2022.2.4,Win32,59.88023952,661e456ee6de07e70aa9ef7b,6628df88863cc09001a89a5e,,,,,,,,,,,,,,,,,,,,,,,,,,,,,,,,,,646.7173,648.2892,"[5,8,7,3,1,2,6,4]","[[0.3,0.2],[-0.3,0.2]]","[[0.125,-0.2],[-0.125,-0.2]]",0.104629658,-0.178703732,1,0,0,1.055299999,o1_image,648.2913,1,648.784,648.7841,650.7786,0,0,0,0,1,,,,,,,,,,,,,,,,,,,,,,,,,,,,,,,,,,,,,,,,,,,,,,,,,,
,,5cdeaeb3557fbd00018a2c59,27,female,2024-04-24_12h32.58.411,stockport_simplified,2022.2.4,Win32,59.88023952,661e456ee6de07e70aa9ef7b,6628df88863cc09001a89a5e,,,,,,,,,,,,,,,,,,,,,,,,,,,,,,,,,,,,,,,,,,,,,,,,,,,,,,,,1,59,119,30,1,A,X,N,o1_image,stimuli/out1.png,stimuli/correct_out1.png,stimuli/out2.png,,,,,,,,,,,,,,,,,,,,,,,,,,,,,,,,,,,,,,
,,5cdeaeb3557fbd00018a2c59,27,female,2024-04-24_12h32.58.411,stockport_simplified,2022.2.4,Win32,59.88023952,661e456ee6de07e70aa9ef7b,6628df88863cc09001a89a5e,,,,,,,,,,,,,,,,,,,,,,,,,,,,,,,,,,650.8279,652.7617,"[5,8,7,3,1,2,6,4]","[[-0.3,0.2],[0.3,0.2]]","[[0.125,-0.2],[-0.125,-0.2]]",0.14907406,-0.205555598,1,0,0,1.4175,o1_image,652.7651,1,653.2594,653.2595,655.2587,,,,,,,,,,,,,,,,,,0,0,0,0,1,,,,,,,,,,,,,,,,,,,,,,,,,,,,,,,,,
,,5cdeaeb3557fbd00018a2c59,27,female,2024-04-24_12h32.58.411,stockport_simplified,2022.2.4,Win32,59.88023952,661e456ee6de07e70aa9ef7b,6628df88863cc09001a89a5e,,,,,,,,,,,,,,,,,,,,,,,,,,,,,,,,,,,,,,,,,,,,,,,,,,,,,,,,,,,,,A,Y,N,o1_image,stimuli/out1.png,stimuli/correct_out1.png,stimuli/out2.png,,,,,,0,0,0,19,1,,,,,,,,,,,,,,,,,,,,,,,,,,,,
,,5cdeaeb3557fbd00018a2c59,27,female,2024-04-24_12h32.58.411,stockport_simplified,2022.2.4,Win32,59.88023952,661e456ee6de07e70aa9ef7b,6628df88863cc09001a89a5e,,,,,,,,,,,,,,,,,,,,,,,,,,,,,,,,,,655.2619,656.8815,"[5,8,7,3,1,2,6,4]","[[0.3,0.2],[-0.3,0.2]]","[[0.125,-0.2],[-0.125,-0.2]]",-0.135185171,-0.192592621,1,0,0,1.1054,o2_image,656.884,1,657.3717,657.3717,659.3709,,,,,,,,,,,,,,,,,,0,0,0,0,1,,,,,,,,,,,,,,,,,,,,,,,,,,,,,,,,,
,,5cdeaeb3557fbd00018a2c59,27,female,2024-04-24_12h32.58.411,stockport_simplified,2022.2.4,Win32,59.88023952,661e456ee6de07e70aa9ef7b,6628df88863cc09001a89a5e,,,,,,,,,,,,,,,,,,,,,,,,,,,,,,,,,,,,,,,,,,,,,,,,,,,,,,,,,,,,,N,M,D,o2_image,stimuli/out2.png,stimuli/out1.png,stimuli/correct_out2.png,,,,,,0,1,1,52,1,,,,,,,,,,,,,,,,,,,,,,,,,,,,
,,5cdeaeb3557fbd00018a2c59,27,female,2024-04-24_12h32.58.411,stockport_simplified,2022.2.4,Win32,59.88023952,661e456ee6de07e70aa9ef7b,6628df88863cc09001a89a5e,,,,,,,,,,,,,,,,,,,,,,,,,,,,,,,,,,659.3723,661.7717,"[5,8,7,3,1,2,6,4]","[[-0.3,0.2],[0.3,0.2]]","[[0.125,-0.2],[-0.125,-0.2]]",-0.09629631,-0.189814815,1,0,0,1.882299999,o2_image,661.7728,1,662.268,662.2681,664.2675,,,,,,,,,,,,,,,,,,0,0,0,0,1,,,,,,,,,,,,,,,,,,,,,,,,,,,,,,,,,
,,5cdeaeb3557fbd00018a2c59,27,female,2024-04-24_12h32.58.411,stockport_simplified,2022.2.4,Win32,59.88023952,661e456ee6de07e70aa9ef7b,6628df88863cc09001a89a5e,,,,,,,,,,,,,,,,,,,,,,,,,,,,,,,,,,,,,,,,,,,,,,,,,,,,,,,,,,,,,B,X,N,o2_image,stimuli/out2.png,stimuli/out1.png,stimuli/correct_out2.png,,,,,,0,2,2,22,1,,,,,,,,,,,,,,,,,,,,,,,,,,,,
,,5cdeaeb3557fbd00018a2c59,27,female,2024-04-24_12h32.58.411,stockport_simplified,2022.2.4,Win32,59.88023952,661e456ee6de07e70aa9ef7b,6628df88863cc09001a89a5e,,,,,,,,,,,,,,,,,,,,,,,,,,,,,,,,,,664.2692,665.7672,"[5,8,7,3,1,2,6,4]","[[-0.3,0.2],[0.3,0.2]]","[[0.125,-0.2],[-0.125,-0.2]]",-0.069444444,-0.190740727,1,0,0,0.9812,o2_image,665.7703,1,666.2651,666.2652,668.253,,,,,,,,,,,,,,,,,,0,0,0,0,1,,,,,,,,,,,,,,,,,,,,,,,,,,,,,,,,,
