counterbalance_2.started,counterbalance_2.stopped,participant,age,gender,date,expName,psychopyVersion,OS,frameRate,STUDY_ID,SESSION_ID,information_2.started,information_2.stopped,information_loop.thisRepN,information_loop.thisTrialN,information_loop.thisN,information_loop.thisIndex,information_loop.ran,information,consent_2.started,consent_2.stopped,slider_1.response,slider_2.response,slider_3.response,slider_4.response,slider_5.response,slider_6.response,instructions.started,instructions.stopped,task1_instr.thisRepN,task1_instr.thisTrialN,task1_instr.thisN,task1_instr.thisIndex,task1_instr.ran,task1,comprehension1_2.started,comprehension1_2.stopped,comp1_mouse.x,comp1_mouse.y,comp1_mouse.leftButton,comp1_mouse.midButton,comp1_mouse.rightButton,comp1_mouse.time,comp1_mouse.clicked_name,cue_o__trial_2.started,cue_o__trial_2.stopped,order,cue_order,out_order,cue_o_mouse.x,cue_o_mouse.y,cue_o_mouse.leftButton,cue_o_mouse.midButton,cue_o_mouse.rightButton,cue_o_mouse.time,cue_o_mouse.clicked_name,cue_selection_2.started,correct_answer,cue_selection_2.stopped,feedback_2.started,feedback_2.stopped,feedback_loop.thisRepN,feedback_loop.thisTrialN,feedback_loop.thisN,feedback_loop.thisIndex,feedback_loop.ran,stage1_trials.thisRepN,stage1_trials.thisTrialN,stage1_trials.thisN,stage1_trials.thisIndex,stage1_trials.ran,cue1,cue2,cue3,outcome,correct_out,o1_feedback,o2_feedback,stage2_feedback_loop.thisRepN,stage2_feedback_loop.thisTrialN,stage2_feedback_loop.thisN,stage2_feedback_loop.thisIndex,stage2_feedback_loop.ran,stage2_trials.thisRepN,stage2_trials.thisTrialN,stage2_trials.thisN,stage2_trials.thisIndex,stage2_trials.ran,stage3_feedback_loop.thisRepN,stage3_feedback_loop.thisTrialN,stage3_feedback_loop.thisN,stage3_feedback_loop.thisIndex,stage3_feedback_loop.ran,stage3_trials.thisRepN,stage3_trials.thisTrialN,stage3_trials.thisN,stage3_trials.thisIndex,stage3_trials.ran,debrief_2.started,debrief_2.stopped,debrief_loop.thisRepN,debrief_loop.thisTrialN,debrief_loop.thisN,debrief_loop.thisIndex,debrief_loop.ran,debrief_img,compr1_completed.thisRepN,compr1_completed.thisTrialN,compr1_completed.thisN,compr1_completed.thisIndex,compr1_completed.ran,consent_loop.thisRepN,consent_loop.thisTrialN,consent_loop.thisN,consent_loop.thisIndex,consent_loop.ran
0.0001,0.0003,5ea180ae34f3aa0319313965,35,male,2024-04-24_11h37.51.983,stockport_simplified,2022.2.4,MacIntel,59.88023952,661e456ee6de07e70aa9ef7b,6628df84ef4e7c870f0d8780,,,,,,,,,,,,,,,,,,,,,,,,,,,,,,,,,,,,,,,,,,,,,,,,,,,,,,,,,,,,,,,,,,,,,,,,,,,,,,,,,,,,,,,,,,,,,,,,,,,,,,,,,
,,5ea180ae34f3aa0319313965,35,male,2024-04-24_11h37.51.983,stockport_simplified,2022.2.4,MacIntel,59.88023952,661e456ee6de07e70aa9ef7b,6628df84ef4e7c870f0d8780,0.0086,18.583,0,0,0,0,1,instructions/info1.png,,,,,,,,,,,,,,,,,,,,,,,,,,,,,,,,,,,,,,,,,,,,,,,,,,,,,,,,,,,,,,,,,,,,,,,,,,,,,,,,,,,,,,,,,,,,,,,,,
,,5ea180ae34f3aa0319313965,35,male,2024-04-24_11h37.51.983,stockport_simplified,2022.2.4,MacIntel,59.88023952,661e456ee6de07e70aa9ef7b,6628df84ef4e7c870f0d8780,18.5834,22.268,0,1,1,1,1,instructions/info2.png,,,,,,,,,,,,,,,,,,,,,,,,,,,,,,,,,,,,,,,,,,,,,,,,,,,,,,,,,,,,,,,,,,,,,,,,,,,,,,,,,,,,,,,,,,,,,,,,,
,,5ea180ae34f3aa0319313965,35,male,2024-04-24_11h37.51.983,stockport_simplified,2022.2.4,MacIntel,59.88023952,661e456ee6de07e70aa9ef7b,6628df84ef4e7c870f0d8780,22.2685,152.0672,0,2,2,2,1,instructions/info3.png,,,,,,,,,,,,,,,,,,,,,,,,,,,,,,,,,,,,,,,,,,,,,,,,,,,,,,,,,,,,,,,,,,,,,,,,,,,,,,,,,,,,,,,,,,,,,,,,,
,,5ea180ae34f3aa0319313965,35,male,2024-04-24_11h37.51.983,stockport_simplified,2022.2.4,MacIntel,59.88023952,661e456ee6de07e70aa9ef7b,6628df84ef4e7c870f0d8780,,,,,,,,,152.0811,165.2169,1,1,1,1,1,1,,,,,,,,,,,,,,,,,,,,,,,,,,,,,,,,,,,,,,,,,,,,,,,,,,,,,,,,,,,,,,,,,,,,,,,,,,,,,,,,,,,,,,,,,
,,5ea180ae34f3aa0319313965,35,male,2024-04-24_11h37.51.983,stockport_simplified,2022.2.4,MacIntel,59.88023952,661e456ee6de07e70aa9ef7b,6628df84ef4e7c870f0d8780,,,,,,,,,,,,,,,,,165.2294,197.5352,0,0,0,0,1,instructions/task1_1.png,,,,,,,,,,,,,,,,,,,,,,,,,,,,,,,,,,,,,,,,,,,,,,,,,,,,,,,,,,,,,,,,,,,,,,,,,,,,,,,,,
,,5ea180ae34f3aa0319313965,35,male,2024-04-24_11h37.51.983,stockport_simplified,2022.2.4,MacIntel,59.88023952,661e456ee6de07e70aa9ef7b,6628df84ef4e7c870f0d8780,,,,,,,,,,,,,,,,,197.546,215.6993,0,1,1,1,1,instructions/task1_2.png,,,,,,,,,,,,,,,,,,,,,,,,,,,,,,,,,,,,,,,,,,,,,,,,,,,,,,,,,,,,,,,,,,,,,,,,,,,,,,,,,
,,5ea180ae34f3aa0319313965,35,male,2024-04-24_11h37.51.983,stockport_simplified,2022.2.4,MacIntel,59.88023952,661e456ee6de07e70aa9ef7b,6628df84ef4e7c870f0d8780,,,,,,,,,,,,,,,,,215.712,231.7003,0,2,2,2,1,instructions/task1_3.png,,,,,,,,,,,,,,,,,,,,,,,,,,,,,,,,,,,,,,,,,,,,,,,,,,,,,,,,,,,,,,,,,,,,,,,,,,,,,,,,,
,,5ea180ae34f3aa0319313965,35,male,2024-04-24_11h37.51.983,stockport_simplified,2022.2.4,MacIntel,59.88023952,661e456ee6de07e70aa9ef7b,6628df84ef4e7c870f0d8780,,,,,,,,,,,,,,,,,,,,,,,,,231.7012,246.8338,0.07642663,-0.324987262,1,0,0,15.1319,comp1_resp1,246.8537,248.7668,"[8,1,5,6,2,4,7,3]","[[-0.3,0.2],[0.3,0.2]]","[[-0.125,-0.2],[0.125,-0.2]]",0.167289402,-0.173089334,1,0,0,1.3983,o2_image,248.7681,0,249.2671,249.2675,251.2672,0,0,0,0,1,,,,,,,,,,,,,,,,,,,,,,,,,,,,,,,,,,,,,,,,,,,,,,,,,,
,,5ea180ae34f3aa0319313965,35,male,2024-04-24_11h37.51.983,stockport_simplified,2022.2.4,MacIntel,59.88023952,661e456ee6de07e70aa9ef7b,6628df84ef4e7c870f0d8780,,,,,,,,,,,,,,,,,,,,,,,,,,,,,,,,,,,,,,,,,,,,,,,,,,,,,,,,0,0,0,3,1,A,X,N,o1_image,stimuli/out1.png,stimuli/correct_out1.png,stimuli/out2.png,,,,,,,,,,,,,,,,,,,,,,,,,,,,,,,,,,,,,,
,,5ea180ae34f3aa0319313965,35,male,2024-04-24_11h37.51.983,stockport_simplified,2022.2.4,MacIntel,59.88023952,661e456ee6de07e70aa9ef7b,6628df84ef4e7c870f0d8780,,,,,,,,,,,,,,,,,,,,,,,,,,,,,,,,,,251.2683,252.6171,"[8,1,5,6,2,4,7,3]","[[0.3,0.2],[-0.3,0.2]]","[[0.125,-0.2],[-0.125,-0.2]]",0.153851053,-0.208394192,1,0,0,0.8328,o1_image,252.6182,0,253.1161,253.1161,255.1167,0,0,0,0,1,,,,,,,,,,,,,,,,,,,,,,,,,,,,,,,,,,,,,,,,,,,,,,,,,,
,,5ea180ae34f3aa0319313965,35,male,2024-04-24_11h37.51.983,stockport_simplified,2022.2.4,MacIntel,59.88023952,661e456ee6de07e70aa9ef7b,6628df84ef4e7c870f0d8780,,,,,,,,,,,,,,,,,,,,,,,,,,,,,,,,,,,,,,,,,,,,,,,,,,,,,,,,0,1,1,41,1,B,X,N,o2_image,stimuli/out2.png,stimuli/out1.png,stimuli/correct_out2.png,,,,,,,,,,,,,,,,,,,,,,,,,,,,,,,,,,,,,,
,,5ea180ae34f3aa0319313965,35,male,2024-04-24_11h37.51.983,stockport_simplified,2022.2.4,MacIntel,59.88023952,661e456ee6de07e70aa9ef7b,6628df84ef4e7c870f0d8780,,,,,,,,,,,,,,,,,,,,,,,,,,,,,,,,,,255.1174,256.3331,"[8,1,5,6,2,4,7,3]","[[-0.3,0.2],[0.3,0.2]]","[[-0.125,-0.2],[0.125,-0.2]]",0.098930027,-0.237924592,1,0,0,0.699,o2_image,256.3336,0,256.8325,256.8325,258.8335,0,0,0,0,1,,,,,,,,,,,,,,,,,,,,,,,,,,,,,,,,,,,,,,,,,,,,,,,,,,
,,5ea180ae34f3aa0319313965,35,male,2024-04-24_11h37.51.983,stockport_simplified,2022.2.4,MacIntel,59.88023952,661e456ee6de07e70aa9ef7b,6628df84ef4e7c870f0d8780,,,,,,,,,,,,,,,,,,,,,,,,,,,,,,,,,,,,,,,,,,,,,,,,,,,,,,,,0,2,2,35,1,A,Y,N,o1_image,stimuli/out1.png,stimuli/correct_out1.png,stimuli/out2.png,,,,,,,,,,,,,,,,,,,,,,,,,,,,,,,,,,,,,,
,,5ea180ae34f3aa0319313965,35,male,2024-04-24_11h37.51.983,stockport_simplified,2022.2.4,MacIntel,59.88023952,661e456ee6de07e70aa9ef7b,6628df84ef4e7c870f0d8780,,,,,,,,,,,,,,,,,,,,,,,,,,,,,,,,,,258.8341,259.7665,"[8,1,5,6,2,4,7,3]","[[-0.3,0.2],[0.3,0.2]]","[[-0.125,-0.2],[0.125,-0.2]]",-0.097711447,-0.210674253,1,0,0,0.4154,o1_image,259.7672,0,260.2668,260.2668,262.2668,0,0,0,0,1,,,,,,,,,,,,,,,,,,,,,,,,,,,,,,,,,,,,,,,,,,,,,,,,,,
,,5ea180ae34f3aa0319313965,35,male,2024-04-24_11h37.51.983,stockport_simplified,2022.2.4,MacIntel,59.88023952,661e456ee6de07e70aa9ef7b,6628df84ef4e7c870f0d8780,,,,,,,,,,,,,,,,,,,,,,,,,,,,,,,,,,,,,,,,,,,,,,,,,,,,,,,,0,3,3,57,1,N,M,D,o2_image,stimuli/out2.png,stimuli/out1.png,stimuli/correct_out2.png,,,,,,,,,,,,,,,,,,,,,,,,,,,,,,,,,,,,,,
,,5ea180ae34f3aa0319313965,35,male,2024-04-24_11h37.51.983,stockport_simplified,2022.2.4,MacIntel,59.88023952,661e456ee6de07e70aa9ef7b,6628df84ef4e7c870f0d8780,,,,,,,,,,,,,,,,,,,,,,,,,,,,,,,,,,262.2675,263.0834,"[8,1,5,6,2,4,7,3]","[[0.3,0.2],[-0.3,0.2]]","[[0.125,-0.2],[-0.125,-0.2]]",-0.098076596,-0.210674253,1,0,0,0.299,o2_image,263.0846,0,263.5825,263.5825,265.5835,0,0,0,0,1,,,,,,,,,,,,,,,,,,,,,,,,,,,,,,,,,,,,,,,,,,,,,,,,,,
,,5ea180ae34f3aa0319313965,35,male,2024-04-24_11h37.51.983,stockport_simplified,2022.2.4,MacIntel,59.88023952,661e456ee6de07e70aa9ef7b,6628df84ef4e7c870f0d8780,,,,,,,,,,,,,,,,,,,,,,,,,,,,,,,,,,,,,,,,,,,,,,,,,,,,,,,,0,4,4,9,1,A,Y,N,o1_image,stimuli/out1.png,stimuli/correct_out1.png,stimuli/out2.png,,,,,,,,,,,,,,,,,,,,,,,,,,,,,,,,,,,,,,
,,5ea180ae34f3aa0319313965,35,male,2024-04-24_11h37.51.983,stockport_simplified,2022.2.4,MacIntel,59.88023952,661e456ee6de07e70aa9ef7b,6628df84ef4e7c870f0d8780,,,,,,,,,,,,,,,,,,,,,,,,,,,,,,,,,,265.5841,266.9502,"[8,1,5,6,2,4,7,3]","[[0.3,0.2],[-0.3,0.2]]","[[0.125,-0.2],[-0.125,-0.2]]",-0.098076596,-0.210674253,1,0,0,0.8493,o2_image,266.9513,0,267.4491,267.4491,269.45,0,0,0,0,1,,,,,,,,,,,,,,,,,,,,,,,,,,,,,,,,,,,,,,,,,,,,,,,,,,
,,5ea180ae34f3aa0319313965,35,male,2024-04-24_11h37.51.983,stockport_simplified,2022.2.4,MacIntel,59.88023952,661e456ee6de07e70aa9ef7b,6628df84ef4e7c870f0d8780,,,,,,,,,,,,,,,,,,,,,,,,,,,,,,,,,,,,,,,,,,,,,,,,,,,,,,,,0,5,5,32,1,A,X,N,o1_image,stimuli/out1.png,stimuli/correct_out1.png,stimuli/out2.png,,,,,,,,,,,,,,,,,,,,,,,,,,,,,,,,,,,,,,
,,5ea180ae34f3aa0319313965,35,male,2024-04-24_11h37.51.983,stockport_simplified,2022.2.4,MacIntel,59.88023952,661e456ee6de07e70aa9ef7b,6628df84ef4e7c870f0d8780,,,,,,,,,,,,,,,,,,,,,,,,,,,,,,,,,,269.4508,271.1654,"[8,1,5,6,2,4,7,3]","[[-0.3,0.2],[0.3,0.2]]","[[0.125,-0.2],[-0.125,-0.2]]",0.145605469,-0.131963315,1,0,0,1.1992,o1_image,271.166,0,271.6667,271.6669,273.6668,0,0,0,0,1,,,,,,,,,,,,,,,,,,,,,,,,,,,,,,,,,,,,,,,,,,,,,,,,,,
,,5ea180ae34f3aa0319313965,35,male,2024-04-24_11h37.51.983,stockport_simplified,2022.2.4,MacIntel,59.88023952,661e456ee6de07e70aa9ef7b,6628df84ef4e7c870f0d8780,,,,,,,,,,,,,,,,,,,,,,,,,,,,,,,,,,,,,,,,,,,,,,,,,,,,,,,,0,6,6,56,1,N,M,D,o2_image,stimuli/out2.png,stimuli/out1.png,stimuli/correct_out2.png,,,,,,,,,,,,,,,,,,,,,,,,,,,,,,,,,,,,,,
,,5ea180ae34f3aa0319313965,35,male,2024-04-24_11h37.51.983,stockport_simplified,2022.2.4,MacIntel,59.88023952,661e456ee6de07e70aa9ef7b,6628df84ef4e7c870f0d8780,,,,,,,,,,,,,,,,,,,,,,,,,,,,,,,,,,273.6678,275.0335,"[8,1,5,6,2,4,7,3]","[[-0.3,0.2],[0.3,0.2]]","[[-0.125,-0.2],[0.125,-0.2]]",0.126388417,-0.141011379,1,0,0,0.8509,o2_image,275.0346,0,275.5335,275.5335,277.5335,0,0,0,0,1,,,,,,,,,,,,,,,,,,,,,,,,,,,,,,,,,,,,,,,,,,,,,,,,,,
,,5ea180ae34f3aa0319313965,35,male,2024-04-24_11h37.51.983,stockport_simplified,2022.2.4,MacIntel,59.88023952,661e456ee6de07e70aa9ef7b,6628df84ef4e7c870f0d8780,,,,,,,,,,,,,,,,,,,,,,,,,,,,,,,,,,,,,,,,,,,,,,,,,,,,,,,,0,7,7,54,1,N,M,C,o1_image,stimuli/out1.png,stimuli/correct_out1.png,stimuli/out2.png,,,,,,,,,,,,,,,,,,,,,,,,,,,,,,,,,,,,,,
,,5ea180ae34f3aa0319313965,35,male,2024-04-24_11h37.51.983,stockport_simplified,2022.2.4,MacIntel,59.88023952,661e456ee6de07e70aa9ef7b,6628df84ef4e7c870f0d8780,,,,,,,,,,,,,,,,,,,,,,,,,,,,,,,,,,277.5341,278.5834,"[8,1,5,6,2,4,7,3]","[[0.3,0.2],[-0.3,0.2]]","[[0.125,-0.2],[-0.125,-0.2]]",-0.101027514,-0.227237602,1,0,0,0.5444,o2_image,278.5844,0,279.0834,279.0835,281.0835,0,0,0,0,1,,,,,,,,,,,,,,,,,,,,,,,,,,,,,,,,,,,,,,,,,,,,,,,,,,
,,5ea180ae34f3aa0319313965,35,male,2024-04-24_11h37.51.983,stockport_simplified,2022.2.4,MacIntel,59.88023952,661e456ee6de07e70aa9ef7b,6628df84ef4e7c870f0d8780,,,,,,,,,,,,,,,,,,,,,,,,,,,,,,,,,,,,,,,,,,,,,,,,,,,,,,,,0,8,8,5,1,A,Y,N,o1_image,stimuli/out1.png,stimuli/correct_out1.png,stimuli/out2.png,,,,,,,,,,,,,,,,,,,,,,,,,,,,,,,,,,,,,,
,,5ea180ae34f3aa0319313965,35,male,2024-04-24_11h37.51.983,stockport_simplified,2022.2.4,MacIntel,59.88023952,661e456ee6de07e70aa9ef7b,6628df84ef4e7c870f0d8780,,,,,,,,,,,,,,,,,,,,,,,,,,,,,,,,,,281.0842,282.1997,"[8,1,5,6,2,4,7,3]","[[-0.3,0.2],[0.3,0.2]]","[[0.125,-0.2],[-0.125,-0.2]]",-0.080889096,-0.229428499,1,0,0,0.5992,o2_image,282.2003,0,282.7001,282.7001,284.7003,0,0,0,0,1,,,,,,,,,,,,,,,,,,,,,,,,,,,,,,,,,,,,,,,,,,,,,,,,,,
,,5ea180ae34f3aa0319313965,35,male,2024-04-24_11h37.51.983,stockport_simplified,2022.2.4,MacIntel,59.88023952,661e456ee6de07e70aa9ef7b,6628df84ef4e7c870f0d8780,,,,,,,,,,,,,,,,,,,,,,,,,,,,,,,,,,,,,,,,,,,,,,,,,,,,,,,,0,9,9,34,1,A,X,N,o1_image,stimuli/out1.png,stimuli/correct_out1.png,stimuli/out2.png,,,,,,,,,,,,,,,,,,,,,,,,,,,,,,,,,,,,,,
,,5ea180ae34f3aa0319313965,35,male,2024-04-24_11h37.51.983,stockport_simplified,2022.2.4,MacIntel,59.88023952,661e456ee6de07e70aa9ef7b,6628df84ef4e7c870f0d8780,,,,,,,,,,,,,,,,,,,,,,,,,,,,,,,,,,284.7009,286.1324,"[8,1,5,6,2,4,7,3]","[[0.3,0.2],[-0.3,0.2]]","[[-0.125,-0.2],[0.125,-0.2]]",-0.098980978,-0.178299083,1,0,0,0.915,o1_image,286.1329,0,286.6324,286.6324,288.6334,0,0,0,0,1,,,,,,,,,,,,,,,,,,,,,,,,,,,,,,,,,,,,,,,,,,,,,,,,,,
,,5ea180ae34f3aa0319313965,35,male,2024-04-24_11h37.51.983,stockport_simplified,2022.2.4,MacIntel,59.88023952,661e456ee6de07e70aa9ef7b,6628df84ef4e7c870f0d8780,,,,,,,,,,,,,,,,,,,,,,,,,,,,,,,,,,,,,,,,,,,,,,,,,,,,,,,,0,10,10,19,1,B,Y,N,o2_image,stimuli/out2.png,stimuli/out1.png,stimuli/correct_out2.png,,,,,,,,,,,,,,,,,,,,,,,,,,,,,,,,,,,,,,
,,5ea180ae34f3aa0319313965,35,male,2024-04-24_11h37.51.983,stockport_simplified,2022.2.4,MacIntel,59.88023952,661e456ee6de07e70aa9ef7b,6628df84ef4e7c870f0d8780,,,,,,,,,,,,,,,,,,,,,,,,,,,,,,,,,,288.6341,290.8998,"[8,1,5,6,2,4,7,3]","[[-0.3,0.2],[0.3,0.2]]","[[-0.125,-0.2],[0.125,-0.2]]",-0.099575408,-0.173242188,1,0,0,1.7503,o1_image,290.9119,1,291.4002,291.4002,293.4,0,0,0,0,1,,,,,,,,,,,,,,,,,,,,,,,,,,,,,,,,,,,,,,,,,,,,,,,,,,
,,5ea180ae34f3aa0319313965,35,male,2024-04-24_11h37.51.983,stockport_simplified,2022.2.4,MacIntel,59.88023952,661e456ee6de07e70aa9ef7b,6628df84ef4e7c870f0d8780,,,,,,,,,,,,,,,,,,,,,,,,,,,,,,,,,,,,,,,,,,,,,,,,,,,,,,,,0,11,11,37,1,A,Y,N,o1_image,stimuli/out1.png,stimuli/correct_out1.png,stimuli/out2.png,,,,,,,,,,,,,,,,,,,,,,,,,,,,,,,,,,,,,,
,,5ea180ae34f3aa0319313965,35,male,2024-04-24_11h37.51.983,stockport_simplified,2022.2.4,MacIntel,59.88023952,661e456ee6de07e70aa9ef7b,6628df84ef4e7c870f0d8780,,,,,,,,,,,,,,,,,,,,,,,,,,,,,,,,,,293.4007,295.0167,"[8,1,5,6,2,4,7,3]","[[-0.3,0.2],[0.3,0.2]]","[[0.125,-0.2],[-0.125,-0.2]]",-0.100089164,-0.187338655,1,0,0,1.0996,o2_image,295.0179,0,295.5168,295.5168,297.5168,0,0,0,0,1,,,,,,,,,,,,,,,,,,,,,,,,,,,,,,,,,,,,,,,,,,,,,,,,,,
,,5ea180ae34f3aa0319313965,35,male,2024-04-24_11h37.51.983,stockport_simplified,2022.2.4,MacIntel,59.88023952,661e456ee6de07e70aa9ef7b,6628df84ef4e7c870f0d8780,,,,,,,,,,,,,,,,,,,,,,,,,,,,,,,,,,,,,,,,,,,,,,,,,,,,,,,,0,12,12,31,1,A,X,N,o1_image,stimuli/out1.png,stimuli/correct_out1.png,stimuli/out2.png,,,,,,,,,,,,,,,,,,,,,,,,,,,,,,,,,,,,,,
,,5ea180ae34f3aa0319313965,35,male,2024-04-24_11h37.51.983,stockport_simplified,2022.2.4,MacIntel,59.88023952,661e456ee6de07e70aa9ef7b,6628df84ef4e7c870f0d8780,,,,,,,,,,,,,,,,,,,,,,,,,,,,,,,,,,297.5175,298.8337,"[8,1,5,6,2,4,7,3]","[[-0.3,0.2],[0.3,0.2]]","[[-0.125,-0.2],[0.125,-0.2]]",0.091953974,-0.182566236,1,0,0,0.8009,o2_image,298.8346,0,299.3324,299.3324,301.3324,0,0,0,0,1,,,,,,,,,,,,,,,,,,,,,,,,,,,,,,,,,,,,,,,,,,,,,,,,,,
,,5ea180ae34f3aa0319313965,35,male,2024-04-24_11h37.51.983,stockport_simplified,2022.2.4,MacIntel,59.88023952,661e456ee6de07e70aa9ef7b,6628df84ef4e7c870f0d8780,,,,,,,,,,,,,,,,,,,,,,,,,,,,,,,,,,,,,,,,,,,,,,,,,,,,,,,,0,13,13,38,1,A,Y,N,o1_image,stimuli/out1.png,stimuli/correct_out1.png,stimuli/out2.png,,,,,,,,,,,,,,,,,,,,,,,,,,,,,,,,,,,,,,
,,5ea180ae34f3aa0319313965,35,male,2024-04-24_11h37.51.983,stockport_simplified,2022.2.4,MacIntel,59.88023952,661e456ee6de07e70aa9ef7b,6628df84ef4e7c870f0d8780,,,,,,,,,,,,,,,,,,,,,,,,,,,,,,,,,,301.3329,302.8664,"[8,1,5,6,2,4,7,3]","[[0.3,0.2],[-0.3,0.2]]","[[0.125,-0.2],[-0.125,-0.2]]",0.099592391,-0.249690048,1,0,0,1.0169,o1_image,302.8669,0,303.3668,303.3668,305.3667,0,0,0,0,1,,,,,,,,,,,,,,,,,,,,,,,,,,,,,,,,,,,,,,,,,,,,,,,,,,
,,5ea180ae34f3aa0319313965,35,male,2024-04-24_11h37.51.983,stockport_simplified,2022.2.4,MacIntel,59.88023952,661e456ee6de07e70aa9ef7b,6628df84ef4e7c870f0d8780,,,,,,,,,,,,,,,,,,,,,,,,,,,,,,,,,,,,,,,,,,,,,,,,,,,,,,,,0,14,14,55,1,N,M,D,o2_image,stimuli/out2.png,stimuli/out1.png,stimuli/correct_out2.png,,,,,,,,,,,,,,,,,,,,,,,,,,,,,,,,,,,,,,
,,5ea180ae34f3aa0319313965,35,male,2024-04-24_11h37.51.983,stockport_simplified,2022.2.4,MacIntel,59.88023952,661e456ee6de07e70aa9ef7b,6628df84ef4e7c870f0d8780,,,,,,,,,,,,,,,,,,,,,,,,,,,,,,,,,,305.3674,307.2166,"[8,1,5,6,2,4,7,3]","[[0.3,0.2],[-0.3,0.2]]","[[-0.125,-0.2],[0.125,-0.2]]",-0.126570992,-0.211506454,1,0,0,1.3323,o1_image,307.2177,1,307.7168,307.7168,309.7159,0,0,0,0,1,,,,,,,,,,,,,,,,,,,,,,,,,,,,,,,,,,,,,,,,,,,,,,,,,,
,,5ea180ae34f3aa0319313965,35,male,2024-04-24_11h37.51.983,stockport_simplified,2022.2.4,MacIntel,59.88023952,661e456ee6de07e70aa9ef7b,6628df84ef4e7c870f0d8780,,,,,,,,,,,,,,,,,,,,,,,,,,,,,,,,,,,,,,,,,,,,,,,,,,,,,,,,0,15,15,36,1,A,Y,N,o1_image,stimuli/out1.png,stimuli/correct_out1.png,stimuli/out2.png,,,,,,,,,,,,,,,,,,,,,,,,,,,,,,,,,,,,,,
,,5ea180ae34f3aa0319313965,35,male,2024-04-24_11h37.51.983,stockport_simplified,2022.2.4,MacIntel,59.88023952,661e456ee6de07e70aa9ef7b,6628df84ef4e7c870f0d8780,,,,,,,,,,,,,,,,,,,,,,,,,,,,,,,,,,309.7165,310.7667,"[8,1,5,6,2,4,7,3]","[[-0.3,0.2],[0.3,0.2]]","[[0.125,-0.2],[-0.125,-0.2]]",0.101401155,-0.171335768,1,0,0,0.5487,o1_image,310.7675,0,311.2668,311.2668,313.2668,0,0,0,0,1,,,,,,,,,,,,,,,,,,,,,,,,,,,,,,,,,,,,,,,,,,,,,,,,,,
,,5ea180ae34f3aa0319313965,35,male,2024-04-24_11h37.51.983,stockport_simplified,2022.2.4,MacIntel,59.88023952,661e456ee6de07e70aa9ef7b,6628df84ef4e7c870f0d8780,,,,,,,,,,,,,,,,,,,,,,,,,,,,,,,,,,,,,,,,,,,,,,,,,,,,,,,,0,16,16,14,1,B,X,N,o2_image,stimuli/out2.png,stimuli/out1.png,stimuli/correct_out2.png,,,,,,,,,,,,,,,,,,,,,,,,,,,,,,,,,,,,,,
,,5ea180ae34f3aa0319313965,35,male,2024-04-24_11h37.51.983,stockport_simplified,2022.2.4,MacIntel,59.88023952,661e456ee6de07e70aa9ef7b,6628df84ef4e7c870f0d8780,,,,,,,,,,,,,,,,,,,,,,,,,,,,,,,,,,313.2674,314.6998,"[8,1,5,6,2,4,7,3]","[[-0.3,0.2],[0.3,0.2]]","[[0.125,-0.2],[-0.125,-0.2]]",0.121976902,-0.155570652,1,0,0,0.9162,o1_image,314.7003,0,315.199,315.199,317.2002,0,0,0,0,1,,,,,,,,,,,,,,,,,,,,,,,,,,,,,,,,,,,,,,,,,,,,,,,,,,
,,5ea180ae34f3aa0319313965,35,male,2024-04-24_11h37.51.983,stockport_simplified,2022.2.4,MacIntel,59.88023952,661e456ee6de07e70aa9ef7b,6628df84ef4e7c870f0d8780,,,,,,,,,,,,,,,,,,,,,,,,,,,,,,,,,,,,,,,,,,,,,,,,,,,,,,,,0,17,17,44,1,B,X,N,o2_image,stimuli/out2.png,stimuli/out1.png,stimuli/correct_out2.png,,,,,,,,,,,,,,,,,,,,,,,,,,,,,,,,,,,,,,
,,5ea180ae34f3aa0319313965,35,male,2024-04-24_11h37.51.983,stockport_simplified,2022.2.4,MacIntel,59.88023952,661e456ee6de07e70aa9ef7b,6628df84ef4e7c870f0d8780,,,,,,,,,,,,,,,,,,,,,,,,,,,,,,,,,,317.2007,319.8158,"[8,1,5,6,2,4,7,3]","[[-0.3,0.2],[0.3,0.2]]","[[-0.125,-0.2],[0.125,-0.2]]",-0.115786345,-0.184264606,1,0,0,2.0998,o1_image,319.8166,0,320.3158,320.3158,322.3168,0,0,0,0,1,,,,,,,,,,,,,,,,,,,,,,,,,,,,,,,,,,,,,,,,,,,,,,,,,,
,,5ea180ae34f3aa0319313965,35,male,2024-04-24_11h37.51.983,stockport_simplified,2022.2.4,MacIntel,59.88023952,661e456ee6de07e70aa9ef7b,6628df84ef4e7c870f0d8780,,,,,,,,,,,,,,,,,,,,,,,,,,,,,,,,,,,,,,,,,,,,,,,,,,,,,,,,0,18,18,10,1,B,X,N,o2_image,stimuli/out2.png,stimuli/out1.png,stimuli/correct_out2.png,,,,,,,,,,,,,,,,,,,,,,,,,,,,,,,,,,,,,,
,,5ea180ae34f3aa0319313965,35,male,2024-04-24_11h37.51.983,stockport_simplified,2022.2.4,MacIntel,59.88023952,661e456ee6de07e70aa9ef7b,6628df84ef4e7c870f0d8780,,,,,,,,,,,,,,,,,,,,,,,,,,,,,,,,,,322.3175,323.5668,"[8,1,5,6,2,4,7,3]","[[0.3,0.2],[-0.3,0.2]]","[[0.125,-0.2],[-0.125,-0.2]]",0.099146569,-0.175424592,1,0,0,0.7327,o1_image,323.5677,0,324.0668,324.0668,326.0668,0,0,0,0,1,,,,,,,,,,,,,,,,,,,,,,,,,,,,,,,,,,,,,,,,,,,,,,,,,,
,,5ea180ae34f3aa0319313965,35,male,2024-04-24_11h37.51.983,stockport_simplified,2022.2.4,MacIntel,59.88023952,661e456ee6de07e70aa9ef7b,6628df84ef4e7c870f0d8780,,,,,,,,,,,,,,,,,,,,,,,,,,,,,,,,,,,,,,,,,,,,,,,,,,,,,,,,0,19,19,17,1,B,Y,N,o2_image,stimuli/out2.png,stimuli/out1.png,stimuli/correct_out2.png,,,,,,,,,,,,,,,,,,,,,,,,,,,,,,,,,,,,,,
,,5ea180ae34f3aa0319313965,35,male,2024-04-24_11h37.51.983,stockport_simplified,2022.2.4,MacIntel,59.88023952,661e456ee6de07e70aa9ef7b,6628df84ef4e7c870f0d8780,,,,,,,,,,,,,,,,,,,,,,,,,,,,,,,,,,326.0676,327.3491,"[8,1,5,6,2,4,7,3]","[[-0.3,0.2],[0.3,0.2]]","[[-0.125,-0.2],[0.125,-0.2]]",0.085304857,-0.21206267,1,0,0,0.765,o2_image,327.3498,0,327.8502,327.8502,329.8491,0,0,0,0,1,,,,,,,,,,,,,,,,,,,,,,,,,,,,,,,,,,,,,,,,,,,,,,,,,,
,,5ea180ae34f3aa0319313965,35,male,2024-04-24_11h37.51.983,stockport_simplified,2022.2.4,MacIntel,59.88023952,661e456ee6de07e70aa9ef7b,6628df84ef4e7c870f0d8780,,,,,,,,,,,,,,,,,,,,,,,,,,,,,,,,,,,,,,,,,,,,,,,,,,,,,,,,0,20,20,39,1,A,Y,N,o1_image,stimuli/out1.png,stimuli/correct_out1.png,stimuli/out2.png,,,,,,,,,,,,,,,,,,,,,,,,,,,,,,,,,,,,,,
,,5ea180ae34f3aa0319313965,35,male,2024-04-24_11h37.51.983,stockport_simplified,2022.2.4,MacIntel,59.88023952,661e456ee6de07e70aa9ef7b,6628df84ef4e7c870f0d8780,,,,,,,,,,,,,,,,,,,,,,,,,,,,,,,,,,329.8498,331.8667,"[8,1,5,6,2,4,7,3]","[[-0.3,0.2],[0.3,0.2]]","[[0.125,-0.2],[-0.125,-0.2]]",0.12791695,-0.207782779,1,0,0,1.4993,o1_image,331.8677,0,332.3668,332.3668,334.3669,0,0,0,0,1,,,,,,,,,,,,,,,,,,,,,,,,,,,,,,,,,,,,,,,,,,,,,,,,,,
,,5ea180ae34f3aa0319313965,35,male,2024-04-24_11h37.51.983,stockport_simplified,2022.2.4,MacIntel,59.88023952,661e456ee6de07e70aa9ef7b,6628df84ef4e7c870f0d8780,,,,,,,,,,,,,,,,,,,,,,,,,,,,,,,,,,,,,,,,,,,,,,,,,,,,,,,,0,21,21,49,1,B,Y,N,o2_image,stimuli/out2.png,stimuli/out1.png,stimuli/correct_out2.png,,,,,,,,,,,,,,,,,,,,,,,,,,,,,,,,,,,,,,
,,5ea180ae34f3aa0319313965,35,male,2024-04-24_11h37.51.983,stockport_simplified,2022.2.4,MacIntel,59.88023952,661e456ee6de07e70aa9ef7b,6628df84ef4e7c870f0d8780,,,,,,,,,,,,,,,,,,,,,,,,,,,,,,,,,,334.3676,336.3157,"[8,1,5,6,2,4,7,3]","[[-0.3,0.2],[0.3,0.2]]","[[0.125,-0.2],[-0.125,-0.2]]",-0.128876529,-0.1661982,1,0,0,1.4312,o2_image,336.3165,0,336.8157,336.8158,338.8157,0,0,0,0,1,,,,,,,,,,,,,,,,,,,,,,,,,,,,,,,,,,,,,,,,,,,,,,,,,,
,,5ea180ae34f3aa0319313965,35,male,2024-04-24_11h37.51.983,stockport_simplified,2022.2.4,MacIntel,59.88023952,661e456ee6de07e70aa9ef7b,6628df84ef4e7c870f0d8780,,,,,,,,,,,,,,,,,,,,,,,,,,,,,,,,,,,,,,,,,,,,,,,,,,,,,,,,0,22,22,50,1,N,M,C,o1_image,stimuli/out1.png,stimuli/correct_out1.png,stimuli/out2.png,,,,,,,,,,,,,,,,,,,,,,,,,,,,,,,,,,,,,,
,,5ea180ae34f3aa0319313965,35,male,2024-04-24_11h37.51.983,stockport_simplified,2022.2.4,MacIntel,59.88023952,661e456ee6de07e70aa9ef7b,6628df84ef4e7c870f0d8780,,,,,,,,,,,,,,,,,,,,,,,,,,,,,,,,,,338.8163,340.3168,"[8,1,5,6,2,4,7,3]","[[-0.3,0.2],[0.3,0.2]]","[[-0.125,-0.2],[0.125,-0.2]]",0.071662704,-0.195664912,1,0,0,0.9997,o2_image,340.3178,0,340.8168,340.8168,342.8159,0,0,0,0,1,,,,,,,,,,,,,,,,,,,,,,,,,,,,,,,,,,,,,,,,,,,,,,,,,,
,,5ea180ae34f3aa0319313965,35,male,2024-04-24_11h37.51.983,stockport_simplified,2022.2.4,MacIntel,59.88023952,661e456ee6de07e70aa9ef7b,6628df84ef4e7c870f0d8780,,,,,,,,,,,,,,,,,,,,,,,,,,,,,,,,,,,,,,,,,,,,,,,,,,,,,,,,0,23,23,53,1,N,M,C,o1_image,stimuli/out1.png,stimuli/correct_out1.png,stimuli/out2.png,,,,,,,,,,,,,,,,,,,,,,,,,,,,,,,,,,,,,,
,,5ea180ae34f3aa0319313965,35,male,2024-04-24_11h37.51.983,stockport_simplified,2022.2.4,MacIntel,59.88023952,661e456ee6de07e70aa9ef7b,6628df84ef4e7c870f0d8780,,,,,,,,,,,,,,,,,,,,,,,,,,,,,,,,,,342.8166,344.5667,"[8,1,5,6,2,4,7,3]","[[-0.3,0.2],[0.3,0.2]]","[[0.125,-0.2],[-0.125,-0.2]]",-0.151201596,-0.181258492,1,0,0,1.2339,o2_image,344.5675,0,345.0657,345.0657,347.0669,0,0,0,0,1,,,,,,,,,,,,,,,,,,,,,,,,,,,,,,,,,,,,,,,,,,,,,,,,,,
,,5ea180ae34f3aa0319313965,35,male,2024-04-24_11h37.51.983,stockport_simplified,2022.2.4,MacIntel,59.88023952,661e456ee6de07e70aa9ef7b,6628df84ef4e7c870f0d8780,,,,,,,,,,,,,,,,,,,,,,,,,,,,,,,,,,,,,,,,,,,,,,,,,,,,,,,,0,24,24,20,1,N,M,C,o1_image,stimuli/out1.png,stimuli/correct_out1.png,stimuli/out2.png,,,,,,,,,,,,,,,,,,,,,,,,,,,,,,,,,,,,,,
,,5ea180ae34f3aa0319313965,35,male,2024-04-24_11h37.51.983,stockport_simplified,2022.2.4,MacIntel,59.88023952,661e456ee6de07e70aa9ef7b,6628df84ef4e7c870f0d8780,,,,,,,,,,,,,,,,,,,,,,,,,,,,,,,,,,347.0675,348.5166,"[8,1,5,6,2,4,7,3]","[[0.3,0.2],[-0.3,0.2]]","[[0.125,-0.2],[-0.125,-0.2]]",0.116104789,-0.216627038,1,0,0,0.9322,o1_image,348.5171,1,349.0167,349.0168,351.0157,0,0,0,0,1,,,,,,,,,,,,,,,,,,,,,,,,,,,,,,,,,,,,,,,,,,,,,,,,,,
,,5ea180ae34f3aa0319313965,35,male,2024-04-24_11h37.51.983,stockport_simplified,2022.2.4,MacIntel,59.88023952,661e456ee6de07e70aa9ef7b,6628df84ef4e7c870f0d8780,,,,,,,,,,,,,,,,,,,,,,,,,,,,,,,,,,,,,,,,,,,,,,,,,,,,,,,,0,25,25,30,1,A,X,N,o1_image,stimuli/out1.png,stimuli/correct_out1.png,stimuli/out2.png,,,,,,,,,,,,,,,,,,,,,,,,,,,,,,,,,,,,,,
,,5ea180ae34f3aa0319313965,35,male,2024-04-24_11h37.51.983,stockport_simplified,2022.2.4,MacIntel,59.88023952,661e456ee6de07e70aa9ef7b,6628df84ef4e7c870f0d8780,,,,,,,,,,,,,,,,,,,,,,,,,,,,,,,,,,351.0163,352.099,"[8,1,5,6,2,4,7,3]","[[0.3,0.2],[-0.3,0.2]]","[[-0.125,-0.2],[0.125,-0.2]]",0.116104789,-0.216627038,1,0,0,0.5819,o2_image,352.0998,1,352.6,352.6001,354.6002,0,0,0,0,1,,,,,,,,,,,,,,,,,,,,,,,,,,,,,,,,,,,,,,,,,,,,,,,,,,
,,5ea180ae34f3aa0319313965,35,male,2024-04-24_11h37.51.983,stockport_simplified,2022.2.4,MacIntel,59.88023952,661e456ee6de07e70aa9ef7b,6628df84ef4e7c870f0d8780,,,,,,,,,,,,,,,,,,,,,,,,,,,,,,,,,,,,,,,,,,,,,,,,,,,,,,,,0,26,26,40,1,B,X,N,o2_image,stimuli/out2.png,stimuli/out1.png,stimuli/correct_out2.png,,,,,,,,,,,,,,,,,,,,,,,,,,,,,,,,,,,,,,
,,5ea180ae34f3aa0319313965,35,male,2024-04-24_11h37.51.983,stockport_simplified,2022.2.4,MacIntel,59.88023952,661e456ee6de07e70aa9ef7b,6628df84ef4e7c870f0d8780,,,,,,,,,,,,,,,,,,,,,,,,,,,,,,,,,,354.601,355.6833,"[8,1,5,6,2,4,7,3]","[[-0.3,0.2],[0.3,0.2]]","[[-0.125,-0.2],[0.125,-0.2]]",-0.087516984,-0.175033967,1,0,0,0.5675,o1_image,355.6845,0,356.1834,356.1834,358.183,0,0,0,0,1,,,,,,,,,,,,,,,,,,,,,,,,,,,,,,,,,,,,,,,,,,,,,,,,,,
,,5ea180ae34f3aa0319313965,35,male,2024-04-24_11h37.51.983,stockport_simplified,2022.2.4,MacIntel,59.88023952,661e456ee6de07e70aa9ef7b,6628df84ef4e7c870f0d8780,,,,,,,,,,,,,,,,,,,,,,,,,,,,,,,,,,,,,,,,,,,,,,,,,,,,,,,,0,27,27,11,1,B,X,N,o2_image,stimuli/out2.png,stimuli/out1.png,stimuli/correct_out2.png,,,,,,,,,,,,,,,,,,,,,,,,,,,,,,,,,,,,,,
,,5ea180ae34f3aa0319313965,35,male,2024-04-24_11h37.51.983,stockport_simplified,2022.2.4,MacIntel,59.88023952,661e456ee6de07e70aa9ef7b,6628df84ef4e7c870f0d8780,,,,,,,,,,,,,,,,,,,,,,,,,,,,,,,,,,358.1834,359.1326,"[8,1,5,6,2,4,7,3]","[[-0.3,0.2],[0.3,0.2]]","[[0.125,-0.2],[-0.125,-0.2]]",0.086621094,-0.176889436,1,0,0,0.4319,o1_image,359.1331,0,359.6333,359.6334,361.6335,0,0,0,0,1,,,,,,,,,,,,,,,,,,,,,,,,,,,,,,,,,,,,,,,,,,,,,,,,,,
,,5ea180ae34f3aa0319313965,35,male,2024-04-24_11h37.51.983,stockport_simplified,2022.2.4,MacIntel,59.88023952,661e456ee6de07e70aa9ef7b,6628df84ef4e7c870f0d8780,,,,,,,,,,,,,,,,,,,,,,,,,,,,,,,,,,,,,,,,,,,,,,,,,,,,,,,,0,28,28,48,1,B,Y,N,o2_image,stimuli/out2.png,stimuli/out1.png,stimuli/correct_out2.png,,,,,,,,,,,,,,,,,,,,,,,,,,,,,,,,,,,,,,
,,5ea180ae34f3aa0319313965,35,male,2024-04-24_11h37.51.983,stockport_simplified,2022.2.4,MacIntel,59.88023952,661e456ee6de07e70aa9ef7b,6628df84ef4e7c870f0d8780,,,,,,,,,,,,,,,,,,,,,,,,,,,,,,,,,,361.6342,362.5334,"[8,1,5,6,2,4,7,3]","[[0.3,0.2],[-0.3,0.2]]","[[-0.125,-0.2],[0.125,-0.2]]",0.086621094,-0.176889436,1,0,0,0.3825,o2_image,362.5343,1,363.0334,363.0334,365.0325,0,0,0,0,1,,,,,,,,,,,,,,,,,,,,,,,,,,,,,,,,,,,,,,,,,,,,,,,,,,
,,5ea180ae34f3aa0319313965,35,male,2024-04-24_11h37.51.983,stockport_simplified,2022.2.4,MacIntel,59.88023952,661e456ee6de07e70aa9ef7b,6628df84ef4e7c870f0d8780,,,,,,,,,,,,,,,,,,,,,,,,,,,,,,,,,,,,,,,,,,,,,,,,,,,,,,,,0,29,29,29,1,N,M,D,o2_image,stimuli/out2.png,stimuli/out1.png,stimuli/correct_out2.png,,,,,,,,,,,,,,,,,,,,,,,,,,,,,,,,,,,,,,
,,5ea180ae34f3aa0319313965,35,male,2024-04-24_11h37.51.983,stockport_simplified,2022.2.4,MacIntel,59.88023952,661e456ee6de07e70aa9ef7b,6628df84ef4e7c870f0d8780,,,,,,,,,,,,,,,,,,,,,,,,,,,,,,,,,,365.0331,366.1834,"[8,1,5,6,2,4,7,3]","[[-0.3,0.2],[0.3,0.2]]","[[-0.125,-0.2],[0.125,-0.2]]",0.086621094,-0.176889436,1,0,0,0.6496,o2_image,366.1843,0,366.6824,366.6824,368.6825,0,0,0,0,1,,,,,,,,,,,,,,,,,,,,,,,,,,,,,,,,,,,,,,,,,,,,,,,,,,
,,5ea180ae34f3aa0319313965,35,male,2024-04-24_11h37.51.983,stockport_simplified,2022.2.4,MacIntel,59.88023952,661e456ee6de07e70aa9ef7b,6628df84ef4e7c870f0d8780,,,,,,,,,,,,,,,,,,,,,,,,,,,,,,,,,,,,,,,,,,,,,,,,,,,,,,,,0,30,30,8,1,A,Y,N,o1_image,stimuli/out1.png,stimuli/correct_out1.png,stimuli/out2.png,,,,,,,,,,,,,,,,,,,,,,,,,,,,,,,,,,,,,,
,,5ea180ae34f3aa0319313965,35,male,2024-04-24_11h37.51.983,stockport_simplified,2022.2.4,MacIntel,59.88023952,661e456ee6de07e70aa9ef7b,6628df84ef4e7c870f0d8780,,,,,,,,,,,,,,,,,,,,,,,,,,,,,,,,,,368.6829,370.4832,"[8,1,5,6,2,4,7,3]","[[-0.3,0.2],[0.3,0.2]]","[[0.125,-0.2],[-0.125,-0.2]]",-0.106063179,-0.14361413,1,0,0,1.2992,o2_image,370.4843,1,370.9834,370.9834,372.9833,0,0,0,0,1,,,,,,,,,,,,,,,,,,,,,,,,,,,,,,,,,,,,,,,,,,,,,,,,,,
,,5ea180ae34f3aa0319313965,35,male,2024-04-24_11h37.51.983,stockport_simplified,2022.2.4,MacIntel,59.88023952,661e456ee6de07e70aa9ef7b,6628df84ef4e7c870f0d8780,,,,,,,,,,,,,,,,,,,,,,,,,,,,,,,,,,,,,,,,,,,,,,,,,,,,,,,,0,31,31,42,1,B,X,N,o2_image,stimuli/out2.png,stimuli/out1.png,stimuli/correct_out2.png,,,,,,,,,,,,,,,,,,,,,,,,,,,,,,,,,,,,,,
,,5ea180ae34f3aa0319313965,35,male,2024-04-24_11h37.51.983,stockport_simplified,2022.2.4,MacIntel,59.88023952,661e456ee6de07e70aa9ef7b,6628df84ef4e7c870f0d8780,,,,,,,,,,,,,,,,,,,,,,,,,,,,,,,,,,372.9839,374.8828,"[8,1,5,6,2,4,7,3]","[[-0.3,0.2],[0.3,0.2]]","[[0.125,-0.2],[-0.125,-0.2]]",0.173997962,-0.218295686,1,0,0,1.3819,o1_image,374.8834,1,375.3823,375.3824,377.3835,0,0,0,0,1,,,,,,,,,,,,,,,,,,,,,,,,,,,,,,,,,,,,,,,,,,,,,,,,,,
,,5ea180ae34f3aa0319313965,35,male,2024-04-24_11h37.51.983,stockport_simplified,2022.2.4,MacIntel,59.88023952,661e456ee6de07e70aa9ef7b,6628df84ef4e7c870f0d8780,,,,,,,,,,,,,,,,,,,,,,,,,,,,,,,,,,,,,,,,,,,,,,,,,,,,,,,,0,32,32,24,1,N,M,C,o1_image,stimuli/out1.png,stimuli/correct_out1.png,stimuli/out2.png,,,,,,,,,,,,,,,,,,,,,,,,,,,,,,,,,,,,,,
,,5ea180ae34f3aa0319313965,35,male,2024-04-24_11h37.51.983,stockport_simplified,2022.2.4,MacIntel,59.88023952,661e456ee6de07e70aa9ef7b,6628df84ef4e7c870f0d8780,,,,,,,,,,,,,,,,,,,,,,,,,,,,,,,,,,377.3842,378.3996,"[8,1,5,6,2,4,7,3]","[[-0.3,0.2],[0.3,0.2]]","[[0.125,-0.2],[-0.125,-0.2]]",-0.123976732,-0.174388587,1,0,0,0.499,o2_image,378.4001,0,378.9,378.9001,380.9001,0,0,0,0,1,,,,,,,,,,,,,,,,,,,,,,,,,,,,,,,,,,,,,,,,,,,,,,,,,,
,,5ea180ae34f3aa0319313965,35,male,2024-04-24_11h37.51.983,stockport_simplified,2022.2.4,MacIntel,59.88023952,661e456ee6de07e70aa9ef7b,6628df84ef4e7c870f0d8780,,,,,,,,,,,,,,,,,,,,,,,,,,,,,,,,,,,,,,,,,,,,,,,,,,,,,,,,0,33,33,0,1,A,X,N,o1_image,stimuli/out1.png,stimuli/correct_out1.png,stimuli/out2.png,,,,,,,,,,,,,,,,,,,,,,,,,,,,,,,,,,,,,,
,,5ea180ae34f3aa0319313965,35,male,2024-04-24_11h37.51.983,stockport_simplified,2022.2.4,MacIntel,59.88023952,661e456ee6de07e70aa9ef7b,6628df84ef4e7c870f0d8780,,,,,,,,,,,,,,,,,,,,,,,,,,,,,,,,,,380.9008,382.432,"[8,1,5,6,2,4,7,3]","[[-0.3,0.2],[0.3,0.2]]","[[-0.125,-0.2],[0.125,-0.2]]",0.15199983,-0.161905571,1,0,0,1.0152,o2_image,382.4326,0,382.9333,382.9334,384.9323,0,0,0,0,1,,,,,,,,,,,,,,,,,,,,,,,,,,,,,,,,,,,,,,,,,,,,,,,,,,
,,5ea180ae34f3aa0319313965,35,male,2024-04-24_11h37.51.983,stockport_simplified,2022.2.4,MacIntel,59.88023952,661e456ee6de07e70aa9ef7b,6628df84ef4e7c870f0d8780,,,,,,,,,,,,,,,,,,,,,,,,,,,,,,,,,,,,,,,,,,,,,,,,,,,,,,,,0,34,34,4,1,A,X,N,o1_image,stimuli/out1.png,stimuli/correct_out1.png,stimuli/out2.png,,,,,,,,,,,,,,,,,,,,,,,,,,,,,,,,,,,,,,
,,5ea180ae34f3aa0319313965,35,male,2024-04-24_11h37.51.983,stockport_simplified,2022.2.4,MacIntel,59.88023952,661e456ee6de07e70aa9ef7b,6628df84ef4e7c870f0d8780,,,,,,,,,,,,,,,,,,,,,,,,,,,,,,,,,,384.9328,386.15,"[8,1,5,6,2,4,7,3]","[[0.3,0.2],[-0.3,0.2]]","[[-0.125,-0.2],[0.125,-0.2]]",-0.160461957,-0.133419667,1,0,0,0.716,o1_image,386.1509,0,386.6491,386.6491,388.65,0,0,0,0,1,,,,,,,,,,,,,,,,,,,,,,,,,,,,,,,,,,,,,,,,,,,,,,,,,,
,,5ea180ae34f3aa0319313965,35,male,2024-04-24_11h37.51.983,stockport_simplified,2022.2.4,MacIntel,59.88023952,661e456ee6de07e70aa9ef7b,6628df84ef4e7c870f0d8780,,,,,,,,,,,,,,,,,,,,,,,,,,,,,,,,,,,,,,,,,,,,,,,,,,,,,,,,0,35,35,18,1,B,Y,N,o2_image,stimuli/out2.png,stimuli/out1.png,stimuli/correct_out2.png,,,,,,,,,,,,,,,,,,,,,,,,,,,,,,,,,,,,,,
,,5ea180ae34f3aa0319313965,35,male,2024-04-24_11h37.51.983,stockport_simplified,2022.2.4,MacIntel,59.88023952,661e456ee6de07e70aa9ef7b,6628df84ef4e7c870f0d8780,,,,,,,,,,,,,,,,,,,,,,,,,,,,,,,,,,388.6508,390.2,"[8,1,5,6,2,4,7,3]","[[0.3,0.2],[-0.3,0.2]]","[[-0.125,-0.2],[0.125,-0.2]]",0.147265625,-0.146412194,1,0,0,1.0326,o2_image,390.201,1,390.6992,390.6992,392.6992,0,0,0,0,1,,,,,,,,,,,,,,,,,,,,,,,,,,,,,,,,,,,,,,,,,,,,,,,,,,
,,5ea180ae34f3aa0319313965,35,male,2024-04-24_11h37.51.983,stockport_simplified,2022.2.4,MacIntel,59.88023952,661e456ee6de07e70aa9ef7b,6628df84ef4e7c870f0d8780,,,,,,,,,,,,,,,,,,,,,,,,,,,,,,,,,,,,,,,,,,,,,,,,,,,,,,,,0,36,36,58,1,N,M,D,o2_image,stimuli/out2.png,stimuli/out1.png,stimuli/correct_out2.png,,,,,,,,,,,,,,,,,,,,,,,,,,,,,,,,,,,,,,
,,5ea180ae34f3aa0319313965,35,male,2024-04-24_11h37.51.983,stockport_simplified,2022.2.4,MacIntel,59.88023952,661e456ee6de07e70aa9ef7b,6628df84ef4e7c870f0d8780,,,,,,,,,,,,,,,,,,,,,,,,,,,,,,,,,,392.6998,393.6498,"[8,1,5,6,2,4,7,3]","[[0.3,0.2],[-0.3,0.2]]","[[-0.125,-0.2],[0.125,-0.2]]",0.095265795,-0.181712806,1,0,0,0.4326,o2_image,393.6503,0,394.1493,394.1494,396.1501,0,0,0,0,1,,,,,,,,,,,,,,,,,,,,,,,,,,,,,,,,,,,,,,,,,,,,,,,,,,
,,5ea180ae34f3aa0319313965,35,male,2024-04-24_11h37.51.983,stockport_simplified,2022.2.4,MacIntel,59.88023952,661e456ee6de07e70aa9ef7b,6628df84ef4e7c870f0d8780,,,,,,,,,,,,,,,,,,,,,,,,,,,,,,,,,,,,,,,,,,,,,,,,,,,,,,,,0,37,37,52,1,N,M,C,o1_image,stimuli/out1.png,stimuli/correct_out1.png,stimuli/out2.png,,,,,,,,,,,,,,,,,,,,,,,,,,,,,,,,,,,,,,
,,5ea180ae34f3aa0319313965,35,male,2024-04-24_11h37.51.983,stockport_simplified,2022.2.4,MacIntel,59.88023952,661e456ee6de07e70aa9ef7b,6628df84ef4e7c870f0d8780,,,,,,,,,,,,,,,,,,,,,,,,,,,,,,,,,,396.1506,396.7333,"[8,1,5,6,2,4,7,3]","[[0.3,0.2],[-0.3,0.2]]","[[-0.125,-0.2],[0.125,-0.2]]",0.07955163,-0.20422894,1,0,0,0.0668,o2_image,396.7341,0,397.2328,397.2328,399.2333,0,0,0,0,1,,,,,,,,,,,,,,,,,,,,,,,,,,,,,,,,,,,,,,,,,,,,,,,,,,
,,5ea180ae34f3aa0319313965,35,male,2024-04-24_11h37.51.983,stockport_simplified,2022.2.4,MacIntel,59.88023952,661e456ee6de07e70aa9ef7b,6628df84ef4e7c870f0d8780,,,,,,,,,,,,,,,,,,,,,,,,,,,,,,,,,,,,,,,,,,,,,,,,,,,,,,,,0,38,38,51,1,N,M,C,o1_image,stimuli/out1.png,stimuli/correct_out1.png,stimuli/out2.png,,,,,,,,,,,,,,,,,,,,,,,,,,,,,,,,,,,,,,
,,5ea180ae34f3aa0319313965,35,male,2024-04-24_11h37.51.983,stockport_simplified,2022.2.4,MacIntel,59.88023952,661e456ee6de07e70aa9ef7b,6628df84ef4e7c870f0d8780,,,,,,,,,,,,,,,,,,,,,,,,,,,,,,,,,,399.2341,400.1833,"[8,1,5,6,2,4,7,3]","[[-0.3,0.2],[0.3,0.2]]","[[0.125,-0.2],[-0.125,-0.2]]",-0.101222826,-0.169743546,1,0,0,0.4324,o2_image,400.1842,1,400.6824,400.6824,402.6834,0,0,0,0,1,,,,,,,,,,,,,,,,,,,,,,,,,,,,,,,,,,,,,,,,,,,,,,,,,,
,,5ea180ae34f3aa0319313965,35,male,2024-04-24_11h37.51.983,stockport_simplified,2022.2.4,MacIntel,59.88023952,661e456ee6de07e70aa9ef7b,6628df84ef4e7c870f0d8780,,,,,,,,,,,,,,,,,,,,,,,,,,,,,,,,,,,,,,,,,,,,,,,,,,,,,,,,0,39,39,16,1,B,Y,N,o2_image,stimuli/out2.png,stimuli/out1.png,stimuli/correct_out2.png,,,,,,,,,,,,,,,,,,,,,,,,,,,,,,,,,,,,,,
,,5ea180ae34f3aa0319313965,35,male,2024-04-24_11h37.51.983,stockport_simplified,2022.2.4,MacIntel,59.88023952,661e456ee6de07e70aa9ef7b,6628df84ef4e7c870f0d8780,,,,,,,,,,,,,,,,,,,,,,,,,,,,,,,,,,402.684,403.5001,"[8,1,5,6,2,4,7,3]","[[0.3,0.2],[-0.3,0.2]]","[[0.125,-0.2],[-0.125,-0.2]]",-0.101222826,-0.169743546,1,0,0,0.3007,o2_image,403.501,1,403.9991,403.9991,405.9994,0,0,0,0,1,,,,,,,,,,,,,,,,,,,,,,,,,,,,,,,,,,,,,,,,,,,,,,,,,,
,,5ea180ae34f3aa0319313965,35,male,2024-04-24_11h37.51.983,stockport_simplified,2022.2.4,MacIntel,59.88023952,661e456ee6de07e70aa9ef7b,6628df84ef4e7c870f0d8780,,,,,,,,,,,,,,,,,,,,,,,,,,,,,,,,,,,,,,,,,,,,,,,,,,,,,,,,0,40,40,15,1,B,Y,N,o2_image,stimuli/out2.png,stimuli/out1.png,stimuli/correct_out2.png,,,,,,,,,,,,,,,,,,,,,,,,,,,,,,,,,,,,,,
,,5ea180ae34f3aa0319313965,35,male,2024-04-24_11h37.51.983,stockport_simplified,2022.2.4,MacIntel,59.88023952,661e456ee6de07e70aa9ef7b,6628df84ef4e7c870f0d8780,,,,,,,,,,,,,,,,,,,,,,,,,,,,,,,,,,406,406.9333,"[8,1,5,6,2,4,7,3]","[[0.3,0.2],[-0.3,0.2]]","[[-0.125,-0.2],[0.125,-0.2]]",-0.101222826,-0.169743546,1,0,0,0.4159,o1_image,406.9343,0,407.4333,407.4333,409.4327,0,0,0,0,1,,,,,,,,,,,,,,,,,,,,,,,,,,,,,,,,,,,,,,,,,,,,,,,,,,
,,5ea180ae34f3aa0319313965,35,male,2024-04-24_11h37.51.983,stockport_simplified,2022.2.4,MacIntel,59.88023952,661e456ee6de07e70aa9ef7b,6628df84ef4e7c870f0d8780,,,,,,,,,,,,,,,,,,,,,,,,,,,,,,,,,,,,,,,,,,,,,,,,,,,,,,,,0,41,41,25,1,N,M,D,o2_image,stimuli/out2.png,stimuli/out1.png,stimuli/correct_out2.png,,,,,,,,,,,,,,,,,,,,,,,,,,,,,,,,,,,,,,
,,5ea180ae34f3aa0319313965,35,male,2024-04-24_11h37.51.983,stockport_simplified,2022.2.4,MacIntel,59.88023952,661e456ee6de07e70aa9ef7b,6628df84ef4e7c870f0d8780,,,,,,,,,,,,,,,,,,,,,,,,,,,,,,,,,,409.4333,410.4834,"[8,1,5,6,2,4,7,3]","[[-0.3,0.2],[0.3,0.2]]","[[0.125,-0.2],[-0.125,-0.2]]",-0.101222826,-0.169743546,1,0,0,0.5491,o2_image,410.4843,0,410.9825,410.9825,412.9829,0,0,0,0,1,,,,,,,,,,,,,,,,,,,,,,,,,,,,,,,,,,,,,,,,,,,,,,,,,,
,,5ea180ae34f3aa0319313965,35,male,2024-04-24_11h37.51.983,stockport_simplified,2022.2.4,MacIntel,59.88023952,661e456ee6de07e70aa9ef7b,6628df84ef4e7c870f0d8780,,,,,,,,,,,,,,,,,,,,,,,,,,,,,,,,,,,,,,,,,,,,,,,,,,,,,,,,0,42,42,22,1,N,M,C,o1_image,stimuli/out1.png,stimuli/correct_out1.png,stimuli/out2.png,,,,,,,,,,,,,,,,,,,,,,,,,,,,,,,,,,,,,,
,,5ea180ae34f3aa0319313965,35,male,2024-04-24_11h37.51.983,stockport_simplified,2022.2.4,MacIntel,59.88023952,661e456ee6de07e70aa9ef7b,6628df84ef4e7c870f0d8780,,,,,,,,,,,,,,,,,,,,,,,,,,,,,,,,,,412.9835,413.7172,"[8,1,5,6,2,4,7,3]","[[-0.3,0.2],[0.3,0.2]]","[[0.125,-0.2],[-0.125,-0.2]]",-0.117404042,-0.161570143,1,0,0,0.2171,o2_image,413.7181,0,414.2168,414.217,416.2167,0,0,0,0,1,,,,,,,,,,,,,,,,,,,,,,,,,,,,,,,,,,,,,,,,,,,,,,,,,,
,,5ea180ae34f3aa0319313965,35,male,2024-04-24_11h37.51.983,stockport_simplified,2022.2.4,MacIntel,59.88023952,661e456ee6de07e70aa9ef7b,6628df84ef4e7c870f0d8780,,,,,,,,,,,,,,,,,,,,,,,,,,,,,,,,,,,,,,,,,,,,,,,,,,,,,,,,0,43,43,6,1,A,Y,N,o1_image,stimuli/out1.png,stimuli/correct_out1.png,stimuli/out2.png,,,,,,,,,,,,,,,,,,,,,,,,,,,,,,,,,,,,,,
,,5ea180ae34f3aa0319313965,35,male,2024-04-24_11h37.51.983,stockport_simplified,2022.2.4,MacIntel,59.88023952,661e456ee6de07e70aa9ef7b,6628df84ef4e7c870f0d8780,,,,,,,,,,,,,,,,,,,,,,,,,,,,,,,,,,416.2172,417.2491,"[8,1,5,6,2,4,7,3]","[[-0.3,0.2],[0.3,0.2]]","[[0.125,-0.2],[-0.125,-0.2]]",-0.117404042,-0.161570143,1,0,0,0.5159,o2_image,417.2501,1,417.7501,417.7501,419.7502,0,0,0,0,1,,,,,,,,,,,,,,,,,,,,,,,,,,,,,,,,,,,,,,,,,,,,,,,,,,
,,5ea180ae34f3aa0319313965,35,male,2024-04-24_11h37.51.983,stockport_simplified,2022.2.4,MacIntel,59.88023952,661e456ee6de07e70aa9ef7b,6628df84ef4e7c870f0d8780,,,,,,,,,,,,,,,,,,,,,,,,,,,,,,,,,,,,,,,,,,,,,,,,,,,,,,,,0,44,44,43,1,B,X,N,o2_image,stimuli/out2.png,stimuli/out1.png,stimuli/correct_out2.png,,,,,,,,,,,,,,,,,,,,,,,,,,,,,,,,,,,,,,
,,5ea180ae34f3aa0319313965,35,male,2024-04-24_11h37.51.983,stockport_simplified,2022.2.4,MacIntel,59.88023952,661e456ee6de07e70aa9ef7b,6628df84ef4e7c870f0d8780,,,,,,,,,,,,,,,,,,,,,,,,,,,,,,,,,,419.7509,420.9822,"[8,1,5,6,2,4,7,3]","[[-0.3,0.2],[0.3,0.2]]","[[0.125,-0.2],[-0.125,-0.2]]",0.151511549,-0.139037024,1,0,0,0.7148,o1_image,420.9829,0,421.4833,421.4833,423.4829,0,0,0,0,1,,,,,,,,,,,,,,,,,,,,,,,,,,,,,,,,,,,,,,,,,,,,,,,,,,
,,5ea180ae34f3aa0319313965,35,male,2024-04-24_11h37.51.983,stockport_simplified,2022.2.4,MacIntel,59.88023952,661e456ee6de07e70aa9ef7b,6628df84ef4e7c870f0d8780,,,,,,,,,,,,,,,,,,,,,,,,,,,,,,,,,,,,,,,,,,,,,,,,,,,,,,,,0,45,45,28,1,N,M,D,o2_image,stimuli/out2.png,stimuli/out1.png,stimuli/correct_out2.png,,,,,,,,,,,,,,,,,,,,,,,,,,,,,,,,,,,,,,
,,5ea180ae34f3aa0319313965,35,male,2024-04-24_11h37.51.983,stockport_simplified,2022.2.4,MacIntel,59.88023952,661e456ee6de07e70aa9ef7b,6628df84ef4e7c870f0d8780,,,,,,,,,,,,,,,,,,,,,,,,,,,,,,,,,,423.4834,424.7322,"[8,1,5,6,2,4,7,3]","[[0.3,0.2],[-0.3,0.2]]","[[0.125,-0.2],[-0.125,-0.2]]",-0.093554687,-0.165285326,1,0,0,0.7327,o2_image,424.7329,0,425.2333,425.2334,427.2323,0,0,0,0,1,,,,,,,,,,,,,,,,,,,,,,,,,,,,,,,,,,,,,,,,,,,,,,,,,,
,,5ea180ae34f3aa0319313965,35,male,2024-04-24_11h37.51.983,stockport_simplified,2022.2.4,MacIntel,59.88023952,661e456ee6de07e70aa9ef7b,6628df84ef4e7c870f0d8780,,,,,,,,,,,,,,,,,,,,,,,,,,,,,,,,,,,,,,,,,,,,,,,,,,,,,,,,0,46,46,21,1,N,M,C,o1_image,stimuli/out1.png,stimuli/correct_out1.png,stimuli/out2.png,,,,,,,,,,,,,,,,,,,,,,,,,,,,,,,,,,,,,,
,,5ea180ae34f3aa0319313965,35,male,2024-04-24_11h37.51.983,stockport_simplified,2022.2.4,MacIntel,59.88023952,661e456ee6de07e70aa9ef7b,6628df84ef4e7c870f0d8780,,,,,,,,,,,,,,,,,,,,,,,,,,,,,,,,,,427.2328,428.5666,"[8,1,5,6,2,4,7,3]","[[-0.3,0.2],[0.3,0.2]]","[[0.125,-0.2],[-0.125,-0.2]]",0.181233016,-0.152827785,1,0,0,0.8324,o1_image,428.5673,0,429.0654,429.0654,431.0667,0,0,0,0,1,,,,,,,,,,,,,,,,,,,,,,,,,,,,,,,,,,,,,,,,,,,,,,,,,,
,,5ea180ae34f3aa0319313965,35,male,2024-04-24_11h37.51.983,stockport_simplified,2022.2.4,MacIntel,59.88023952,661e456ee6de07e70aa9ef7b,6628df84ef4e7c870f0d8780,,,,,,,,,,,,,,,,,,,,,,,,,,,,,,,,,,,,,,,,,,,,,,,,,,,,,,,,0,47,47,26,1,N,M,D,o2_image,stimuli/out2.png,stimuli/out1.png,stimuli/correct_out2.png,,,,,,,,,,,,,,,,,,,,,,,,,,,,,,,,,,,,,,
,,5ea180ae34f3aa0319313965,35,male,2024-04-24_11h37.51.983,stockport_simplified,2022.2.4,MacIntel,59.88023952,661e456ee6de07e70aa9ef7b,6628df84ef4e7c870f0d8780,,,,,,,,,,,,,,,,,,,,,,,,,,,,,,,,,,431.0672,432.3828,"[8,1,5,6,2,4,7,3]","[[-0.3,0.2],[0.3,0.2]]","[[-0.125,-0.2],[0.125,-0.2]]",-0.12254161,-0.22063519,1,0,0,0.8006,o1_image,432.3836,0,432.8833,432.8833,434.8834,0,0,0,0,1,,,,,,,,,,,,,,,,,,,,,,,,,,,,,,,,,,,,,,,,,,,,,,,,,,
,,5ea180ae34f3aa0319313965,35,male,2024-04-24_11h37.51.983,stockport_simplified,2022.2.4,MacIntel,59.88023952,661e456ee6de07e70aa9ef7b,6628df84ef4e7c870f0d8780,,,,,,,,,,,,,,,,,,,,,,,,,,,,,,,,,,,,,,,,,,,,,,,,,,,,,,,,0,48,48,27,1,N,M,D,o2_image,stimuli/out2.png,stimuli/out1.png,stimuli/correct_out2.png,,,,,,,,,,,,,,,,,,,,,,,,,,,,,,,,,,,,,,
,,5ea180ae34f3aa0319313965,35,male,2024-04-24_11h37.51.983,stockport_simplified,2022.2.4,MacIntel,59.88023952,661e456ee6de07e70aa9ef7b,6628df84ef4e7c870f0d8780,,,,,,,,,,,,,,,,,,,,,,,,,,,,,,,,,,434.884,436.2164,"[8,1,5,6,2,4,7,3]","[[0.3,0.2],[-0.3,0.2]]","[[-0.125,-0.2],[0.125,-0.2]]",0.108058764,-0.166953974,1,0,0,0.816,o2_image,436.2171,0,436.7168,436.7168,438.7167,0,0,0,0,1,,,,,,,,,,,,,,,,,,,,,,,,,,,,,,,,,,,,,,,,,,,,,,,,,,
,,5ea180ae34f3aa0319313965,35,male,2024-04-24_11h37.51.983,stockport_simplified,2022.2.4,MacIntel,59.88023952,661e456ee6de07e70aa9ef7b,6628df84ef4e7c870f0d8780,,,,,,,,,,,,,,,,,,,,,,,,,,,,,,,,,,,,,,,,,,,,,,,,,,,,,,,,0,49,49,23,1,N,M,C,o1_image,stimuli/out1.png,stimuli/correct_out1.png,stimuli/out2.png,,,,,,,,,,,,,,,,,,,,,,,,,,,,,,,,,,,,,,
,,5ea180ae34f3aa0319313965,35,male,2024-04-24_11h37.51.983,stockport_simplified,2022.2.4,MacIntel,59.88023952,661e456ee6de07e70aa9ef7b,6628df84ef4e7c870f0d8780,,,,,,,,,,,,,,,,,,,,,,,,,,,,,,,,,,438.7174,440.3507,"[8,1,5,6,2,4,7,3]","[[0.3,0.2],[-0.3,0.2]]","[[-0.125,-0.2],[0.125,-0.2]]",0.190060292,-0.180799932,1,0,0,1.1173,o2_image,440.3516,1,440.85,440.8501,442.8502,0,0,0,0,1,,,,,,,,,,,,,,,,,,,,,,,,,,,,,,,,,,,,,,,,,,,,,,,,,,
,,5ea180ae34f3aa0319313965,35,male,2024-04-24_11h37.51.983,stockport_simplified,2022.2.4,MacIntel,59.88023952,661e456ee6de07e70aa9ef7b,6628df84ef4e7c870f0d8780,,,,,,,,,,,,,,,,,,,,,,,,,,,,,,,,,,,,,,,,,,,,,,,,,,,,,,,,0,50,50,46,1,B,Y,N,o2_image,stimuli/out2.png,stimuli/out1.png,stimuli/correct_out2.png,,,,,,,,,,,,,,,,,,,,,,,,,,,,,,,,,,,,,,
,,5ea180ae34f3aa0319313965,35,male,2024-04-24_11h37.51.983,stockport_simplified,2022.2.4,MacIntel,59.88023952,661e456ee6de07e70aa9ef7b,6628df84ef4e7c870f0d8780,,,,,,,,,,,,,,,,,,,,,,,,,,,,,,,,,,442.8509,443.9834,"[8,1,5,6,2,4,7,3]","[[0.3,0.2],[-0.3,0.2]]","[[-0.125,-0.2],[0.125,-0.2]]",-0.158084239,-0.135011889,1,0,0,0.6167,o1_image,443.9844,0,444.4833,444.4833,446.4831,0,0,0,0,1,,,,,,,,,,,,,,,,,,,,,,,,,,,,,,,,,,,,,,,,,,,,,,,,,,
,,5ea180ae34f3aa0319313965,35,male,2024-04-24_11h37.51.983,stockport_simplified,2022.2.4,MacIntel,59.88023952,661e456ee6de07e70aa9ef7b,6628df84ef4e7c870f0d8780,,,,,,,,,,,,,,,,,,,,,,,,,,,,,,,,,,,,,,,,,,,,,,,,,,,,,,,,0,51,51,59,1,N,M,D,o2_image,stimuli/out2.png,stimuli/out1.png,stimuli/correct_out2.png,,,,,,,,,,,,,,,,,,,,,,,,,,,,,,,,,,,,,,
,,5ea180ae34f3aa0319313965,35,male,2024-04-24_11h37.51.983,stockport_simplified,2022.2.4,MacIntel,59.88023952,661e456ee6de07e70aa9ef7b,6628df84ef4e7c870f0d8780,,,,,,,,,,,,,,,,,,,,,,,,,,,,,,,,,,446.4834,447.5498,"[8,1,5,6,2,4,7,3]","[[-0.3,0.2],[0.3,0.2]]","[[0.125,-0.2],[-0.125,-0.2]]",0.096819803,-0.174702785,1,0,0,0.5493,o1_image,447.5503,1,448.0501,448.0501,450.0499,0,0,0,0,1,,,,,,,,,,,,,,,,,,,,,,,,,,,,,,,,,,,,,,,,,,,,,,,,,,
,,5ea180ae34f3aa0319313965,35,male,2024-04-24_11h37.51.983,stockport_simplified,2022.2.4,MacIntel,59.88023952,661e456ee6de07e70aa9ef7b,6628df84ef4e7c870f0d8780,,,,,,,,,,,,,,,,,,,,,,,,,,,,,,,,,,,,,,,,,,,,,,,,,,,,,,,,0,52,52,2,1,A,X,N,o1_image,stimuli/out1.png,stimuli/correct_out1.png,stimuli/out2.png,,,,,,,,,,,,,,,,,,,,,,,,,,,,,,,,,,,,,,
,,5ea180ae34f3aa0319313965,35,male,2024-04-24_11h37.51.983,stockport_simplified,2022.2.4,MacIntel,59.88023952,661e456ee6de07e70aa9ef7b,6628df84ef4e7c870f0d8780,,,,,,,,,,,,,,,,,,,,,,,,,,,,,,,,,,450.0503,452.2999,"[8,1,5,6,2,4,7,3]","[[0.3,0.2],[-0.3,0.2]]","[[-0.125,-0.2],[0.125,-0.2]]",-0.107294497,-0.212771739,1,0,0,1.7333,o1_image,452.3005,0,452.799,452.799,454.7997,0,0,0,0,1,,,,,,,,,,,,,,,,,,,,,,,,,,,,,,,,,,,,,,,,,,,,,,,,,,
,,5ea180ae34f3aa0319313965,35,male,2024-04-24_11h37.51.983,stockport_simplified,2022.2.4,MacIntel,59.88023952,661e456ee6de07e70aa9ef7b,6628df84ef4e7c870f0d8780,,,,,,,,,,,,,,,,,,,,,,,,,,,,,,,,,,,,,,,,,,,,,,,,,,,,,,,,0,53,53,45,1,B,Y,N,o2_image,stimuli/out2.png,stimuli/out1.png,stimuli/correct_out2.png,,,,,,,,,,,,,,,,,,,,,,,,,,,,,,,,,,,,,,
,,5ea180ae34f3aa0319313965,35,male,2024-04-24_11h37.51.983,stockport_simplified,2022.2.4,MacIntel,59.88023952,661e456ee6de07e70aa9ef7b,6628df84ef4e7c870f0d8780,,,,,,,,,,,,,,,,,,,,,,,,,,,,,,,,,,454.8,455.7491,"[8,1,5,6,2,4,7,3]","[[-0.3,0.2],[0.3,0.2]]","[[-0.125,-0.2],[0.125,-0.2]]",0.136897079,-0.19462466,1,0,0,0.4481,o2_image,455.7499,0,456.2501,456.2501,458.2501,0,0,0,0,1,,,,,,,,,,,,,,,,,,,,,,,,,,,,,,,,,,,,,,,,,,,,,,,,,,
,,5ea180ae34f3aa0319313965,35,male,2024-04-24_11h37.51.983,stockport_simplified,2022.2.4,MacIntel,59.88023952,661e456ee6de07e70aa9ef7b,6628df84ef4e7c870f0d8780,,,,,,,,,,,,,,,,,,,,,,,,,,,,,,,,,,,,,,,,,,,,,,,,,,,,,,,,0,54,54,7,1,A,Y,N,o1_image,stimuli/out1.png,stimuli/correct_out1.png,stimuli/out2.png,,,,,,,,,,,,,,,,,,,,,,,,,,,,,,,,,,,,,,
,,5ea180ae34f3aa0319313965,35,male,2024-04-24_11h37.51.983,stockport_simplified,2022.2.4,MacIntel,59.88023952,661e456ee6de07e70aa9ef7b,6628df84ef4e7c870f0d8780,,,,,,,,,,,,,,,,,,,,,,,,,,,,,,,,,,458.2508,459.8162,"[8,1,5,6,2,4,7,3]","[[-0.3,0.2],[0.3,0.2]]","[[0.125,-0.2],[-0.125,-0.2]]",-0.136998981,-0.192246943,1,0,0,1.0499,o2_image,459.817,0,460.3166,460.3166,462.3167,0,0,0,0,1,,,,,,,,,,,,,,,,,,,,,,,,,,,,,,,,,,,,,,,,,,,,,,,,,,
,,5ea180ae34f3aa0319313965,35,male,2024-04-24_11h37.51.983,stockport_simplified,2022.2.4,MacIntel,59.88023952,661e456ee6de07e70aa9ef7b,6628df84ef4e7c870f0d8780,,,,,,,,,,,,,,,,,,,,,,,,,,,,,,,,,,,,,,,,,,,,,,,,,,,,,,,,0,55,55,1,1,A,X,N,o1_image,stimuli/out1.png,stimuli/correct_out1.png,stimuli/out2.png,,,,,,,,,,,,,,,,,,,,,,,,,,,,,,,,,,,,,,
,,5ea180ae34f3aa0319313965,35,male,2024-04-24_11h37.51.983,stockport_simplified,2022.2.4,MacIntel,59.88023952,661e456ee6de07e70aa9ef7b,6628df84ef4e7c870f0d8780,,,,,,,,,,,,,,,,,,,,,,,,,,,,,,,,,,462.3173,463.8496,"[8,1,5,6,2,4,7,3]","[[0.3,0.2],[-0.3,0.2]]","[[0.125,-0.2],[-0.125,-0.2]]",-0.1509893,-0.237202785,1,0,0,1.016,o2_image,463.8502,1,464.35,464.35,466.3503,0,0,0,0,1,,,,,,,,,,,,,,,,,,,,,,,,,,,,,,,,,,,,,,,,,,,,,,,,,,
,,5ea180ae34f3aa0319313965,35,male,2024-04-24_11h37.51.983,stockport_simplified,2022.2.4,MacIntel,59.88023952,661e456ee6de07e70aa9ef7b,6628df84ef4e7c870f0d8780,,,,,,,,,,,,,,,,,,,,,,,,,,,,,,,,,,,,,,,,,,,,,,,,,,,,,,,,0,56,56,13,1,B,X,N,o2_image,stimuli/out2.png,stimuli/out1.png,stimuli/correct_out2.png,,,,,,,,,,,,,,,,,,,,,,,,,,,,,,,,,,,,,,
,,5ea180ae34f3aa0319313965,35,male,2024-04-24_11h37.51.983,stockport_simplified,2022.2.4,MacIntel,59.88023952,661e456ee6de07e70aa9ef7b,6628df84ef4e7c870f0d8780,,,,,,,,,,,,,,,,,,,,,,,,,,,,,,,,,,466.3508,468.2001,"[8,1,5,6,2,4,7,3]","[[-0.3,0.2],[0.3,0.2]]","[[0.125,-0.2],[-0.125,-0.2]]",0.188034986,-0.217204484,1,0,0,1.333,o1_image,468.2009,0,468.7001,468.7002,470.7001,0,0,0,0,1,,,,,,,,,,,,,,,,,,,,,,,,,,,,,,,,,,,,,,,,,,,,,,,,,,
,,5ea180ae34f3aa0319313965,35,male,2024-04-24_11h37.51.983,stockport_simplified,2022.2.4,MacIntel,59.88023952,661e456ee6de07e70aa9ef7b,6628df84ef4e7c870f0d8780,,,,,,,,,,,,,,,,,,,,,,,,,,,,,,,,,,,,,,,,,,,,,,,,,,,,,,,,0,57,57,12,1,B,X,N,o2_image,stimuli/out2.png,stimuli/out1.png,stimuli/correct_out2.png,,,,,,,,,,,,,,,,,,,,,,,,,,,,,,,,,,,,,,
,,5ea180ae34f3aa0319313965,35,male,2024-04-24_11h37.51.983,stockport_simplified,2022.2.4,MacIntel,59.88023952,661e456ee6de07e70aa9ef7b,6628df84ef4e7c870f0d8780,,,,,,,,,,,,,,,,,,,,,,,,,,,,,,,,,,470.7007,472.0848,"[8,1,5,6,2,4,7,3]","[[0.3,0.2],[-0.3,0.2]]","[[0.125,-0.2],[-0.125,-0.2]]",0.151719599,-0.188642154,1,0,0,0.8675,o1_image,472.0856,1,472.5835,472.5835,474.5833,0,0,0,0,1,,,,,,,,,,,,,,,,,,,,,,,,,,,,,,,,,,,,,,,,,,,,,,,,,,
,,5ea180ae34f3aa0319313965,35,male,2024-04-24_11h37.51.983,stockport_simplified,2022.2.4,MacIntel,59.88023952,661e456ee6de07e70aa9ef7b,6628df84ef4e7c870f0d8780,,,,,,,,,,,,,,,,,,,,,,,,,,,,,,,,,,,,,,,,,,,,,,,,,,,,,,,,0,58,58,33,1,A,X,N,o1_image,stimuli/out1.png,stimuli/correct_out1.png,stimuli/out2.png,,,,,,,,,,,,,,,,,,,,,,,,,,,,,,,,,,,,,,
,,5ea180ae34f3aa0319313965,35,male,2024-04-24_11h37.51.983,stockport_simplified,2022.2.4,MacIntel,59.88023952,661e456ee6de07e70aa9ef7b,6628df84ef4e7c870f0d8780,,,,,,,,,,,,,,,,,,,,,,,,,,,,,,,,,,474.5842,476.1669,"[8,1,5,6,2,4,7,3]","[[-0.3,0.2],[0.3,0.2]]","[[0.125,-0.2],[-0.125,-0.2]]",-0.076957371,-0.208852751,1,0,0,1.0669,o2_image,476.1682,1,476.6657,476.6657,478.6667,0,0,0,0,1,,,,,,,,,,,,,,,,,,,,,,,,,,,,,,,,,,,,,,,,,,,,,,,,,,
,,5ea180ae34f3aa0319313965,35,male,2024-04-24_11h37.51.983,stockport_simplified,2022.2.4,MacIntel,59.88023952,661e456ee6de07e70aa9ef7b,6628df84ef4e7c870f0d8780,,,,,,,,,,,,,,,,,,,,,,,,,,,,,,,,,,,,,,,,,,,,,,,,,,,,,,,,0,59,59,47,1,B,Y,N,o2_image,stimuli/out2.png,stimuli/out1.png,stimuli/correct_out2.png,,,,,,,,,,,,,,,,,,,,,,,,,,,,,,,,,,,,,,
,,5ea180ae34f3aa0319313965,35,male,2024-04-24_11h37.51.983,stockport_simplified,2022.2.4,MacIntel,59.88023952,661e456ee6de07e70aa9ef7b,6628df84ef4e7c870f0d8780,,,,,,,,,,,,,,,,,,,,,,,,,,,,,,,,,,478.6674,480.1332,"[8,1,5,6,2,4,7,3]","[[-0.3,0.2],[0.3,0.2]]","[[0.125,-0.2],[-0.125,-0.2]]",0.133419667,-0.208521569,1,0,0,0.9491,o1_image,480.1337,1,480.6333,480.6333,482.6332,0,0,0,0,1,,,,,,,,,,,,,,,,,,,,,,,,,,,,,,,,,,,,,,,,,,,,,,,,,,
,,5ea180ae34f3aa0319313965,35,male,2024-04-24_11h37.51.983,stockport_simplified,2022.2.4,MacIntel,59.88023952,661e456ee6de07e70aa9ef7b,6628df84ef4e7c870f0d8780,,,,,,,,,,,,,,,,,,,,,,,,,,,,,,,,,,,,,,,,,,,,,,,,,,,,,,,,1,0,60,23,1,N,M,C,o1_image,stimuli/out1.png,stimuli/correct_out1.png,stimuli/out2.png,,,,,,,,,,,,,,,,,,,,,,,,,,,,,,,,,,,,,,
,,5ea180ae34f3aa0319313965,35,male,2024-04-24_11h37.51.983,stockport_simplified,2022.2.4,MacIntel,59.88023952,661e456ee6de07e70aa9ef7b,6628df84ef4e7c870f0d8780,,,,,,,,,,,,,,,,,,,,,,,,,,,,,,,,,,482.6337,484.533,"[8,1,5,6,2,4,7,3]","[[0.3,0.2],[-0.3,0.2]]","[[0.125,-0.2],[-0.125,-0.2]]",-0.168652344,-0.17711447,1,0,0,1.3834,o2_image,484.5335,1,485.0334,485.0334,487.0333,0,0,0,0,1,,,,,,,,,,,,,,,,,,,,,,,,,,,,,,,,,,,,,,,,,,,,,,,,,,
,,5ea180ae34f3aa0319313965,35,male,2024-04-24_11h37.51.983,stockport_simplified,2022.2.4,MacIntel,59.88023952,661e456ee6de07e70aa9ef7b,6628df84ef4e7c870f0d8780,,,,,,,,,,,,,,,,,,,,,,,,,,,,,,,,,,,,,,,,,,,,,,,,,,,,,,,,1,1,61,25,1,N,M,D,o2_image,stimuli/out2.png,stimuli/out1.png,stimuli/correct_out2.png,,,,,,,,,,,,,,,,,,,,,,,,,,,,,,,,,,,,,,
,,5ea180ae34f3aa0319313965,35,male,2024-04-24_11h37.51.983,stockport_simplified,2022.2.4,MacIntel,59.88023952,661e456ee6de07e70aa9ef7b,6628df84ef4e7c870f0d8780,,,,,,,,,,,,,,,,,,,,,,,,,,,,,,,,,,487.0338,489.133,"[8,1,5,6,2,4,7,3]","[[-0.3,0.2],[0.3,0.2]]","[[-0.125,-0.2],[0.125,-0.2]]",0.088896909,-0.170741338,1,0,0,1.5828,o2_image,489.1336,0,489.6327,489.6327,491.6334,0,0,0,0,1,,,,,,,,,,,,,,,,,,,,,,,,,,,,,,,,,,,,,,,,,,,,,,,,,,
,,5ea180ae34f3aa0319313965,35,male,2024-04-24_11h37.51.983,stockport_simplified,2022.2.4,MacIntel,59.88023952,661e456ee6de07e70aa9ef7b,6628df84ef4e7c870f0d8780,,,,,,,,,,,,,,,,,,,,,,,,,,,,,,,,,,,,,,,,,,,,,,,,,,,,,,,,1,2,62,5,1,A,Y,N,o1_image,stimuli/out1.png,stimuli/correct_out1.png,stimuli/out2.png,,,,,,,,,,,,,,,,,,,,,,,,,,,,,,,,,,,,,,
,,5ea180ae34f3aa0319313965,35,male,2024-04-24_11h37.51.983,stockport_simplified,2022.2.4,MacIntel,59.88023952,661e456ee6de07e70aa9ef7b,6628df84ef4e7c870f0d8780,,,,,,,,,,,,,,,,,,,,,,,,,,,,,,,,,,491.6342,493.4834,"[8,1,5,6,2,4,7,3]","[[-0.3,0.2],[0.3,0.2]]","[[0.125,-0.2],[-0.125,-0.2]]",0.155519701,-0.190298064,1,0,0,1.3324,o1_image,493.4843,0,493.9824,493.9824,495.9834,0,0,0,0,1,,,,,,,,,,,,,,,,,,,,,,,,,,,,,,,,,,,,,,,,,,,,,,,,,,
,,5ea180ae34f3aa0319313965,35,male,2024-04-24_11h37.51.983,stockport_simplified,2022.2.4,MacIntel,59.88023952,661e456ee6de07e70aa9ef7b,6628df84ef4e7c870f0d8780,,,,,,,,,,,,,,,,,,,,,,,,,,,,,,,,,,,,,,,,,,,,,,,,,,,,,,,,1,3,63,55,1,N,M,D,o2_image,stimuli/out2.png,stimuli/out1.png,stimuli/correct_out2.png,,,,,,,,,,,,,,,,,,,,,,,,,,,,,,,,,,,,,,
,,5ea180ae34f3aa0319313965,35,male,2024-04-24_11h37.51.983,stockport_simplified,2022.2.4,MacIntel,59.88023952,661e456ee6de07e70aa9ef7b,6628df84ef4e7c870f0d8780,,,,,,,,,,,,,,,,,,,,,,,,,,,,,,,,,,495.9839,498.2334,"[8,1,5,6,2,4,7,3]","[[0.3,0.2],[-0.3,0.2]]","[[-0.125,-0.2],[0.125,-0.2]]",-0.147350543,-0.169616168,1,0,0,1.7325,o1_image,498.2343,0,498.7333,498.7334,500.7329,0,0,0,0,1,,,,,,,,,,,,,,,,,,,,,,,,,,,,,,,,,,,,,,,,,,,,,,,,,,
,,5ea180ae34f3aa0319313965,35,male,2024-04-24_11h37.51.983,stockport_simplified,2022.2.4,MacIntel,59.88023952,661e456ee6de07e70aa9ef7b,6628df84ef4e7c870f0d8780,,,,,,,,,,,,,,,,,,,,,,,,,,,,,,,,,,,,,,,,,,,,,,,,,,,,,,,,1,4,64,44,1,B,X,N,o2_image,stimuli/out2.png,stimuli/out1.png,stimuli/correct_out2.png,,,,,,,,,,,,,,,,,,,,,,,,,,,,,,,,,,,,,,
,,5ea180ae34f3aa0319313965,35,male,2024-04-24_11h37.51.983,stockport_simplified,2022.2.4,MacIntel,59.88023952,661e456ee6de07e70aa9ef7b,6628df84ef4e7c870f0d8780,,,,,,,,,,,,,,,,,,,,,,,,,,,,,,,,,,500.7333,501.9666,"[8,1,5,6,2,4,7,3]","[[0.3,0.2],[-0.3,0.2]]","[[0.125,-0.2],[-0.125,-0.2]]",0.12290676,-0.173492697,1,0,0,0.7163,o1_image,501.9675,0,502.4668,502.4668,504.4669,0,0,0,0,1,,,,,,,,,,,,,,,,,,,,,,,,,,,,,,,,,,,,,,,,,,,,,,,,,,
,,5ea180ae34f3aa0319313965,35,male,2024-04-24_11h37.51.983,stockport_simplified,2022.2.4,MacIntel,59.88023952,661e456ee6de07e70aa9ef7b,6628df84ef4e7c870f0d8780,,,,,,,,,,,,,,,,,,,,,,,,,,,,,,,,,,,,,,,,,,,,,,,,,,,,,,,,1,5,65,12,1,B,X,N,o2_image,stimuli/out2.png,stimuli/out1.png,stimuli/correct_out2.png,,,,,,,,,,,,,,,,,,,,,,,,,,,,,,,,,,,,,,
,,5ea180ae34f3aa0319313965,35,male,2024-04-24_11h37.51.983,stockport_simplified,2022.2.4,MacIntel,59.88023952,661e456ee6de07e70aa9ef7b,6628df84ef4e7c870f0d8780,,,,,,,,,,,,,,,,,,,,,,,,,,,,,,,,,,504.4676,505.9498,"[8,1,5,6,2,4,7,3]","[[0.3,0.2],[-0.3,0.2]]","[[0.125,-0.2],[-0.125,-0.2]]",0.020898437,-0.149146569,1,0,0,0.3663,o1_image,505.9503,1,506.4498,506.45,508.4501,0,0,0,0,1,,,,,,,,,,,,,,,,,,,,,,,,,,,,,,,,,,,,,,,,,,,,,,,,,,
,,5ea180ae34f3aa0319313965,35,male,2024-04-24_11h37.51.983,stockport_simplified,2022.2.4,MacIntel,59.88023952,661e456ee6de07e70aa9ef7b,6628df84ef4e7c870f0d8780,,,,,,,,,,,,,,,,,,,,,,,,,,,,,,,,,,,,,,,,,,,,,,,,,,,,,,,,1,6,66,4,1,A,X,N,o1_image,stimuli/out1.png,stimuli/correct_out1.png,stimuli/out2.png,,,,,,,,,,,,,,,,,,,,,,,,,,,,,,,,,,,,,,
,,5ea180ae34f3aa0319313965,35,male,2024-04-24_11h37.51.983,stockport_simplified,2022.2.4,MacIntel,59.88023952,661e456ee6de07e70aa9ef7b,6628df84ef4e7c870f0d8780,,,,,,,,,,,,,,,,,,,,,,,,,,,,,,,,,,508.451,509.6164,"[8,1,5,6,2,4,7,3]","[[0.3,0.2],[-0.3,0.2]]","[[-0.125,-0.2],[0.125,-0.2]]",0.087487262,-0.154904042,1,0,0,0.65,o2_image,509.6169,0,510.1168,510.1168,512.1167,0,0,0,0,1,,,,,,,,,,,,,,,,,,,,,,,,,,,,,,,,,,,,,,,,,,,,,,,,,,
,,5ea180ae34f3aa0319313965,35,male,2024-04-24_11h37.51.983,stockport_simplified,2022.2.4,MacIntel,59.88023952,661e456ee6de07e70aa9ef7b,6628df84ef4e7c870f0d8780,,,,,,,,,,,,,,,,,,,,,,,,,,,,,,,,,,,,,,,,,,,,,,,,,,,,,,,,1,7,67,37,1,A,Y,N,o1_image,stimuli/out1.png,stimuli/correct_out1.png,stimuli/out2.png,,,,,,,,,,,,,,,,,,,,,,,,,,,,,,,,,,,,,,
,,5ea180ae34f3aa0319313965,35,male,2024-04-24_11h37.51.983,stockport_simplified,2022.2.4,MacIntel,59.88023952,661e456ee6de07e70aa9ef7b,6628df84ef4e7c870f0d8780,,,,,,,,,,,,,,,,,,,,,,,,,,,,,,,,,,512.1174,513.9822,"[8,1,5,6,2,4,7,3]","[[0.3,0.2],[-0.3,0.2]]","[[0.125,-0.2],[-0.125,-0.2]]",0.16821926,-0.154844599,1,0,0,1.3479,o1_image,513.9827,1,514.4834,514.4834,516.4833,0,0,0,0,1,,,,,,,,,,,,,,,,,,,,,,,,,,,,,,,,,,,,,,,,,,,,,,,,,,
,,5ea180ae34f3aa0319313965,35,male,2024-04-24_11h37.51.983,stockport_simplified,2022.2.4,MacIntel,59.88023952,661e456ee6de07e70aa9ef7b,6628df84ef4e7c870f0d8780,,,,,,,,,,,,,,,,,,,,,,,,,,,,,,,,,,,,,,,,,,,,,,,,,,,,,,,,1,8,68,22,1,N,M,C,o1_image,stimuli/out1.png,stimuli/correct_out1.png,stimuli/out2.png,,,,,,,,,,,,,,,,,,,,,,,,,,,,,,,,,,,,,,
,,5ea180ae34f3aa0319313965,35,male,2024-04-24_11h37.51.983,stockport_simplified,2022.2.4,MacIntel,59.88023952,661e456ee6de07e70aa9ef7b,6628df84ef4e7c870f0d8780,,,,,,,,,,,,,,,,,,,,,,,,,,,,,,,,,,516.4838,519.133,"[8,1,5,6,2,4,7,3]","[[-0.3,0.2],[0.3,0.2]]","[[-0.125,-0.2],[0.125,-0.2]]",0.113264266,-0.186154042,1,0,0,2.1326,o2_image,519.1458,1,519.65,519.6501,521.65,0,0,0,0,1,,,,,,,,,,,,,,,,,,,,,,,,,,,,,,,,,,,,,,,,,,,,,,,,,,
,,5ea180ae34f3aa0319313965,35,male,2024-04-24_11h37.51.983,stockport_simplified,2022.2.4,MacIntel,59.88023952,661e456ee6de07e70aa9ef7b,6628df84ef4e7c870f0d8780,,,,,,,,,,,,,,,,,,,,,,,,,,,,,,,,,,,,,,,,,,,,,,,,,,,,,,,,1,9,69,58,1,N,M,D,o2_image,stimuli/out2.png,stimuli/out1.png,stimuli/correct_out2.png,,,,,,,,,,,,,,,,,,,,,,,,,,,,,,,,,,,,,,
,,5ea180ae34f3aa0319313965,35,male,2024-04-24_11h37.51.983,stockport_simplified,2022.2.4,MacIntel,59.88023952,661e456ee6de07e70aa9ef7b,6628df84ef4e7c870f0d8780,,,,,,,,,,,,,,,,,,,,,,,,,,,,,,,,,,521.6507,523.8497,"[8,1,5,6,2,4,7,3]","[[-0.3,0.2],[0.3,0.2]]","[[-0.125,-0.2],[0.125,-0.2]]",-0.134795346,-0.204105808,1,0,0,1.6823,o1_image,523.8503,1,524.35,524.35,526.349,0,0,0,0,1,,,,,,,,,,,,,,,,,,,,,,,,,,,,,,,,,,,,,,,,,,,,,,,,,,
,,5ea180ae34f3aa0319313965,35,male,2024-04-24_11h37.51.983,stockport_simplified,2022.2.4,MacIntel,59.88023952,661e456ee6de07e70aa9ef7b,6628df84ef4e7c870f0d8780,,,,,,,,,,,,,,,,,,,,,,,,,,,,,,,,,,,,,,,,,,,,,,,,,,,,,,,,1,10,70,8,1,A,Y,N,o1_image,stimuli/out1.png,stimuli/correct_out1.png,stimuli/out2.png,,,,,,,,,,,,,,,,,,,,,,,,,,,,,,,,,,,,,,
,,5ea180ae34f3aa0319313965,35,male,2024-04-24_11h37.51.983,stockport_simplified,2022.2.4,MacIntel,59.88023952,661e456ee6de07e70aa9ef7b,6628df84ef4e7c870f0d8780,,,,,,,,,,,,,,,,,,,,,,,,,,,,,,,,,,526.3494,528.0999,"[8,1,5,6,2,4,7,3]","[[-0.3,0.2],[0.3,0.2]]","[[0.125,-0.2],[-0.125,-0.2]]",-0.118108865,-0.184842052,1,0,0,1.2495,o2_image,528.1006,1,528.6,528.6,530.6,0,0,0,0,1,,,,,,,,,,,,,,,,,,,,,,,,,,,,,,,,,,,,,,,,,,,,,,,,,,
,,5ea180ae34f3aa0319313965,35,male,2024-04-24_11h37.51.983,stockport_simplified,2022.2.4,MacIntel,59.88023952,661e456ee6de07e70aa9ef7b,6628df84ef4e7c870f0d8780,,,,,,,,,,,,,,,,,,,,,,,,,,,,,,,,,,,,,,,,,,,,,,,,,,,,,,,,1,11,71,48,1,B,Y,N,o2_image,stimuli/out2.png,stimuli/out1.png,stimuli/correct_out2.png,,,,,,,,,,,,,,,,,,,,,,,,,,,,,,,,,,,,,,
,,5ea180ae34f3aa0319313965,35,male,2024-04-24_11h37.51.983,stockport_simplified,2022.2.4,MacIntel,59.88023952,661e456ee6de07e70aa9ef7b,6628df84ef4e7c870f0d8780,,,,,,,,,,,,,,,,,,,,,,,,,,,,,,,,,,530.6008,532.4998,"[8,1,5,6,2,4,7,3]","[[0.3,0.2],[-0.3,0.2]]","[[0.125,-0.2],[-0.125,-0.2]]",0.101244056,-0.191325577,1,0,0,1.3836,o1_image,532.5003,1,533.0001,533.0001,534.999,0,0,0,0,1,,,,,,,,,,,,,,,,,,,,,,,,,,,,,,,,,,,,,,,,,,,,,,,,,,
,,5ea180ae34f3aa0319313965,35,male,2024-04-24_11h37.51.983,stockport_simplified,2022.2.4,MacIntel,59.88023952,661e456ee6de07e70aa9ef7b,6628df84ef4e7c870f0d8780,,,,,,,,,,,,,,,,,,,,,,,,,,,,,,,,,,,,,,,,,,,,,,,,,,,,,,,,1,12,72,6,1,A,Y,N,o1_image,stimuli/out1.png,stimuli/correct_out1.png,stimuli/out2.png,,,,,,,,,,,,,,,,,,,,,,,,,,,,,,,,,,,,,,
,,5ea180ae34f3aa0319313965,35,male,2024-04-24_11h37.51.983,stockport_simplified,2022.2.4,MacIntel,59.88023952,661e456ee6de07e70aa9ef7b,6628df84ef4e7c870f0d8780,,,,,,,,,,,,,,,,,,,,,,,,,,,,,,,,,,534.9996,536.9825,"[8,1,5,6,2,4,7,3]","[[-0.3,0.2],[0.3,0.2]]","[[-0.125,-0.2],[0.125,-0.2]]",0.130638587,-0.183007813,1,0,0,1.4821,o2_image,536.9835,0,537.4833,537.4833,539.4832,0,0,0,0,1,,,,,,,,,,,,,,,,,,,,,,,,,,,,,,,,,,,,,,,,,,,,,,,,,,
,,5ea180ae34f3aa0319313965,35,male,2024-04-24_11h37.51.983,stockport_simplified,2022.2.4,MacIntel,59.88023952,661e456ee6de07e70aa9ef7b,6628df84ef4e7c870f0d8780,,,,,,,,,,,,,,,,,,,,,,,,,,,,,,,,,,,,,,,,,,,,,,,,,,,,,,,,1,13,73,0,1,A,X,N,o1_image,stimuli/out1.png,stimuli/correct_out1.png,stimuli/out2.png,,,,,,,,,,,,,,,,,,,,,,,,,,,,,,,,,,,,,,
,,5ea180ae34f3aa0319313965,35,male,2024-04-24_11h37.51.983,stockport_simplified,2022.2.4,MacIntel,59.88023952,661e456ee6de07e70aa9ef7b,6628df84ef4e7c870f0d8780,,,,,,,,,,,,,,,,,,,,,,,,,,,,,,,,,,539.4837,541.5,"[8,1,5,6,2,4,7,3]","[[0.3,0.2],[-0.3,0.2]]","[[-0.125,-0.2],[0.125,-0.2]]",-0.104445482,-0.184345279,1,0,0,1.4997,o1_image,541.5008,1,542,542.0002,543.9999,0,0,0,0,1,,,,,,,,,,,,,,,,,,,,,,,,,,,,,,,,,,,,,,,,,,,,,,,,,,
,,5ea180ae34f3aa0319313965,35,male,2024-04-24_11h37.51.983,stockport_simplified,2022.2.4,MacIntel,59.88023952,661e456ee6de07e70aa9ef7b,6628df84ef4e7c870f0d8780,,,,,,,,,,,,,,,,,,,,,,,,,,,,,,,,,,,,,,,,,,,,,,,,,,,,,,,,1,14,74,52,1,N,M,C,o1_image,stimuli/out1.png,stimuli/correct_out1.png,stimuli/out2.png,,,,,,,,,,,,,,,,,,,,,,,,,,,,,,,,,,,,,,
,,5ea180ae34f3aa0319313965,35,male,2024-04-24_11h37.51.983,stockport_simplified,2022.2.4,MacIntel,59.88023952,661e456ee6de07e70aa9ef7b,6628df84ef4e7c870f0d8780,,,,,,,,,,,,,,,,,,,,,,,,,,,,,,,,,,544.0007,546.1488,"[8,1,5,6,2,4,7,3]","[[0.3,0.2],[-0.3,0.2]]","[[0.125,-0.2],[-0.125,-0.2]]",-0.150411855,-0.173849355,1,0,0,1.6321,o2_image,546.1495,1,546.6501,546.6503,548.6499,0,0,0,0,1,,,,,,,,,,,,,,,,,,,,,,,,,,,,,,,,,,,,,,,,,,,,,,,,,,
,,5ea180ae34f3aa0319313965,35,male,2024-04-24_11h37.51.983,stockport_simplified,2022.2.4,MacIntel,59.88023952,661e456ee6de07e70aa9ef7b,6628df84ef4e7c870f0d8780,,,,,,,,,,,,,,,,,,,,,,,,,,,,,,,,,,,,,,,,,,,,,,,,,,,,,,,,1,15,75,41,1,B,X,N,o2_image,stimuli/out2.png,stimuli/out1.png,stimuli/correct_out2.png,,,,,,,,,,,,,,,,,,,,,,,,,,,,,,,,,,,,,,
,,5ea180ae34f3aa0319313965,35,male,2024-04-24_11h37.51.983,stockport_simplified,2022.2.4,MacIntel,59.88023952,661e456ee6de07e70aa9ef7b,6628df84ef4e7c870f0d8780,,,,,,,,,,,,,,,,,,,,,,,,,,,,,,,,,,548.6506,550.683,"[8,1,5,6,2,4,7,3]","[[0.3,0.2],[-0.3,0.2]]","[[0.125,-0.2],[-0.125,-0.2]]",0.13044752,-0.188162364,1,0,0,1.5157,o1_image,550.6836,1,551.1834,551.1834,553.1833,0,0,0,0,1,,,,,,,,,,,,,,,,,,,,,,,,,,,,,,,,,,,,,,,,,,,,,,,,,,
,,5ea180ae34f3aa0319313965,35,male,2024-04-24_11h37.51.983,stockport_simplified,2022.2.4,MacIntel,59.88023952,661e456ee6de07e70aa9ef7b,6628df84ef4e7c870f0d8780,,,,,,,,,,,,,,,,,,,,,,,,,,,,,,,,,,,,,,,,,,,,,,,,,,,,,,,,1,16,76,50,1,N,M,C,o1_image,stimuli/out1.png,stimuli/correct_out1.png,stimuli/out2.png,,,,,,,,,,,,,,,,,,,,,,,,,,,,,,,,,,,,,,
,,5ea180ae34f3aa0319313965,35,male,2024-04-24_11h37.51.983,stockport_simplified,2022.2.4,MacIntel,59.88023952,661e456ee6de07e70aa9ef7b,6628df84ef4e7c870f0d8780,,,,,,,,,,,,,,,,,,,,,,,,,,,,,,,,,,553.184,554.8998,"[8,1,5,6,2,4,7,3]","[[-0.3,0.2],[0.3,0.2]]","[[0.125,-0.2],[-0.125,-0.2]]",-0.058377208,-0.173997962,1,0,0,1.2001,o2_image,554.9004,0,555.3992,555.3993,557.4,0,0,0,0,1,,,,,,,,,,,,,,,,,,,,,,,,,,,,,,,,,,,,,,,,,,,,,,,,,,
,,5ea180ae34f3aa0319313965,35,male,2024-04-24_11h37.51.983,stockport_simplified,2022.2.4,MacIntel,59.88023952,661e456ee6de07e70aa9ef7b,6628df84ef4e7c870f0d8780,,,,,,,,,,,,,,,,,,,,,,,,,,,,,,,,,,,,,,,,,,,,,,,,,,,,,,,,1,17,77,35,1,A,Y,N,o1_image,stimuli/out1.png,stimuli/correct_out1.png,stimuli/out2.png,,,,,,,,,,,,,,,,,,,,,,,,,,,,,,,,,,,,,,
,,5ea180ae34f3aa0319313965,35,male,2024-04-24_11h37.51.983,stockport_simplified,2022.2.4,MacIntel,59.88023952,661e456ee6de07e70aa9ef7b,6628df84ef4e7c870f0d8780,,,,,,,,,,,,,,,,,,,,,,,,,,,,,,,,,,557.4005,559.7491,"[8,1,5,6,2,4,7,3]","[[0.3,0.2],[-0.3,0.2]]","[[-0.125,-0.2],[0.125,-0.2]]",-0.125199558,-0.21082286,1,0,0,1.8321,o1_image,559.75,1,560.25,560.25,562.2501,0,0,0,0,1,,,,,,,,,,,,,,,,,,,,,,,,,,,,,,,,,,,,,,,,,,,,,,,,,,
,,5ea180ae34f3aa0319313965,35,male,2024-04-24_11h37.51.983,stockport_simplified,2022.2.4,MacIntel,59.88023952,661e456ee6de07e70aa9ef7b,6628df84ef4e7c870f0d8780,,,,,,,,,,,,,,,,,,,,,,,,,,,,,,,,,,,,,,,,,,,,,,,,,,,,,,,,1,18,78,38,1,A,Y,N,o1_image,stimuli/out1.png,stimuli/correct_out1.png,stimuli/out2.png,,,,,,,,,,,,,,,,,,,,,,,,,,,,,,,,,,,,,,
,,5ea180ae34f3aa0319313965,35,male,2024-04-24_11h37.51.983,stockport_simplified,2022.2.4,MacIntel,59.88023952,661e456ee6de07e70aa9ef7b,6628df84ef4e7c870f0d8780,,,,,,,,,,,,,,,,,,,,,,,,,,,,,,,,,,562.2506,564.25,"[8,1,5,6,2,4,7,3]","[[-0.3,0.2],[0.3,0.2]]","[[0.125,-0.2],[-0.125,-0.2]]",-0.07759426,-0.199184783,1,0,0,1.4828,o2_image,564.2508,1,564.7492,564.7492,566.75,0,0,0,0,1,,,,,,,,,,,,,,,,,,,,,,,,,,,,,,,,,,,,,,,,,,,,,,,,,,
,,5ea180ae34f3aa0319313965,35,male,2024-04-24_11h37.51.983,stockport_simplified,2022.2.4,MacIntel,59.88023952,661e456ee6de07e70aa9ef7b,6628df84ef4e7c870f0d8780,,,,,,,,,,,,,,,,,,,,,,,,,,,,,,,,,,,,,,,,,,,,,,,,,,,,,,,,1,19,79,47,1,B,Y,N,o2_image,stimuli/out2.png,stimuli/out1.png,stimuli/correct_out2.png,,,,,,,,,,,,,,,,,,,,,,,,,,,,,,,,,,,,,,
,,5ea180ae34f3aa0319313965,35,male,2024-04-24_11h37.51.983,stockport_simplified,2022.2.4,MacIntel,59.88023952,661e456ee6de07e70aa9ef7b,6628df84ef4e7c870f0d8780,,,,,,,,,,,,,,,,,,,,,,,,,,,,,,,,,,566.7508,569.233,"[8,1,5,6,2,4,7,3]","[[-0.3,0.2],[0.3,0.2]]","[[0.125,-0.2],[-0.125,-0.2]]",0.128855299,-0.195834749,1,0,0,1.9662,o1_image,569.2443,1,569.7333,569.7334,571.7333,0,0,0,0,1,,,,,,,,,,,,,,,,,,,,,,,,,,,,,,,,,,,,,,,,,,,,,,,,,,
,,5ea180ae34f3aa0319313965,35,male,2024-04-24_11h37.51.983,stockport_simplified,2022.2.4,MacIntel,59.88023952,661e456ee6de07e70aa9ef7b,6628df84ef4e7c870f0d8780,,,,,,,,,,,,,,,,,,,,,,,,,,,,,,,,,,,,,,,,,,,,,,,,,,,,,,,,1,20,80,2,1,A,X,N,o1_image,stimuli/out1.png,stimuli/correct_out1.png,stimuli/out2.png,,,,,,,,,,,,,,,,,,,,,,,,,,,,,,,,,,,,,,
,,5ea180ae34f3aa0319313965,35,male,2024-04-24_11h37.51.983,stockport_simplified,2022.2.4,MacIntel,59.88023952,661e456ee6de07e70aa9ef7b,6628df84ef4e7c870f0d8780,,,,,,,,,,,,,,,,,,,,,,,,,,,,,,,,,,571.7341,573.4166,"[8,1,5,6,2,4,7,3]","[[0.3,0.2],[-0.3,0.2]]","[[0.125,-0.2],[-0.125,-0.2]]",-0.15415676,-0.173743207,1,0,0,1.1662,o2_image,573.4174,1,573.9168,573.9169,575.9165,0,0,0,0,1,,,,,,,,,,,,,,,,,,,,,,,,,,,,,,,,,,,,,,,,,,,,,,,,,,
,,5ea180ae34f3aa0319313965,35,male,2024-04-24_11h37.51.983,stockport_simplified,2022.2.4,MacIntel,59.88023952,661e456ee6de07e70aa9ef7b,6628df84ef4e7c870f0d8780,,,,,,,,,,,,,,,,,,,,,,,,,,,,,,,,,,,,,,,,,,,,,,,,,,,,,,,,1,21,81,43,1,B,X,N,o2_image,stimuli/out2.png,stimuli/out1.png,stimuli/correct_out2.png,,,,,,,,,,,,,,,,,,,,,,,,,,,,,,,,,,,,,,
,,5ea180ae34f3aa0319313965,35,male,2024-04-24_11h37.51.983,stockport_simplified,2022.2.4,MacIntel,59.88023952,661e456ee6de07e70aa9ef7b,6628df84ef4e7c870f0d8780,,,,,,,,,,,,,,,,,,,,,,,,,,,,,,,,,,575.9172,577.5337,"[8,1,5,6,2,4,7,3]","[[-0.3,0.2],[0.3,0.2]]","[[-0.125,-0.2],[0.125,-0.2]]",0.152704654,-0.24106233,1,0,0,1.0999,o2_image,577.5347,0,578.0333,578.0334,580.0334,0,0,0,0,1,,,,,,,,,,,,,,,,,,,,,,,,,,,,,,,,,,,,,,,,,,,,,,,,,,
,,5ea180ae34f3aa0319313965,35,male,2024-04-24_11h37.51.983,stockport_simplified,2022.2.4,MacIntel,59.88023952,661e456ee6de07e70aa9ef7b,6628df84ef4e7c870f0d8780,,,,,,,,,,,,,,,,,,,,,,,,,,,,,,,,,,,,,,,,,,,,,,,,,,,,,,,,1,22,82,33,1,A,X,N,o1_image,stimuli/out1.png,stimuli/correct_out1.png,stimuli/out2.png,,,,,,,,,,,,,,,,,,,,,,,,,,,,,,,,,,,,,,
,,5ea180ae34f3aa0319313965,35,male,2024-04-24_11h37.51.983,stockport_simplified,2022.2.4,MacIntel,59.88023952,661e456ee6de07e70aa9ef7b,6628df84ef4e7c870f0d8780,,,,,,,,,,,,,,,,,,,,,,,,,,,,,,,,,,580.034,582.083,"[8,1,5,6,2,4,7,3]","[[0.3,0.2],[-0.3,0.2]]","[[0.125,-0.2],[-0.125,-0.2]]",-0.107982337,-0.166117527,1,0,0,1.5338,o2_image,582.0836,0,582.5833,582.5833,584.5833,0,0,0,0,1,,,,,,,,,,,,,,,,,,,,,,,,,,,,,,,,,,,,,,,,,,,,,,,,,,
,,5ea180ae34f3aa0319313965,35,male,2024-04-24_11h37.51.983,stockport_simplified,2022.2.4,MacIntel,59.88023952,661e456ee6de07e70aa9ef7b,6628df84ef4e7c870f0d8780,,,,,,,,,,,,,,,,,,,,,,,,,,,,,,,,,,,,,,,,,,,,,,,,,,,,,,,,1,23,83,3,1,A,X,N,o1_image,stimuli/out1.png,stimuli/correct_out1.png,stimuli/out2.png,,,,,,,,,,,,,,,,,,,,,,,,,,,,,,,,,,,,,,
,,5ea180ae34f3aa0319313965,35,male,2024-04-24_11h37.51.983,stockport_simplified,2022.2.4,MacIntel,59.88023952,661e456ee6de07e70aa9ef7b,6628df84ef4e7c870f0d8780,,,,,,,,,,,,,,,,,,,,,,,,,,,,,,,,,,584.5839,586.1332,"[8,1,5,6,2,4,7,3]","[[0.3,0.2],[-0.3,0.2]]","[[-0.125,-0.2],[0.125,-0.2]]",0.152602751,-0.151163383,1,0,0,1.0335,o2_image,586.1341,1,586.6335,586.6336,588.6332,0,0,0,0,1,,,,,,,,,,,,,,,,,,,,,,,,,,,,,,,,,,,,,,,,,,,,,,,,,,
,,5ea180ae34f3aa0319313965,35,male,2024-04-24_11h37.51.983,stockport_simplified,2022.2.4,MacIntel,59.88023952,661e456ee6de07e70aa9ef7b,6628df84ef4e7c870f0d8780,,,,,,,,,,,,,,,,,,,,,,,,,,,,,,,,,,,,,,,,,,,,,,,,,,,,,,,,1,24,84,28,1,N,M,D,o2_image,stimuli/out2.png,stimuli/out1.png,stimuli/correct_out2.png,,,,,,,,,,,,,,,,,,,,,,,,,,,,,,,,,,,,,,
,,5ea180ae34f3aa0319313965,35,male,2024-04-24_11h37.51.983,stockport_simplified,2022.2.4,MacIntel,59.88023952,661e456ee6de07e70aa9ef7b,6628df84ef4e7c870f0d8780,,,,,,,,,,,,,,,,,,,,,,,,,,,,,,,,,,588.6337,590.2497,"[8,1,5,6,2,4,7,3]","[[-0.3,0.2],[0.3,0.2]]","[[0.125,-0.2],[-0.125,-0.2]]",-0.128184443,-0.1755732,1,0,0,1.1005,o2_image,590.2502,1,590.7491,590.7491,592.749,0,0,0,0,1,,,,,,,,,,,,,,,,,,,,,,,,,,,,,,,,,,,,,,,,,,,,,,,,,,
,,5ea180ae34f3aa0319313965,35,male,2024-04-24_11h37.51.983,stockport_simplified,2022.2.4,MacIntel,59.88023952,661e456ee6de07e70aa9ef7b,6628df84ef4e7c870f0d8780,,,,,,,,,,,,,,,,,,,,,,,,,,,,,,,,,,,,,,,,,,,,,,,,,,,,,,,,1,25,85,57,1,N,M,D,o2_image,stimuli/out2.png,stimuli/out1.png,stimuli/correct_out2.png,,,,,,,,,,,,,,,,,,,,,,,,,,,,,,,,,,,,,,
,,5ea180ae34f3aa0319313965,35,male,2024-04-24_11h37.51.983,stockport_simplified,2022.2.4,MacIntel,59.88023952,661e456ee6de07e70aa9ef7b,6628df84ef4e7c870f0d8780,,,,,,,,,,,,,,,,,,,,,,,,,,,,,,,,,,592.7495,593.9998,"[8,1,5,6,2,4,7,3]","[[-0.3,0.2],[0.3,0.2]]","[[0.125,-0.2],[-0.125,-0.2]]",-0.117951766,-0.1744268,1,0,0,0.7497,o2_image,594.0006,1,594.499,594.499,596.4995,0,0,0,0,1,,,,,,,,,,,,,,,,,,,,,,,,,,,,,,,,,,,,,,,,,,,,,,,,,,
,,5ea180ae34f3aa0319313965,35,male,2024-04-24_11h37.51.983,stockport_simplified,2022.2.4,MacIntel,59.88023952,661e456ee6de07e70aa9ef7b,6628df84ef4e7c870f0d8780,,,,,,,,,,,,,,,,,,,,,,,,,,,,,,,,,,,,,,,,,,,,,,,,,,,,,,,,1,26,86,59,1,N,M,D,o2_image,stimuli/out2.png,stimuli/out1.png,stimuli/correct_out2.png,,,,,,,,,,,,,,,,,,,,,,,,,,,,,,,,,,,,,,
,,5ea180ae34f3aa0319313965,35,male,2024-04-24_11h37.51.983,stockport_simplified,2022.2.4,MacIntel,59.88023952,661e456ee6de07e70aa9ef7b,6628df84ef4e7c870f0d8780,,,,,,,,,,,,,,,,,,,,,,,,,,,,,,,,,,596.4997,598.4164,"[8,1,5,6,2,4,7,3]","[[-0.3,0.2],[0.3,0.2]]","[[0.125,-0.2],[-0.125,-0.2]]",0.11362517,-0.1740107,1,0,0,1.416,o1_image,598.4169,1,598.9167,598.9168,600.9168,0,0,0,0,1,,,,,,,,,,,,,,,,,,,,,,,,,,,,,,,,,,,,,,,,,,,,,,,,,,
,,5ea180ae34f3aa0319313965,35,male,2024-04-24_11h37.51.983,stockport_simplified,2022.2.4,MacIntel,59.88023952,661e456ee6de07e70aa9ef7b,6628df84ef4e7c870f0d8780,,,,,,,,,,,,,,,,,,,,,,,,,,,,,,,,,,,,,,,,,,,,,,,,,,,,,,,,1,27,87,20,1,N,M,C,o1_image,stimuli/out1.png,stimuli/correct_out1.png,stimuli/out2.png,,,,,,,,,,,,,,,,,,,,,,,,,,,,,,,,,,,,,,
,,5ea180ae34f3aa0319313965,35,male,2024-04-24_11h37.51.983,stockport_simplified,2022.2.4,MacIntel,59.88023952,661e456ee6de07e70aa9ef7b,6628df84ef4e7c870f0d8780,,,,,,,,,,,,,,,,,,,,,,,,,,,,,,,,,,600.9175,603.0503,"[8,1,5,6,2,4,7,3]","[[-0.3,0.2],[0.3,0.2]]","[[-0.125,-0.2],[0.125,-0.2]]",-0.245350713,-0.161706012,1,0,0,1.1332,o1_image,603.0513,1,603.5495,603.5496,605.55,0,0,0,0,1,,,,,,,,,,,,,,,,,,,,,,,,,,,,,,,,,,,,,,,,,,,,,,,,,,
,,5ea180ae34f3aa0319313965,35,male,2024-04-24_11h37.51.983,stockport_simplified,2022.2.4,MacIntel,59.88023952,661e456ee6de07e70aa9ef7b,6628df84ef4e7c870f0d8780,,,,,,,,,,,,,,,,,,,,,,,,,,,,,,,,,,,,,,,,,,,,,,,,,,,,,,,,1,28,88,54,1,N,M,C,o1_image,stimuli/out1.png,stimuli/correct_out1.png,stimuli/out2.png,,,,,,,,,,,,,,,,,,,,,,,,,,,,,,,,,,,,,,
,,5ea180ae34f3aa0319313965,35,male,2024-04-24_11h37.51.983,stockport_simplified,2022.2.4,MacIntel,59.88023952,661e456ee6de07e70aa9ef7b,6628df84ef4e7c870f0d8780,,,,,,,,,,,,,,,,,,,,,,,,,,,,,,,,,,605.5505,607.4496,"[8,1,5,6,2,4,7,3]","[[0.3,0.2],[-0.3,0.2]]","[[-0.125,-0.2],[0.125,-0.2]]",0.096136209,-0.207205333,1,0,0,1.3824,o2_image,607.4502,0,607.95,607.9501,609.95,0,0,0,0,1,,,,,,,,,,,,,,,,,,,,,,,,,,,,,,,,,,,,,,,,,,,,,,,,,,
,,5ea180ae34f3aa0319313965,35,male,2024-04-24_11h37.51.983,stockport_simplified,2022.2.4,MacIntel,59.88023952,661e456ee6de07e70aa9ef7b,6628df84ef4e7c870f0d8780,,,,,,,,,,,,,,,,,,,,,,,,,,,,,,,,,,,,,,,,,,,,,,,,,,,,,,,,1,29,89,1,1,A,X,N,o1_image,stimuli/out1.png,stimuli/correct_out1.png,stimuli/out2.png,,,,,,,,,,,,,,,,,,,,,,,,,,,,,,,,,,,,,,
,,5ea180ae34f3aa0319313965,35,male,2024-04-24_11h37.51.983,stockport_simplified,2022.2.4,MacIntel,59.88023952,661e456ee6de07e70aa9ef7b,6628df84ef4e7c870f0d8780,,,,,,,,,,,,,,,,,,,,,,,,,,,,,,,,,,609.9507,611.883,"[8,1,5,6,2,4,7,3]","[[-0.3,0.2],[0.3,0.2]]","[[0.125,-0.2],[-0.125,-0.2]]",-0.132179857,-0.232311481,1,0,0,1.4157,o2_image,611.8834,1,612.3835,612.3835,614.3833,0,0,0,0,1,,,,,,,,,,,,,,,,,,,,,,,,,,,,,,,,,,,,,,,,,,,,,,,,,,
,,5ea180ae34f3aa0319313965,35,male,2024-04-24_11h37.51.983,stockport_simplified,2022.2.4,MacIntel,59.88023952,661e456ee6de07e70aa9ef7b,6628df84ef4e7c870f0d8780,,,,,,,,,,,,,,,,,,,,,,,,,,,,,,,,,,,,,,,,,,,,,,,,,,,,,,,,1,30,90,40,1,B,X,N,o2_image,stimuli/out2.png,stimuli/out1.png,stimuli/correct_out2.png,,,,,,,,,,,,,,,,,,,,,,,,,,,,,,,,,,,,,,
,,5ea180ae34f3aa0319313965,35,male,2024-04-24_11h37.51.983,stockport_simplified,2022.2.4,MacIntel,59.88023952,661e456ee6de07e70aa9ef7b,6628df84ef4e7c870f0d8780,,,,,,,,,,,,,,,,,,,,,,,,,,,,,,,,,,614.384,616.6997,"[8,1,5,6,2,4,7,3]","[[0.3,0.2],[-0.3,0.2]]","[[-0.125,-0.2],[0.125,-0.2]]",-0.088850204,-0.200148607,1,0,0,1.7992,o1_image,616.7002,1,617.2,617.2001,619.2,0,0,0,0,1,,,,,,,,,,,,,,,,,,,,,,,,,,,,,,,,,,,,,,,,,,,,,,,,,,
,,5ea180ae34f3aa0319313965,35,male,2024-04-24_11h37.51.983,stockport_simplified,2022.2.4,MacIntel,59.88023952,661e456ee6de07e70aa9ef7b,6628df84ef4e7c870f0d8780,,,,,,,,,,,,,,,,,,,,,,,,,,,,,,,,,,,,,,,,,,,,,,,,,,,,,,,,1,31,91,34,1,A,X,N,o1_image,stimuli/out1.png,stimuli/correct_out1.png,stimuli/out2.png,,,,,,,,,,,,,,,,,,,,,,,,,,,,,,,,,,,,,,
,,5ea180ae34f3aa0319313965,35,male,2024-04-24_11h37.51.983,stockport_simplified,2022.2.4,MacIntel,59.88023952,661e456ee6de07e70aa9ef7b,6628df84ef4e7c870f0d8780,,,,,,,,,,,,,,,,,,,,,,,,,,,,,,,,,,619.2005,620.883,"[8,1,5,6,2,4,7,3]","[[-0.3,0.2],[0.3,0.2]]","[[0.125,-0.2],[-0.125,-0.2]]",-0.094713825,-0.187491508,1,0,0,1.166,o2_image,620.8837,1,621.3832,621.3833,623.3833,0,0,0,0,1,,,,,,,,,,,,,,,,,,,,,,,,,,,,,,,,,,,,,,,,,,,,,,,,,,
,,5ea180ae34f3aa0319313965,35,male,2024-04-24_11h37.51.983,stockport_simplified,2022.2.4,MacIntel,59.88023952,661e456ee6de07e70aa9ef7b,6628df84ef4e7c870f0d8780,,,,,,,,,,,,,,,,,,,,,,,,,,,,,,,,,,,,,,,,,,,,,,,,,,,,,,,,1,32,92,10,1,B,X,N,o2_image,stimuli/out2.png,stimuli/out1.png,stimuli/correct_out2.png,,,,,,,,,,,,,,,,,,,,,,,,,,,,,,,,,,,,,,
,,5ea180ae34f3aa0319313965,35,male,2024-04-24_11h37.51.983,stockport_simplified,2022.2.4,MacIntel,59.88023952,661e456ee6de07e70aa9ef7b,6628df84ef4e7c870f0d8780,,,,,,,,,,,,,,,,,,,,,,,,,,,,,,,,,,623.3839,625.7164,"[8,1,5,6,2,4,7,3]","[[-0.3,0.2],[0.3,0.2]]","[[0.125,-0.2],[-0.125,-0.2]]",0.200662364,-0.091206692,1,0,0,1.2329,o1_image,625.7169,0,626.2168,626.2168,628.2166,0,0,0,0,1,,,,,,,,,,,,,,,,,,,,,,,,,,,,,,,,,,,,,,,,,,,,,,,,,,
,,5ea180ae34f3aa0319313965,35,male,2024-04-24_11h37.51.983,stockport_simplified,2022.2.4,MacIntel,59.88023952,661e456ee6de07e70aa9ef7b,6628df84ef4e7c870f0d8780,,,,,,,,,,,,,,,,,,,,,,,,,,,,,,,,,,,,,,,,,,,,,,,,,,,,,,,,1,33,93,29,1,N,M,D,o2_image,stimuli/out2.png,stimuli/out1.png,stimuli/correct_out2.png,,,,,,,,,,,,,,,,,,,,,,,,,,,,,,,,,,,,,,
,,5ea180ae34f3aa0319313965,35,male,2024-04-24_11h37.51.983,stockport_simplified,2022.2.4,MacIntel,59.88023952,661e456ee6de07e70aa9ef7b,6628df84ef4e7c870f0d8780,,,,,,,,,,,,,,,,,,,,,,,,,,,,,,,,,,628.2173,630.183,"[8,1,5,6,2,4,7,3]","[[0.3,0.2],[-0.3,0.2]]","[[-0.125,-0.2],[0.125,-0.2]]",-0.019403872,-0.198955503,1,0,0,1.0495,o1_image,630.1835,0,630.6834,630.6834,632.6832,0,0,0,0,1,,,,,,,,,,,,,,,,,,,,,,,,,,,,,,,,,,,,,,,,,,,,,,,,,,
,,5ea180ae34f3aa0319313965,35,male,2024-04-24_11h37.51.983,stockport_simplified,2022.2.4,MacIntel,59.88023952,661e456ee6de07e70aa9ef7b,6628df84ef4e7c870f0d8780,,,,,,,,,,,,,,,,,,,,,,,,,,,,,,,,,,,,,,,,,,,,,,,,,,,,,,,,1,34,94,26,1,N,M,D,o2_image,stimuli/out2.png,stimuli/out1.png,stimuli/correct_out2.png,,,,,,,,,,,,,,,,,,,,,,,,,,,,,,,,,,,,,,
,,5ea180ae34f3aa0319313965,35,male,2024-04-24_11h37.51.983,stockport_simplified,2022.2.4,MacIntel,59.88023952,661e456ee6de07e70aa9ef7b,6628df84ef4e7c870f0d8780,,,,,,,,,,,,,,,,,,,,,,,,,,,,,,,,,,632.6838,634.3329,"[8,1,5,6,2,4,7,3]","[[-0.3,0.2],[0.3,0.2]]","[[0.125,-0.2],[-0.125,-0.2]]",0.165501868,-0.182519531,1,0,0,1.1323,o1_image,634.3335,0,634.8333,634.8334,636.8333,0,0,0,0,1,,,,,,,,,,,,,,,,,,,,,,,,,,,,,,,,,,,,,,,,,,,,,,,,,,
,,5ea180ae34f3aa0319313965,35,male,2024-04-24_11h37.51.983,stockport_simplified,2022.2.4,MacIntel,59.88023952,661e456ee6de07e70aa9ef7b,6628df84ef4e7c870f0d8780,,,,,,,,,,,,,,,,,,,,,,,,,,,,,,,,,,,,,,,,,,,,,,,,,,,,,,,,1,35,95,46,1,B,Y,N,o2_image,stimuli/out2.png,stimuli/out1.png,stimuli/correct_out2.png,,,,,,,,,,,,,,,,,,,,,,,,,,,,,,,,,,,,,,
,,5ea180ae34f3aa0319313965,35,male,2024-04-24_11h37.51.983,stockport_simplified,2022.2.4,MacIntel,59.88023952,661e456ee6de07e70aa9ef7b,6628df84ef4e7c870f0d8780,,,,,,,,,,,,,,,,,,,,,,,,,,,,,,,,,,636.8339,638.5167,"[8,1,5,6,2,4,7,3]","[[-0.3,0.2],[0.3,0.2]]","[[-0.125,-0.2],[0.125,-0.2]]",-0.142807405,-0.178350034,1,0,0,1.1662,o1_image,638.5175,1,639.0166,639.0167,641.0166,0,0,0,0,1,,,,,,,,,,,,,,,,,,,,,,,,,,,,,,,,,,,,,,,,,,,,,,,,,,
,,5ea180ae34f3aa0319313965,35,male,2024-04-24_11h37.51.983,stockport_simplified,2022.2.4,MacIntel,59.88023952,661e456ee6de07e70aa9ef7b,6628df84ef4e7c870f0d8780,,,,,,,,,,,,,,,,,,,,,,,,,,,,,,,,,,,,,,,,,,,,,,,,,,,,,,,,1,36,96,30,1,A,X,N,o1_image,stimuli/out1.png,stimuli/correct_out1.png,stimuli/out2.png,,,,,,,,,,,,,,,,,,,,,,,,,,,,,,,,,,,,,,
,,5ea180ae34f3aa0319313965,35,male,2024-04-24_11h37.51.983,stockport_simplified,2022.2.4,MacIntel,59.88023952,661e456ee6de07e70aa9ef7b,6628df84ef4e7c870f0d8780,,,,,,,,,,,,,,,,,,,,,,,,,,,,,,,,,,641.0172,642.3003,"[8,1,5,6,2,4,7,3]","[[0.3,0.2],[-0.3,0.2]]","[[0.125,-0.2],[-0.125,-0.2]]",0.135619056,-0.167922045,1,0,0,0.7663,o1_image,642.3011,0,642.7999,642.7999,644.8,0,0,0,0,1,,,,,,,,,,,,,,,,,,,,,,,,,,,,,,,,,,,,,,,,,,,,,,,,,,
,,5ea180ae34f3aa0319313965,35,male,2024-04-24_11h37.51.983,stockport_simplified,2022.2.4,MacIntel,59.88023952,661e456ee6de07e70aa9ef7b,6628df84ef4e7c870f0d8780,,,,,,,,,,,,,,,,,,,,,,,,,,,,,,,,,,,,,,,,,,,,,,,,,,,,,,,,1,37,97,14,1,B,X,N,o2_image,stimuli/out2.png,stimuli/out1.png,stimuli/correct_out2.png,,,,,,,,,,,,,,,,,,,,,,,,,,,,,,,,,,,,,,
,,5ea180ae34f3aa0319313965,35,male,2024-04-24_11h37.51.983,stockport_simplified,2022.2.4,MacIntel,59.88023952,661e456ee6de07e70aa9ef7b,6628df84ef4e7c870f0d8780,,,,,,,,,,,,,,,,,,,,,,,,,,,,,,,,,,644.8006,645.7504,"[8,1,5,6,2,4,7,3]","[[0.3,0.2],[-0.3,0.2]]","[[0.125,-0.2],[-0.125,-0.2]]",-0.162491508,-0.157362432,1,0,0,0.4325,o2_image,645.7511,0,646.2499,646.2499,648.25,0,0,0,0,1,,,,,,,,,,,,,,,,,,,,,,,,,,,,,,,,,,,,,,,,,,,,,,,,,,
,,5ea180ae34f3aa0319313965,35,male,2024-04-24_11h37.51.983,stockport_simplified,2022.2.4,MacIntel,59.88023952,661e456ee6de07e70aa9ef7b,6628df84ef4e7c870f0d8780,,,,,,,,,,,,,,,,,,,,,,,,,,,,,,,,,,,,,,,,,,,,,,,,,,,,,,,,1,38,98,53,1,N,M,C,o1_image,stimuli/out1.png,stimuli/correct_out1.png,stimuli/out2.png,,,,,,,,,,,,,,,,,,,,,,,,,,,,,,,,,,,,,,
,,5ea180ae34f3aa0319313965,35,male,2024-04-24_11h37.51.983,stockport_simplified,2022.2.4,MacIntel,59.88023952,661e456ee6de07e70aa9ef7b,6628df84ef4e7c870f0d8780,,,,,,,,,,,,,,,,,,,,,,,,,,,,,,,,,,648.2506,649.6164,"[8,1,5,6,2,4,7,3]","[[0.3,0.2],[-0.3,0.2]]","[[-0.125,-0.2],[0.125,-0.2]]",0.125148607,-0.188340693,1,0,0,0.8499,o2_image,649.6169,0,650.1166,650.1168,652.1164,0,0,0,0,1,,,,,,,,,,,,,,,,,,,,,,,,,,,,,,,,,,,,,,,,,,,,,,,,,,
,,5ea180ae34f3aa0319313965,35,male,2024-04-24_11h37.51.983,stockport_simplified,2022.2.4,MacIntel,59.88023952,661e456ee6de07e70aa9ef7b,6628df84ef4e7c870f0d8780,,,,,,,,,,,,,,,,,,,,,,,,,,,,,,,,,,,,,,,,,,,,,,,,,,,,,,,,1,39,99,9,1,A,Y,N,o1_image,stimuli/out1.png,stimuli/correct_out1.png,stimuli/out2.png,,,,,,,,,,,,,,,,,,,,,,,,,,,,,,,,,,,,,,
,,5ea180ae34f3aa0319313965,35,male,2024-04-24_11h37.51.983,stockport_simplified,2022.2.4,MacIntel,59.88023952,661e456ee6de07e70aa9ef7b,6628df84ef4e7c870f0d8780,,,,,,,,,,,,,,,,,,,,,,,,,,,,,,,,,,652.1167,653.0167,"[8,1,5,6,2,4,7,3]","[[-0.3,0.2],[0.3,0.2]]","[[0.125,-0.2],[-0.125,-0.2]]",-0.115667459,-0.184939708,1,0,0,0.3828,o2_image,653.0175,1,653.5166,653.5166,655.5166,0,0,0,0,1,,,,,,,,,,,,,,,,,,,,,,,,,,,,,,,,,,,,,,,,,,,,,,,,,,
,,5ea180ae34f3aa0319313965,35,male,2024-04-24_11h37.51.983,stockport_simplified,2022.2.4,MacIntel,59.88023952,661e456ee6de07e70aa9ef7b,6628df84ef4e7c870f0d8780,,,,,,,,,,,,,,,,,,,,,,,,,,,,,,,,,,,,,,,,,,,,,,,,,,,,,,,,1,40,100,18,1,B,Y,N,o2_image,stimuli/out2.png,stimuli/out1.png,stimuli/correct_out2.png,,,,,,,,,,,,,,,,,,,,,,,,,,,,,,,,,,,,,,
,,5ea180ae34f3aa0319313965,35,male,2024-04-24_11h37.51.983,stockport_simplified,2022.2.4,MacIntel,59.88023952,661e456ee6de07e70aa9ef7b,6628df84ef4e7c870f0d8780,,,,,,,,,,,,,,,,,,,,,,,,,,,,,,,,,,655.5172,656.9654,"[8,1,5,6,2,4,7,3]","[[-0.3,0.2],[0.3,0.2]]","[[-0.125,-0.2],[0.125,-0.2]]",0.141529382,-0.163463825,1,0,0,0.9312,o2_image,656.9659,0,657.4667,657.4667,659.4667,0,0,0,0,1,,,,,,,,,,,,,,,,,,,,,,,,,,,,,,,,,,,,,,,,,,,,,,,,,,
,,5ea180ae34f3aa0319313965,35,male,2024-04-24_11h37.51.983,stockport_simplified,2022.2.4,MacIntel,59.88023952,661e456ee6de07e70aa9ef7b,6628df84ef4e7c870f0d8780,,,,,,,,,,,,,,,,,,,,,,,,,,,,,,,,,,,,,,,,,,,,,,,,,,,,,,,,1,41,101,32,1,A,X,N,o1_image,stimuli/out1.png,stimuli/correct_out1.png,stimuli/out2.png,,,,,,,,,,,,,,,,,,,,,,,,,,,,,,,,,,,,,,
,,5ea180ae34f3aa0319313965,35,male,2024-04-24_11h37.51.983,stockport_simplified,2022.2.4,MacIntel,59.88023952,661e456ee6de07e70aa9ef7b,6628df84ef4e7c870f0d8780,,,,,,,,,,,,,,,,,,,,,,,,,,,,,,,,,,659.4674,660.2154,"[8,1,5,6,2,4,7,3]","[[0.3,0.2],[-0.3,0.2]]","[[0.125,-0.2],[-0.125,-0.2]]",-0.089334239,-0.185776155,1,0,0,0.2331,o2_image,660.216,0,660.7167,660.7167,662.7166,0,0,0,0,1,,,,,,,,,,,,,,,,,,,,,,,,,,,,,,,,,,,,,,,,,,,,,,,,,,
,,5ea180ae34f3aa0319313965,35,male,2024-04-24_11h37.51.983,stockport_simplified,2022.2.4,MacIntel,59.88023952,661e456ee6de07e70aa9ef7b,6628df84ef4e7c870f0d8780,,,,,,,,,,,,,,,,,,,,,,,,,,,,,,,,,,,,,,,,,,,,,,,,,,,,,,,,1,42,102,39,1,A,Y,N,o1_image,stimuli/out1.png,stimuli/correct_out1.png,stimuli/out2.png,,,,,,,,,,,,,,,,,,,,,,,,,,,,,,,,,,,,,,
,,5ea180ae34f3aa0319313965,35,male,2024-04-24_11h37.51.983,stockport_simplified,2022.2.4,MacIntel,59.88023952,661e456ee6de07e70aa9ef7b,6628df84ef4e7c870f0d8780,,,,,,,,,,,,,,,,,,,,,,,,,,,,,,,,,,662.7173,663.6499,"[8,1,5,6,2,4,7,3]","[[-0.3,0.2],[0.3,0.2]]","[[-0.125,-0.2],[0.125,-0.2]]",0.157922894,-0.15716712,1,0,0,0.4163,o2_image,663.6507,1,664.15,664.15,666.15,0,0,0,0,1,,,,,,,,,,,,,,,,,,,,,,,,,,,,,,,,,,,,,,,,,,,,,,,,,,
,,5ea180ae34f3aa0319313965,35,male,2024-04-24_11h37.51.983,stockport_simplified,2022.2.4,MacIntel,59.88023952,661e456ee6de07e70aa9ef7b,6628df84ef4e7c870f0d8780,,,,,,,,,,,,,,,,,,,,,,,,,,,,,,,,,,,,,,,,,,,,,,,,,,,,,,,,1,43,103,49,1,B,Y,N,o2_image,stimuli/out2.png,stimuli/out1.png,stimuli/correct_out2.png,,,,,,,,,,,,,,,,,,,,,,,,,,,,,,,,,,,,,,
,,5ea180ae34f3aa0319313965,35,male,2024-04-24_11h37.51.983,stockport_simplified,2022.2.4,MacIntel,59.88023952,661e456ee6de07e70aa9ef7b,6628df84ef4e7c870f0d8780,,,,,,,,,,,,,,,,,,,,,,,,,,,,,,,,,,666.1506,668.0998,"[8,1,5,6,2,4,7,3]","[[0.3,0.2],[-0.3,0.2]]","[[-0.125,-0.2],[0.125,-0.2]]",0.077377717,-0.179513417,1,0,0,1.4338,o2_image,668.1005,1,668.6,668.6001,670.6,0,0,0,0,1,,,,,,,,,,,,,,,,,,,,,,,,,,,,,,,,,,,,,,,,,,,,,,,,,,
,,5ea180ae34f3aa0319313965,35,male,2024-04-24_11h37.51.983,stockport_simplified,2022.2.4,MacIntel,59.88023952,661e456ee6de07e70aa9ef7b,6628df84ef4e7c870f0d8780,,,,,,,,,,,,,,,,,,,,,,,,,,,,,,,,,,,,,,,,,,,,,,,,,,,,,,,,1,44,104,15,1,B,Y,N,o2_image,stimuli/out2.png,stimuli/out1.png,stimuli/correct_out2.png,,,,,,,,,,,,,,,,,,,,,,,,,,,,,,,,,,,,,,
,,5ea180ae34f3aa0319313965,35,male,2024-04-24_11h37.51.983,stockport_simplified,2022.2.4,MacIntel,59.88023952,661e456ee6de07e70aa9ef7b,6628df84ef4e7c870f0d8780,,,,,,,,,,,,,,,,,,,,,,,,,,,,,,,,,,670.6006,672.3666,"[8,1,5,6,2,4,7,3]","[[-0.3,0.2],[0.3,0.2]]","[[-0.125,-0.2],[0.125,-0.2]]",0.101740829,-0.165030571,1,0,0,1.25,o2_image,672.3672,1,672.8667,672.8667,674.8661,0,0,0,0,1,,,,,,,,,,,,,,,,,,,,,,,,,,,,,,,,,,,,,,,,,,,,,,,,,,
,,5ea180ae34f3aa0319313965,35,male,2024-04-24_11h37.51.983,stockport_simplified,2022.2.4,MacIntel,59.88023952,661e456ee6de07e70aa9ef7b,6628df84ef4e7c870f0d8780,,,,,,,,,,,,,,,,,,,,,,,,,,,,,,,,,,,,,,,,,,,,,,,,,,,,,,,,1,45,105,45,1,B,Y,N,o2_image,stimuli/out2.png,stimuli/out1.png,stimuli/correct_out2.png,,,,,,,,,,,,,,,,,,,,,,,,,,,,,,,,,,,,,,
,,5ea180ae34f3aa0319313965,35,male,2024-04-24_11h37.51.983,stockport_simplified,2022.2.4,MacIntel,59.88023952,661e456ee6de07e70aa9ef7b,6628df84ef4e7c870f0d8780,,,,,,,,,,,,,,,,,,,,,,,,,,,,,,,,,,674.8666,676.7164,"[8,1,5,6,2,4,7,3]","[[0.3,0.2],[-0.3,0.2]]","[[0.125,-0.2],[-0.125,-0.2]]",0.134188179,-0.158411175,1,0,0,1.3325,o1_image,676.717,1,677.2166,677.2166,679.2156,0,0,0,0,1,,,,,,,,,,,,,,,,,,,,,,,,,,,,,,,,,,,,,,,,,,,,,,,,,,
,,5ea180ae34f3aa0319313965,35,male,2024-04-24_11h37.51.983,stockport_simplified,2022.2.4,MacIntel,59.88023952,661e456ee6de07e70aa9ef7b,6628df84ef4e7c870f0d8780,,,,,,,,,,,,,,,,,,,,,,,,,,,,,,,,,,,,,,,,,,,,,,,,,,,,,,,,1,46,106,51,1,N,M,C,o1_image,stimuli/out1.png,stimuli/correct_out1.png,stimuli/out2.png,,,,,,,,,,,,,,,,,,,,,,,,,,,,,,,,,,,,,,
,,5ea180ae34f3aa0319313965,35,male,2024-04-24_11h37.51.983,stockport_simplified,2022.2.4,MacIntel,59.88023952,661e456ee6de07e70aa9ef7b,6628df84ef4e7c870f0d8780,,,,,,,,,,,,,,,,,,,,,,,,,,,,,,,,,,679.2162,680.9832,"[8,1,5,6,2,4,7,3]","[[-0.3,0.2],[0.3,0.2]]","[[0.125,-0.2],[-0.125,-0.2]]",-0.06762483,-0.196505605,1,0,0,1.2502,o2_image,680.9839,0,681.4822,681.4822,683.4821,0,0,0,0,1,,,,,,,,,,,,,,,,,,,,,,,,,,,,,,,,,,,,,,,,,,,,,,,,,,
,,5ea180ae34f3aa0319313965,35,male,2024-04-24_11h37.51.983,stockport_simplified,2022.2.4,MacIntel,59.88023952,661e456ee6de07e70aa9ef7b,6628df84ef4e7c870f0d8780,,,,,,,,,,,,,,,,,,,,,,,,,,,,,,,,,,,,,,,,,,,,,,,,,,,,,,,,1,47,107,7,1,A,Y,N,o1_image,stimuli/out1.png,stimuli/correct_out1.png,stimuli/out2.png,,,,,,,,,,,,,,,,,,,,,,,,,,,,,,,,,,,,,,
,,5ea180ae34f3aa0319313965,35,male,2024-04-24_11h37.51.983,stockport_simplified,2022.2.4,MacIntel,59.88023952,661e456ee6de07e70aa9ef7b,6628df84ef4e7c870f0d8780,,,,,,,,,,,,,,,,,,,,,,,,,,,,,,,,,,683.4826,685.5329,"[8,1,5,6,2,4,7,3]","[[0.3,0.2],[-0.3,0.2]]","[[-0.125,-0.2],[0.125,-0.2]]",-0.181390115,-0.232651155,1,0,0,1.549,o1_image,685.5336,0,686.0333,686.0334,688.0327,0,0,0,0,1,,,,,,,,,,,,,,,,,,,,,,,,,,,,,,,,,,,,,,,,,,,,,,,,,,
,,5ea180ae34f3aa0319313965,35,male,2024-04-24_11h37.51.983,stockport_simplified,2022.2.4,MacIntel,59.88023952,661e456ee6de07e70aa9ef7b,6628df84ef4e7c870f0d8780,,,,,,,,,,,,,,,,,,,,,,,,,,,,,,,,,,,,,,,,,,,,,,,,,,,,,,,,1,48,108,56,1,N,M,D,o2_image,stimuli/out2.png,stimuli/out1.png,stimuli/correct_out2.png,,,,,,,,,,,,,,,,,,,,,,,,,,,,,,,,,,,,,,
,,5ea180ae34f3aa0319313965,35,male,2024-04-24_11h37.51.983,stockport_simplified,2022.2.4,MacIntel,59.88023952,661e456ee6de07e70aa9ef7b,6628df84ef4e7c870f0d8780,,,,,,,,,,,,,,,,,,,,,,,,,,,,,,,,,,688.0333,689.8501,"[8,1,5,6,2,4,7,3]","[[-0.3,0.2],[0.3,0.2]]","[[-0.125,-0.2],[0.125,-0.2]]",-0.169425102,-0.210453465,1,0,0,1.2998,o1_image,689.851,1,690.3491,690.3492,692.3497,0,0,0,0,1,,,,,,,,,,,,,,,,,,,,,,,,,,,,,,,,,,,,,,,,,,,,,,,,,,
,,5ea180ae34f3aa0319313965,35,male,2024-04-24_11h37.51.983,stockport_simplified,2022.2.4,MacIntel,59.88023952,661e456ee6de07e70aa9ef7b,6628df84ef4e7c870f0d8780,,,,,,,,,,,,,,,,,,,,,,,,,,,,,,,,,,,,,,,,,,,,,,,,,,,,,,,,1,49,109,21,1,N,M,C,o1_image,stimuli/out1.png,stimuli/correct_out1.png,stimuli/out2.png,,,,,,,,,,,,,,,,,,,,,,,,,,,,,,,,,,,,,,
,,5ea180ae34f3aa0319313965,35,male,2024-04-24_11h37.51.983,stockport_simplified,2022.2.4,MacIntel,59.88023952,661e456ee6de07e70aa9ef7b,6628df84ef4e7c870f0d8780,,,,,,,,,,,,,,,,,,,,,,,,,,,,,,,,,,692.3504,695.2674,"[8,1,5,6,2,4,7,3]","[[-0.3,0.2],[0.3,0.2]]","[[0.125,-0.2],[-0.125,-0.2]]",0.100904382,-0.212610394,1,0,0,2.3998,o1_image,695.2768,1,695.7667,695.7667,697.7667,0,0,0,0,1,,,,,,,,,,,,,,,,,,,,,,,,,,,,,,,,,,,,,,,,,,,,,,,,,,
,,5ea180ae34f3aa0319313965,35,male,2024-04-24_11h37.51.983,stockport_simplified,2022.2.4,MacIntel,59.88023952,661e456ee6de07e70aa9ef7b,6628df84ef4e7c870f0d8780,,,,,,,,,,,,,,,,,,,,,,,,,,,,,,,,,,,,,,,,,,,,,,,,,,,,,,,,1,50,110,31,1,A,X,N,o1_image,stimuli/out1.png,stimuli/correct_out1.png,stimuli/out2.png,,,,,,,,,,,,,,,,,,,,,,,,,,,,,,,,,,,,,,
,,5ea180ae34f3aa0319313965,35,male,2024-04-24_11h37.51.983,stockport_simplified,2022.2.4,MacIntel,59.88023952,661e456ee6de07e70aa9ef7b,6628df84ef4e7c870f0d8780,,,,,,,,,,,,,,,,,,,,,,,,,,,,,,,,,,697.7673,699.4158,"[8,1,5,6,2,4,7,3]","[[0.3,0.2],[-0.3,0.2]]","[[-0.125,-0.2],[0.125,-0.2]]",-0.108046026,-0.196004586,1,0,0,1.1331,o1_image,699.4165,1,699.9167,699.9167,701.9166,0,0,0,0,1,,,,,,,,,,,,,,,,,,,,,,,,,,,,,,,,,,,,,,,,,,,,,,,,,,
,,5ea180ae34f3aa0319313965,35,male,2024-04-24_11h37.51.983,stockport_simplified,2022.2.4,MacIntel,59.88023952,661e456ee6de07e70aa9ef7b,6628df84ef4e7c870f0d8780,,,,,,,,,,,,,,,,,,,,,,,,,,,,,,,,,,,,,,,,,,,,,,,,,,,,,,,,1,51,111,36,1,A,Y,N,o1_image,stimuli/out1.png,stimuli/correct_out1.png,stimuli/out2.png,,,,,,,,,,,,,,,,,,,,,,,,,,,,,,,,,,,,,,
,,5ea180ae34f3aa0319313965,35,male,2024-04-24_11h37.51.983,stockport_simplified,2022.2.4,MacIntel,59.88023952,661e456ee6de07e70aa9ef7b,6628df84ef4e7c870f0d8780,,,,,,,,,,,,,,,,,,,,,,,,,,,,,,,,,,701.9174,703.534,"[8,1,5,6,2,4,7,3]","[[0.3,0.2],[-0.3,0.2]]","[[0.125,-0.2],[-0.125,-0.2]]",0.120855978,-0.174087126,1,0,0,1.1014,o1_image,703.5349,0,704.0333,704.0334,706.0334,0,0,0,0,1,,,,,,,,,,,,,,,,,,,,,,,,,,,,,,,,,,,,,,,,,,,,,,,,,,
,,5ea180ae34f3aa0319313965,35,male,2024-04-24_11h37.51.983,stockport_simplified,2022.2.4,MacIntel,59.88023952,661e456ee6de07e70aa9ef7b,6628df84ef4e7c870f0d8780,,,,,,,,,,,,,,,,,,,,,,,,,,,,,,,,,,,,,,,,,,,,,,,,,,,,,,,,1,52,112,11,1,B,X,N,o2_image,stimuli/out2.png,stimuli/out1.png,stimuli/correct_out2.png,,,,,,,,,,,,,,,,,,,,,,,,,,,,,,,,,,,,,,
,,5ea180ae34f3aa0319313965,35,male,2024-04-24_11h37.51.983,stockport_simplified,2022.2.4,MacIntel,59.88023952,661e456ee6de07e70aa9ef7b,6628df84ef4e7c870f0d8780,,,,,,,,,,,,,,,,,,,,,,,,,,,,,,,,,,706.0342,707.8831,"[8,1,5,6,2,4,7,3]","[[-0.3,0.2],[0.3,0.2]]","[[-0.125,-0.2],[0.125,-0.2]]",0.128740659,-0.180549423,1,0,0,1.3325,o2_image,707.8836,1,708.3833,708.3834,710.3827,0,0,0,0,1,,,,,,,,,,,,,,,,,,,,,,,,,,,,,,,,,,,,,,,,,,,,,,,,,,
,,5ea180ae34f3aa0319313965,35,male,2024-04-24_11h37.51.983,stockport_simplified,2022.2.4,MacIntel,59.88023952,661e456ee6de07e70aa9ef7b,6628df84ef4e7c870f0d8780,,,,,,,,,,,,,,,,,,,,,,,,,,,,,,,,,,,,,,,,,,,,,,,,,,,,,,,,1,53,113,16,1,B,Y,N,o2_image,stimuli/out2.png,stimuli/out1.png,stimuli/correct_out2.png,,,,,,,,,,,,,,,,,,,,,,,,,,,,,,,,,,,,,,
,,5ea180ae34f3aa0319313965,35,male,2024-04-24_11h37.51.983,stockport_simplified,2022.2.4,MacIntel,59.88023952,661e456ee6de07e70aa9ef7b,6628df84ef4e7c870f0d8780,,,,,,,,,,,,,,,,,,,,,,,,,,,,,,,,,,710.3834,712.2832,"[8,1,5,6,2,4,7,3]","[[0.3,0.2],[-0.3,0.2]]","[[0.125,-0.2],[-0.125,-0.2]]",0.169059952,-0.169654382,1,0,0,1.383,o1_image,712.2841,0,712.7823,712.7823,714.7833,0,0,0,0,1,,,,,,,,,,,,,,,,,,,,,,,,,,,,,,,,,,,,,,,,,,,,,,,,,,
,,5ea180ae34f3aa0319313965,35,male,2024-04-24_11h37.51.983,stockport_simplified,2022.2.4,MacIntel,59.88023952,661e456ee6de07e70aa9ef7b,6628df84ef4e7c870f0d8780,,,,,,,,,,,,,,,,,,,,,,,,,,,,,,,,,,,,,,,,,,,,,,,,,,,,,,,,1,54,114,19,1,B,Y,N,o2_image,stimuli/out2.png,stimuli/out1.png,stimuli/correct_out2.png,,,,,,,,,,,,,,,,,,,,,,,,,,,,,,,,,,,,,,
,,5ea180ae34f3aa0319313965,35,male,2024-04-24_11h37.51.983,stockport_simplified,2022.2.4,MacIntel,59.88023952,661e456ee6de07e70aa9ef7b,6628df84ef4e7c870f0d8780,,,,,,,,,,,,,,,,,,,,,,,,,,,,,,,,,,714.7839,715.732,"[8,1,5,6,2,4,7,3]","[[-0.3,0.2],[0.3,0.2]]","[[0.125,-0.2],[-0.125,-0.2]]",-0.084977921,-0.251278023,1,0,0,0.4316,o2_image,715.7325,1,716.2332,716.2332,718.2334,0,0,0,0,1,,,,,,,,,,,,,,,,,,,,,,,,,,,,,,,,,,,,,,,,,,,,,,,,,,
,,5ea180ae34f3aa0319313965,35,male,2024-04-24_11h37.51.983,stockport_simplified,2022.2.4,MacIntel,59.88023952,661e456ee6de07e70aa9ef7b,6628df84ef4e7c870f0d8780,,,,,,,,,,,,,,,,,,,,,,,,,,,,,,,,,,,,,,,,,,,,,,,,,,,,,,,,1,55,115,17,1,B,Y,N,o2_image,stimuli/out2.png,stimuli/out1.png,stimuli/correct_out2.png,,,,,,,,,,,,,,,,,,,,,,,,,,,,,,,,,,,,,,
,,5ea180ae34f3aa0319313965,35,male,2024-04-24_11h37.51.983,stockport_simplified,2022.2.4,MacIntel,59.88023952,661e456ee6de07e70aa9ef7b,6628df84ef4e7c870f0d8780,,,,,,,,,,,,,,,,,,,,,,,,,,,,,,,,,,718.2342,719.5497,"[8,1,5,6,2,4,7,3]","[[0.3,0.2],[-0.3,0.2]]","[[0.125,-0.2],[-0.125,-0.2]]",0.152670686,-0.115697181,1,0,0,0.7991,o1_image,719.5502,0,720.0498,720.0499,722.0502,0,0,0,0,1,,,,,,,,,,,,,,,,,,,,,,,,,,,,,,,,,,,,,,,,,,,,,,,,,,
,,5ea180ae34f3aa0319313965,35,male,2024-04-24_11h37.51.983,stockport_simplified,2022.2.4,MacIntel,59.88023952,661e456ee6de07e70aa9ef7b,6628df84ef4e7c870f0d8780,,,,,,,,,,,,,,,,,,,,,,,,,,,,,,,,,,,,,,,,,,,,,,,,,,,,,,,,1,56,116,42,1,B,X,N,o2_image,stimuli/out2.png,stimuli/out1.png,stimuli/correct_out2.png,,,,,,,,,,,,,,,,,,,,,,,,,,,,,,,,,,,,,,
,,5ea180ae34f3aa0319313965,35,male,2024-04-24_11h37.51.983,stockport_simplified,2022.2.4,MacIntel,59.88023952,661e456ee6de07e70aa9ef7b,6628df84ef4e7c870f0d8780,,,,,,,,,,,,,,,,,,,,,,,,,,,,,,,,,,722.0511,723.2332,"[8,1,5,6,2,4,7,3]","[[-0.3,0.2],[0.3,0.2]]","[[0.125,-0.2],[-0.125,-0.2]]",-0.086527683,-0.248501189,1,0,0,0.6661,o2_image,723.2341,1,723.7334,723.7334,725.7325,0,0,0,0,1,,,,,,,,,,,,,,,,,,,,,,,,,,,,,,,,,,,,,,,,,,,,,,,,,,
,,5ea180ae34f3aa0319313965,35,male,2024-04-24_11h37.51.983,stockport_simplified,2022.2.4,MacIntel,59.88023952,661e456ee6de07e70aa9ef7b,6628df84ef4e7c870f0d8780,,,,,,,,,,,,,,,,,,,,,,,,,,,,,,,,,,,,,,,,,,,,,,,,,,,,,,,,1,57,117,13,1,B,X,N,o2_image,stimuli/out2.png,stimuli/out1.png,stimuli/correct_out2.png,,,,,,,,,,,,,,,,,,,,,,,,,,,,,,,,,,,,,,
,,5ea180ae34f3aa0319313965,35,male,2024-04-24_11h37.51.983,stockport_simplified,2022.2.4,MacIntel,59.88023952,661e456ee6de07e70aa9ef7b,6628df84ef4e7c870f0d8780,,,,,,,,,,,,,,,,,,,,,,,,,,,,,,,,,,725.733,726.6164,"[8,1,5,6,2,4,7,3]","[[0.3,0.2],[-0.3,0.2]]","[[-0.125,-0.2],[0.125,-0.2]]",0.159039572,-0.21785411,1,0,0,0.3667,o2_image,726.6169,1,727.1167,727.1167,729.1166,0,0,0,0,1,,,,,,,,,,,,,,,,,,,,,,,,,,,,,,,,,,,,,,,,,,,,,,,,,,
,,5ea180ae34f3aa0319313965,35,male,2024-04-24_11h37.51.983,stockport_simplified,2022.2.4,MacIntel,59.88023952,661e456ee6de07e70aa9ef7b,6628df84ef4e7c870f0d8780,,,,,,,,,,,,,,,,,,,,,,,,,,,,,,,,,,,,,,,,,,,,,,,,,,,,,,,,1,58,118,27,1,N,M,D,o2_image,stimuli/out2.png,stimuli/out1.png,stimuli/correct_out2.png,,,,,,,,,,,,,,,,,,,,,,,,,,,,,,,,,,,,,,
,,5ea180ae34f3aa0319313965,35,male,2024-04-24_11h37.51.983,stockport_simplified,2022.2.4,MacIntel,59.88023952,661e456ee6de07e70aa9ef7b,6628df84ef4e7c870f0d8780,,,,,,,,,,,,,,,,,,,,,,,,,,,,,,,,,,729.1173,730.1333,"[8,1,5,6,2,4,7,3]","[[0.3,0.2],[-0.3,0.2]]","[[-0.125,-0.2],[0.125,-0.2]]",-0.123012908,-0.221204144,1,0,0,0.4995,o1_image,730.1341,1,730.6333,730.6333,732.6324,0,0,0,0,1,,,,,,,,,,,,,,,,,,,,,,,,,,,,,,,,,,,,,,,,,,,,,,,,,,
,,5ea180ae34f3aa0319313965,35,male,2024-04-24_11h37.51.983,stockport_simplified,2022.2.4,MacIntel,59.88023952,661e456ee6de07e70aa9ef7b,6628df84ef4e7c870f0d8780,,,,,,,,,,,,,,,,,,,,,,,,,,,,,,,,,,,,,,,,,,,,,,,,,,,,,,,,1,59,119,24,1,N,M,C,o1_image,stimuli/out1.png,stimuli/correct_out1.png,stimuli/out2.png,,,,,,,,,,,,,,,,,,,,,,,,,,,,,,,,,,,,,,
,,5ea180ae34f3aa0319313965,35,male,2024-04-24_11h37.51.983,stockport_simplified,2022.2.4,MacIntel,59.88023952,661e456ee6de07e70aa9ef7b,6628df84ef4e7c870f0d8780,,,,,,,,,,,,,,,,,,,,,,,,,,,,,,,,,,732.6491,734.483,"[8,1,5,6,2,4,7,3]","[[0.3,0.2],[-0.3,0.2]]","[[0.125,-0.2],[-0.125,-0.2]]",-0.094463315,-0.194628906,1,0,0,1.3324,o2_image,734.4837,1,734.9824,734.9824,736.9834,,,,,,,,,,,,,,,,,,0,0,0,0,1,,,,,,,,,,,,,,,,,,,,,,,,,,,,,,,,,
,,5ea180ae34f3aa0319313965,35,male,2024-04-24_11h37.51.983,stockport_simplified,2022.2.4,MacIntel,59.88023952,661e456ee6de07e70aa9ef7b,6628df84ef4e7c870f0d8780,,,,,,,,,,,,,,,,,,,,,,,,,,,,,,,,,,,,,,,,,,,,,,,,,,,,,,,,,,,,,B,X,N,o2_image,stimuli/out2.png,stimuli/out1.png,stimuli/correct_out2.png,,,,,,0,0,0,24,1,,,,,,,,,,,,,,,,,,,,,,,,,,,,
,,5ea180ae34f3aa0319313965,35,male,2024-04-24_11h37.51.983,stockport_simplified,2022.2.4,MacIntel,59.88023952,661e456ee6de07e70aa9ef7b,6628df84ef4e7c870f0d8780,,,,,,,,,,,,,,,,,,,,,,,,,,,,,,,,,,736.9848,739.0496,"[8,1,5,6,2,4,7,3]","[[-0.3,0.2],[0.3,0.2]]","[[0.125,-0.2],[-0.125,-0.2]]",0.077101732,-0.217752208,1,0,0,1.5492,o1_image,739.0502,0,739.5498,739.5498,741.549,,,,,,,,,,,,,,,,,,0,0,0,0,1,,,,,,,,,,,,,,,,,,,,,,,,,,,,,,,,,
,,5ea180ae34f3aa0319313965,35,male,2024-04-24_11h37.51.983,stockport_simplified,2022.2.4,MacIntel,59.88023952,661e456ee6de07e70aa9ef7b,6628df84ef4e7c870f0d8780,,,,,,,,,,,,,,,,,,,,,,,,,,,,,,,,,,,,,,,,,,,,,,,,,,,,,,,,,,,,,N,M,D,o2_image,stimuli/out2.png,stimuli/out1.png,stimuli/correct_out2.png,,,,,,0,1,1,50,1,,,,,,,,,,,,,,,,,,,,,,,,,,,,
,,5ea180ae34f3aa0319313965,35,male,2024-04-24_11h37.51.983,stockport_simplified,2022.2.4,MacIntel,59.88023952,661e456ee6de07e70aa9ef7b,6628df84ef4e7c870f0d8780,,,,,,,,,,,,,,,,,,,,,,,,,,,,,,,,,,741.5497,743.1163,"[8,1,5,6,2,4,7,3]","[[0.3,0.2],[-0.3,0.2]]","[[0.125,-0.2],[-0.125,-0.2]]",-0.088896909,-0.238298234,1,0,0,1.0488,o2_image,743.1169,0,743.6156,743.6158,745.6165,,,,,,,,,,,,,,,,,,0,0,0,0,1,,,,,,,,,,,,,,,,,,,,,,,,,,,,,,,,,
,,5ea180ae34f3aa0319313965,35,male,2024-04-24_11h37.51.983,stockport_simplified,2022.2.4,MacIntel,59.88023952,661e456ee6de07e70aa9ef7b,6628df84ef4e7c870f0d8780,,,,,,,,,,,,,,,,,,,,,,,,,,,,,,,,,,,,,,,,,,,,,,,,,,,,,,,,,,,,,B,X,N,o1_image,stimuli/out1.png,stimuli/correct_out1.png,stimuli/out2.png,,,,,,0,2,2,27,1,,,,,,,,,,,,,,,,,,,,,,,,,,,,
,,5ea180ae34f3aa0319313965,35,male,2024-04-24_11h37.51.983,stockport_simplified,2022.2.4,MacIntel,59.88023952,661e456ee6de07e70aa9ef7b,6628df84ef4e7c870f0d8780,,,,,,,,,,,,,,,,,,,,,,,,,,,,,,,,,,745.6174,747.3986,"[8,1,5,6,2,4,7,3]","[[-0.3,0.2],[0.3,0.2]]","[[-0.125,-0.2],[0.125,-0.2]]",0.163353431,-0.173280401,1,0,0,1.2653,o2_image,747.3992,1,747.9,747.9,749.8999,,,,,,,,,,,,,,,,,,0,0,0,0,1,,,,,,,,,,,,,,,,,,,,,,,,,,,,,,,,,
