counterbalance_2.started,counterbalance_2.stopped,participant,age,gender,date,expName,psychopyVersion,OS,frameRate,STUDY_ID,SESSION_ID,information_2.started,information_2.stopped,information_loop.thisRepN,information_loop.thisTrialN,information_loop.thisN,information_loop.thisIndex,information_loop.ran,information,consent_2.started,consent_2.stopped,slider_1.response,slider_2.response,slider_3.response,slider_4.response,slider_5.response,slider_6.response,instructions.started,instructions.stopped,task1_instr.thisRepN,task1_instr.thisTrialN,task1_instr.thisN,task1_instr.thisIndex,task1_instr.ran,task1,comprehension1_2.started,comprehension1_2.stopped,comp1_mouse.x,comp1_mouse.y,comp1_mouse.leftButton,comp1_mouse.midButton,comp1_mouse.rightButton,comp1_mouse.time,comp1_mouse.clicked_name,task1_instr_again.thisRepN,task1_instr_again.thisTrialN,task1_instr_again.thisN,task1_instr_again.thisIndex,task1_instr_again.ran,comprehension1_4.started,comprehension1_4.stopped,comp1_mouse_2.x,comp1_mouse_2.y,comp1_mouse_2.leftButton,comp1_mouse_2.midButton,comp1_mouse_2.rightButton,comp1_mouse_2.time,comp1_mouse_2.clicked_name,comp1_loop.thisRepN,comp1_loop.thisTrialN,comp1_loop.thisN,comp1_loop.thisIndex,comp1_loop.ran,cue_o__trial_2.started,cue_o__trial_2.stopped,order,cue_order,out_order,cue_o_mouse.x,cue_o_mouse.y,cue_o_mouse.leftButton,cue_o_mouse.midButton,cue_o_mouse.rightButton,cue_o_mouse.time,cue_o_mouse.clicked_name,cue_selection_2.started,correct_answer,cue_selection_2.stopped,feedback_2.started,feedback_2.stopped,feedback_loop.thisRepN,feedback_loop.thisTrialN,feedback_loop.thisN,feedback_loop.thisIndex,feedback_loop.ran,stage1_trials.thisRepN,stage1_trials.thisTrialN,stage1_trials.thisN,stage1_trials.thisIndex,stage1_trials.ran,cue1,cue2,cue3,outcome,correct_out,o1_feedback,o2_feedback,stage2_feedback_loop.thisRepN,stage2_feedback_loop.thisTrialN,stage2_feedback_loop.thisN,stage2_feedback_loop.thisIndex,stage2_feedback_loop.ran,stage2_trials.thisRepN,stage2_trials.thisTrialN,stage2_trials.thisN,stage2_trials.thisIndex,stage2_trials.ran,stage3_feedback_loop.thisRepN,stage3_feedback_loop.thisTrialN,stage3_feedback_loop.thisN,stage3_feedback_loop.thisIndex,stage3_feedback_loop.ran,stage3_trials.thisRepN,stage3_trials.thisTrialN,stage3_trials.thisN,stage3_trials.thisIndex,stage3_trials.ran,debrief_2.started,debrief_2.stopped,debrief_loop.thisRepN,debrief_loop.thisTrialN,debrief_loop.thisN,debrief_loop.thisIndex,debrief_loop.ran,debrief_img,compr1_completed.thisRepN,compr1_completed.thisTrialN,compr1_completed.thisN,compr1_completed.thisIndex,compr1_completed.ran,consent_loop.thisRepN,consent_loop.thisTrialN,consent_loop.thisN,consent_loop.thisIndex,consent_loop.ran
0.0006,0.0007,5eabf42cdcb6170008b06667,30,male,2024-04-24_11h31.48.090,stockport_simplified,2022.2.4,Win32,60.24096386,661e456ee6de07e70aa9ef7b,6628df8793ba6fae256ab492,,,,,,,,,,,,,,,,,,,,,,,,,,,,,,,,,,,,,,,,,,,,,,,,,,,,,,,,,,,,,,,,,,,,,,,,,,,,,,,,,,,,,,,,,,,,,,,,,,,,,,,,,,,,,,,,,,,,,,,,,,,,
,,5eabf42cdcb6170008b06667,30,male,2024-04-24_11h31.48.090,stockport_simplified,2022.2.4,Win32,60.24096386,661e456ee6de07e70aa9ef7b,6628df8793ba6fae256ab492,0.0109,9.5755,0,0,0,0,1,instructions/info1.png,,,,,,,,,,,,,,,,,,,,,,,,,,,,,,,,,,,,,,,,,,,,,,,,,,,,,,,,,,,,,,,,,,,,,,,,,,,,,,,,,,,,,,,,,,,,,,,,,,,,,,,,,,,,,,,,,,,,
,,5eabf42cdcb6170008b06667,30,male,2024-04-24_11h31.48.090,stockport_simplified,2022.2.4,Win32,60.24096386,661e456ee6de07e70aa9ef7b,6628df8793ba6fae256ab492,9.5758,24.1907,0,1,1,1,1,instructions/info2.png,,,,,,,,,,,,,,,,,,,,,,,,,,,,,,,,,,,,,,,,,,,,,,,,,,,,,,,,,,,,,,,,,,,,,,,,,,,,,,,,,,,,,,,,,,,,,,,,,,,,,,,,,,,,,,,,,,,,
,,5eabf42cdcb6170008b06667,30,male,2024-04-24_11h31.48.090,stockport_simplified,2022.2.4,Win32,60.24096386,661e456ee6de07e70aa9ef7b,6628df8793ba6fae256ab492,24.1913,26.5884,0,2,2,2,1,instructions/info3.png,,,,,,,,,,,,,,,,,,,,,,,,,,,,,,,,,,,,,,,,,,,,,,,,,,,,,,,,,,,,,,,,,,,,,,,,,,,,,,,,,,,,,,,,,,,,,,,,,,,,,,,,,,,,,,,,,,,,
,,5eabf42cdcb6170008b06667,30,male,2024-04-24_11h31.48.090,stockport_simplified,2022.2.4,Win32,60.24096386,661e456ee6de07e70aa9ef7b,6628df8793ba6fae256ab492,,,,,,,,,26.5887,42.2766,1,1,1,1,1,1,,,,,,,,,,,,,,,,,,,,,,,,,,,,,,,,,,,,,,,,,,,,,,,,,,,,,,,,,,,,,,,,,,,,,,,,,,,,,,,,,,,,,,,,,,,,,,,,,,,,,,,,,,,,
,,5eabf42cdcb6170008b06667,30,male,2024-04-24_11h31.48.090,stockport_simplified,2022.2.4,Win32,60.24096386,661e456ee6de07e70aa9ef7b,6628df8793ba6fae256ab492,,,,,,,,,,,,,,,,,42.281,172.6948,0,0,0,0,1,instructions/task1_1.png,,,,,,,,,,,,,,,,,,,,,,,,,,,,,,,,,,,,,,,,,,,,,,,,,,,,,,,,,,,,,,,,,,,,,,,,,,,,,,,,,,,,,,,,,,,,,,,,,,,,
,,5eabf42cdcb6170008b06667,30,male,2024-04-24_11h31.48.090,stockport_simplified,2022.2.4,Win32,60.24096386,661e456ee6de07e70aa9ef7b,6628df8793ba6fae256ab492,,,,,,,,,,,,,,,,,172.7007,183.1091,0,1,1,1,1,instructions/task1_2.png,,,,,,,,,,,,,,,,,,,,,,,,,,,,,,,,,,,,,,,,,,,,,,,,,,,,,,,,,,,,,,,,,,,,,,,,,,,,,,,,,,,,,,,,,,,,,,,,,,,,
,,5eabf42cdcb6170008b06667,30,male,2024-04-24_11h31.48.090,stockport_simplified,2022.2.4,Win32,60.24096386,661e456ee6de07e70aa9ef7b,6628df8793ba6fae256ab492,,,,,,,,,,,,,,,,,183.1145,229.1585,0,2,2,2,1,instructions/task1_3.png,,,,,,,,,,,,,,,,,,,,,,,,,,,,,,,,,,,,,,,,,,,,,,,,,,,,,,,,,,,,,,,,,,,,,,,,,,,,,,,,,,,,,,,,,,,,,,,,,,,,
,,5eabf42cdcb6170008b06667,30,male,2024-04-24_11h31.48.090,stockport_simplified,2022.2.4,Win32,60.24096386,661e456ee6de07e70aa9ef7b,6628df8793ba6fae256ab492,,,,,,,,,,,,,,,,,246.3985,248.5864,,,,,,instructions/task1_1.png,229.159,246.3888,-0.091499583,-0.256867135,1,0,0,17.2291,comp1_resp2,0,0,0,0,1,,,,,,,,,,,,,,,,,,,,,,,,,,,,,,,,,,,,,,,,,,,,,,,,,,,,,,,,,,,,,,,,,,,,,,,,,,,,,,,,,,,,,,
,,5eabf42cdcb6170008b06667,30,male,2024-04-24_11h31.48.090,stockport_simplified,2022.2.4,Win32,60.24096386,661e456ee6de07e70aa9ef7b,6628df8793ba6fae256ab492,,,,,,,,,,,,,,,,,248.587,249.419,,,,,,instructions/task1_2.png,,,,,,,,,,0,1,1,1,1,,,,,,,,,,,,,,,,,,,,,,,,,,,,,,,,,,,,,,,,,,,,,,,,,,,,,,,,,,,,,,,,,,,,,,,,,,,,,,,,,,,,,,
,,5eabf42cdcb6170008b06667,30,male,2024-04-24_11h31.48.090,stockport_simplified,2022.2.4,Win32,60.24096386,661e456ee6de07e70aa9ef7b,6628df8793ba6fae256ab492,,,,,,,,,,,,,,,,,249.4193,250.3349,,,,,,instructions/task1_3.png,,,,,,,,,,0,2,2,2,1,,,,,,,,,,,,,,,,,,,,,,,,,,,,,,,,,,,,,,,,,,,,,,,,,,,,,,,,,,,,,,,,,,,,,,,,,,,,,,,,,,,,,,
,,5eabf42cdcb6170008b06667,30,male,2024-04-24_11h31.48.090,stockport_simplified,2022.2.4,Win32,60.24096386,661e456ee6de07e70aa9ef7b,6628df8793ba6fae256ab492,,,,,,,,,,,,,,,,,,,,,,,,,,,,,,,,,,,,,,,250.3351,251.6676,0.005753549,-0.322197521,1,0,0,1.3322,comp1_resp1_2,0,0,0,0,1,,,,,,,,,,,,,,,,,,,,,,,,,,,,,,,,,,,,,,,,,,,,,,,,,,,,,,,,,,,,,,,,,,,,,,,,
,,5eabf42cdcb6170008b06667,30,male,2024-04-24_11h31.48.090,stockport_simplified,2022.2.4,Win32,60.24096386,661e456ee6de07e70aa9ef7b,6628df8793ba6fae256ab492,,,,,,,,,,,,,,,,,,,,,,,,,,,,,,,,,,,,,,,,,,,,,,,,,,,,,251.6736,254.0157,"[5,7,4,8,2,3,6,1]","[[-0.3,0.2],[0.3,0.2]]","[[-0.125,-0.2],[0.125,-0.2]]",-0.113771298,-0.182628062,1,0,0,1.8316,o1_image,254.0163,0,254.5048,254.5049,256.4971,0,0,0,0,1,,,,,,,,,,,,,,,,,,,,,,,,,,,,,,,,,,,,,,,,,,,,,,,,,,
,,5eabf42cdcb6170008b06667,30,male,2024-04-24_11h31.48.090,stockport_simplified,2022.2.4,Win32,60.24096386,661e456ee6de07e70aa9ef7b,6628df8793ba6fae256ab492,,,,,,,,,,,,,,,,,,,,,,,,,,,,,,,,,,,,,,,,,,,,,,,,,,,,,,,,,,,,,,,,,,,,,,,,,,,0,0,0,27,1,N,M,D,o2_image,stimuli/out2.png,stimuli/out1.png,stimuli/correct_out2.png,,,,,,,,,,,,,,,,,,,,,,,,,,,,,,,,,,,,,,
,,5eabf42cdcb6170008b06667,30,male,2024-04-24_11h31.48.090,stockport_simplified,2022.2.4,Win32,60.24096386,661e456ee6de07e70aa9ef7b,6628df8793ba6fae256ab492,,,,,,,,,,,,,,,,,,,,,,,,,,,,,,,,,,,,,,,,,,,,,,,,,,,,,256.4974,258.1126,"[5,7,4,8,2,3,6,1]","[[-0.3,0.2],[0.3,0.2]]","[[0.125,-0.2],[-0.125,-0.2]]",-0.106347439,-0.182628062,1,0,0,1.0989,o2_image,258.113,1,258.6122,258.6122,260.6107,0,0,0,0,1,,,,,,,,,,,,,,,,,,,,,,,,,,,,,,,,,,,,,,,,,,,,,,,,,,
,,5eabf42cdcb6170008b06667,30,male,2024-04-24_11h31.48.090,stockport_simplified,2022.2.4,Win32,60.24096386,661e456ee6de07e70aa9ef7b,6628df8793ba6fae256ab492,,,,,,,,,,,,,,,,,,,,,,,,,,,,,,,,,,,,,,,,,,,,,,,,,,,,,,,,,,,,,,,,,,,,,,,,,,,0,1,1,56,1,N,M,D,o2_image,stimuli/out2.png,stimuli/out1.png,stimuli/correct_out2.png,,,,,,,,,,,,,,,,,,,,,,,,,,,,,,,,,,,,,,
,,5eabf42cdcb6170008b06667,30,male,2024-04-24_11h31.48.090,stockport_simplified,2022.2.4,Win32,60.24096386,661e456ee6de07e70aa9ef7b,6628df8793ba6fae256ab492,,,,,,,,,,,,,,,,,,,,,,,,,,,,,,,,,,,,,,,,,,,,,,,,,,,,,260.6109,262.7589,"[5,7,4,8,2,3,6,1]","[[0.3,0.2],[-0.3,0.2]]","[[0.125,-0.2],[-0.125,-0.2]]",0.094840409,-0.179658546,1,0,0,1.6316,o1_image,262.7594,1,263.2583,263.2583,265.257,0,0,0,0,1,,,,,,,,,,,,,,,,,,,,,,,,,,,,,,,,,,,,,,,,,,,,,,,,,,
,,5eabf42cdcb6170008b06667,30,male,2024-04-24_11h31.48.090,stockport_simplified,2022.2.4,Win32,60.24096386,661e456ee6de07e70aa9ef7b,6628df8793ba6fae256ab492,,,,,,,,,,,,,,,,,,,,,,,,,,,,,,,,,,,,,,,,,,,,,,,,,,,,,,,,,,,,,,,,,,,,,,,,,,,0,2,2,53,1,N,M,C,o1_image,stimuli/out1.png,stimuli/correct_out1.png,stimuli/out2.png,,,,,,,,,,,,,,,,,,,,,,,,,,,,,,,,,,,,,,
,,5eabf42cdcb6170008b06667,30,male,2024-04-24_11h31.48.090,stockport_simplified,2022.2.4,Win32,60.24096386,661e456ee6de07e70aa9ef7b,6628df8793ba6fae256ab492,,,,,,,,,,,,,,,,,,,,,,,,,,,,,,,,,,,,,,,,,,,,,,,,,,,,,265.2572,268.5214,"[5,7,4,8,2,3,6,1]","[[0.3,0.2],[-0.3,0.2]]","[[0.125,-0.2],[-0.125,-0.2]]",0.126763223,-0.182628062,1,0,0,2.7479,o1_image,268.5273,0,269.0208,269.0208,271.0221,0,0,0,0,1,,,,,,,,,,,,,,,,,,,,,,,,,,,,,,,,,,,,,,,,,,,,,,,,,,
,,5eabf42cdcb6170008b06667,30,male,2024-04-24_11h31.48.090,stockport_simplified,2022.2.4,Win32,60.24096386,661e456ee6de07e70aa9ef7b,6628df8793ba6fae256ab492,,,,,,,,,,,,,,,,,,,,,,,,,,,,,,,,,,,,,,,,,,,,,,,,,,,,,,,,,,,,,,,,,,,,,,,,,,,0,3,3,46,1,B,Y,N,o2_image,stimuli/out2.png,stimuli/out1.png,stimuli/correct_out2.png,,,,,,,,,,,,,,,,,,,,,,,,,,,,,,,,,,,,,,
,,5eabf42cdcb6170008b06667,30,male,2024-04-24_11h31.48.090,stockport_simplified,2022.2.4,Win32,60.24096386,661e456ee6de07e70aa9ef7b,6628df8793ba6fae256ab492,,,,,,,,,,,,,,,,,,,,,,,,,,,,,,,,,,,,,,,,,,,,,,,,,,,,,271.0223,272.7422,"[5,7,4,8,2,3,6,1]","[[-0.3,0.2],[0.3,0.2]]","[[-0.125,-0.2],[0.125,-0.2]]",-0.099665924,-0.151447661,1,0,0,1.2186,o1_image,272.7426,0,273.2414,273.2415,275.2332,0,0,0,0,1,,,,,,,,,,,,,,,,,,,,,,,,,,,,,,,,,,,,,,,,,,,,,,,,,,
,,5eabf42cdcb6170008b06667,30,male,2024-04-24_11h31.48.090,stockport_simplified,2022.2.4,Win32,60.24096386,661e456ee6de07e70aa9ef7b,6628df8793ba6fae256ab492,,,,,,,,,,,,,,,,,,,,,,,,,,,,,,,,,,,,,,,,,,,,,,,,,,,,,,,,,,,,,,,,,,,,,,,,,,,0,4,4,42,1,B,X,N,o2_image,stimuli/out2.png,stimuli/out1.png,stimuli/correct_out2.png,,,,,,,,,,,,,,,,,,,,,,,,,,,,,,,,,,,,,,
,,5eabf42cdcb6170008b06667,30,male,2024-04-24_11h31.48.090,stockport_simplified,2022.2.4,Win32,60.24096386,661e456ee6de07e70aa9ef7b,6628df8793ba6fae256ab492,,,,,,,,,,,,,,,,,,,,,,,,,,,,,,,,,,,,,,,,,,,,,,,,,,,,,275.2339,277.1648,"[5,7,4,8,2,3,6,1]","[[-0.3,0.2],[0.3,0.2]]","[[0.125,-0.2],[-0.125,-0.2]]",0.094097996,-0.194506333,1,0,0,1.4143,o1_image,277.1654,1,277.6644,277.6645,279.663,0,0,0,0,1,,,,,,,,,,,,,,,,,,,,,,,,,,,,,,,,,,,,,,,,,,,,,,,,,,
,,5eabf42cdcb6170008b06667,30,male,2024-04-24_11h31.48.090,stockport_simplified,2022.2.4,Win32,60.24096386,661e456ee6de07e70aa9ef7b,6628df8793ba6fae256ab492,,,,,,,,,,,,,,,,,,,,,,,,,,,,,,,,,,,,,,,,,,,,,,,,,,,,,,,,,,,,,,,,,,,,,,,,,,,0,5,5,37,1,A,Y,N,o1_image,stimuli/out1.png,stimuli/correct_out1.png,stimuli/out2.png,,,,,,,,,,,,,,,,,,,,,,,,,,,,,,,,,,,,,,
,,5eabf42cdcb6170008b06667,30,male,2024-04-24_11h31.48.090,stockport_simplified,2022.2.4,Win32,60.24096386,661e456ee6de07e70aa9ef7b,6628df8793ba6fae256ab492,,,,,,,,,,,,,,,,,,,,,,,,,,,,,,,,,,,,,,,,,,,,,,,,,,,,,279.6637,282.0352,"[5,7,4,8,2,3,6,1]","[[-0.3,0.2],[0.3,0.2]]","[[0.125,-0.2],[-0.125,-0.2]]",0.042130706,-0.181885717,1,0,0,1.4278,o1_image,282.0356,1,282.5275,282.5275,284.5153,0,0,0,0,1,,,,,,,,,,,,,,,,,,,,,,,,,,,,,,,,,,,,,,,,,,,,,,,,,,
,,5eabf42cdcb6170008b06667,30,male,2024-04-24_11h31.48.090,stockport_simplified,2022.2.4,Win32,60.24096386,661e456ee6de07e70aa9ef7b,6628df8793ba6fae256ab492,,,,,,,,,,,,,,,,,,,,,,,,,,,,,,,,,,,,,,,,,,,,,,,,,,,,,,,,,,,,,,,,,,,,,,,,,,,0,6,6,36,1,A,Y,N,o1_image,stimuli/out1.png,stimuli/correct_out1.png,stimuli/out2.png,,,,,,,,,,,,,,,,,,,,,,,,,,,,,,,,,,,,,,
,,5eabf42cdcb6170008b06667,30,male,2024-04-24_11h31.48.090,stockport_simplified,2022.2.4,Win32,60.24096386,661e456ee6de07e70aa9ef7b,6628df8793ba6fae256ab492,,,,,,,,,,,,,,,,,,,,,,,,,,,,,,,,,,,,,,,,,,,,,,,,,,,,,284.5155,286.816,"[5,7,4,8,2,3,6,1]","[[0.3,0.2],[-0.3,0.2]]","[[-0.125,-0.2],[0.125,-0.2]]",0.156458797,-0.146250973,1,0,0,1.7902,o2_image,286.8224,1,287.312,287.312,289.313,0,0,0,0,1,,,,,,,,,,,,,,,,,,,,,,,,,,,,,,,,,,,,,,,,,,,,,,,,,,
,,5eabf42cdcb6170008b06667,30,male,2024-04-24_11h31.48.090,stockport_simplified,2022.2.4,Win32,60.24096386,661e456ee6de07e70aa9ef7b,6628df8793ba6fae256ab492,,,,,,,,,,,,,,,,,,,,,,,,,,,,,,,,,,,,,,,,,,,,,,,,,,,,,,,,,,,,,,,,,,,,,,,,,,,0,7,7,15,1,B,Y,N,o2_image,stimuli/out2.png,stimuli/out1.png,stimuli/correct_out2.png,,,,,,,,,,,,,,,,,,,,,,,,,,,,,,,,,,,,,,
,,5eabf42cdcb6170008b06667,30,male,2024-04-24_11h31.48.090,stockport_simplified,2022.2.4,Win32,60.24096386,661e456ee6de07e70aa9ef7b,6628df8793ba6fae256ab492,,,,,,,,,,,,,,,,,,,,,,,,,,,,,,,,,,,,,,,,,,,,,,,,,,,,,289.3132,291.2431,"[5,7,4,8,2,3,6,1]","[[0.3,0.2],[-0.3,0.2]]","[[0.125,-0.2],[-0.125,-0.2]]",0.096325167,-0.167037862,1,0,0,1.4141,o1_image,291.2433,1,291.742,291.742,293.7356,0,0,0,0,1,,,,,,,,,,,,,,,,,,,,,,,,,,,,,,,,,,,,,,,,,,,,,,,,,,
,,5eabf42cdcb6170008b06667,30,male,2024-04-24_11h31.48.090,stockport_simplified,2022.2.4,Win32,60.24096386,661e456ee6de07e70aa9ef7b,6628df8793ba6fae256ab492,,,,,,,,,,,,,,,,,,,,,,,,,,,,,,,,,,,,,,,,,,,,,,,,,,,,,,,,,,,,,,,,,,,,,,,,,,,0,8,8,24,1,N,M,C,o1_image,stimuli/out1.png,stimuli/correct_out1.png,stimuli/out2.png,,,,,,,,,,,,,,,,,,,,,,,,,,,,,,,,,,,,,,
,,5eabf42cdcb6170008b06667,30,male,2024-04-24_11h31.48.090,stockport_simplified,2022.2.4,Win32,60.24096386,661e456ee6de07e70aa9ef7b,6628df8793ba6fae256ab492,,,,,,,,,,,,,,,,,,,,,,,,,,,,,,,,,,,,,,,,,,,,,,,,,,,,,293.7362,295.6393,"[5,7,4,8,2,3,6,1]","[[0.3,0.2],[-0.3,0.2]]","[[-0.125,-0.2],[0.125,-0.2]]",0.024313334,-0.178916133,1,0,0,1.0982,o2_image,295.6395,1,296.1381,296.1381,298.1391,0,0,0,0,1,,,,,,,,,,,,,,,,,,,,,,,,,,,,,,,,,,,,,,,,,,,,,,,,,,
,,5eabf42cdcb6170008b06667,30,male,2024-04-24_11h31.48.090,stockport_simplified,2022.2.4,Win32,60.24096386,661e456ee6de07e70aa9ef7b,6628df8793ba6fae256ab492,,,,,,,,,,,,,,,,,,,,,,,,,,,,,,,,,,,,,,,,,,,,,,,,,,,,,,,,,,,,,,,,,,,,,,,,,,,0,9,9,29,1,N,M,D,o2_image,stimuli/out2.png,stimuli/out1.png,stimuli/correct_out2.png,,,,,,,,,,,,,,,,,,,,,,,,,,,,,,,,,,,,,,
,,5eabf42cdcb6170008b06667,30,male,2024-04-24_11h31.48.090,stockport_simplified,2022.2.4,Win32,60.24096386,661e456ee6de07e70aa9ef7b,6628df8793ba6fae256ab492,,,,,,,,,,,,,,,,,,,,,,,,,,,,,,,,,,,,,,,,,,,,,,,,,,,,,298.1394,300.0521,"[5,7,4,8,2,3,6,1]","[[0.3,0.2],[-0.3,0.2]]","[[-0.125,-0.2],[0.125,-0.2]]",0.137156667,-0.120267261,1,0,0,1.3979,o2_image,300.0524,1,300.5471,300.5471,302.5456,0,0,0,0,1,,,,,,,,,,,,,,,,,,,,,,,,,,,,,,,,,,,,,,,,,,,,,,,,,,
,,5eabf42cdcb6170008b06667,30,male,2024-04-24_11h31.48.090,stockport_simplified,2022.2.4,Win32,60.24096386,661e456ee6de07e70aa9ef7b,6628df8793ba6fae256ab492,,,,,,,,,,,,,,,,,,,,,,,,,,,,,,,,,,,,,,,,,,,,,,,,,,,,,,,,,,,,,,,,,,,,,,,,,,,0,10,10,17,1,B,Y,N,o2_image,stimuli/out2.png,stimuli/out1.png,stimuli/correct_out2.png,,,,,,,,,,,,,,,,,,,,,,,,,,,,,,,,,,,,,,
,,5eabf42cdcb6170008b06667,30,male,2024-04-24_11h31.48.090,stockport_simplified,2022.2.4,Win32,60.24096386,661e456ee6de07e70aa9ef7b,6628df8793ba6fae256ab492,,,,,,,,,,,,,,,,,,,,,,,,,,,,,,,,,,,,,,,,,,,,,,,,,,,,,302.5462,304.7512,"[5,7,4,8,2,3,6,1]","[[0.3,0.2],[-0.3,0.2]]","[[-0.125,-0.2],[0.125,-0.2]]",0.188381611,-0.169265033,1,0,0,1.6891,o2_image,304.7562,1,305.2599,305.26,307.2631,0,0,0,0,1,,,,,,,,,,,,,,,,,,,,,,,,,,,,,,,,,,,,,,,,,,,,,,,,,,
,,5eabf42cdcb6170008b06667,30,male,2024-04-24_11h31.48.090,stockport_simplified,2022.2.4,Win32,60.24096386,661e456ee6de07e70aa9ef7b,6628df8793ba6fae256ab492,,,,,,,,,,,,,,,,,,,,,,,,,,,,,,,,,,,,,,,,,,,,,,,,,,,,,,,,,,,,,,,,,,,,,,,,,,,0,11,11,48,1,B,Y,N,o2_image,stimuli/out2.png,stimuli/out1.png,stimuli/correct_out2.png,,,,,,,,,,,,,,,,,,,,,,,,,,,,,,,,,,,,,,
,,5eabf42cdcb6170008b06667,30,male,2024-04-24_11h31.48.090,stockport_simplified,2022.2.4,Win32,60.24096386,661e456ee6de07e70aa9ef7b,6628df8793ba6fae256ab492,,,,,,,,,,,,,,,,,,,,,,,,,,,,,,,,,,,,,,,,,,,,,,,,,,,,,307.2633,309.3452,"[5,7,4,8,2,3,6,1]","[[0.3,0.2],[-0.3,0.2]]","[[-0.125,-0.2],[0.125,-0.2]]",-0.063288767,-0.167780275,1,0,0,1.5653,o1_image,309.3456,1,309.8454,309.8454,311.8383,0,0,0,0,1,,,,,,,,,,,,,,,,,,,,,,,,,,,,,,,,,,,,,,,,,,,,,,,,,,
,,5eabf42cdcb6170008b06667,30,male,2024-04-24_11h31.48.090,stockport_simplified,2022.2.4,Win32,60.24096386,661e456ee6de07e70aa9ef7b,6628df8793ba6fae256ab492,,,,,,,,,,,,,,,,,,,,,,,,,,,,,,,,,,,,,,,,,,,,,,,,,,,,,,,,,,,,,,,,,,,,,,,,,,,0,12,12,52,1,N,M,C,o1_image,stimuli/out1.png,stimuli/correct_out1.png,stimuli/out2.png,,,,,,,,,,,,,,,,,,,,,,,,,,,,,,,,,,,,,,
,,5eabf42cdcb6170008b06667,30,male,2024-04-24_11h31.48.090,stockport_simplified,2022.2.4,Win32,60.24096386,661e456ee6de07e70aa9ef7b,6628df8793ba6fae256ab492,,,,,,,,,,,,,,,,,,,,,,,,,,,,,,,,,,,,,,,,,,,,,,,,,,,,,311.839,313.8441,"[5,7,4,8,2,3,6,1]","[[0.3,0.2],[-0.3,0.2]]","[[-0.125,-0.2],[0.125,-0.2]]",0.230697938,-0.185597647,1,0,0,1.0946,o2_image,313.8445,1,314.3364,314.3364,316.3387,0,0,0,0,1,,,,,,,,,,,,,,,,,,,,,,,,,,,,,,,,,,,,,,,,,,,,,,,,,,
,,5eabf42cdcb6170008b06667,30,male,2024-04-24_11h31.48.090,stockport_simplified,2022.2.4,Win32,60.24096386,661e456ee6de07e70aa9ef7b,6628df8793ba6fae256ab492,,,,,,,,,,,,,,,,,,,,,,,,,,,,,,,,,,,,,,,,,,,,,,,,,,,,,,,,,,,,,,,,,,,,,,,,,,,0,13,13,59,1,N,M,D,o2_image,stimuli/out2.png,stimuli/out1.png,stimuli/correct_out2.png,,,,,,,,,,,,,,,,,,,,,,,,,,,,,,,,,,,,,,
,,5eabf42cdcb6170008b06667,30,male,2024-04-24_11h31.48.090,stockport_simplified,2022.2.4,Win32,60.24096386,661e456ee6de07e70aa9ef7b,6628df8793ba6fae256ab492,,,,,,,,,,,,,,,,,,,,,,,,,,,,,,,,,,,,,,,,,,,,,,,,,,,,,316.3389,318.0335,"[5,7,4,8,2,3,6,1]","[[0.3,0.2],[-0.3,0.2]]","[[0.125,-0.2],[-0.125,-0.2]]",0.152004454,-0.188567232,1,0,0,1.1915,o1_image,318.0342,1,318.5407,318.5407,320.5322,0,0,0,0,1,,,,,,,,,,,,,,,,,,,,,,,,,,,,,,,,,,,,,,,,,,,,,,,,,,
,,5eabf42cdcb6170008b06667,30,male,2024-04-24_11h31.48.090,stockport_simplified,2022.2.4,Win32,60.24096386,661e456ee6de07e70aa9ef7b,6628df8793ba6fae256ab492,,,,,,,,,,,,,,,,,,,,,,,,,,,,,,,,,,,,,,,,,,,,,,,,,,,,,,,,,,,,,,,,,,,,,,,,,,,0,14,14,4,1,A,X,N,o1_image,stimuli/out1.png,stimuli/correct_out1.png,stimuli/out2.png,,,,,,,,,,,,,,,,,,,,,,,,,,,,,,,,,,,,,,
,,5eabf42cdcb6170008b06667,30,male,2024-04-24_11h31.48.090,stockport_simplified,2022.2.4,Win32,60.24096386,661e456ee6de07e70aa9ef7b,6628df8793ba6fae256ab492,,,,,,,,,,,,,,,,,,,,,,,,,,,,,,,,,,,,,,,,,,,,,,,,,,,,,320.5329,322.6709,"[5,7,4,8,2,3,6,1]","[[0.3,0.2],[-0.3,0.2]]","[[-0.125,-0.2],[0.125,-0.2]]",-0.087045241,-0.121009674,1,0,0,1.6164,o1_image,322.6712,0,323.1634,323.1634,325.1691,0,0,0,0,1,,,,,,,,,,,,,,,,,,,,,,,,,,,,,,,,,,,,,,,,,,,,,,,,,,
,,5eabf42cdcb6170008b06667,30,male,2024-04-24_11h31.48.090,stockport_simplified,2022.2.4,Win32,60.24096386,661e456ee6de07e70aa9ef7b,6628df8793ba6fae256ab492,,,,,,,,,,,,,,,,,,,,,,,,,,,,,,,,,,,,,,,,,,,,,,,,,,,,,,,,,,,,,,,,,,,,,,,,,,,0,15,15,10,1,B,X,N,o2_image,stimuli/out2.png,stimuli/out1.png,stimuli/correct_out2.png,,,,,,,,,,,,,,,,,,,,,,,,,,,,,,,,,,,,,,
,,5eabf42cdcb6170008b06667,30,male,2024-04-24_11h31.48.090,stockport_simplified,2022.2.4,Win32,60.24096386,661e456ee6de07e70aa9ef7b,6628df8793ba6fae256ab492,,,,,,,,,,,,,,,,,,,,,,,,,,,,,,,,,,,,,,,,,,,,,,,,,,,,,325.1693,326.8347,"[5,7,4,8,2,3,6,1]","[[-0.3,0.2],[0.3,0.2]]","[[0.125,-0.2],[-0.125,-0.2]]",-0.070712695,-0.200445434,1,0,0,1.15,o2_image,326.8351,0,327.3312,327.3312,329.3252,0,0,0,0,1,,,,,,,,,,,,,,,,,,,,,,,,,,,,,,,,,,,,,,,,,,,,,,,,,,
,,5eabf42cdcb6170008b06667,30,male,2024-04-24_11h31.48.090,stockport_simplified,2022.2.4,Win32,60.24096386,661e456ee6de07e70aa9ef7b,6628df8793ba6fae256ab492,,,,,,,,,,,,,,,,,,,,,,,,,,,,,,,,,,,,,,,,,,,,,,,,,,,,,,,,,,,,,,,,,,,,,,,,,,,0,16,16,35,1,A,Y,N,o1_image,stimuli/out1.png,stimuli/correct_out1.png,stimuli/out2.png,,,,,,,,,,,,,,,,,,,,,,,,,,,,,,,,,,,,,,
,,5eabf42cdcb6170008b06667,30,male,2024-04-24_11h31.48.090,stockport_simplified,2022.2.4,Win32,60.24096386,661e456ee6de07e70aa9ef7b,6628df8793ba6fae256ab492,,,,,,,,,,,,,,,,,,,,,,,,,,,,,,,,,,,,,,,,,,,,,,,,,,,,,329.326,331.1143,"[5,7,4,8,2,3,6,1]","[[-0.3,0.2],[0.3,0.2]]","[[0.125,-0.2],[-0.125,-0.2]]",-0.134558255,-0.178916133,1,0,0,1.2725,o2_image,331.1147,1,331.6105,331.6106,333.6114,0,0,0,0,1,,,,,,,,,,,,,,,,,,,,,,,,,,,,,,,,,,,,,,,,,,,,,,,,,,
,,5eabf42cdcb6170008b06667,30,male,2024-04-24_11h31.48.090,stockport_simplified,2022.2.4,Win32,60.24096386,661e456ee6de07e70aa9ef7b,6628df8793ba6fae256ab492,,,,,,,,,,,,,,,,,,,,,,,,,,,,,,,,,,,,,,,,,,,,,,,,,,,,,,,,,,,,,,,,,,,,,,,,,,,0,17,17,58,1,N,M,D,o2_image,stimuli/out2.png,stimuli/out1.png,stimuli/correct_out2.png,,,,,,,,,,,,,,,,,,,,,,,,,,,,,,,,,,,,,,
,,5eabf42cdcb6170008b06667,30,male,2024-04-24_11h31.48.090,stockport_simplified,2022.2.4,Win32,60.24096386,661e456ee6de07e70aa9ef7b,6628df8793ba6fae256ab492,,,,,,,,,,,,,,,,,,,,,,,,,,,,,,,,,,,,,,,,,,,,,,,,,,,,,333.6117,335.4537,"[5,7,4,8,2,3,6,1]","[[-0.3,0.2],[0.3,0.2]]","[[0.125,-0.2],[-0.125,-0.2]]",0.088158894,-0.172234618,1,0,0,1.3252,o1_image,335.4545,1,335.9566,335.9566,337.952,0,0,0,0,1,,,,,,,,,,,,,,,,,,,,,,,,,,,,,,,,,,,,,,,,,,,,,,,,,,
,,5eabf42cdcb6170008b06667,30,male,2024-04-24_11h31.48.090,stockport_simplified,2022.2.4,Win32,60.24096386,661e456ee6de07e70aa9ef7b,6628df8793ba6fae256ab492,,,,,,,,,,,,,,,,,,,,,,,,,,,,,,,,,,,,,,,,,,,,,,,,,,,,,,,,,,,,,,,,,,,,,,,,,,,0,18,18,8,1,A,Y,N,o1_image,stimuli/out1.png,stimuli/correct_out1.png,stimuli/out2.png,,,,,,,,,,,,,,,,,,,,,,,,,,,,,,,,,,,,,,
,,5eabf42cdcb6170008b06667,30,male,2024-04-24_11h31.48.090,stockport_simplified,2022.2.4,Win32,60.24096386,661e456ee6de07e70aa9ef7b,6628df8793ba6fae256ab492,,,,,,,,,,,,,,,,,,,,,,,,,,,,,,,,,,,,,,,,,,,,,,,,,,,,,337.9525,340.5552,"[5,7,4,8,2,3,6,1]","[[0.3,0.2],[-0.3,0.2]]","[[0.125,-0.2],[-0.125,-0.2]]",-0.163511484,-0.176688961,1,0,0,2.0867,o2_image,340.5556,1,341.0497,341.0498,343.0483,0,0,0,0,1,,,,,,,,,,,,,,,,,,,,,,,,,,,,,,,,,,,,,,,,,,,,,,,,,,
,,5eabf42cdcb6170008b06667,30,male,2024-04-24_11h31.48.090,stockport_simplified,2022.2.4,Win32,60.24096386,661e456ee6de07e70aa9ef7b,6628df8793ba6fae256ab492,,,,,,,,,,,,,,,,,,,,,,,,,,,,,,,,,,,,,,,,,,,,,,,,,,,,,,,,,,,,,,,,,,,,,,,,,,,0,19,19,40,1,B,X,N,o2_image,stimuli/out2.png,stimuli/out1.png,stimuli/correct_out2.png,,,,,,,,,,,,,,,,,,,,,,,,,,,,,,,,,,,,,,
,,5eabf42cdcb6170008b06667,30,male,2024-04-24_11h31.48.090,stockport_simplified,2022.2.4,Win32,60.24096386,661e456ee6de07e70aa9ef7b,6628df8793ba6fae256ab492,,,,,,,,,,,,,,,,,,,,,,,,,,,,,,,,,,,,,,,,,,,,,,,,,,,,,343.049,344.7371,"[5,7,4,8,2,3,6,1]","[[0.3,0.2],[-0.3,0.2]]","[[-0.125,-0.2],[0.125,-0.2]]",-0.100408269,-0.158129176,1,0,0,1.1722,o1_image,344.7374,1,345.2294,345.2295,347.2284,0,0,0,0,1,,,,,,,,,,,,,,,,,,,,,,,,,,,,,,,,,,,,,,,,,,,,,,,,,,
,,5eabf42cdcb6170008b06667,30,male,2024-04-24_11h31.48.090,stockport_simplified,2022.2.4,Win32,60.24096386,661e456ee6de07e70aa9ef7b,6628df8793ba6fae256ab492,,,,,,,,,,,,,,,,,,,,,,,,,,,,,,,,,,,,,,,,,,,,,,,,,,,,,,,,,,,,,,,,,,,,,,,,,,,0,20,20,9,1,A,Y,N,o1_image,stimuli/out1.png,stimuli/correct_out1.png,stimuli/out2.png,,,,,,,,,,,,,,,,,,,,,,,,,,,,,,,,,,,,,,
,,5eabf42cdcb6170008b06667,30,male,2024-04-24_11h31.48.090,stockport_simplified,2022.2.4,Win32,60.24096386,661e456ee6de07e70aa9ef7b,6628df8793ba6fae256ab492,,,,,,,,,,,,,,,,,,,,,,,,,,,,,,,,,,,,,,,,,,,,,,,,,,,,,347.2292,348.7824,"[5,7,4,8,2,3,6,1]","[[0.3,0.2],[-0.3,0.2]]","[[0.125,-0.2],[-0.125,-0.2]]",-0.127876741,-0.176688961,1,0,0,1.0331,o2_image,348.7826,1,349.277,349.277,351.2751,0,0,0,0,1,,,,,,,,,,,,,,,,,,,,,,,,,,,,,,,,,,,,,,,,,,,,,,,,,,
,,5eabf42cdcb6170008b06667,30,male,2024-04-24_11h31.48.090,stockport_simplified,2022.2.4,Win32,60.24096386,661e456ee6de07e70aa9ef7b,6628df8793ba6fae256ab492,,,,,,,,,,,,,,,,,,,,,,,,,,,,,,,,,,,,,,,,,,,,,,,,,,,,,,,,,,,,,,,,,,,,,,,,,,,0,21,21,12,1,B,X,N,o2_image,stimuli/out2.png,stimuli/out1.png,stimuli/correct_out2.png,,,,,,,,,,,,,,,,,,,,,,,,,,,,,,,,,,,,,,
,,5eabf42cdcb6170008b06667,30,male,2024-04-24_11h31.48.090,stockport_simplified,2022.2.4,Win32,60.24096386,661e456ee6de07e70aa9ef7b,6628df8793ba6fae256ab492,,,,,,,,,,,,,,,,,,,,,,,,,,,,,,,,,,,,,,,,,,,,,,,,,,,,,351.2756,353.335,"[5,7,4,8,2,3,6,1]","[[-0.3,0.2],[0.3,0.2]]","[[0.125,-0.2],[-0.125,-0.2]]",0.065887179,-0.179658546,1,0,0,1.5436,o1_image,353.3354,1,353.823,353.823,355.8217,0,0,0,0,1,,,,,,,,,,,,,,,,,,,,,,,,,,,,,,,,,,,,,,,,,,,,,,,,,,
,,5eabf42cdcb6170008b06667,30,male,2024-04-24_11h31.48.090,stockport_simplified,2022.2.4,Win32,60.24096386,661e456ee6de07e70aa9ef7b,6628df8793ba6fae256ab492,,,,,,,,,,,,,,,,,,,,,,,,,,,,,,,,,,,,,,,,,,,,,,,,,,,,,,,,,,,,,,,,,,,,,,,,,,,0,22,22,54,1,N,M,C,o1_image,stimuli/out1.png,stimuli/correct_out1.png,stimuli/out2.png,,,,,,,,,,,,,,,,,,,,,,,,,,,,,,,,,,,,,,
,,5eabf42cdcb6170008b06667,30,male,2024-04-24_11h31.48.090,stockport_simplified,2022.2.4,Win32,60.24096386,661e456ee6de07e70aa9ef7b,6628df8793ba6fae256ab492,,,,,,,,,,,,,,,,,,,,,,,,,,,,,,,,,,,,,,,,,,,,,,,,,,,,,355.822,357.8865,"[5,7,4,8,2,3,6,1]","[[0.3,0.2],[-0.3,0.2]]","[[-0.125,-0.2],[0.125,-0.2]]",-0.118968055,-0.20564219,1,0,0,1.5484,o1_image,357.887,1,358.3864,358.3864,360.3847,0,0,0,0,1,,,,,,,,,,,,,,,,,,,,,,,,,,,,,,,,,,,,,,,,,,,,,,,,,,
,,5eabf42cdcb6170008b06667,30,male,2024-04-24_11h31.48.090,stockport_simplified,2022.2.4,Win32,60.24096386,661e456ee6de07e70aa9ef7b,6628df8793ba6fae256ab492,,,,,,,,,,,,,,,,,,,,,,,,,,,,,,,,,,,,,,,,,,,,,,,,,,,,,,,,,,,,,,,,,,,,,,,,,,,0,23,23,39,1,A,Y,N,o1_image,stimuli/out1.png,stimuli/correct_out1.png,stimuli/out2.png,,,,,,,,,,,,,,,,,,,,,,,,,,,,,,,,,,,,,,
,,5eabf42cdcb6170008b06667,30,male,2024-04-24_11h31.48.090,stockport_simplified,2022.2.4,Win32,60.24096386,661e456ee6de07e70aa9ef7b,6628df8793ba6fae256ab492,,,,,,,,,,,,,,,,,,,,,,,,,,,,,,,,,,,,,,,,,,,,,,,,,,,,,360.3849,362.9493,"[5,7,4,8,2,3,6,1]","[[-0.3,0.2],[0.3,0.2]]","[[0.125,-0.2],[-0.125,-0.2]]",-0.099665924,-0.172234618,1,0,0,2.0479,o2_image,362.9544,1,363.4493,363.4493,365.4476,0,0,0,0,1,,,,,,,,,,,,,,,,,,,,,,,,,,,,,,,,,,,,,,,,,,,,,,,,,,
,,5eabf42cdcb6170008b06667,30,male,2024-04-24_11h31.48.090,stockport_simplified,2022.2.4,Win32,60.24096386,661e456ee6de07e70aa9ef7b,6628df8793ba6fae256ab492,,,,,,,,,,,,,,,,,,,,,,,,,,,,,,,,,,,,,,,,,,,,,,,,,,,,,,,,,,,,,,,,,,,,,,,,,,,0,24,24,11,1,B,X,N,o2_image,stimuli/out2.png,stimuli/out1.png,stimuli/correct_out2.png,,,,,,,,,,,,,,,,,,,,,,,,,,,,,,,,,,,,,,
,,5eabf42cdcb6170008b06667,30,male,2024-04-24_11h31.48.090,stockport_simplified,2022.2.4,Win32,60.24096386,661e456ee6de07e70aa9ef7b,6628df8793ba6fae256ab492,,,,,,,,,,,,,,,,,,,,,,,,,,,,,,,,,,,,,,,,,,,,,,,,,,,,,365.4479,367.6292,"[5,7,4,8,2,3,6,1]","[[0.3,0.2],[-0.3,0.2]]","[[0.125,-0.2],[-0.125,-0.2]]",0.076280624,-0.160356347,1,0,0,1.6652,o1_image,367.6298,0,368.1289,368.1289,370.1275,0,0,0,0,1,,,,,,,,,,,,,,,,,,,,,,,,,,,,,,,,,,,,,,,,,,,,,,,,,,
,,5eabf42cdcb6170008b06667,30,male,2024-04-24_11h31.48.090,stockport_simplified,2022.2.4,Win32,60.24096386,661e456ee6de07e70aa9ef7b,6628df8793ba6fae256ab492,,,,,,,,,,,,,,,,,,,,,,,,,,,,,,,,,,,,,,,,,,,,,,,,,,,,,,,,,,,,,,,,,,,,,,,,,,,0,25,25,44,1,B,X,N,o2_image,stimuli/out2.png,stimuli/out1.png,stimuli/correct_out2.png,,,,,,,,,,,,,,,,,,,,,,,,,,,,,,,,,,,,,,
,,5eabf42cdcb6170008b06667,30,male,2024-04-24_11h31.48.090,stockport_simplified,2022.2.4,Win32,60.24096386,661e456ee6de07e70aa9ef7b,6628df8793ba6fae256ab492,,,,,,,,,,,,,,,,,,,,,,,,,,,,,,,,,,,,,,,,,,,,,,,,,,,,,370.1279,371.7927,"[5,7,4,8,2,3,6,1]","[[-0.3,0.2],[0.3,0.2]]","[[-0.125,-0.2],[0.125,-0.2]]",-0.084818069,-0.171492205,1,0,0,1.1487,o1_image,371.7931,1,372.2924,372.2924,374.291,0,0,0,0,1,,,,,,,,,,,,,,,,,,,,,,,,,,,,,,,,,,,,,,,,,,,,,,,,,,
,,5eabf42cdcb6170008b06667,30,male,2024-04-24_11h31.48.090,stockport_simplified,2022.2.4,Win32,60.24096386,661e456ee6de07e70aa9ef7b,6628df8793ba6fae256ab492,,,,,,,,,,,,,,,,,,,,,,,,,,,,,,,,,,,,,,,,,,,,,,,,,,,,,,,,,,,,,,,,,,,,,,,,,,,0,26,26,21,1,N,M,C,o1_image,stimuli/out1.png,stimuli/correct_out1.png,stimuli/out2.png,,,,,,,,,,,,,,,,,,,,,,,,,,,,,,,,,,,,,,
,,5eabf42cdcb6170008b06667,30,male,2024-04-24_11h31.48.090,stockport_simplified,2022.2.4,Win32,60.24096386,661e456ee6de07e70aa9ef7b,6628df8793ba6fae256ab492,,,,,,,,,,,,,,,,,,,,,,,,,,,,,,,,,,,,,,,,,,,,,,,,,,,,,374.2913,376.2226,"[5,7,4,8,2,3,6,1]","[[-0.3,0.2],[0.3,0.2]]","[[0.125,-0.2],[-0.125,-0.2]]",-0.098923511,-0.155159659,1,0,0,1.4151,o2_image,376.2229,1,376.7225,376.7225,378.7209,0,0,0,0,1,,,,,,,,,,,,,,,,,,,,,,,,,,,,,,,,,,,,,,,,,,,,,,,,,,
,,5eabf42cdcb6170008b06667,30,male,2024-04-24_11h31.48.090,stockport_simplified,2022.2.4,Win32,60.24096386,661e456ee6de07e70aa9ef7b,6628df8793ba6fae256ab492,,,,,,,,,,,,,,,,,,,,,,,,,,,,,,,,,,,,,,,,,,,,,,,,,,,,,,,,,,,,,,,,,,,,,,,,,,,0,27,27,14,1,B,X,N,o2_image,stimuli/out2.png,stimuli/out1.png,stimuli/correct_out2.png,,,,,,,,,,,,,,,,,,,,,,,,,,,,,,,,,,,,,,
,,5eabf42cdcb6170008b06667,30,male,2024-04-24_11h31.48.090,stockport_simplified,2022.2.4,Win32,60.24096386,661e456ee6de07e70aa9ef7b,6628df8793ba6fae256ab492,,,,,,,,,,,,,,,,,,,,,,,,,,,,,,,,,,,,,,,,,,,,,,,,,,,,,378.7212,380.1363,"[5,7,4,8,2,3,6,1]","[[0.3,0.2],[-0.3,0.2]]","[[-0.125,-0.2],[0.125,-0.2]]",0.080734967,-0.190794403,1,0,0,0.8988,o2_image,380.1366,0,380.6362,380.6362,382.6346,0,0,0,0,1,,,,,,,,,,,,,,,,,,,,,,,,,,,,,,,,,,,,,,,,,,,,,,,,,,
,,5eabf42cdcb6170008b06667,30,male,2024-04-24_11h31.48.090,stockport_simplified,2022.2.4,Win32,60.24096386,661e456ee6de07e70aa9ef7b,6628df8793ba6fae256ab492,,,,,,,,,,,,,,,,,,,,,,,,,,,,,,,,,,,,,,,,,,,,,,,,,,,,,,,,,,,,,,,,,,,,,,,,,,,0,28,28,50,1,N,M,C,o1_image,stimuli/out1.png,stimuli/correct_out1.png,stimuli/out2.png,,,,,,,,,,,,,,,,,,,,,,,,,,,,,,,,,,,,,,
,,5eabf42cdcb6170008b06667,30,male,2024-04-24_11h31.48.090,stockport_simplified,2022.2.4,Win32,60.24096386,661e456ee6de07e70aa9ef7b,6628df8793ba6fae256ab492,,,,,,,,,,,,,,,,,,,,,,,,,,,,,,,,,,,,,,,,,,,,,,,,,,,,,382.6347,384.0667,"[5,7,4,8,2,3,6,1]","[[0.3,0.2],[-0.3,0.2]]","[[-0.125,-0.2],[0.125,-0.2]]",-0.09669634,-0.163325932,1,0,0,0.9157,o1_image,384.0671,1,384.5664,384.5664,386.5649,0,0,0,0,1,,,,,,,,,,,,,,,,,,,,,,,,,,,,,,,,,,,,,,,,,,,,,,,,,,
,,5eabf42cdcb6170008b06667,30,male,2024-04-24_11h31.48.090,stockport_simplified,2022.2.4,Win32,60.24096386,661e456ee6de07e70aa9ef7b,6628df8793ba6fae256ab492,,,,,,,,,,,,,,,,,,,,,,,,,,,,,,,,,,,,,,,,,,,,,,,,,,,,,,,,,,,,,,,,,,,,,,,,,,,0,29,29,23,1,N,M,C,o1_image,stimuli/out1.png,stimuli/correct_out1.png,stimuli/out2.png,,,,,,,,,,,,,,,,,,,,,,,,,,,,,,,,,,,,,,
,,5eabf42cdcb6170008b06667,30,male,2024-04-24_11h31.48.090,stockport_simplified,2022.2.4,Win32,60.24096386,661e456ee6de07e70aa9ef7b,6628df8793ba6fae256ab492,,,,,,,,,,,,,,,,,,,,,,,,,,,,,,,,,,,,,,,,,,,,,,,,,,,,,386.5652,388.6464,"[5,7,4,8,2,3,6,1]","[[-0.3,0.2],[0.3,0.2]]","[[-0.125,-0.2],[0.125,-0.2]]",-0.06774311,-0.187082405,1,0,0,1.5649,o1_image,388.6468,0,389.1463,389.1463,391.1448,0,0,0,0,1,,,,,,,,,,,,,,,,,,,,,,,,,,,,,,,,,,,,,,,,,,,,,,,,,,
,,5eabf42cdcb6170008b06667,30,male,2024-04-24_11h31.48.090,stockport_simplified,2022.2.4,Win32,60.24096386,661e456ee6de07e70aa9ef7b,6628df8793ba6fae256ab492,,,,,,,,,,,,,,,,,,,,,,,,,,,,,,,,,,,,,,,,,,,,,,,,,,,,,,,,,,,,,,,,,,,,,,,,,,,0,30,30,49,1,B,Y,N,o2_image,stimuli/out2.png,stimuli/out1.png,stimuli/correct_out2.png,,,,,,,,,,,,,,,,,,,,,,,,,,,,,,,,,,,,,,
,,5eabf42cdcb6170008b06667,30,male,2024-04-24_11h31.48.090,stockport_simplified,2022.2.4,Win32,60.24096386,661e456ee6de07e70aa9ef7b,6628df8793ba6fae256ab492,,,,,,,,,,,,,,,,,,,,,,,,,,,,,,,,,,,,,,,,,,,,,,,,,,,,,391.1451,392.6769,"[5,7,4,8,2,3,6,1]","[[-0.3,0.2],[0.3,0.2]]","[[-0.125,-0.2],[0.125,-0.2]]",-0.11228654,-0.167780275,1,0,0,1.0156,o1_image,392.6772,1,393.1767,393.1767,395.1752,0,0,0,0,1,,,,,,,,,,,,,,,,,,,,,,,,,,,,,,,,,,,,,,,,,,,,,,,,,,
,,5eabf42cdcb6170008b06667,30,male,2024-04-24_11h31.48.090,stockport_simplified,2022.2.4,Win32,60.24096386,661e456ee6de07e70aa9ef7b,6628df8793ba6fae256ab492,,,,,,,,,,,,,,,,,,,,,,,,,,,,,,,,,,,,,,,,,,,,,,,,,,,,,,,,,,,,,,,,,,,,,,,,,,,0,31,31,38,1,A,Y,N,o1_image,stimuli/out1.png,stimuli/correct_out1.png,stimuli/out2.png,,,,,,,,,,,,,,,,,,,,,,,,,,,,,,,,,,,,,,
,,5eabf42cdcb6170008b06667,30,male,2024-04-24_11h31.48.090,stockport_simplified,2022.2.4,Win32,60.24096386,661e456ee6de07e70aa9ef7b,6628df8793ba6fae256ab492,,,,,,,,,,,,,,,,,,,,,,,,,,,,,,,,,,,,,,,,,,,,,,,,,,,,,395.1756,396.8069,"[5,7,4,8,2,3,6,1]","[[-0.3,0.2],[0.3,0.2]]","[[0.125,-0.2],[-0.125,-0.2]]",0.131959911,-0.144766147,1,0,0,1.1155,o1_image,396.8072,1,397.3068,397.3068,399.3053,0,0,0,0,1,,,,,,,,,,,,,,,,,,,,,,,,,,,,,,,,,,,,,,,,,,,,,,,,,,
,,5eabf42cdcb6170008b06667,30,male,2024-04-24_11h31.48.090,stockport_simplified,2022.2.4,Win32,60.24096386,661e456ee6de07e70aa9ef7b,6628df8793ba6fae256ab492,,,,,,,,,,,,,,,,,,,,,,,,,,,,,,,,,,,,,,,,,,,,,,,,,,,,,,,,,,,,,,,,,,,,,,,,,,,0,32,32,22,1,N,M,C,o1_image,stimuli/out1.png,stimuli/correct_out1.png,stimuli/out2.png,,,,,,,,,,,,,,,,,,,,,,,,,,,,,,,,,,,,,,
,,5eabf42cdcb6170008b06667,30,male,2024-04-24_11h31.48.090,stockport_simplified,2022.2.4,Win32,60.24096386,661e456ee6de07e70aa9ef7b,6628df8793ba6fae256ab492,,,,,,,,,,,,,,,,,,,,,,,,,,,,,,,,,,,,,,,,,,,,,,,,,,,,,399.3055,400.8373,"[5,7,4,8,2,3,6,1]","[[-0.3,0.2],[0.3,0.2]]","[[-0.125,-0.2],[0.125,-0.2]]",-0.107089784,-0.204157432,1,0,0,1.0154,o1_image,400.8377,1,401.337,401.3371,403.3355,0,0,0,0,1,,,,,,,,,,,,,,,,,,,,,,,,,,,,,,,,,,,,,,,,,,,,,,,,,,
,,5eabf42cdcb6170008b06667,30,male,2024-04-24_11h31.48.090,stockport_simplified,2022.2.4,Win32,60.24096386,661e456ee6de07e70aa9ef7b,6628df8793ba6fae256ab492,,,,,,,,,,,,,,,,,,,,,,,,,,,,,,,,,,,,,,,,,,,,,,,,,,,,,,,,,,,,,,,,,,,,,,,,,,,0,33,33,5,1,A,Y,N,o1_image,stimuli/out1.png,stimuli/correct_out1.png,stimuli/out2.png,,,,,,,,,,,,,,,,,,,,,,,,,,,,,,,,,,,,,,
,,5eabf42cdcb6170008b06667,30,male,2024-04-24_11h31.48.090,stockport_simplified,2022.2.4,Win32,60.24096386,661e456ee6de07e70aa9ef7b,6628df8793ba6fae256ab492,,,,,,,,,,,,,,,,,,,,,,,,,,,,,,,,,,,,,,,,,,,,,,,,,,,,,403.3358,404.8341,"[5,7,4,8,2,3,6,1]","[[-0.3,0.2],[0.3,0.2]]","[[-0.125,-0.2],[0.125,-0.2]]",-0.059576837,-0.19376392,1,0,0,0.9821,o1_image,404.8344,1,405.334,405.334,407.3327,0,0,0,0,1,,,,,,,,,,,,,,,,,,,,,,,,,,,,,,,,,,,,,,,,,,,,,,,,,,
,,5eabf42cdcb6170008b06667,30,male,2024-04-24_11h31.48.090,stockport_simplified,2022.2.4,Win32,60.24096386,661e456ee6de07e70aa9ef7b,6628df8793ba6fae256ab492,,,,,,,,,,,,,,,,,,,,,,,,,,,,,,,,,,,,,,,,,,,,,,,,,,,,,,,,,,,,,,,,,,,,,,,,,,,0,34,34,51,1,N,M,C,o1_image,stimuli/out1.png,stimuli/correct_out1.png,stimuli/out2.png,,,,,,,,,,,,,,,,,,,,,,,,,,,,,,,,,,,,,,
,,5eabf42cdcb6170008b06667,30,male,2024-04-24_11h31.48.090,stockport_simplified,2022.2.4,Win32,60.24096386,661e456ee6de07e70aa9ef7b,6628df8793ba6fae256ab492,,,,,,,,,,,,,,,,,,,,,,,,,,,,,,,,,,,,,,,,,,,,,,,,,,,,,407.333,409.1477,"[5,7,4,8,2,3,6,1]","[[0.3,0.2],[-0.3,0.2]]","[[-0.125,-0.2],[0.125,-0.2]]",0.227728285,-0.179658546,1,0,0,0.9488,o2_image,409.1482,1,409.6473,409.6473,411.646,0,0,0,0,1,,,,,,,,,,,,,,,,,,,,,,,,,,,,,,,,,,,,,,,,,,,,,,,,,,
,,5eabf42cdcb6170008b06667,30,male,2024-04-24_11h31.48.090,stockport_simplified,2022.2.4,Win32,60.24096386,661e456ee6de07e70aa9ef7b,6628df8793ba6fae256ab492,,,,,,,,,,,,,,,,,,,,,,,,,,,,,,,,,,,,,,,,,,,,,,,,,,,,,,,,,,,,,,,,,,,,,,,,,,,0,35,35,26,1,N,M,D,o2_image,stimuli/out2.png,stimuli/out1.png,stimuli/correct_out2.png,,,,,,,,,,,,,,,,,,,,,,,,,,,,,,,,,,,,,,
,,5eabf42cdcb6170008b06667,30,male,2024-04-24_11h31.48.090,stockport_simplified,2022.2.4,Win32,60.24096386,661e456ee6de07e70aa9ef7b,6628df8793ba6fae256ab492,,,,,,,,,,,,,,,,,,,,,,,,,,,,,,,,,,,,,,,,,,,,,,,,,,,,,411.6463,413.7275,"[5,7,4,8,2,3,6,1]","[[0.3,0.2],[-0.3,0.2]]","[[-0.125,-0.2],[0.125,-0.2]]",0.161655553,-0.19005199,1,0,0,1.5653,o2_image,413.7278,1,414.2271,414.2272,416.2258,0,0,0,0,1,,,,,,,,,,,,,,,,,,,,,,,,,,,,,,,,,,,,,,,,,,,,,,,,,,
,,5eabf42cdcb6170008b06667,30,male,2024-04-24_11h31.48.090,stockport_simplified,2022.2.4,Win32,60.24096386,661e456ee6de07e70aa9ef7b,6628df8793ba6fae256ab492,,,,,,,,,,,,,,,,,,,,,,,,,,,,,,,,,,,,,,,,,,,,,,,,,,,,,,,,,,,,,,,,,,,,,,,,,,,0,36,36,57,1,N,M,D,o2_image,stimuli/out2.png,stimuli/out1.png,stimuli/correct_out2.png,,,,,,,,,,,,,,,,,,,,,,,,,,,,,,,,,,,,,,
,,5eabf42cdcb6170008b06667,30,male,2024-04-24_11h31.48.090,stockport_simplified,2022.2.4,Win32,60.24096386,661e456ee6de07e70aa9ef7b,6628df8793ba6fae256ab492,,,,,,,,,,,,,,,,,,,,,,,,,,,,,,,,,,,,,,,,,,,,,,,,,,,,,416.2261,418.0911,"[5,7,4,8,2,3,6,1]","[[0.3,0.2],[-0.3,0.2]]","[[0.125,-0.2],[-0.125,-0.2]]",-0.188010371,-0.172234618,1,0,0,1.3489,o2_image,418.0915,1,418.5907,418.5907,420.5891,0,0,0,0,1,,,,,,,,,,,,,,,,,,,,,,,,,,,,,,,,,,,,,,,,,,,,,,,,,,
,,5eabf42cdcb6170008b06667,30,male,2024-04-24_11h31.48.090,stockport_simplified,2022.2.4,Win32,60.24096386,661e456ee6de07e70aa9ef7b,6628df8793ba6fae256ab492,,,,,,,,,,,,,,,,,,,,,,,,,,,,,,,,,,,,,,,,,,,,,,,,,,,,,,,,,,,,,,,,,,,,,,,,,,,0,37,37,25,1,N,M,D,o2_image,stimuli/out2.png,stimuli/out1.png,stimuli/correct_out2.png,,,,,,,,,,,,,,,,,,,,,,,,,,,,,,,,,,,,,,
,,5eabf42cdcb6170008b06667,30,male,2024-04-24_11h31.48.090,stockport_simplified,2022.2.4,Win32,60.24096386,661e456ee6de07e70aa9ef7b,6628df8793ba6fae256ab492,,,,,,,,,,,,,,,,,,,,,,,,,,,,,,,,,,,,,,,,,,,,,,,,,,,,,420.5894,422.2878,"[5,7,4,8,2,3,6,1]","[[-0.3,0.2],[0.3,0.2]]","[[0.125,-0.2],[-0.125,-0.2]]",-0.158314728,-0.132145531,1,0,0,1.1821,o2_image,422.2882,0,422.7872,422.7873,424.7861,0,0,0,0,1,,,,,,,,,,,,,,,,,,,,,,,,,,,,,,,,,,,,,,,,,,,,,,,,,,
,,5eabf42cdcb6170008b06667,30,male,2024-04-24_11h31.48.090,stockport_simplified,2022.2.4,Win32,60.24096386,661e456ee6de07e70aa9ef7b,6628df8793ba6fae256ab492,,,,,,,,,,,,,,,,,,,,,,,,,,,,,,,,,,,,,,,,,,,,,,,,,,,,,,,,,,,,,,,,,,,,,,,,,,,0,38,38,33,1,A,X,N,o1_image,stimuli/out1.png,stimuli/correct_out1.png,stimuli/out2.png,,,,,,,,,,,,,,,,,,,,,,,,,,,,,,,,,,,,,,
,,5eabf42cdcb6170008b06667,30,male,2024-04-24_11h31.48.090,stockport_simplified,2022.2.4,Win32,60.24096386,661e456ee6de07e70aa9ef7b,6628df8793ba6fae256ab492,,,,,,,,,,,,,,,,,,,,,,,,,,,,,,,,,,,,,,,,,,,,,,,,,,,,,424.7863,426.5844,"[5,7,4,8,2,3,6,1]","[[-0.3,0.2],[0.3,0.2]]","[[-0.125,-0.2],[0.125,-0.2]]",0.058463252,-0.13363029,1,0,0,1.2821,o2_image,426.5848,1,427.0843,427.0843,429.0826,0,0,0,0,1,,,,,,,,,,,,,,,,,,,,,,,,,,,,,,,,,,,,,,,,,,,,,,,,,,
,,5eabf42cdcb6170008b06667,30,male,2024-04-24_11h31.48.090,stockport_simplified,2022.2.4,Win32,60.24096386,661e456ee6de07e70aa9ef7b,6628df8793ba6fae256ab492,,,,,,,,,,,,,,,,,,,,,,,,,,,,,,,,,,,,,,,,,,,,,,,,,,,,,,,,,,,,,,,,,,,,,,,,,,,0,39,39,55,1,N,M,D,o2_image,stimuli/out2.png,stimuli/out1.png,stimuli/correct_out2.png,,,,,,,,,,,,,,,,,,,,,,,,,,,,,,,,,,,,,,
,,5eabf42cdcb6170008b06667,30,male,2024-04-24_11h31.48.090,stockport_simplified,2022.2.4,Win32,60.24096386,661e456ee6de07e70aa9ef7b,6628df8793ba6fae256ab492,,,,,,,,,,,,,,,,,,,,,,,,,,,,,,,,,,,,,,,,,,,,,,,,,,,,,429.0828,431.3142,"[5,7,4,8,2,3,6,1]","[[-0.3,0.2],[0.3,0.2]]","[[-0.125,-0.2],[0.125,-0.2]]",0.09706758,-0.160356347,1,0,0,1.7149,o2_image,431.3145,0,431.8138,431.8138,433.8123,0,0,0,0,1,,,,,,,,,,,,,,,,,,,,,,,,,,,,,,,,,,,,,,,,,,,,,,,,,,
,,5eabf42cdcb6170008b06667,30,male,2024-04-24_11h31.48.090,stockport_simplified,2022.2.4,Win32,60.24096386,661e456ee6de07e70aa9ef7b,6628df8793ba6fae256ab492,,,,,,,,,,,,,,,,,,,,,,,,,,,,,,,,,,,,,,,,,,,,,,,,,,,,,,,,,,,,,,,,,,,,,,,,,,,0,40,40,2,1,A,X,N,o1_image,stimuli/out1.png,stimuli/correct_out1.png,stimuli/out2.png,,,,,,,,,,,,,,,,,,,,,,,,,,,,,,,,,,,,,,
,,5eabf42cdcb6170008b06667,30,male,2024-04-24_11h31.48.090,stockport_simplified,2022.2.4,Win32,60.24096386,661e456ee6de07e70aa9ef7b,6628df8793ba6fae256ab492,,,,,,,,,,,,,,,,,,,,,,,,,,,,,,,,,,,,,,,,,,,,,,,,,,,,,433.8125,435.794,"[5,7,4,8,2,3,6,1]","[[0.3,0.2],[-0.3,0.2]]","[[0.125,-0.2],[-0.125,-0.2]]",-0.105605026,-0.14922049,1,0,0,1.4654,o2_image,435.7943,0,436.2938,436.2938,438.2922,0,0,0,0,1,,,,,,,,,,,,,,,,,,,,,,,,,,,,,,,,,,,,,,,,,,,,,,,,,,
,,5eabf42cdcb6170008b06667,30,male,2024-04-24_11h31.48.090,stockport_simplified,2022.2.4,Win32,60.24096386,661e456ee6de07e70aa9ef7b,6628df8793ba6fae256ab492,,,,,,,,,,,,,,,,,,,,,,,,,,,,,,,,,,,,,,,,,,,,,,,,,,,,,,,,,,,,,,,,,,,,,,,,,,,0,41,41,31,1,A,X,N,o1_image,stimuli/out1.png,stimuli/correct_out1.png,stimuli/out2.png,,,,,,,,,,,,,,,,,,,,,,,,,,,,,,,,,,,,,,
,,5eabf42cdcb6170008b06667,30,male,2024-04-24_11h31.48.090,stockport_simplified,2022.2.4,Win32,60.24096386,661e456ee6de07e70aa9ef7b,6628df8793ba6fae256ab492,,,,,,,,,,,,,,,,,,,,,,,,,,,,,,,,,,,,,,,,,,,,,,,,,,,,,438.2924,439.891,"[5,7,4,8,2,3,6,1]","[[0.3,0.2],[-0.3,0.2]]","[[0.125,-0.2],[-0.125,-0.2]]",0.090386066,-0.151447661,1,0,0,1.0825,o1_image,439.8913,1,440.3905,440.3905,442.3892,0,0,0,0,1,,,,,,,,,,,,,,,,,,,,,,,,,,,,,,,,,,,,,,,,,,,,,,,,,,
,,5eabf42cdcb6170008b06667,30,male,2024-04-24_11h31.48.090,stockport_simplified,2022.2.4,Win32,60.24096386,661e456ee6de07e70aa9ef7b,6628df8793ba6fae256ab492,,,,,,,,,,,,,,,,,,,,,,,,,,,,,,,,,,,,,,,,,,,,,,,,,,,,,,,,,,,,,,,,,,,,,,,,,,,0,42,42,32,1,A,X,N,o1_image,stimuli/out1.png,stimuli/correct_out1.png,stimuli/out2.png,,,,,,,,,,,,,,,,,,,,,,,,,,,,,,,,,,,,,,
,,5eabf42cdcb6170008b06667,30,male,2024-04-24_11h31.48.090,stockport_simplified,2022.2.4,Win32,60.24096386,661e456ee6de07e70aa9ef7b,6628df8793ba6fae256ab492,,,,,,,,,,,,,,,,,,,,,,,,,,,,,,,,,,,,,,,,,,,,,,,,,,,,,442.3895,444.4041,"[5,7,4,8,2,3,6,1]","[[0.3,0.2],[-0.3,0.2]]","[[0.125,-0.2],[-0.125,-0.2]]",-0.148663697,-0.182628062,1,0,0,1.4987,o2_image,444.4045,1,444.904,444.904,446.9023,0,0,0,0,1,,,,,,,,,,,,,,,,,,,,,,,,,,,,,,,,,,,,,,,,,,,,,,,,,,
,,5eabf42cdcb6170008b06667,30,male,2024-04-24_11h31.48.090,stockport_simplified,2022.2.4,Win32,60.24096386,661e456ee6de07e70aa9ef7b,6628df8793ba6fae256ab492,,,,,,,,,,,,,,,,,,,,,,,,,,,,,,,,,,,,,,,,,,,,,,,,,,,,,,,,,,,,,,,,,,,,,,,,,,,0,43,43,41,1,B,X,N,o2_image,stimuli/out2.png,stimuli/out1.png,stimuli/correct_out2.png,,,,,,,,,,,,,,,,,,,,,,,,,,,,,,,,,,,,,,
,,5eabf42cdcb6170008b06667,30,male,2024-04-24_11h31.48.090,stockport_simplified,2022.2.4,Win32,60.24096386,661e456ee6de07e70aa9ef7b,6628df8793ba6fae256ab492,,,,,,,,,,,,,,,,,,,,,,,,,,,,,,,,,,,,,,,,,,,,,,,,,,,,,446.9024,448.601,"[5,7,4,8,2,3,6,1]","[[-0.3,0.2],[0.3,0.2]]","[[0.125,-0.2],[-0.125,-0.2]]",0.087416481,-0.152932488,1,0,0,1.1819,o1_image,448.6014,0,449.1008,449.1008,451.0992,0,0,0,0,1,,,,,,,,,,,,,,,,,,,,,,,,,,,,,,,,,,,,,,,,,,,,,,,,,,
,,5eabf42cdcb6170008b06667,30,male,2024-04-24_11h31.48.090,stockport_simplified,2022.2.4,Win32,60.24096386,661e456ee6de07e70aa9ef7b,6628df8793ba6fae256ab492,,,,,,,,,,,,,,,,,,,,,,,,,,,,,,,,,,,,,,,,,,,,,,,,,,,,,,,,,,,,,,,,,,,,,,,,,,,0,44,44,45,1,B,Y,N,o2_image,stimuli/out2.png,stimuli/out1.png,stimuli/correct_out2.png,,,,,,,,,,,,,,,,,,,,,,,,,,,,,,,,,,,,,,
,,5eabf42cdcb6170008b06667,30,male,2024-04-24_11h31.48.090,stockport_simplified,2022.2.4,Win32,60.24096386,661e456ee6de07e70aa9ef7b,6628df8793ba6fae256ab492,,,,,,,,,,,,,,,,,,,,,,,,,,,,,,,,,,,,,,,,,,,,,,,,,,,,,451.0996,452.598,"[5,7,4,8,2,3,6,1]","[[0.3,0.2],[-0.3,0.2]]","[[-0.125,-0.2],[0.125,-0.2]]",0.082962138,-0.151447661,1,0,0,0.982,o2_image,452.5983,1,453.0978,453.0978,455.0961,0,0,0,0,1,,,,,,,,,,,,,,,,,,,,,,,,,,,,,,,,,,,,,,,,,,,,,,,,,,
,,5eabf42cdcb6170008b06667,30,male,2024-04-24_11h31.48.090,stockport_simplified,2022.2.4,Win32,60.24096386,661e456ee6de07e70aa9ef7b,6628df8793ba6fae256ab492,,,,,,,,,,,,,,,,,,,,,,,,,,,,,,,,,,,,,,,,,,,,,,,,,,,,,,,,,,,,,,,,,,,,,,,,,,,0,45,45,28,1,N,M,D,o2_image,stimuli/out2.png,stimuli/out1.png,stimuli/correct_out2.png,,,,,,,,,,,,,,,,,,,,,,,,,,,,,,,,,,,,,,
,,5eabf42cdcb6170008b06667,30,male,2024-04-24_11h31.48.090,stockport_simplified,2022.2.4,Win32,60.24096386,661e456ee6de07e70aa9ef7b,6628df8793ba6fae256ab492,,,,,,,,,,,,,,,,,,,,,,,,,,,,,,,,,,,,,,,,,,,,,,,,,,,,,455.0963,457.5942,"[5,7,4,8,2,3,6,1]","[[-0.3,0.2],[0.3,0.2]]","[[0.125,-0.2],[-0.125,-0.2]]",0.031737194,-0.130660773,1,0,0,1.6317,o1_image,457.5945,0,458.0938,458.0938,460.0923,0,0,0,0,1,,,,,,,,,,,,,,,,,,,,,,,,,,,,,,,,,,,,,,,,,,,,,,,,,,
,,5eabf42cdcb6170008b06667,30,male,2024-04-24_11h31.48.090,stockport_simplified,2022.2.4,Win32,60.24096386,661e456ee6de07e70aa9ef7b,6628df8793ba6fae256ab492,,,,,,,,,,,,,,,,,,,,,,,,,,,,,,,,,,,,,,,,,,,,,,,,,,,,,,,,,,,,,,,,,,,,,,,,,,,0,46,46,13,1,B,X,N,o2_image,stimuli/out2.png,stimuli/out1.png,stimuli/correct_out2.png,,,,,,,,,,,,,,,,,,,,,,,,,,,,,,,,,,,,,,
,,5eabf42cdcb6170008b06667,30,male,2024-04-24_11h31.48.090,stockport_simplified,2022.2.4,Win32,60.24096386,661e456ee6de07e70aa9ef7b,6628df8793ba6fae256ab492,,,,,,,,,,,,,,,,,,,,,,,,,,,,,,,,,,,,,,,,,,,,,,,,,,,,,460.0925,461.7245,"[5,7,4,8,2,3,6,1]","[[-0.3,0.2],[0.3,0.2]]","[[-0.125,-0.2],[0.125,-0.2]]",-0.087045241,-0.14179663,1,0,0,1.1157,o1_image,461.7248,0,462.2242,462.2243,464.2228,0,0,0,0,1,,,,,,,,,,,,,,,,,,,,,,,,,,,,,,,,,,,,,,,,,,,,,,,,,,
,,5eabf42cdcb6170008b06667,30,male,2024-04-24_11h31.48.090,stockport_simplified,2022.2.4,Win32,60.24096386,661e456ee6de07e70aa9ef7b,6628df8793ba6fae256ab492,,,,,,,,,,,,,,,,,,,,,,,,,,,,,,,,,,,,,,,,,,,,,,,,,,,,,,,,,,,,,,,,,,,,,,,,,,,0,47,47,43,1,B,X,N,o2_image,stimuli/out2.png,stimuli/out1.png,stimuli/correct_out2.png,,,,,,,,,,,,,,,,,,,,,,,,,,,,,,,,,,,,,,
,,5eabf42cdcb6170008b06667,30,male,2024-04-24_11h31.48.090,stockport_simplified,2022.2.4,Win32,60.24096386,661e456ee6de07e70aa9ef7b,6628df8793ba6fae256ab492,,,,,,,,,,,,,,,,,,,,,,,,,,,,,,,,,,,,,,,,,,,,,,,,,,,,,464.223,465.838,"[5,7,4,8,2,3,6,1]","[[-0.3,0.2],[0.3,0.2]]","[[0.125,-0.2],[-0.125,-0.2]]",0.071826281,-0.158129176,1,0,0,1.0988,o1_image,465.8384,0,466.3376,466.3376,468.3362,0,0,0,0,1,,,,,,,,,,,,,,,,,,,,,,,,,,,,,,,,,,,,,,,,,,,,,,,,,,
,,5eabf42cdcb6170008b06667,30,male,2024-04-24_11h31.48.090,stockport_simplified,2022.2.4,Win32,60.24096386,661e456ee6de07e70aa9ef7b,6628df8793ba6fae256ab492,,,,,,,,,,,,,,,,,,,,,,,,,,,,,,,,,,,,,,,,,,,,,,,,,,,,,,,,,,,,,,,,,,,,,,,,,,,0,48,48,18,1,B,Y,N,o2_image,stimuli/out2.png,stimuli/out1.png,stimuli/correct_out2.png,,,,,,,,,,,,,,,,,,,,,,,,,,,,,,,,,,,,,,
,,5eabf42cdcb6170008b06667,30,male,2024-04-24_11h31.48.090,stockport_simplified,2022.2.4,Win32,60.24096386,661e456ee6de07e70aa9ef7b,6628df8793ba6fae256ab492,,,,,,,,,,,,,,,,,,,,,,,,,,,,,,,,,,,,,,,,,,,,,,,,,,,,,468.3364,470.2179,"[5,7,4,8,2,3,6,1]","[[0.3,0.2],[-0.3,0.2]]","[[-0.125,-0.2],[0.125,-0.2]]",-0.101150683,-0.171492205,1,0,0,1.3652,o1_image,470.2182,1,470.7176,470.7176,472.716,0,0,0,0,1,,,,,,,,,,,,,,,,,,,,,,,,,,,,,,,,,,,,,,,,,,,,,,,,,,
,,5eabf42cdcb6170008b06667,30,male,2024-04-24_11h31.48.090,stockport_simplified,2022.2.4,Win32,60.24096386,661e456ee6de07e70aa9ef7b,6628df8793ba6fae256ab492,,,,,,,,,,,,,,,,,,,,,,,,,,,,,,,,,,,,,,,,,,,,,,,,,,,,,,,,,,,,,,,,,,,,,,,,,,,0,49,49,30,1,A,X,N,o1_image,stimuli/out1.png,stimuli/correct_out1.png,stimuli/out2.png,,,,,,,,,,,,,,,,,,,,,,,,,,,,,,,,,,,,,,
,,5eabf42cdcb6170008b06667,30,male,2024-04-24_11h31.48.090,stockport_simplified,2022.2.4,Win32,60.24096386,661e456ee6de07e70aa9ef7b,6628df8793ba6fae256ab492,,,,,,,,,,,,,,,,,,,,,,,,,,,,,,,,,,,,,,,,,,,,,,,,,,,,,472.7163,474.3814,"[5,7,4,8,2,3,6,1]","[[0.3,0.2],[-0.3,0.2]]","[[-0.125,-0.2],[0.125,-0.2]]",-0.095211581,-0.167780275,1,0,0,1.1491,o1_image,474.3818,1,474.8809,474.8809,476.8795,0,0,0,0,1,,,,,,,,,,,,,,,,,,,,,,,,,,,,,,,,,,,,,,,,,,,,,,,,,,
,,5eabf42cdcb6170008b06667,30,male,2024-04-24_11h31.48.090,stockport_simplified,2022.2.4,Win32,60.24096386,661e456ee6de07e70aa9ef7b,6628df8793ba6fae256ab492,,,,,,,,,,,,,,,,,,,,,,,,,,,,,,,,,,,,,,,,,,,,,,,,,,,,,,,,,,,,,,,,,,,,,,,,,,,0,50,50,1,1,A,X,N,o1_image,stimuli/out1.png,stimuli/correct_out1.png,stimuli/out2.png,,,,,,,,,,,,,,,,,,,,,,,,,,,,,,,,,,,,,,
,,5eabf42cdcb6170008b06667,30,male,2024-04-24_11h31.48.090,stockport_simplified,2022.2.4,Win32,60.24096386,661e456ee6de07e70aa9ef7b,6628df8793ba6fae256ab492,,,,,,,,,,,,,,,,,,,,,,,,,,,,,,,,,,,,,,,,,,,,,,,,,,,,,476.8798,478.4281,"[5,7,4,8,2,3,6,1]","[[0.3,0.2],[-0.3,0.2]]","[[-0.125,-0.2],[0.125,-0.2]]",-0.06774311,-0.185597647,1,0,0,1.032,o1_image,478.4284,0,478.9281,478.9282,480.9264,0,0,0,0,1,,,,,,,,,,,,,,,,,,,,,,,,,,,,,,,,,,,,,,,,,,,,,,,,,,
,,5eabf42cdcb6170008b06667,30,male,2024-04-24_11h31.48.090,stockport_simplified,2022.2.4,Win32,60.24096386,661e456ee6de07e70aa9ef7b,6628df8793ba6fae256ab492,,,,,,,,,,,,,,,,,,,,,,,,,,,,,,,,,,,,,,,,,,,,,,,,,,,,,,,,,,,,,,,,,,,,,,,,,,,0,51,51,16,1,B,Y,N,o2_image,stimuli/out2.png,stimuli/out1.png,stimuli/correct_out2.png,,,,,,,,,,,,,,,,,,,,,,,,,,,,,,,,,,,,,,
,,5eabf42cdcb6170008b06667,30,male,2024-04-24_11h31.48.090,stockport_simplified,2022.2.4,Win32,60.24096386,661e456ee6de07e70aa9ef7b,6628df8793ba6fae256ab492,,,,,,,,,,,,,,,,,,,,,,,,,,,,,,,,,,,,,,,,,,,,,,,,,,,,,480.9266,482.6753,"[5,7,4,8,2,3,6,1]","[[0.3,0.2],[-0.3,0.2]]","[[-0.125,-0.2],[0.125,-0.2]]",0.104491508,-0.182628062,1,0,0,1.2326,o2_image,482.6756,1,483.1749,483.1749,485.1734,0,0,0,0,1,,,,,,,,,,,,,,,,,,,,,,,,,,,,,,,,,,,,,,,,,,,,,,,,,,
,,5eabf42cdcb6170008b06667,30,male,2024-04-24_11h31.48.090,stockport_simplified,2022.2.4,Win32,60.24096386,661e456ee6de07e70aa9ef7b,6628df8793ba6fae256ab492,,,,,,,,,,,,,,,,,,,,,,,,,,,,,,,,,,,,,,,,,,,,,,,,,,,,,,,,,,,,,,,,,,,,,,,,,,,0,52,52,19,1,B,Y,N,o2_image,stimuli/out2.png,stimuli/out1.png,stimuli/correct_out2.png,,,,,,,,,,,,,,,,,,,,,,,,,,,,,,,,,,,,,,
,,5eabf42cdcb6170008b06667,30,male,2024-04-24_11h31.48.090,stockport_simplified,2022.2.4,Win32,60.24096386,661e456ee6de07e70aa9ef7b,6628df8793ba6fae256ab492,,,,,,,,,,,,,,,,,,,,,,,,,,,,,,,,,,,,,,,,,,,,,,,,,,,,,485.1737,487.2718,"[5,7,4,8,2,3,6,1]","[[0.3,0.2],[-0.3,0.2]]","[[-0.125,-0.2],[0.125,-0.2]]",-0.053637668,-0.172977031,1,0,0,1.5816,o1_image,487.2722,1,487.7714,487.7714,489.7698,0,0,0,0,1,,,,,,,,,,,,,,,,,,,,,,,,,,,,,,,,,,,,,,,,,,,,,,,,,,
,,5eabf42cdcb6170008b06667,30,male,2024-04-24_11h31.48.090,stockport_simplified,2022.2.4,Win32,60.24096386,661e456ee6de07e70aa9ef7b,6628df8793ba6fae256ab492,,,,,,,,,,,,,,,,,,,,,,,,,,,,,,,,,,,,,,,,,,,,,,,,,,,,,,,,,,,,,,,,,,,,,,,,,,,0,53,53,3,1,A,X,N,o1_image,stimuli/out1.png,stimuli/correct_out1.png,stimuli/out2.png,,,,,,,,,,,,,,,,,,,,,,,,,,,,,,,,,,,,,,
,,5eabf42cdcb6170008b06667,30,male,2024-04-24_11h31.48.090,stockport_simplified,2022.2.4,Win32,60.24096386,661e456ee6de07e70aa9ef7b,6628df8793ba6fae256ab492,,,,,,,,,,,,,,,,,,,,,,,,,,,,,,,,,,,,,,,,,,,,,,,,,,,,,489.77,492.2345,"[5,7,4,8,2,3,6,1]","[[-0.3,0.2],[0.3,0.2]]","[[-0.125,-0.2],[0.125,-0.2]]",0.21956208,-0.195248746,1,0,0,1.4318,o2_image,492.2348,1,492.7342,492.7342,494.7326,0,0,0,0,1,,,,,,,,,,,,,,,,,,,,,,,,,,,,,,,,,,,,,,,,,,,,,,,,,,
,,5eabf42cdcb6170008b06667,30,male,2024-04-24_11h31.48.090,stockport_simplified,2022.2.4,Win32,60.24096386,661e456ee6de07e70aa9ef7b,6628df8793ba6fae256ab492,,,,,,,,,,,,,,,,,,,,,,,,,,,,,,,,,,,,,,,,,,,,,,,,,,,,,,,,,,,,,,,,,,,,,,,,,,,0,54,54,47,1,B,Y,N,o2_image,stimuli/out2.png,stimuli/out1.png,stimuli/correct_out2.png,,,,,,,,,,,,,,,,,,,,,,,,,,,,,,,,,,,,,,
,,5eabf42cdcb6170008b06667,30,male,2024-04-24_11h31.48.090,stockport_simplified,2022.2.4,Win32,60.24096386,661e456ee6de07e70aa9ef7b,6628df8793ba6fae256ab492,,,,,,,,,,,,,,,,,,,,,,,,,,,,,,,,,,,,,,,,,,,,,,,,,,,,,494.7328,496.9642,"[5,7,4,8,2,3,6,1]","[[0.3,0.2],[-0.3,0.2]]","[[0.125,-0.2],[-0.125,-0.2]]",0.136414254,-0.195991091,1,0,0,1.715,o1_image,496.9647,1,497.4639,497.4639,499.4624,0,0,0,0,1,,,,,,,,,,,,,,,,,,,,,,,,,,,,,,,,,,,,,,,,,,,,,,,,,,
,,5eabf42cdcb6170008b06667,30,male,2024-04-24_11h31.48.090,stockport_simplified,2022.2.4,Win32,60.24096386,661e456ee6de07e70aa9ef7b,6628df8793ba6fae256ab492,,,,,,,,,,,,,,,,,,,,,,,,,,,,,,,,,,,,,,,,,,,,,,,,,,,,,,,,,,,,,,,,,,,,,,,,,,,0,55,55,7,1,A,Y,N,o1_image,stimuli/out1.png,stimuli/correct_out1.png,stimuli/out2.png,,,,,,,,,,,,,,,,,,,,,,,,,,,,,,,,,,,,,,
,,5eabf42cdcb6170008b06667,30,male,2024-04-24_11h31.48.090,stockport_simplified,2022.2.4,Win32,60.24096386,661e456ee6de07e70aa9ef7b,6628df8793ba6fae256ab492,,,,,,,,,,,,,,,,,,,,,,,,,,,,,,,,,,,,,,,,,,,,,,,,,,,,,499.4626,501.0446,"[5,7,4,8,2,3,6,1]","[[-0.3,0.2],[0.3,0.2]]","[[0.125,-0.2],[-0.125,-0.2]]",0.107461024,-0.218262806,1,0,0,1.0658,o1_image,501.045,1,501.5443,501.5443,503.5426,0,0,0,0,1,,,,,,,,,,,,,,,,,,,,,,,,,,,,,,,,,,,,,,,,,,,,,,,,,,
,,5eabf42cdcb6170008b06667,30,male,2024-04-24_11h31.48.090,stockport_simplified,2022.2.4,Win32,60.24096386,661e456ee6de07e70aa9ef7b,6628df8793ba6fae256ab492,,,,,,,,,,,,,,,,,,,,,,,,,,,,,,,,,,,,,,,,,,,,,,,,,,,,,,,,,,,,,,,,,,,,,,,,,,,0,56,56,6,1,A,Y,N,o1_image,stimuli/out1.png,stimuli/correct_out1.png,stimuli/out2.png,,,,,,,,,,,,,,,,,,,,,,,,,,,,,,,,,,,,,,
,,5eabf42cdcb6170008b06667,30,male,2024-04-24_11h31.48.090,stockport_simplified,2022.2.4,Win32,60.24096386,661e456ee6de07e70aa9ef7b,6628df8793ba6fae256ab492,,,,,,,,,,,,,,,,,,,,,,,,,,,,,,,,,,,,,,,,,,,,,,,,,,,,,503.5429,505.4411,"[5,7,4,8,2,3,6,1]","[[0.3,0.2],[-0.3,0.2]]","[[-0.125,-0.2],[0.125,-0.2]]",0.043615464,-0.181143304,1,0,0,1.099,o2_image,505.4415,0,505.9406,505.9407,507.9395,0,0,0,0,1,,,,,,,,,,,,,,,,,,,,,,,,,,,,,,,,,,,,,,,,,,,,,,,,,,
,,5eabf42cdcb6170008b06667,30,male,2024-04-24_11h31.48.090,stockport_simplified,2022.2.4,Win32,60.24096386,661e456ee6de07e70aa9ef7b,6628df8793ba6fae256ab492,,,,,,,,,,,,,,,,,,,,,,,,,,,,,,,,,,,,,,,,,,,,,,,,,,,,,,,,,,,,,,,,,,,,,,,,,,,0,57,57,34,1,A,X,N,o1_image,stimuli/out1.png,stimuli/correct_out1.png,stimuli/out2.png,,,,,,,,,,,,,,,,,,,,,,,,,,,,,,,,,,,,,,
,,5eabf42cdcb6170008b06667,30,male,2024-04-24_11h31.48.090,stockport_simplified,2022.2.4,Win32,60.24096386,661e456ee6de07e70aa9ef7b,6628df8793ba6fae256ab492,,,,,,,,,,,,,,,,,,,,,,,,,,,,,,,,,,,,,,,,,,,,,,,,,,,,,507.9396,509.6381,"[5,7,4,8,2,3,6,1]","[[0.3,0.2],[-0.3,0.2]]","[[0.125,-0.2],[-0.125,-0.2]]",0.119339295,-0.129175947,1,0,0,1.1821,o1_image,509.6385,1,510.1378,510.1378,512.1363,0,0,0,0,1,,,,,,,,,,,,,,,,,,,,,,,,,,,,,,,,,,,,,,,,,,,,,,,,,,
,,5eabf42cdcb6170008b06667,30,male,2024-04-24_11h31.48.090,stockport_simplified,2022.2.4,Win32,60.24096386,661e456ee6de07e70aa9ef7b,6628df8793ba6fae256ab492,,,,,,,,,,,,,,,,,,,,,,,,,,,,,,,,,,,,,,,,,,,,,,,,,,,,,,,,,,,,,,,,,,,,,,,,,,,0,58,58,20,1,N,M,C,o1_image,stimuli/out1.png,stimuli/correct_out1.png,stimuli/out2.png,,,,,,,,,,,,,,,,,,,,,,,,,,,,,,,,,,,,,,
,,5eabf42cdcb6170008b06667,30,male,2024-04-24_11h31.48.090,stockport_simplified,2022.2.4,Win32,60.24096386,661e456ee6de07e70aa9ef7b,6628df8793ba6fae256ab492,,,,,,,,,,,,,,,,,,,,,,,,,,,,,,,,,,,,,,,,,,,,,,,,,,,,,512.1365,514.1844,"[5,7,4,8,2,3,6,1]","[[0.3,0.2],[-0.3,0.2]]","[[0.125,-0.2],[-0.125,-0.2]]",-0.114513712,-0.14179663,1,0,0,1.5316,o2_image,514.1847,0,514.6844,514.6844,516.6828,0,0,0,0,1,,,,,,,,,,,,,,,,,,,,,,,,,,,,,,,,,,,,,,,,,,,,,,,,,,
,,5eabf42cdcb6170008b06667,30,male,2024-04-24_11h31.48.090,stockport_simplified,2022.2.4,Win32,60.24096386,661e456ee6de07e70aa9ef7b,6628df8793ba6fae256ab492,,,,,,,,,,,,,,,,,,,,,,,,,,,,,,,,,,,,,,,,,,,,,,,,,,,,,,,,,,,,,,,,,,,,,,,,,,,0,59,59,0,1,A,X,N,o1_image,stimuli/out1.png,stimuli/correct_out1.png,stimuli/out2.png,,,,,,,,,,,,,,,,,,,,,,,,,,,,,,,,,,,,,,
,,5eabf42cdcb6170008b06667,30,male,2024-04-24_11h31.48.090,stockport_simplified,2022.2.4,Win32,60.24096386,661e456ee6de07e70aa9ef7b,6628df8793ba6fae256ab492,,,,,,,,,,,,,,,,,,,,,,,,,,,,,,,,,,,,,,,,,,,,,,,,,,,,,516.683,518.7144,"[5,7,4,8,2,3,6,1]","[[-0.3,0.2],[0.3,0.2]]","[[-0.125,-0.2],[0.125,-0.2]]",0.068856764,-0.178173719,1,0,0,1.5151,o2_image,518.7149,0,519.2139,519.2139,521.2126,0,0,0,0,1,,,,,,,,,,,,,,,,,,,,,,,,,,,,,,,,,,,,,,,,,,,,,,,,,,
,,5eabf42cdcb6170008b06667,30,male,2024-04-24_11h31.48.090,stockport_simplified,2022.2.4,Win32,60.24096386,661e456ee6de07e70aa9ef7b,6628df8793ba6fae256ab492,,,,,,,,,,,,,,,,,,,,,,,,,,,,,,,,,,,,,,,,,,,,,,,,,,,,,,,,,,,,,,,,,,,,,,,,,,,1,0,60,35,1,A,Y,N,o1_image,stimuli/out1.png,stimuli/correct_out1.png,stimuli/out2.png,,,,,,,,,,,,,,,,,,,,,,,,,,,,,,,,,,,,,,
,,5eabf42cdcb6170008b06667,30,male,2024-04-24_11h31.48.090,stockport_simplified,2022.2.4,Win32,60.24096386,661e456ee6de07e70aa9ef7b,6628df8793ba6fae256ab492,,,,,,,,,,,,,,,,,,,,,,,,,,,,,,,,,,,,,,,,,,,,,,,,,,,,,521.2128,523.0777,"[5,7,4,8,2,3,6,1]","[[0.3,0.2],[-0.3,0.2]]","[[0.125,-0.2],[-0.125,-0.2]]",0.133444737,-0.181885717,1,0,0,1.3487,o1_image,523.0781,1,523.5775,523.5775,525.5758,0,0,0,0,1,,,,,,,,,,,,,,,,,,,,,,,,,,,,,,,,,,,,,,,,,,,,,,,,,,
,,5eabf42cdcb6170008b06667,30,male,2024-04-24_11h31.48.090,stockport_simplified,2022.2.4,Win32,60.24096386,661e456ee6de07e70aa9ef7b,6628df8793ba6fae256ab492,,,,,,,,,,,,,,,,,,,,,,,,,,,,,,,,,,,,,,,,,,,,,,,,,,,,,,,,,,,,,,,,,,,,,,,,,,,1,1,61,52,1,N,M,C,o1_image,stimuli/out1.png,stimuli/correct_out1.png,stimuli/out2.png,,,,,,,,,,,,,,,,,,,,,,,,,,,,,,,,,,,,,,
,,5eabf42cdcb6170008b06667,30,male,2024-04-24_11h31.48.090,stockport_simplified,2022.2.4,Win32,60.24096386,661e456ee6de07e70aa9ef7b,6628df8793ba6fae256ab492,,,,,,,,,,,,,,,,,,,,,,,,,,,,,,,,,,,,,,,,,,,,,,,,,,,,,525.5761,527.2245,"[5,7,4,8,2,3,6,1]","[[0.3,0.2],[-0.3,0.2]]","[[-0.125,-0.2],[0.125,-0.2]]",0.078507795,-0.171492205,1,0,0,1.132,o2_image,527.2249,0,527.7244,527.7244,529.7228,0,0,0,0,1,,,,,,,,,,,,,,,,,,,,,,,,,,,,,,,,,,,,,,,,,,,,,,,,,,
,,5eabf42cdcb6170008b06667,30,male,2024-04-24_11h31.48.090,stockport_simplified,2022.2.4,Win32,60.24096386,661e456ee6de07e70aa9ef7b,6628df8793ba6fae256ab492,,,,,,,,,,,,,,,,,,,,,,,,,,,,,,,,,,,,,,,,,,,,,,,,,,,,,,,,,,,,,,,,,,,,,,,,,,,1,2,62,2,1,A,X,N,o1_image,stimuli/out1.png,stimuli/correct_out1.png,stimuli/out2.png,,,,,,,,,,,,,,,,,,,,,,,,,,,,,,,,,,,,,,
,,5eabf42cdcb6170008b06667,30,male,2024-04-24_11h31.48.090,stockport_simplified,2022.2.4,Win32,60.24096386,661e456ee6de07e70aa9ef7b,6628df8793ba6fae256ab492,,,,,,,,,,,,,,,,,,,,,,,,,,,,,,,,,,,,,,,,,,,,,,,,,,,,,529.7231,531.5879,"[5,7,4,8,2,3,6,1]","[[-0.3,0.2],[0.3,0.2]]","[[-0.125,-0.2],[0.125,-0.2]]",-0.118225641,-0.178916133,1,0,0,1.3484,o1_image,531.5883,1,532.0877,532.0877,534.0863,0,0,0,0,1,,,,,,,,,,,,,,,,,,,,,,,,,,,,,,,,,,,,,,,,,,,,,,,,,,
,,5eabf42cdcb6170008b06667,30,male,2024-04-24_11h31.48.090,stockport_simplified,2022.2.4,Win32,60.24096386,661e456ee6de07e70aa9ef7b,6628df8793ba6fae256ab492,,,,,,,,,,,,,,,,,,,,,,,,,,,,,,,,,,,,,,,,,,,,,,,,,,,,,,,,,,,,,,,,,,,,,,,,,,,1,3,63,23,1,N,M,C,o1_image,stimuli/out1.png,stimuli/correct_out1.png,stimuli/out2.png,,,,,,,,,,,,,,,,,,,,,,,,,,,,,,,,,,,,,,
,,5eabf42cdcb6170008b06667,30,male,2024-04-24_11h31.48.090,stockport_simplified,2022.2.4,Win32,60.24096386,661e456ee6de07e70aa9ef7b,6628df8793ba6fae256ab492,,,,,,,,,,,,,,,,,,,,,,,,,,,,,,,,,,,,,,,,,,,,,,,,,,,,,534.0865,536.2343,"[5,7,4,8,2,3,6,1]","[[-0.3,0.2],[0.3,0.2]]","[[0.125,-0.2],[-0.125,-0.2]]",0.063660008,-0.170007447,1,0,0,1.6319,o1_image,536.2346,1,536.7341,536.7341,538.7326,0,0,0,0,1,,,,,,,,,,,,,,,,,,,,,,,,,,,,,,,,,,,,,,,,,,,,,,,,,,
,,5eabf42cdcb6170008b06667,30,male,2024-04-24_11h31.48.090,stockport_simplified,2022.2.4,Win32,60.24096386,661e456ee6de07e70aa9ef7b,6628df8793ba6fae256ab492,,,,,,,,,,,,,,,,,,,,,,,,,,,,,,,,,,,,,,,,,,,,,,,,,,,,,,,,,,,,,,,,,,,,,,,,,,,1,4,64,38,1,A,Y,N,o1_image,stimuli/out1.png,stimuli/correct_out1.png,stimuli/out2.png,,,,,,,,,,,,,,,,,,,,,,,,,,,,,,,,,,,,,,
,,5eabf42cdcb6170008b06667,30,male,2024-04-24_11h31.48.090,stockport_simplified,2022.2.4,Win32,60.24096386,661e456ee6de07e70aa9ef7b,6628df8793ba6fae256ab492,,,,,,,,,,,,,,,,,,,,,,,,,,,,,,,,,,,,,,,,,,,,,,,,,,,,,538.7328,540.398,"[5,7,4,8,2,3,6,1]","[[-0.3,0.2],[0.3,0.2]]","[[-0.125,-0.2],[0.125,-0.2]]",0.111173022,-0.165553104,1,0,0,1.1489,o2_image,540.3983,1,540.8976,540.8976,542.8961,0,0,0,0,1,,,,,,,,,,,,,,,,,,,,,,,,,,,,,,,,,,,,,,,,,,,,,,,,,,
,,5eabf42cdcb6170008b06667,30,male,2024-04-24_11h31.48.090,stockport_simplified,2022.2.4,Win32,60.24096386,661e456ee6de07e70aa9ef7b,6628df8793ba6fae256ab492,,,,,,,,,,,,,,,,,,,,,,,,,,,,,,,,,,,,,,,,,,,,,,,,,,,,,,,,,,,,,,,,,,,,,,,,,,,1,5,65,13,1,B,X,N,o2_image,stimuli/out2.png,stimuli/out1.png,stimuli/correct_out2.png,,,,,,,,,,,,,,,,,,,,,,,,,,,,,,,,,,,,,,
,,5eabf42cdcb6170008b06667,30,male,2024-04-24_11h31.48.090,stockport_simplified,2022.2.4,Win32,60.24096386,661e456ee6de07e70aa9ef7b,6628df8793ba6fae256ab492,,,,,,,,,,,,,,,,,,,,,,,,,,,,,,,,,,,,,,,,,,,,,,,,,,,,,542.8963,544.578,"[5,7,4,8,2,3,6,1]","[[0.3,0.2],[-0.3,0.2]]","[[0.125,-0.2],[-0.125,-0.2]]",0.170564239,-0.147735732,1,0,0,1.1655,o1_image,544.5783,1,545.078,545.078,547.0764,0,0,0,0,1,,,,,,,,,,,,,,,,,,,,,,,,,,,,,,,,,,,,,,,,,,,,,,,,,,
,,5eabf42cdcb6170008b06667,30,male,2024-04-24_11h31.48.090,stockport_simplified,2022.2.4,Win32,60.24096386,661e456ee6de07e70aa9ef7b,6628df8793ba6fae256ab492,,,,,,,,,,,,,,,,,,,,,,,,,,,,,,,,,,,,,,,,,,,,,,,,,,,,,,,,,,,,,,,,,,,,,,,,,,,1,6,66,20,1,N,M,C,o1_image,stimuli/out1.png,stimuli/correct_out1.png,stimuli/out2.png,,,,,,,,,,,,,,,,,,,,,,,,,,,,,,,,,,,,,,
,,5eabf42cdcb6170008b06667,30,male,2024-04-24_11h31.48.090,stockport_simplified,2022.2.4,Win32,60.24096386,661e456ee6de07e70aa9ef7b,6628df8793ba6fae256ab492,,,,,,,,,,,,,,,,,,,,,,,,,,,,,,,,,,,,,,,,,,,,,,,,,,,,,547.0766,549.0413,"[5,7,4,8,2,3,6,1]","[[0.3,0.2],[-0.3,0.2]]","[[0.125,-0.2],[-0.125,-0.2]]",-0.227357045,-0.21529329,1,0,0,1.1154,o2_image,549.0416,1,549.5411,549.5411,551.5395,0,0,0,0,1,,,,,,,,,,,,,,,,,,,,,,,,,,,,,,,,,,,,,,,,,,,,,,,,,,
,,5eabf42cdcb6170008b06667,30,male,2024-04-24_11h31.48.090,stockport_simplified,2022.2.4,Win32,60.24096386,661e456ee6de07e70aa9ef7b,6628df8793ba6fae256ab492,,,,,,,,,,,,,,,,,,,,,,,,,,,,,,,,,,,,,,,,,,,,,,,,,,,,,,,,,,,,,,,,,,,,,,,,,,,1,7,67,27,1,N,M,D,o2_image,stimuli/out2.png,stimuli/out1.png,stimuli/correct_out2.png,,,,,,,,,,,,,,,,,,,,,,,,,,,,,,,,,,,,,,
,,5eabf42cdcb6170008b06667,30,male,2024-04-24_11h31.48.090,stockport_simplified,2022.2.4,Win32,60.24096386,661e456ee6de07e70aa9ef7b,6628df8793ba6fae256ab492,,,,,,,,,,,,,,,,,,,,,,,,,,,,,,,,,,,,,,,,,,,,,,,,,,,,,551.5398,553.638,"[5,7,4,8,2,3,6,1]","[[-0.3,0.2],[0.3,0.2]]","[[-0.125,-0.2],[0.125,-0.2]]",-0.098923511,-0.149962903,1,0,0,1.5819,o1_image,553.6384,0,554.1377,554.1378,556.1362,0,0,0,0,1,,,,,,,,,,,,,,,,,,,,,,,,,,,,,,,,,,,,,,,,,,,,,,,,,,
,,5eabf42cdcb6170008b06667,30,male,2024-04-24_11h31.48.090,stockport_simplified,2022.2.4,Win32,60.24096386,661e456ee6de07e70aa9ef7b,6628df8793ba6fae256ab492,,,,,,,,,,,,,,,,,,,,,,,,,,,,,,,,,,,,,,,,,,,,,,,,,,,,,,,,,,,,,,,,,,,,,,,,,,,1,8,68,42,1,B,X,N,o2_image,stimuli/out2.png,stimuli/out1.png,stimuli/correct_out2.png,,,,,,,,,,,,,,,,,,,,,,,,,,,,,,,,,,,,,,
,,5eabf42cdcb6170008b06667,30,male,2024-04-24_11h31.48.090,stockport_simplified,2022.2.4,Win32,60.24096386,661e456ee6de07e70aa9ef7b,6628df8793ba6fae256ab492,,,,,,,,,,,,,,,,,,,,,,,,,,,,,,,,,,,,,,,,,,,,,,,,,,,,,556.1364,557.8013,"[5,7,4,8,2,3,6,1]","[[0.3,0.2],[-0.3,0.2]]","[[-0.125,-0.2],[0.125,-0.2]]",-0.084818069,-0.14550856,1,0,0,1.1487,o1_image,557.8018,1,558.3011,558.3011,560.2997,0,0,0,0,1,,,,,,,,,,,,,,,,,,,,,,,,,,,,,,,,,,,,,,,,,,,,,,,,,,
,,5eabf42cdcb6170008b06667,30,male,2024-04-24_11h31.48.090,stockport_simplified,2022.2.4,Win32,60.24096386,661e456ee6de07e70aa9ef7b,6628df8793ba6fae256ab492,,,,,,,,,,,,,,,,,,,,,,,,,,,,,,,,,,,,,,,,,,,,,,,,,,,,,,,,,,,,,,,,,,,,,,,,,,,1,9,69,31,1,A,X,N,o1_image,stimuli/out1.png,stimuli/correct_out1.png,stimuli/out2.png,,,,,,,,,,,,,,,,,,,,,,,,,,,,,,,,,,,,,,
,,5eabf42cdcb6170008b06667,30,male,2024-04-24_11h31.48.090,stockport_simplified,2022.2.4,Win32,60.24096386,661e456ee6de07e70aa9ef7b,6628df8793ba6fae256ab492,,,,,,,,,,,,,,,,,,,,,,,,,,,,,,,,,,,,,,,,,,,,,,,,,,,,,560.2999,561.8981,"[5,7,4,8,2,3,6,1]","[[-0.3,0.2],[0.3,0.2]]","[[0.125,-0.2],[-0.125,-0.2]]",-0.080363726,-0.152932488,1,0,0,1.082,o2_image,561.8985,1,562.3978,562.3979,564.3966,0,0,0,0,1,,,,,,,,,,,,,,,,,,,,,,,,,,,,,,,,,,,,,,,,,,,,,,,,,,
,,5eabf42cdcb6170008b06667,30,male,2024-04-24_11h31.48.090,stockport_simplified,2022.2.4,Win32,60.24096386,661e456ee6de07e70aa9ef7b,6628df8793ba6fae256ab492,,,,,,,,,,,,,,,,,,,,,,,,,,,,,,,,,,,,,,,,,,,,,,,,,,,,,,,,,,,,,,,,,,,,,,,,,,,1,10,70,28,1,N,M,D,o2_image,stimuli/out2.png,stimuli/out1.png,stimuli/correct_out2.png,,,,,,,,,,,,,,,,,,,,,,,,,,,,,,,,,,,,,,
,,5eabf42cdcb6170008b06667,30,male,2024-04-24_11h31.48.090,stockport_simplified,2022.2.4,Win32,60.24096386,661e456ee6de07e70aa9ef7b,6628df8793ba6fae256ab492,,,,,,,,,,,,,,,,,,,,,,,,,,,,,,,,,,,,,,,,,,,,,,,,,,,,,564.397,567.111,"[5,7,4,8,2,3,6,1]","[[-0.3,0.2],[0.3,0.2]]","[[0.125,-0.2],[-0.125,-0.2]]",0.14532294,-0.175204203,1,0,0,2.1977,o1_image,567.1162,1,567.611,567.611,569.6096,0,0,0,0,1,,,,,,,,,,,,,,,,,,,,,,,,,,,,,,,,,,,,,,,,,,,,,,,,,,
,,5eabf42cdcb6170008b06667,30,male,2024-04-24_11h31.48.090,stockport_simplified,2022.2.4,Win32,60.24096386,661e456ee6de07e70aa9ef7b,6628df8793ba6fae256ab492,,,,,,,,,,,,,,,,,,,,,,,,,,,,,,,,,,,,,,,,,,,,,,,,,,,,,,,,,,,,,,,,,,,,,,,,,,,1,11,71,37,1,A,Y,N,o1_image,stimuli/out1.png,stimuli/correct_out1.png,stimuli/out2.png,,,,,,,,,,,,,,,,,,,,,,,,,,,,,,,,,,,,,,
,,5eabf42cdcb6170008b06667,30,male,2024-04-24_11h31.48.090,stockport_simplified,2022.2.4,Win32,60.24096386,661e456ee6de07e70aa9ef7b,6628df8793ba6fae256ab492,,,,,,,,,,,,,,,,,,,,,,,,,,,,,,,,,,,,,,,,,,,,,,,,,,,,,569.6101,570.9655,"[5,7,4,8,2,3,6,1]","[[0.3,0.2],[-0.3,0.2]]","[[-0.125,-0.2],[0.125,-0.2]]",0.142353423,-0.171492205,1,0,0,0.8498,o2_image,570.9659,1,571.4579,571.458,573.4565,0,0,0,0,1,,,,,,,,,,,,,,,,,,,,,,,,,,,,,,,,,,,,,,,,,,,,,,,,,,
,,5eabf42cdcb6170008b06667,30,male,2024-04-24_11h31.48.090,stockport_simplified,2022.2.4,Win32,60.24096386,661e456ee6de07e70aa9ef7b,6628df8793ba6fae256ab492,,,,,,,,,,,,,,,,,,,,,,,,,,,,,,,,,,,,,,,,,,,,,,,,,,,,,,,,,,,,,,,,,,,,,,,,,,,1,12,72,57,1,N,M,D,o2_image,stimuli/out2.png,stimuli/out1.png,stimuli/correct_out2.png,,,,,,,,,,,,,,,,,,,,,,,,,,,,,,,,,,,,,,
,,5eabf42cdcb6170008b06667,30,male,2024-04-24_11h31.48.090,stockport_simplified,2022.2.4,Win32,60.24096386,661e456ee6de07e70aa9ef7b,6628df8793ba6fae256ab492,,,,,,,,,,,,,,,,,,,,,,,,,,,,,,,,,,,,,,,,,,,,,,,,,,,,,573.4569,575.4287,"[5,7,4,8,2,3,6,1]","[[-0.3,0.2],[0.3,0.2]]","[[-0.125,-0.2],[0.125,-0.2]]",-0.15682997,-0.189309577,1,0,0,1.4493,o1_image,575.429,0,575.9284,575.9284,577.9198,0,0,0,0,1,,,,,,,,,,,,,,,,,,,,,,,,,,,,,,,,,,,,,,,,,,,,,,,,,,
,,5eabf42cdcb6170008b06667,30,male,2024-04-24_11h31.48.090,stockport_simplified,2022.2.4,Win32,60.24096386,661e456ee6de07e70aa9ef7b,6628df8793ba6fae256ab492,,,,,,,,,,,,,,,,,,,,,,,,,,,,,,,,,,,,,,,,,,,,,,,,,,,,,,,,,,,,,,,,,,,,,,,,,,,1,13,73,49,1,B,Y,N,o2_image,stimuli/out2.png,stimuli/out1.png,stimuli/correct_out2.png,,,,,,,,,,,,,,,,,,,,,,,,,,,,,,,,,,,,,,
,,5eabf42cdcb6170008b06667,30,male,2024-04-24_11h31.48.090,stockport_simplified,2022.2.4,Win32,60.24096386,661e456ee6de07e70aa9ef7b,6628df8793ba6fae256ab492,,,,,,,,,,,,,,,,,,,,,,,,,,,,,,,,,,,,,,,,,,,,,,,,,,,,,577.9202,579.4256,"[5,7,4,8,2,3,6,1]","[[0.3,0.2],[-0.3,0.2]]","[[0.125,-0.2],[-0.125,-0.2]]",-0.042501811,-0.096510787,1,0,0,0.7698,o2_image,579.426,1,579.9251,579.9252,581.9167,0,0,0,0,1,,,,,,,,,,,,,,,,,,,,,,,,,,,,,,,,,,,,,,,,,,,,,,,,,,
,,5eabf42cdcb6170008b06667,30,male,2024-04-24_11h31.48.090,stockport_simplified,2022.2.4,Win32,60.24096386,661e456ee6de07e70aa9ef7b,6628df8793ba6fae256ab492,,,,,,,,,,,,,,,,,,,,,,,,,,,,,,,,,,,,,,,,,,,,,,,,,,,,,,,,,,,,,,,,,,,,,,,,,,,1,14,74,58,1,N,M,D,o2_image,stimuli/out2.png,stimuli/out1.png,stimuli/correct_out2.png,,,,,,,,,,,,,,,,,,,,,,,,,,,,,,,,,,,,,,
,,5eabf42cdcb6170008b06667,30,male,2024-04-24_11h31.48.090,stockport_simplified,2022.2.4,Win32,60.24096386,661e456ee6de07e70aa9ef7b,6628df8793ba6fae256ab492,,,,,,,,,,,,,,,,,,,,,,,,,,,,,,,,,,,,,,,,,,,,,,,,,,,,,581.9174,584.2886,"[5,7,4,8,2,3,6,1]","[[0.3,0.2],[-0.3,0.2]]","[[0.125,-0.2],[-0.125,-0.2]]",-0.230326629,-0.21529329,1,0,0,1.5722,o2_image,584.2889,1,584.7882,584.7882,586.7794,0,0,0,0,1,,,,,,,,,,,,,,,,,,,,,,,,,,,,,,,,,,,,,,,,,,,,,,,,,,
,,5eabf42cdcb6170008b06667,30,male,2024-04-24_11h31.48.090,stockport_simplified,2022.2.4,Win32,60.24096386,661e456ee6de07e70aa9ef7b,6628df8793ba6fae256ab492,,,,,,,,,,,,,,,,,,,,,,,,,,,,,,,,,,,,,,,,,,,,,,,,,,,,,,,,,,,,,,,,,,,,,,,,,,,1,15,75,40,1,B,X,N,o2_image,stimuli/out2.png,stimuli/out1.png,stimuli/correct_out2.png,,,,,,,,,,,,,,,,,,,,,,,,,,,,,,,,,,,,,,
,,5eabf42cdcb6170008b06667,30,male,2024-04-24_11h31.48.090,stockport_simplified,2022.2.4,Win32,60.24096386,661e456ee6de07e70aa9ef7b,6628df8793ba6fae256ab492,,,,,,,,,,,,,,,,,,,,,,,,,,,,,,,,,,,,,,,,,,,,,,,,,,,,,586.7799,588.2024,"[5,7,4,8,2,3,6,1]","[[-0.3,0.2],[0.3,0.2]]","[[-0.125,-0.2],[0.125,-0.2]]",-0.127134327,-0.158871589,1,0,0,0.8999,o1_image,588.2027,1,588.6948,588.6948,590.6834,0,0,0,0,1,,,,,,,,,,,,,,,,,,,,,,,,,,,,,,,,,,,,,,,,,,,,,,,,,,
,,5eabf42cdcb6170008b06667,30,male,2024-04-24_11h31.48.090,stockport_simplified,2022.2.4,Win32,60.24096386,661e456ee6de07e70aa9ef7b,6628df8793ba6fae256ab492,,,,,,,,,,,,,,,,,,,,,,,,,,,,,,,,,,,,,,,,,,,,,,,,,,,,,,,,,,,,,,,,,,,,,,,,,,,1,16,76,54,1,N,M,C,o1_image,stimuli/out1.png,stimuli/correct_out1.png,stimuli/out2.png,,,,,,,,,,,,,,,,,,,,,,,,,,,,,,,,,,,,,,
,,5eabf42cdcb6170008b06667,30,male,2024-04-24_11h31.48.090,stockport_simplified,2022.2.4,Win32,60.24096386,661e456ee6de07e70aa9ef7b,6628df8793ba6fae256ab492,,,,,,,,,,,,,,,,,,,,,,,,,,,,,,,,,,,,,,,,,,,,,,,,,,,,,590.6837,592.715,"[5,7,4,8,2,3,6,1]","[[0.3,0.2],[-0.3,0.2]]","[[-0.125,-0.2],[0.125,-0.2]]",-0.087787654,-0.189309577,1,0,0,1.5214,o1_image,592.7153,0,593.208,593.2081,595.2137,0,0,0,0,1,,,,,,,,,,,,,,,,,,,,,,,,,,,,,,,,,,,,,,,,,,,,,,,,,,
,,5eabf42cdcb6170008b06667,30,male,2024-04-24_11h31.48.090,stockport_simplified,2022.2.4,Win32,60.24096386,661e456ee6de07e70aa9ef7b,6628df8793ba6fae256ab492,,,,,,,,,,,,,,,,,,,,,,,,,,,,,,,,,,,,,,,,,,,,,,,,,,,,,,,,,,,,,,,,,,,,,,,,,,,1,17,77,16,1,B,Y,N,o2_image,stimuli/out2.png,stimuli/out1.png,stimuli/correct_out2.png,,,,,,,,,,,,,,,,,,,,,,,,,,,,,,,,,,,,,,
,,5eabf42cdcb6170008b06667,30,male,2024-04-24_11h31.48.090,stockport_simplified,2022.2.4,Win32,60.24096386,661e456ee6de07e70aa9ef7b,6628df8793ba6fae256ab492,,,,,,,,,,,,,,,,,,,,,,,,,,,,,,,,,,,,,,,,,,,,,,,,,,,,,595.214,597.5719,"[5,7,4,8,2,3,6,1]","[[0.3,0.2],[-0.3,0.2]]","[[-0.125,-0.2],[0.125,-0.2]]",0.110430609,-0.14922049,1,0,0,1.8486,o2_image,597.5726,1,598.078,598.078,600.0695,0,0,0,0,1,,,,,,,,,,,,,,,,,,,,,,,,,,,,,,,,,,,,,,,,,,,,,,,,,,
,,5eabf42cdcb6170008b06667,30,male,2024-04-24_11h31.48.090,stockport_simplified,2022.2.4,Win32,60.24096386,661e456ee6de07e70aa9ef7b,6628df8793ba6fae256ab492,,,,,,,,,,,,,,,,,,,,,,,,,,,,,,,,,,,,,,,,,,,,,,,,,,,,,,,,,,,,,,,,,,,,,,,,,,,1,18,78,59,1,N,M,D,o2_image,stimuli/out2.png,stimuli/out1.png,stimuli/correct_out2.png,,,,,,,,,,,,,,,,,,,,,,,,,,,,,,,,,,,,,,
,,5eabf42cdcb6170008b06667,30,male,2024-04-24_11h31.48.090,stockport_simplified,2022.2.4,Win32,60.24096386,661e456ee6de07e70aa9ef7b,6628df8793ba6fae256ab492,,,,,,,,,,,,,,,,,,,,,,,,,,,,,,,,,,,,,,,,,,,,,,,,,,,,,600.0699,602.3252,"[5,7,4,8,2,3,6,1]","[[0.3,0.2],[-0.3,0.2]]","[[0.125,-0.2],[-0.125,-0.2]]",-0.061804009,-0.17446179,1,0,0,1.7503,o2_image,602.3255,0,602.8243,602.8243,604.8161,0,0,0,0,1,,,,,,,,,,,,,,,,,,,,,,,,,,,,,,,,,,,,,,,,,,,,,,,,,,
,,5eabf42cdcb6170008b06667,30,male,2024-04-24_11h31.48.090,stockport_simplified,2022.2.4,Win32,60.24096386,661e456ee6de07e70aa9ef7b,6628df8793ba6fae256ab492,,,,,,,,,,,,,,,,,,,,,,,,,,,,,,,,,,,,,,,,,,,,,,,,,,,,,,,,,,,,,,,,,,,,,,,,,,,1,19,79,0,1,A,X,N,o1_image,stimuli/out1.png,stimuli/correct_out1.png,stimuli/out2.png,,,,,,,,,,,,,,,,,,,,,,,,,,,,,,,,,,,,,,
,,5eabf42cdcb6170008b06667,30,male,2024-04-24_11h31.48.090,stockport_simplified,2022.2.4,Win32,60.24096386,661e456ee6de07e70aa9ef7b,6628df8793ba6fae256ab492,,,,,,,,,,,,,,,,,,,,,,,,,,,,,,,,,,,,,,,,,,,,,,,,,,,,,604.8166,606.5885,"[5,7,4,8,2,3,6,1]","[[0.3,0.2],[-0.3,0.2]]","[[-0.125,-0.2],[0.125,-0.2]]",-0.095211581,-0.193021575,1,0,0,1.256,o1_image,606.5889,0,607.081,607.0811,609.0794,0,0,0,0,1,,,,,,,,,,,,,,,,,,,,,,,,,,,,,,,,,,,,,,,,,,,,,,,,,,
,,5eabf42cdcb6170008b06667,30,male,2024-04-24_11h31.48.090,stockport_simplified,2022.2.4,Win32,60.24096386,661e456ee6de07e70aa9ef7b,6628df8793ba6fae256ab492,,,,,,,,,,,,,,,,,,,,,,,,,,,,,,,,,,,,,,,,,,,,,,,,,,,,,,,,,,,,,,,,,,,,,,,,,,,1,20,80,15,1,B,Y,N,o2_image,stimuli/out2.png,stimuli/out1.png,stimuli/correct_out2.png,,,,,,,,,,,,,,,,,,,,,,,,,,,,,,,,,,,,,,
,,5eabf42cdcb6170008b06667,30,male,2024-04-24_11h31.48.090,stockport_simplified,2022.2.4,Win32,60.24096386,661e456ee6de07e70aa9ef7b,6628df8793ba6fae256ab492,,,,,,,,,,,,,,,,,,,,,,,,,,,,,,,,,,,,,,,,,,,,,,,,,,,,,609.0799,611.8179,"[5,7,4,8,2,3,6,1]","[[-0.3,0.2],[0.3,0.2]]","[[0.125,-0.2],[-0.125,-0.2]]",-0.093726755,-0.189309577,1,0,0,2.216,o2_image,611.8229,0,612.3269,612.3269,614.3317,0,0,0,0,1,,,,,,,,,,,,,,,,,,,,,,,,,,,,,,,,,,,,,,,,,,,,,,,,,,
,,5eabf42cdcb6170008b06667,30,male,2024-04-24_11h31.48.090,stockport_simplified,2022.2.4,Win32,60.24096386,661e456ee6de07e70aa9ef7b,6628df8793ba6fae256ab492,,,,,,,,,,,,,,,,,,,,,,,,,,,,,,,,,,,,,,,,,,,,,,,,,,,,,,,,,,,,,,,,,,,,,,,,,,,1,21,81,3,1,A,X,N,o1_image,stimuli/out1.png,stimuli/correct_out1.png,stimuli/out2.png,,,,,,,,,,,,,,,,,,,,,,,,,,,,,,,,,,,,,,
,,5eabf42cdcb6170008b06667,30,male,2024-04-24_11h31.48.090,stockport_simplified,2022.2.4,Win32,60.24096386,661e456ee6de07e70aa9ef7b,6628df8793ba6fae256ab492,,,,,,,,,,,,,,,,,,,,,,,,,,,,,,,,,,,,,,,,,,,,,,,,,,,,,614.3319,615.7814,"[5,7,4,8,2,3,6,1]","[[-0.3,0.2],[0.3,0.2]]","[[0.125,-0.2],[-0.125,-0.2]]",0.131217566,-0.216035635,1,0,0,0.9332,o1_image,615.7817,1,616.2739,616.274,618.263,0,0,0,0,1,,,,,,,,,,,,,,,,,,,,,,,,,,,,,,,,,,,,,,,,,,,,,,,,,,
,,5eabf42cdcb6170008b06667,30,male,2024-04-24_11h31.48.090,stockport_simplified,2022.2.4,Win32,60.24096386,661e456ee6de07e70aa9ef7b,6628df8793ba6fae256ab492,,,,,,,,,,,,,,,,,,,,,,,,,,,,,,,,,,,,,,,,,,,,,,,,,,,,,,,,,,,,,,,,,,,,,,,,,,,1,22,82,50,1,N,M,C,o1_image,stimuli/out1.png,stimuli/correct_out1.png,stimuli/out2.png,,,,,,,,,,,,,,,,,,,,,,,,,,,,,,,,,,,,,,
,,5eabf42cdcb6170008b06667,30,male,2024-04-24_11h31.48.090,stockport_simplified,2022.2.4,Win32,60.24096386,661e456ee6de07e70aa9ef7b,6628df8793ba6fae256ab492,,,,,,,,,,,,,,,,,,,,,,,,,,,,,,,,,,,,,,,,,,,,,,,,,,,,,618.2631,620.3873,"[5,7,4,8,2,3,6,1]","[[0.3,0.2],[-0.3,0.2]]","[[0.125,-0.2],[-0.125,-0.2]]",0.083704551,-0.162583519,1,0,0,1.6151,o1_image,620.3882,1,620.8774,620.8774,622.8749,0,0,0,0,1,,,,,,,,,,,,,,,,,,,,,,,,,,,,,,,,,,,,,,,,,,,,,,,,,,
,,5eabf42cdcb6170008b06667,30,male,2024-04-24_11h31.48.090,stockport_simplified,2022.2.4,Win32,60.24096386,661e456ee6de07e70aa9ef7b,6628df8793ba6fae256ab492,,,,,,,,,,,,,,,,,,,,,,,,,,,,,,,,,,,,,,,,,,,,,,,,,,,,,,,,,,,,,,,,,,,,,,,,,,,1,23,83,9,1,A,Y,N,o1_image,stimuli/out1.png,stimuli/correct_out1.png,stimuli/out2.png,,,,,,,,,,,,,,,,,,,,,,,,,,,,,,,,,,,,,,
,,5eabf42cdcb6170008b06667,30,male,2024-04-24_11h31.48.090,stockport_simplified,2022.2.4,Win32,60.24096386,661e456ee6de07e70aa9ef7b,6628df8793ba6fae256ab492,,,,,,,,,,,,,,,,,,,,,,,,,,,,,,,,,,,,,,,,,,,,,,,,,,,,,622.875,624.6005,"[5,7,4,8,2,3,6,1]","[[0.3,0.2],[-0.3,0.2]]","[[-0.125,-0.2],[0.125,-0.2]]",-0.147921284,-0.183370476,1,0,0,1.209,o1_image,624.601,0,625.09,625.09,627.0823,0,0,0,0,1,,,,,,,,,,,,,,,,,,,,,,,,,,,,,,,,,,,,,,,,,,,,,,,,,,
,,5eabf42cdcb6170008b06667,30,male,2024-04-24_11h31.48.090,stockport_simplified,2022.2.4,Win32,60.24096386,661e456ee6de07e70aa9ef7b,6628df8793ba6fae256ab492,,,,,,,,,,,,,,,,,,,,,,,,,,,,,,,,,,,,,,,,,,,,,,,,,,,,,,,,,,,,,,,,,,,,,,,,,,,1,24,84,47,1,B,Y,N,o2_image,stimuli/out2.png,stimuli/out1.png,stimuli/correct_out2.png,,,,,,,,,,,,,,,,,,,,,,,,,,,,,,,,,,,,,,
,,5eabf42cdcb6170008b06667,30,male,2024-04-24_11h31.48.090,stockport_simplified,2022.2.4,Win32,60.24096386,661e456ee6de07e70aa9ef7b,6628df8793ba6fae256ab492,,,,,,,,,,,,,,,,,,,,,,,,,,,,,,,,,,,,,,,,,,,,,,,,,,,,,627.0828,629.6971,"[5,7,4,8,2,3,6,1]","[[0.3,0.2],[-0.3,0.2]]","[[0.125,-0.2],[-0.125,-0.2]]",0.059948078,-0.141054217,1,0,0,2.0979,o1_image,629.7022,0,630.2039,630.204,632.2024,0,0,0,0,1,,,,,,,,,,,,,,,,,,,,,,,,,,,,,,,,,,,,,,,,,,,,,,,,,,
,,5eabf42cdcb6170008b06667,30,male,2024-04-24_11h31.48.090,stockport_simplified,2022.2.4,Win32,60.24096386,661e456ee6de07e70aa9ef7b,6628df8793ba6fae256ab492,,,,,,,,,,,,,,,,,,,,,,,,,,,,,,,,,,,,,,,,,,,,,,,,,,,,,,,,,,,,,,,,,,,,,,,,,,,1,25,85,41,1,B,X,N,o2_image,stimuli/out2.png,stimuli/out1.png,stimuli/correct_out2.png,,,,,,,,,,,,,,,,,,,,,,,,,,,,,,,,,,,,,,
,,5eabf42cdcb6170008b06667,30,male,2024-04-24_11h31.48.090,stockport_simplified,2022.2.4,Win32,60.24096386,661e456ee6de07e70aa9ef7b,6628df8793ba6fae256ab492,,,,,,,,,,,,,,,,,,,,,,,,,,,,,,,,,,,,,,,,,,,,,,,,,,,,,632.2026,634.9338,"[5,7,4,8,2,3,6,1]","[[-0.3,0.2],[0.3,0.2]]","[[-0.125,-0.2],[0.125,-0.2]]",0.091870824,-0.164068345,1,0,0,2.2222,o2_image,634.9341,0,635.426,635.4261,637.4245,0,0,0,0,1,,,,,,,,,,,,,,,,,,,,,,,,,,,,,,,,,,,,,,,,,,,,,,,,,,
,,5eabf42cdcb6170008b06667,30,male,2024-04-24_11h31.48.090,stockport_simplified,2022.2.4,Win32,60.24096386,661e456ee6de07e70aa9ef7b,6628df8793ba6fae256ab492,,,,,,,,,,,,,,,,,,,,,,,,,,,,,,,,,,,,,,,,,,,,,,,,,,,,,,,,,,,,,,,,,,,,,,,,,,,1,26,86,39,1,A,Y,N,o1_image,stimuli/out1.png,stimuli/correct_out1.png,stimuli/out2.png,,,,,,,,,,,,,,,,,,,,,,,,,,,,,,,,,,,,,,
,,5eabf42cdcb6170008b06667,30,male,2024-04-24_11h31.48.090,stockport_simplified,2022.2.4,Win32,60.24096386,661e456ee6de07e70aa9ef7b,6628df8793ba6fae256ab492,,,,,,,,,,,,,,,,,,,,,,,,,,,,,,,,,,,,,,,,,,,,,,,,,,,,,637.4251,639.4559,"[5,7,4,8,2,3,6,1]","[[-0.3,0.2],[0.3,0.2]]","[[0.125,-0.2],[-0.125,-0.2]]",-0.095953926,-0.123979258,1,0,0,1.5254,o2_image,639.4568,1,639.9559,639.9559,641.9545,0,0,0,0,1,,,,,,,,,,,,,,,,,,,,,,,,,,,,,,,,,,,,,,,,,,,,,,,,,,
,,5eabf42cdcb6170008b06667,30,male,2024-04-24_11h31.48.090,stockport_simplified,2022.2.4,Win32,60.24096386,661e456ee6de07e70aa9ef7b,6628df8793ba6fae256ab492,,,,,,,,,,,,,,,,,,,,,,,,,,,,,,,,,,,,,,,,,,,,,,,,,,,,,,,,,,,,,,,,,,,,,,,,,,,1,27,87,19,1,B,Y,N,o2_image,stimuli/out2.png,stimuli/out1.png,stimuli/correct_out2.png,,,,,,,,,,,,,,,,,,,,,,,,,,,,,,,,,,,,,,
,,5eabf42cdcb6170008b06667,30,male,2024-04-24_11h31.48.090,stockport_simplified,2022.2.4,Win32,60.24096386,661e456ee6de07e70aa9ef7b,6628df8793ba6fae256ab492,,,,,,,,,,,,,,,,,,,,,,,,,,,,,,,,,,,,,,,,,,,,,,,,,,,,,641.9551,643.4364,"[5,7,4,8,2,3,6,1]","[[-0.3,0.2],[0.3,0.2]]","[[-0.125,-0.2],[0.125,-0.2]]",0.121566467,-0.17074986,1,0,0,0.9754,o2_image,643.437,1,643.9433,643.9433,645.9344,0,0,0,0,1,,,,,,,,,,,,,,,,,,,,,,,,,,,,,,,,,,,,,,,,,,,,,,,,,,
,,5eabf42cdcb6170008b06667,30,male,2024-04-24_11h31.48.090,stockport_simplified,2022.2.4,Win32,60.24096386,661e456ee6de07e70aa9ef7b,6628df8793ba6fae256ab492,,,,,,,,,,,,,,,,,,,,,,,,,,,,,,,,,,,,,,,,,,,,,,,,,,,,,,,,,,,,,,,,,,,,,,,,,,,1,28,88,56,1,N,M,D,o2_image,stimuli/out2.png,stimuli/out1.png,stimuli/correct_out2.png,,,,,,,,,,,,,,,,,,,,,,,,,,,,,,,,,,,,,,
,,5eabf42cdcb6170008b06667,30,male,2024-04-24_11h31.48.090,stockport_simplified,2022.2.4,Win32,60.24096386,661e456ee6de07e70aa9ef7b,6628df8793ba6fae256ab492,,,,,,,,,,,,,,,,,,,,,,,,,,,,,,,,,,,,,,,,,,,,,,,,,,,,,645.9349,648.1359,"[5,7,4,8,2,3,6,1]","[[0.3,0.2],[-0.3,0.2]]","[[-0.125,-0.2],[0.125,-0.2]]",0.101521923,-0.12620643,1,0,0,1.6845,o2_image,648.1363,1,648.6327,648.6327,650.6311,0,0,0,0,1,,,,,,,,,,,,,,,,,,,,,,,,,,,,,,,,,,,,,,,,,,,,,,,,,,
,,5eabf42cdcb6170008b06667,30,male,2024-04-24_11h31.48.090,stockport_simplified,2022.2.4,Win32,60.24096386,661e456ee6de07e70aa9ef7b,6628df8793ba6fae256ab492,,,,,,,,,,,,,,,,,,,,,,,,,,,,,,,,,,,,,,,,,,,,,,,,,,,,,,,,,,,,,,,,,,,,,,,,,,,1,29,89,14,1,B,X,N,o2_image,stimuli/out2.png,stimuli/out1.png,stimuli/correct_out2.png,,,,,,,,,,,,,,,,,,,,,,,,,,,,,,,,,,,,,,
,,5eabf42cdcb6170008b06667,30,male,2024-04-24_11h31.48.090,stockport_simplified,2022.2.4,Win32,60.24096386,661e456ee6de07e70aa9ef7b,6628df8793ba6fae256ab492,,,,,,,,,,,,,,,,,,,,,,,,,,,,,,,,,,,,,,,,,,,,,,,,,,,,,650.6315,652.1705,"[5,7,4,8,2,3,6,1]","[[0.3,0.2],[-0.3,0.2]]","[[0.125,-0.2],[-0.125,-0.2]]",-0.078878968,-0.172234618,1,0,0,1.0229,o2_image,652.1708,1,652.6675,652.6676,654.6682,0,0,0,0,1,,,,,,,,,,,,,,,,,,,,,,,,,,,,,,,,,,,,,,,,,,,,,,,,,,
,,5eabf42cdcb6170008b06667,30,male,2024-04-24_11h31.48.090,stockport_simplified,2022.2.4,Win32,60.24096386,661e456ee6de07e70aa9ef7b,6628df8793ba6fae256ab492,,,,,,,,,,,,,,,,,,,,,,,,,,,,,,,,,,,,,,,,,,,,,,,,,,,,,,,,,,,,,,,,,,,,,,,,,,,1,30,90,29,1,N,M,D,o2_image,stimuli/out2.png,stimuli/out1.png,stimuli/correct_out2.png,,,,,,,,,,,,,,,,,,,,,,,,,,,,,,,,,,,,,,
,,5eabf42cdcb6170008b06667,30,male,2024-04-24_11h31.48.090,stockport_simplified,2022.2.4,Win32,60.24096386,661e456ee6de07e70aa9ef7b,6628df8793ba6fae256ab492,,,,,,,,,,,,,,,,,,,,,,,,,,,,,,,,,,,,,,,,,,,,,,,,,,,,,654.6685,656.1268,"[5,7,4,8,2,3,6,1]","[[0.3,0.2],[-0.3,0.2]]","[[0.125,-0.2],[-0.125,-0.2]]",0.107461024,-0.164068345,1,0,0,0.9487,o1_image,656.1275,1,656.6165,656.6165,658.6084,0,0,0,0,1,,,,,,,,,,,,,,,,,,,,,,,,,,,,,,,,,,,,,,,,,,,,,,,,,,
,,5eabf42cdcb6170008b06667,30,male,2024-04-24_11h31.48.090,stockport_simplified,2022.2.4,Win32,60.24096386,661e456ee6de07e70aa9ef7b,6628df8793ba6fae256ab492,,,,,,,,,,,,,,,,,,,,,,,,,,,,,,,,,,,,,,,,,,,,,,,,,,,,,,,,,,,,,,,,,,,,,,,,,,,1,31,91,51,1,N,M,C,o1_image,stimuli/out1.png,stimuli/correct_out1.png,stimuli/out2.png,,,,,,,,,,,,,,,,,,,,,,,,,,,,,,,,,,,,,,
,,5eabf42cdcb6170008b06667,30,male,2024-04-24_11h31.48.090,stockport_simplified,2022.2.4,Win32,60.24096386,661e456ee6de07e70aa9ef7b,6628df8793ba6fae256ab492,,,,,,,,,,,,,,,,,,,,,,,,,,,,,,,,,,,,,,,,,,,,,,,,,,,,,658.6089,661.4778,"[5,7,4,8,2,3,6,1]","[[-0.3,0.2],[0.3,0.2]]","[[-0.125,-0.2],[0.125,-0.2]]",-0.062546354,-0.155902004,1,0,0,2.3632,o1_image,661.4829,1,661.9795,661.9795,663.9818,0,0,0,0,1,,,,,,,,,,,,,,,,,,,,,,,,,,,,,,,,,,,,,,,,,,,,,,,,,,
,,5eabf42cdcb6170008b06667,30,male,2024-04-24_11h31.48.090,stockport_simplified,2022.2.4,Win32,60.24096386,661e456ee6de07e70aa9ef7b,6628df8793ba6fae256ab492,,,,,,,,,,,,,,,,,,,,,,,,,,,,,,,,,,,,,,,,,,,,,,,,,,,,,,,,,,,,,,,,,,,,,,,,,,,1,32,92,1,1,A,X,N,o1_image,stimuli/out1.png,stimuli/correct_out1.png,stimuli/out2.png,,,,,,,,,,,,,,,,,,,,,,,,,,,,,,,,,,,,,,
,,5eabf42cdcb6170008b06667,30,male,2024-04-24_11h31.48.090,stockport_simplified,2022.2.4,Win32,60.24096386,661e456ee6de07e70aa9ef7b,6628df8793ba6fae256ab492,,,,,,,,,,,,,,,,,,,,,,,,,,,,,,,,,,,,,,,,,,,,,,,,,,,,,663.9819,666.5428,"[5,7,4,8,2,3,6,1]","[[0.3,0.2],[-0.3,0.2]]","[[0.125,-0.2],[-0.125,-0.2]]",0.273014196,-0.177431374,1,0,0,0.5326,o2_image,666.5431,0,667.0354,667.0355,669.034,0,0,0,0,1,,,,,,,,,,,,,,,,,,,,,,,,,,,,,,,,,,,,,,,,,,,,,,,,,,
,,5eabf42cdcb6170008b06667,30,male,2024-04-24_11h31.48.090,stockport_simplified,2022.2.4,Win32,60.24096386,661e456ee6de07e70aa9ef7b,6628df8793ba6fae256ab492,,,,,,,,,,,,,,,,,,,,,,,,,,,,,,,,,,,,,,,,,,,,,,,,,,,,,,,,,,,,,,,,,,,,,,,,,,,1,33,93,4,1,A,X,N,o1_image,stimuli/out1.png,stimuli/correct_out1.png,stimuli/out2.png,,,,,,,,,,,,,,,,,,,,,,,,,,,,,,,,,,,,,,
,,5eabf42cdcb6170008b06667,30,male,2024-04-24_11h31.48.090,stockport_simplified,2022.2.4,Win32,60.24096386,661e456ee6de07e70aa9ef7b,6628df8793ba6fae256ab492,,,,,,,,,,,,,,,,,,,,,,,,,,,,,,,,,,,,,,,,,,,,,,,,,,,,,669.0346,670.4374,"[5,7,4,8,2,3,6,1]","[[0.3,0.2],[-0.3,0.2]]","[[-0.125,-0.2],[0.125,-0.2]]",-0.129361499,-0.169265033,1,0,0,0.8987,o1_image,670.4377,1,670.9323,670.9325,672.9355,0,0,0,0,1,,,,,,,,,,,,,,,,,,,,,,,,,,,,,,,,,,,,,,,,,,,,,,,,,,
,,5eabf42cdcb6170008b06667,30,male,2024-04-24_11h31.48.090,stockport_simplified,2022.2.4,Win32,60.24096386,661e456ee6de07e70aa9ef7b,6628df8793ba6fae256ab492,,,,,,,,,,,,,,,,,,,,,,,,,,,,,,,,,,,,,,,,,,,,,,,,,,,,,,,,,,,,,,,,,,,,,,,,,,,1,34,94,21,1,N,M,C,o1_image,stimuli/out1.png,stimuli/correct_out1.png,stimuli/out2.png,,,,,,,,,,,,,,,,,,,,,,,,,,,,,,,,,,,,,,
,,5eabf42cdcb6170008b06667,30,male,2024-04-24_11h31.48.090,stockport_simplified,2022.2.4,Win32,60.24096386,661e456ee6de07e70aa9ef7b,6628df8793ba6fae256ab492,,,,,,,,,,,,,,,,,,,,,,,,,,,,,,,,,,,,,,,,,,,,,,,,,,,,,672.9356,675.1202,"[5,7,4,8,2,3,6,1]","[[0.3,0.2],[-0.3,0.2]]","[[0.125,-0.2],[-0.125,-0.2]]",0.126763223,-0.178173719,1,0,0,1.6687,o1_image,675.1205,0,675.6122,675.6122,677.6151,0,0,0,0,1,,,,,,,,,,,,,,,,,,,,,,,,,,,,,,,,,,,,,,,,,,,,,,,,,,
,,5eabf42cdcb6170008b06667,30,male,2024-04-24_11h31.48.090,stockport_simplified,2022.2.4,Win32,60.24096386,661e456ee6de07e70aa9ef7b,6628df8793ba6fae256ab492,,,,,,,,,,,,,,,,,,,,,,,,,,,,,,,,,,,,,,,,,,,,,,,,,,,,,,,,,,,,,,,,,,,,,,,,,,,1,35,95,12,1,B,X,N,o2_image,stimuli/out2.png,stimuli/out1.png,stimuli/correct_out2.png,,,,,,,,,,,,,,,,,,,,,,,,,,,,,,,,,,,,,,
,,5eabf42cdcb6170008b06667,30,male,2024-04-24_11h31.48.090,stockport_simplified,2022.2.4,Win32,60.24096386,661e456ee6de07e70aa9ef7b,6628df8793ba6fae256ab492,,,,,,,,,,,,,,,,,,,,,,,,,,,,,,,,,,,,,,,,,,,,,,,,,,,,,677.6153,679.8255,"[5,7,4,8,2,3,6,1]","[[0.3,0.2],[-0.3,0.2]]","[[-0.125,-0.2],[0.125,-0.2]]",-0.078878968,-0.189309577,1,0,0,1.6977,o1_image,679.8261,1,680.3253,680.3254,682.3238,0,0,0,0,1,,,,,,,,,,,,,,,,,,,,,,,,,,,,,,,,,,,,,,,,,,,,,,,,,,
,,5eabf42cdcb6170008b06667,30,male,2024-04-24_11h31.48.090,stockport_simplified,2022.2.4,Win32,60.24096386,661e456ee6de07e70aa9ef7b,6628df8793ba6fae256ab492,,,,,,,,,,,,,,,,,,,,,,,,,,,,,,,,,,,,,,,,,,,,,,,,,,,,,,,,,,,,,,,,,,,,,,,,,,,1,36,96,53,1,N,M,C,o1_image,stimuli/out1.png,stimuli/correct_out1.png,stimuli/out2.png,,,,,,,,,,,,,,,,,,,,,,,,,,,,,,,,,,,,,,
,,5eabf42cdcb6170008b06667,30,male,2024-04-24_11h31.48.090,stockport_simplified,2022.2.4,Win32,60.24096386,661e456ee6de07e70aa9ef7b,6628df8793ba6fae256ab492,,,,,,,,,,,,,,,,,,,,,,,,,,,,,,,,,,,,,,,,,,,,,,,,,,,,,682.3242,684.6552,"[5,7,4,8,2,3,6,1]","[[-0.3,0.2],[0.3,0.2]]","[[-0.125,-0.2],[0.125,-0.2]]",-0.121937639,-0.165553104,1,0,0,1.8147,o1_image,684.6561,1,685.1548,685.1548,687.1432,0,0,0,0,1,,,,,,,,,,,,,,,,,,,,,,,,,,,,,,,,,,,,,,,,,,,,,,,,,,
,,5eabf42cdcb6170008b06667,30,male,2024-04-24_11h31.48.090,stockport_simplified,2022.2.4,Win32,60.24096386,661e456ee6de07e70aa9ef7b,6628df8793ba6fae256ab492,,,,,,,,,,,,,,,,,,,,,,,,,,,,,,,,,,,,,,,,,,,,,,,,,,,,,,,,,,,,,,,,,,,,,,,,,,,1,37,97,33,1,A,X,N,o1_image,stimuli/out1.png,stimuli/correct_out1.png,stimuli/out2.png,,,,,,,,,,,,,,,,,,,,,,,,,,,,,,,,,,,,,,
,,5eabf42cdcb6170008b06667,30,male,2024-04-24_11h31.48.090,stockport_simplified,2022.2.4,Win32,60.24096386,661e456ee6de07e70aa9ef7b,6628df8793ba6fae256ab492,,,,,,,,,,,,,,,,,,,,,,,,,,,,,,,,,,,,,,,,,,,,,,,,,,,,,687.1435,689.4398,"[5,7,4,8,2,3,6,1]","[[-0.3,0.2],[0.3,0.2]]","[[-0.125,-0.2],[0.125,-0.2]]",-0.231069042,-0.184112889,1,0,0,1.4472,o1_image,689.44,1,689.9343,689.9344,691.938,0,0,0,0,1,,,,,,,,,,,,,,,,,,,,,,,,,,,,,,,,,,,,,,,,,,,,,,,,,,
,,5eabf42cdcb6170008b06667,30,male,2024-04-24_11h31.48.090,stockport_simplified,2022.2.4,Win32,60.24096386,661e456ee6de07e70aa9ef7b,6628df8793ba6fae256ab492,,,,,,,,,,,,,,,,,,,,,,,,,,,,,,,,,,,,,,,,,,,,,,,,,,,,,,,,,,,,,,,,,,,,,,,,,,,1,38,98,32,1,A,X,N,o1_image,stimuli/out1.png,stimuli/correct_out1.png,stimuli/out2.png,,,,,,,,,,,,,,,,,,,,,,,,,,,,,,,,,,,,,,
,,5eabf42cdcb6170008b06667,30,male,2024-04-24_11h31.48.090,stockport_simplified,2022.2.4,Win32,60.24096386,661e456ee6de07e70aa9ef7b,6628df8793ba6fae256ab492,,,,,,,,,,,,,,,,,,,,,,,,,,,,,,,,,,,,,,,,,,,,,,,,,,,,,691.9383,694.2978,"[5,7,4,8,2,3,6,1]","[[0.3,0.2],[-0.3,0.2]]","[[0.125,-0.2],[-0.125,-0.2]]",-0.159799555,-0.169265033,1,0,0,1.8481,o2_image,694.2984,0,694.8046,694.8047,696.7962,0,0,0,0,1,,,,,,,,,,,,,,,,,,,,,,,,,,,,,,,,,,,,,,,,,,,,,,,,,,
,,5eabf42cdcb6170008b06667,30,male,2024-04-24_11h31.48.090,stockport_simplified,2022.2.4,Win32,60.24096386,661e456ee6de07e70aa9ef7b,6628df8793ba6fae256ab492,,,,,,,,,,,,,,,,,,,,,,,,,,,,,,,,,,,,,,,,,,,,,,,,,,,,,,,,,,,,,,,,,,,,,,,,,,,1,39,99,8,1,A,Y,N,o1_image,stimuli/out1.png,stimuli/correct_out1.png,stimuli/out2.png,,,,,,,,,,,,,,,,,,,,,,,,,,,,,,,,,,,,,,
,,5eabf42cdcb6170008b06667,30,male,2024-04-24_11h31.48.090,stockport_simplified,2022.2.4,Win32,60.24096386,661e456ee6de07e70aa9ef7b,6628df8793ba6fae256ab492,,,,,,,,,,,,,,,,,,,,,,,,,,,,,,,,,,,,,,,,,,,,,,,,,,,,,696.7969,699.834,"[5,7,4,8,2,3,6,1]","[[-0.3,0.2],[0.3,0.2]]","[[0.125,-0.2],[-0.125,-0.2]]",-0.149406042,-0.161098761,1,0,0,2.5357,o2_image,699.8391,1,700.343,700.343,702.3416,0,0,0,0,1,,,,,,,,,,,,,,,,,,,,,,,,,,,,,,,,,,,,,,,,,,,,,,,,,,
,,5eabf42cdcb6170008b06667,30,male,2024-04-24_11h31.48.090,stockport_simplified,2022.2.4,Win32,60.24096386,661e456ee6de07e70aa9ef7b,6628df8793ba6fae256ab492,,,,,,,,,,,,,,,,,,,,,,,,,,,,,,,,,,,,,,,,,,,,,,,,,,,,,,,,,,,,,,,,,,,,,,,,,,,1,40,100,26,1,N,M,D,o2_image,stimuli/out2.png,stimuli/out1.png,stimuli/correct_out2.png,,,,,,,,,,,,,,,,,,,,,,,,,,,,,,,,,,,,,,
,,5eabf42cdcb6170008b06667,30,male,2024-04-24_11h31.48.090,stockport_simplified,2022.2.4,Win32,60.24096386,661e456ee6de07e70aa9ef7b,6628df8793ba6fae256ab492,,,,,,,,,,,,,,,,,,,,,,,,,,,,,,,,,,,,,,,,,,,,,,,,,,,,,702.3418,704.1237,"[5,7,4,8,2,3,6,1]","[[-0.3,0.2],[0.3,0.2]]","[[-0.125,-0.2],[0.125,-0.2]]",0.146065353,-0.196733504,1,0,0,1.2654,o2_image,704.1241,1,704.6233,704.6233,706.6219,0,0,0,0,1,,,,,,,,,,,,,,,,,,,,,,,,,,,,,,,,,,,,,,,,,,,,,,,,,,
,,5eabf42cdcb6170008b06667,30,male,2024-04-24_11h31.48.090,stockport_simplified,2022.2.4,Win32,60.24096386,661e456ee6de07e70aa9ef7b,6628df8793ba6fae256ab492,,,,,,,,,,,,,,,,,,,,,,,,,,,,,,,,,,,,,,,,,,,,,,,,,,,,,,,,,,,,,,,,,,,,,,,,,,,1,41,101,43,1,B,X,N,o2_image,stimuli/out2.png,stimuli/out1.png,stimuli/correct_out2.png,,,,,,,,,,,,,,,,,,,,,,,,,,,,,,,,,,,,,,
,,5eabf42cdcb6170008b06667,30,male,2024-04-24_11h31.48.090,stockport_simplified,2022.2.4,Win32,60.24096386,661e456ee6de07e70aa9ef7b,6628df8793ba6fae256ab492,,,,,,,,,,,,,,,,,,,,,,,,,,,,,,,,,,,,,,,,,,,,,,,,,,,,,706.6221,709.1199,"[5,7,4,8,2,3,6,1]","[[0.3,0.2],[-0.3,0.2]]","[[0.125,-0.2],[-0.125,-0.2]]",-0.120452813,-0.18634006,1,0,0,1.9815,o2_image,709.1202,1,709.6195,709.6195,711.618,0,0,0,0,1,,,,,,,,,,,,,,,,,,,,,,,,,,,,,,,,,,,,,,,,,,,,,,,,,,
,,5eabf42cdcb6170008b06667,30,male,2024-04-24_11h31.48.090,stockport_simplified,2022.2.4,Win32,60.24096386,661e456ee6de07e70aa9ef7b,6628df8793ba6fae256ab492,,,,,,,,,,,,,,,,,,,,,,,,,,,,,,,,,,,,,,,,,,,,,,,,,,,,,,,,,,,,,,,,,,,,,,,,,,,1,42,102,17,1,B,Y,N,o2_image,stimuli/out2.png,stimuli/out1.png,stimuli/correct_out2.png,,,,,,,,,,,,,,,,,,,,,,,,,,,,,,,,,,,,,,
,,5eabf42cdcb6170008b06667,30,male,2024-04-24_11h31.48.090,stockport_simplified,2022.2.4,Win32,60.24096386,661e456ee6de07e70aa9ef7b,6628df8793ba6fae256ab492,,,,,,,,,,,,,,,,,,,,,,,,,,,,,,,,,,,,,,,,,,,,,,,,,,,,,711.6182,713.7995,"[5,7,4,8,2,3,6,1]","[[-0.3,0.2],[0.3,0.2]]","[[-0.125,-0.2],[0.125,-0.2]]",-0.144951699,-0.187824818,1,0,0,1.6653,o1_image,713.7998,0,714.299,714.2991,716.2978,0,0,0,0,1,,,,,,,,,,,,,,,,,,,,,,,,,,,,,,,,,,,,,,,,,,,,,,,,,,
,,5eabf42cdcb6170008b06667,30,male,2024-04-24_11h31.48.090,stockport_simplified,2022.2.4,Win32,60.24096386,661e456ee6de07e70aa9ef7b,6628df8793ba6fae256ab492,,,,,,,,,,,,,,,,,,,,,,,,,,,,,,,,,,,,,,,,,,,,,,,,,,,,,,,,,,,,,,,,,,,,,,,,,,,1,43,103,11,1,B,X,N,o2_image,stimuli/out2.png,stimuli/out1.png,stimuli/correct_out2.png,,,,,,,,,,,,,,,,,,,,,,,,,,,,,,,,,,,,,,
,,5eabf42cdcb6170008b06667,30,male,2024-04-24_11h31.48.090,stockport_simplified,2022.2.4,Win32,60.24096386,661e456ee6de07e70aa9ef7b,6628df8793ba6fae256ab492,,,,,,,,,,,,,,,,,,,,,,,,,,,,,,,,,,,,,,,,,,,,,,,,,,,,,716.2981,719.0956,"[5,7,4,8,2,3,6,1]","[[-0.3,0.2],[0.3,0.2]]","[[-0.125,-0.2],[0.125,-0.2]]",0.118596882,-0.160356347,1,0,0,2.2814,o2_image,719.0961,0,719.5952,719.5952,721.5937,0,0,0,0,1,,,,,,,,,,,,,,,,,,,,,,,,,,,,,,,,,,,,,,,,,,,,,,,,,,
,,5eabf42cdcb6170008b06667,30,male,2024-04-24_11h31.48.090,stockport_simplified,2022.2.4,Win32,60.24096386,661e456ee6de07e70aa9ef7b,6628df8793ba6fae256ab492,,,,,,,,,,,,,,,,,,,,,,,,,,,,,,,,,,,,,,,,,,,,,,,,,,,,,,,,,,,,,,,,,,,,,,,,,,,1,44,104,6,1,A,Y,N,o1_image,stimuli/out1.png,stimuli/correct_out1.png,stimuli/out2.png,,,,,,,,,,,,,,,,,,,,,,,,,,,,,,,,,,,,,,
,,5eabf42cdcb6170008b06667,30,male,2024-04-24_11h31.48.090,stockport_simplified,2022.2.4,Win32,60.24096386,661e456ee6de07e70aa9ef7b,6628df8793ba6fae256ab492,,,,,,,,,,,,,,,,,,,,,,,,,,,,,,,,,,,,,,,,,,,,,,,,,,,,,721.594,723.892,"[5,7,4,8,2,3,6,1]","[[-0.3,0.2],[0.3,0.2]]","[[-0.125,-0.2],[0.125,-0.2]]",-0.133815842,-0.14179663,1,0,0,1.7817,o1_image,723.8973,1,724.3915,724.3915,726.3901,0,0,0,0,1,,,,,,,,,,,,,,,,,,,,,,,,,,,,,,,,,,,,,,,,,,,,,,,,,,
,,5eabf42cdcb6170008b06667,30,male,2024-04-24_11h31.48.090,stockport_simplified,2022.2.4,Win32,60.24096386,661e456ee6de07e70aa9ef7b,6628df8793ba6fae256ab492,,,,,,,,,,,,,,,,,,,,,,,,,,,,,,,,,,,,,,,,,,,,,,,,,,,,,,,,,,,,,,,,,,,,,,,,,,,1,45,105,24,1,N,M,C,o1_image,stimuli/out1.png,stimuli/correct_out1.png,stimuli/out2.png,,,,,,,,,,,,,,,,,,,,,,,,,,,,,,,,,,,,,,
,,5eabf42cdcb6170008b06667,30,male,2024-04-24_11h31.48.090,stockport_simplified,2022.2.4,Win32,60.24096386,661e456ee6de07e70aa9ef7b,6628df8793ba6fae256ab492,,,,,,,,,,,,,,,,,,,,,,,,,,,,,,,,,,,,,,,,,,,,,,,,,,,,,726.3903,728.0719,"[5,7,4,8,2,3,6,1]","[[0.3,0.2],[-0.3,0.2]]","[[0.125,-0.2],[-0.125,-0.2]]",-0.120452813,-0.132145531,1,0,0,1.1656,o2_image,728.0723,0,728.5715,728.5715,730.5704,0,0,0,0,1,,,,,,,,,,,,,,,,,,,,,,,,,,,,,,,,,,,,,,,,,,,,,,,,,,
,,5eabf42cdcb6170008b06667,30,male,2024-04-24_11h31.48.090,stockport_simplified,2022.2.4,Win32,60.24096386,661e456ee6de07e70aa9ef7b,6628df8793ba6fae256ab492,,,,,,,,,,,,,,,,,,,,,,,,,,,,,,,,,,,,,,,,,,,,,,,,,,,,,,,,,,,,,,,,,,,,,,,,,,,1,46,106,7,1,A,Y,N,o1_image,stimuli/out1.png,stimuli/correct_out1.png,stimuli/out2.png,,,,,,,,,,,,,,,,,,,,,,,,,,,,,,,,,,,,,,
,,5eabf42cdcb6170008b06667,30,male,2024-04-24_11h31.48.090,stockport_simplified,2022.2.4,Win32,60.24096386,661e456ee6de07e70aa9ef7b,6628df8793ba6fae256ab492,,,,,,,,,,,,,,,,,,,,,,,,,,,,,,,,,,,,,,,,,,,,,,,,,,,,,730.5706,732.7518,"[5,7,4,8,2,3,6,1]","[[-0.3,0.2],[0.3,0.2]]","[[0.125,-0.2],[-0.125,-0.2]]",0.113400194,-0.135115116,1,0,0,1.6652,o1_image,732.7522,1,733.2518,733.2518,735.2501,0,0,0,0,1,,,,,,,,,,,,,,,,,,,,,,,,,,,,,,,,,,,,,,,,,,,,,,,,,,
,,5eabf42cdcb6170008b06667,30,male,2024-04-24_11h31.48.090,stockport_simplified,2022.2.4,Win32,60.24096386,661e456ee6de07e70aa9ef7b,6628df8793ba6fae256ab492,,,,,,,,,,,,,,,,,,,,,,,,,,,,,,,,,,,,,,,,,,,,,,,,,,,,,,,,,,,,,,,,,,,,,,,,,,,1,47,107,5,1,A,Y,N,o1_image,stimuli/out1.png,stimuli/correct_out1.png,stimuli/out2.png,,,,,,,,,,,,,,,,,,,,,,,,,,,,,,,,,,,,,,
,,5eabf42cdcb6170008b06667,30,male,2024-04-24_11h31.48.090,stockport_simplified,2022.2.4,Win32,60.24096386,661e456ee6de07e70aa9ef7b,6628df8793ba6fae256ab492,,,,,,,,,,,,,,,,,,,,,,,,,,,,,,,,,,,,,,,,,,,,,,,,,,,,,735.2504,737.0318,"[5,7,4,8,2,3,6,1]","[[-0.3,0.2],[0.3,0.2]]","[[-0.125,-0.2],[0.125,-0.2]]",-0.082590898,-0.167037862,1,0,0,1.2652,o1_image,737.0322,1,737.5318,737.5318,739.53,0,0,0,0,1,,,,,,,,,,,,,,,,,,,,,,,,,,,,,,,,,,,,,,,,,,,,,,,,,,
,,5eabf42cdcb6170008b06667,30,male,2024-04-24_11h31.48.090,stockport_simplified,2022.2.4,Win32,60.24096386,661e456ee6de07e70aa9ef7b,6628df8793ba6fae256ab492,,,,,,,,,,,,,,,,,,,,,,,,,,,,,,,,,,,,,,,,,,,,,,,,,,,,,,,,,,,,,,,,,,,,,,,,,,,1,48,108,30,1,A,X,N,o1_image,stimuli/out1.png,stimuli/correct_out1.png,stimuli/out2.png,,,,,,,,,,,,,,,,,,,,,,,,,,,,,,,,,,,,,,
,,5eabf42cdcb6170008b06667,30,male,2024-04-24_11h31.48.090,stockport_simplified,2022.2.4,Win32,60.24096386,661e456ee6de07e70aa9ef7b,6628df8793ba6fae256ab492,,,,,,,,,,,,,,,,,,,,,,,,,,,,,,,,,,,,,,,,,,,,,,,,,,,,,739.5303,741.0289,"[5,7,4,8,2,3,6,1]","[[0.3,0.2],[-0.3,0.2]]","[[0.125,-0.2],[-0.125,-0.2]]",-0.081106139,-0.158871589,1,0,0,0.9822,o2_image,741.0293,1,741.5288,741.5288,743.5269,0,0,0,0,1,,,,,,,,,,,,,,,,,,,,,,,,,,,,,,,,,,,,,,,,,,,,,,,,,,
,,5eabf42cdcb6170008b06667,30,male,2024-04-24_11h31.48.090,stockport_simplified,2022.2.4,Win32,60.24096386,661e456ee6de07e70aa9ef7b,6628df8793ba6fae256ab492,,,,,,,,,,,,,,,,,,,,,,,,,,,,,,,,,,,,,,,,,,,,,,,,,,,,,,,,,,,,,,,,,,,,,,,,,,,1,49,109,45,1,B,Y,N,o2_image,stimuli/out2.png,stimuli/out1.png,stimuli/correct_out2.png,,,,,,,,,,,,,,,,,,,,,,,,,,,,,,,,,,,,,,
,,5eabf42cdcb6170008b06667,30,male,2024-04-24_11h31.48.090,stockport_simplified,2022.2.4,Win32,60.24096386,661e456ee6de07e70aa9ef7b,6628df8793ba6fae256ab492,,,,,,,,,,,,,,,,,,,,,,,,,,,,,,,,,,,,,,,,,,,,,,,,,,,,,743.5272,745.2758,"[5,7,4,8,2,3,6,1]","[[-0.3,0.2],[0.3,0.2]]","[[0.125,-0.2],[-0.125,-0.2]]",0.09335565,-0.157386831,1,0,0,1.2323,o1_image,745.2762,0,745.7754,745.7754,747.7738,0,0,0,0,1,,,,,,,,,,,,,,,,,,,,,,,,,,,,,,,,,,,,,,,,,,,,,,,,,,
,,5eabf42cdcb6170008b06667,30,male,2024-04-24_11h31.48.090,stockport_simplified,2022.2.4,Win32,60.24096386,661e456ee6de07e70aa9ef7b,6628df8793ba6fae256ab492,,,,,,,,,,,,,,,,,,,,,,,,,,,,,,,,,,,,,,,,,,,,,,,,,,,,,,,,,,,,,,,,,,,,,,,,,,,1,50,110,10,1,B,X,N,o2_image,stimuli/out2.png,stimuli/out1.png,stimuli/correct_out2.png,,,,,,,,,,,,,,,,,,,,,,,,,,,,,,,,,,,,,,
,,5eabf42cdcb6170008b06667,30,male,2024-04-24_11h31.48.090,stockport_simplified,2022.2.4,Win32,60.24096386,661e456ee6de07e70aa9ef7b,6628df8793ba6fae256ab492,,,,,,,,,,,,,,,,,,,,,,,,,,,,,,,,,,,,,,,,,,,,,,,,,,,,,747.7741,749.3559,"[5,7,4,8,2,3,6,1]","[[-0.3,0.2],[0.3,0.2]]","[[-0.125,-0.2],[0.125,-0.2]]",0.088158894,-0.179658546,1,0,0,1.0655,o2_image,749.3562,1,749.8558,749.8558,752.2202,0,0,0,0,1,,,,,,,,,,,,,,,,,,,,,,,,,,,,,,,,,,,,,,,,,,,,,,,,,,
,,5eabf42cdcb6170008b06667,30,male,2024-04-24_11h31.48.090,stockport_simplified,2022.2.4,Win32,60.24096386,661e456ee6de07e70aa9ef7b,6628df8793ba6fae256ab492,,,,,,,,,,,,,,,,,,,,,,,,,,,,,,,,,,,,,,,,,,,,,,,,,,,,,,,,,,,,,,,,,,,,,,,,,,,1,51,111,25,1,N,M,D,o2_image,stimuli/out2.png,stimuli/out1.png,stimuli/correct_out2.png,,,,,,,,,,,,,,,,,,,,,,,,,,,,,,,,,,,,,,
,,5eabf42cdcb6170008b06667,30,male,2024-04-24_11h31.48.090,stockport_simplified,2022.2.4,Win32,60.24096386,661e456ee6de07e70aa9ef7b,6628df8793ba6fae256ab492,,,,,,,,,,,,,,,,,,,,,,,,,,,,,,,,,,,,,,,,,,,,,,,,,,,,,752.2205,755.1847,"[5,7,4,8,2,3,6,1]","[[-0.3,0.2],[0.3,0.2]]","[[0.125,-0.2],[-0.125,-0.2]]",-0.101893096,-0.128433601,1,0,0,2.4478,o2_image,755.185,1,755.6843,755.6843,757.683,0,0,0,0,1,,,,,,,,,,,,,,,,,,,,,,,,,,,,,,,,,,,,,,,,,,,,,,,,,,
,,5eabf42cdcb6170008b06667,30,male,2024-04-24_11h31.48.090,stockport_simplified,2022.2.4,Win32,60.24096386,661e456ee6de07e70aa9ef7b,6628df8793ba6fae256ab492,,,,,,,,,,,,,,,,,,,,,,,,,,,,,,,,,,,,,,,,,,,,,,,,,,,,,,,,,,,,,,,,,,,,,,,,,,,1,52,112,18,1,B,Y,N,o2_image,stimuli/out2.png,stimuli/out1.png,stimuli/correct_out2.png,,,,,,,,,,,,,,,,,,,,,,,,,,,,,,,,,,,,,,
,,5eabf42cdcb6170008b06667,30,male,2024-04-24_11h31.48.090,stockport_simplified,2022.2.4,Win32,60.24096386,661e456ee6de07e70aa9ef7b,6628df8793ba6fae256ab492,,,,,,,,,,,,,,,,,,,,,,,,,,,,,,,,,,,,,,,,,,,,,,,,,,,,,757.6832,759.4481,"[5,7,4,8,2,3,6,1]","[[-0.3,0.2],[0.3,0.2]]","[[0.125,-0.2],[-0.125,-0.2]]",-0.127134327,-0.148478145,1,0,0,1.2485,o2_image,759.4484,1,759.9479,759.9479,761.9464,0,0,0,0,1,,,,,,,,,,,,,,,,,,,,,,,,,,,,,,,,,,,,,,,,,,,,,,,,,,
,,5eabf42cdcb6170008b06667,30,male,2024-04-24_11h31.48.090,stockport_simplified,2022.2.4,Win32,60.24096386,661e456ee6de07e70aa9ef7b,6628df8793ba6fae256ab492,,,,,,,,,,,,,,,,,,,,,,,,,,,,,,,,,,,,,,,,,,,,,,,,,,,,,,,,,,,,,,,,,,,,,,,,,,,1,53,113,55,1,N,M,D,o2_image,stimuli/out2.png,stimuli/out1.png,stimuli/correct_out2.png,,,,,,,,,,,,,,,,,,,,,,,,,,,,,,,,,,,,,,
,,5eabf42cdcb6170008b06667,30,male,2024-04-24_11h31.48.090,stockport_simplified,2022.2.4,Win32,60.24096386,661e456ee6de07e70aa9ef7b,6628df8793ba6fae256ab492,,,,,,,,,,,,,,,,,,,,,,,,,,,,,,,,,,,,,,,,,,,,,,,,,,,,,761.947,763.7947,"[5,7,4,8,2,3,6,1]","[[-0.3,0.2],[0.3,0.2]]","[[-0.125,-0.2],[0.125,-0.2]]",-0.136785426,-0.172977031,1,0,0,1.3317,o1_image,763.795,1,764.2945,764.2945,766.2931,0,0,0,0,1,,,,,,,,,,,,,,,,,,,,,,,,,,,,,,,,,,,,,,,,,,,,,,,,,,
,,5eabf42cdcb6170008b06667,30,male,2024-04-24_11h31.48.090,stockport_simplified,2022.2.4,Win32,60.24096386,661e456ee6de07e70aa9ef7b,6628df8793ba6fae256ab492,,,,,,,,,,,,,,,,,,,,,,,,,,,,,,,,,,,,,,,,,,,,,,,,,,,,,,,,,,,,,,,,,,,,,,,,,,,1,54,114,34,1,A,X,N,o1_image,stimuli/out1.png,stimuli/correct_out1.png,stimuli/out2.png,,,,,,,,,,,,,,,,,,,,,,,,,,,,,,,,,,,,,,
,,5eabf42cdcb6170008b06667,30,male,2024-04-24_11h31.48.090,stockport_simplified,2022.2.4,Win32,60.24096386,661e456ee6de07e70aa9ef7b,6628df8793ba6fae256ab492,,,,,,,,,,,,,,,,,,,,,,,,,,,,,,,,,,,,,,,,,,,,,,,,,,,,,766.2933,768.1916,"[5,7,4,8,2,3,6,1]","[[0.3,0.2],[-0.3,0.2]]","[[0.125,-0.2],[-0.125,-0.2]]",0.044357878,-0.152932488,1,0,0,1.0489,o1_image,768.192,1,768.6913,768.6913,770.6898,0,0,0,0,1,,,,,,,,,,,,,,,,,,,,,,,,,,,,,,,,,,,,,,,,,,,,,,,,,,
,,5eabf42cdcb6170008b06667,30,male,2024-04-24_11h31.48.090,stockport_simplified,2022.2.4,Win32,60.24096386,661e456ee6de07e70aa9ef7b,6628df8793ba6fae256ab492,,,,,,,,,,,,,,,,,,,,,,,,,,,,,,,,,,,,,,,,,,,,,,,,,,,,,,,,,,,,,,,,,,,,,,,,,,,1,55,115,22,1,N,M,C,o1_image,stimuli/out1.png,stimuli/correct_out1.png,stimuli/out2.png,,,,,,,,,,,,,,,,,,,,,,,,,,,,,,,,,,,,,,
