counterbalance_2.started,counterbalance_2.stopped,participant,age,gender,date,expName,psychopyVersion,OS,frameRate,STUDY_ID,SESSION_ID,information_2.started,information_2.stopped,information_loop.thisRepN,information_loop.thisTrialN,information_loop.thisN,information_loop.thisIndex,information_loop.ran,information,consent_2.started,consent_2.stopped,slider_1.response,slider_2.response,slider_3.response,slider_4.response,slider_5.response,slider_6.response,instructions.started,instructions.stopped,task1_instr.thisRepN,task1_instr.thisTrialN,task1_instr.thisN,task1_instr.thisIndex,task1_instr.ran,task1,comprehension1_2.started,comprehension1_2.stopped,comp1_mouse.x,comp1_mouse.y,comp1_mouse.leftButton,comp1_mouse.midButton,comp1_mouse.rightButton,comp1_mouse.time,comp1_mouse.clicked_name,cue_o__trial_2.started,cue_o__trial_2.stopped,order,cue_order,out_order,cue_o_mouse.x,cue_o_mouse.y,cue_o_mouse.leftButton,cue_o_mouse.midButton,cue_o_mouse.rightButton,cue_o_mouse.time,cue_o_mouse.clicked_name,cue_selection_2.started,correct_answer,cue_selection_2.stopped,feedback_2.started,feedback_2.stopped,feedback_loop.thisRepN,feedback_loop.thisTrialN,feedback_loop.thisN,feedback_loop.thisIndex,feedback_loop.ran,stage1_trials.thisRepN,stage1_trials.thisTrialN,stage1_trials.thisN,stage1_trials.thisIndex,stage1_trials.ran,cue1,cue2,cue3,outcome,correct_out,o1_feedback,o2_feedback,stage2_feedback_loop.thisRepN,stage2_feedback_loop.thisTrialN,stage2_feedback_loop.thisN,stage2_feedback_loop.thisIndex,stage2_feedback_loop.ran,stage2_trials.thisRepN,stage2_trials.thisTrialN,stage2_trials.thisN,stage2_trials.thisIndex,stage2_trials.ran,stage3_feedback_loop.thisRepN,stage3_feedback_loop.thisTrialN,stage3_feedback_loop.thisN,stage3_feedback_loop.thisIndex,stage3_feedback_loop.ran,stage3_trials.thisRepN,stage3_trials.thisTrialN,stage3_trials.thisN,stage3_trials.thisIndex,stage3_trials.ran,debrief_2.started,debrief_2.stopped,debrief_loop.thisRepN,debrief_loop.thisTrialN,debrief_loop.thisN,debrief_loop.thisIndex,debrief_loop.ran,debrief_img,compr1_completed.thisRepN,compr1_completed.thisTrialN,compr1_completed.thisN,compr1_completed.thisIndex,compr1_completed.ran,consent_loop.thisRepN,consent_loop.thisTrialN,consent_loop.thisN,consent_loop.thisIndex,consent_loop.ran
0.0003,0.0006,6557ebf8541bd32382739c1a,31,female,2024-04-24_20h32.29.222,stockport_simplified,2022.2.4,MacIntel,30.03003003,661e456ee6de07e70aa9ef7b,6628df8e2ec4bdf738651ed0,,,,,,,,,,,,,,,,,,,,,,,,,,,,,,,,,,,,,,,,,,,,,,,,,,,,,,,,,,,,,,,,,,,,,,,,,,,,,,,,,,,,,,,,,,,,,,,,,,,,,,,,,
,,6557ebf8541bd32382739c1a,31,female,2024-04-24_20h32.29.222,stockport_simplified,2022.2.4,MacIntel,30.03003003,661e456ee6de07e70aa9ef7b,6628df8e2ec4bdf738651ed0,0.0137,33.4959,0,0,0,0,1,instructions/info1.png,,,,,,,,,,,,,,,,,,,,,,,,,,,,,,,,,,,,,,,,,,,,,,,,,,,,,,,,,,,,,,,,,,,,,,,,,,,,,,,,,,,,,,,,,,,,,,,,,
,,6557ebf8541bd32382739c1a,31,female,2024-04-24_20h32.29.222,stockport_simplified,2022.2.4,MacIntel,30.03003003,661e456ee6de07e70aa9ef7b,6628df8e2ec4bdf738651ed0,33.4963,47.2616,0,1,1,1,1,instructions/info2.png,,,,,,,,,,,,,,,,,,,,,,,,,,,,,,,,,,,,,,,,,,,,,,,,,,,,,,,,,,,,,,,,,,,,,,,,,,,,,,,,,,,,,,,,,,,,,,,,,
,,6557ebf8541bd32382739c1a,31,female,2024-04-24_20h32.29.222,stockport_simplified,2022.2.4,MacIntel,30.03003003,661e456ee6de07e70aa9ef7b,6628df8e2ec4bdf738651ed0,47.2697,54.8956,0,2,2,2,1,instructions/info3.png,,,,,,,,,,,,,,,,,,,,,,,,,,,,,,,,,,,,,,,,,,,,,,,,,,,,,,,,,,,,,,,,,,,,,,,,,,,,,,,,,,,,,,,,,,,,,,,,,
,,6557ebf8541bd32382739c1a,31,female,2024-04-24_20h32.29.222,stockport_simplified,2022.2.4,MacIntel,30.03003003,661e456ee6de07e70aa9ef7b,6628df8e2ec4bdf738651ed0,,,,,,,,,54.9042,80.429,1,1,1,1,1,1,,,,,,,,,,,,,,,,,,,,,,,,,,,,,,,,,,,,,,,,,,,,,,,,,,,,,,,,,,,,,,,,,,,,,,,,,,,,,,,,,,,,,,,,,
,,6557ebf8541bd32382739c1a,31,female,2024-04-24_20h32.29.222,stockport_simplified,2022.2.4,MacIntel,30.03003003,661e456ee6de07e70aa9ef7b,6628df8e2ec4bdf738651ed0,,,,,,,,,,,,,,,,,80.4411,103.6636,0,0,0,0,1,instructions/task1_1.png,,,,,,,,,,,,,,,,,,,,,,,,,,,,,,,,,,,,,,,,,,,,,,,,,,,,,,,,,,,,,,,,,,,,,,,,,,,,,,,,,
,,6557ebf8541bd32382739c1a,31,female,2024-04-24_20h32.29.222,stockport_simplified,2022.2.4,MacIntel,30.03003003,661e456ee6de07e70aa9ef7b,6628df8e2ec4bdf738651ed0,,,,,,,,,,,,,,,,,103.6728,120.9305,0,1,1,1,1,instructions/task1_2.png,,,,,,,,,,,,,,,,,,,,,,,,,,,,,,,,,,,,,,,,,,,,,,,,,,,,,,,,,,,,,,,,,,,,,,,,,,,,,,,,,
,,6557ebf8541bd32382739c1a,31,female,2024-04-24_20h32.29.222,stockport_simplified,2022.2.4,MacIntel,30.03003003,661e456ee6de07e70aa9ef7b,6628df8e2ec4bdf738651ed0,,,,,,,,,,,,,,,,,120.9382,142.9308,0,2,2,2,1,instructions/task1_3.png,,,,,,,,,,,,,,,,,,,,,,,,,,,,,,,,,,,,,,,,,,,,,,,,,,,,,,,,,,,,,,,,,,,,,,,,,,,,,,,,,
,,6557ebf8541bd32382739c1a,31,female,2024-04-24_20h32.29.222,stockport_simplified,2022.2.4,MacIntel,30.03003003,661e456ee6de07e70aa9ef7b,6628df8e2ec4bdf738651ed0,,,,,,,,,,,,,,,,,,,,,,,,,142.9314,172.2308,-0.219982639,-0.333172743,1,0,0,29.299,comp1_resp1,172.2482,175.1317,"[8,4,1,6,3,7,2,5]","[[-0.3,0.2],[0.3,0.2]]","[[0.125,-0.2],[-0.125,-0.2]]",-0.147252604,-0.200290799,1,0,0,2.3653,o2_image,175.1325,1,175.6318,175.6321,177.6323,0,0,0,0,1,,,,,,,,,,,,,,,,,,,,,,,,,,,,,,,,,,,,,,,,,,,,,,,,,,
,,6557ebf8541bd32382739c1a,31,female,2024-04-24_20h32.29.222,stockport_simplified,2022.2.4,MacIntel,30.03003003,661e456ee6de07e70aa9ef7b,6628df8e2ec4bdf738651ed0,,,,,,,,,,,,,,,,,,,,,,,,,,,,,,,,,,,,,,,,,,,,,,,,,,,,,,,,0,0,0,19,1,B,Y,N,o2_image,stimuli/out2.png,stimuli/out1.png,stimuli/correct_out2.png,,,,,,,,,,,,,,,,,,,,,,,,,,,,,,,,,,,,,,
,,6557ebf8541bd32382739c1a,31,female,2024-04-24_20h32.29.222,stockport_simplified,2022.2.4,MacIntel,30.03003003,661e456ee6de07e70aa9ef7b,6628df8e2ec4bdf738651ed0,,,,,,,,,,,,,,,,,,,,,,,,,,,,,,,,,,177.6332,180.298,"[8,4,1,6,3,7,2,5]","[[-0.3,0.2],[0.3,0.2]]","[[-0.125,-0.2],[0.125,-0.2]]",-0.146736111,-0.200290799,1,0,0,2.133,o1_image,180.3071,0,180.7986,180.7987,182.7987,0,0,0,0,1,,,,,,,,,,,,,,,,,,,,,,,,,,,,,,,,,,,,,,,,,,,,,,,,,,
,,6557ebf8541bd32382739c1a,31,female,2024-04-24_20h32.29.222,stockport_simplified,2022.2.4,MacIntel,30.03003003,661e456ee6de07e70aa9ef7b,6628df8e2ec4bdf738651ed0,,,,,,,,,,,,,,,,,,,,,,,,,,,,,,,,,,,,,,,,,,,,,,,,,,,,,,,,0,1,1,18,1,B,Y,N,o2_image,stimuli/out2.png,stimuli/out1.png,stimuli/correct_out2.png,,,,,,,,,,,,,,,,,,,,,,,,,,,,,,,,,,,,,,
,,6557ebf8541bd32382739c1a,31,female,2024-04-24_20h32.29.222,stockport_simplified,2022.2.4,MacIntel,30.03003003,661e456ee6de07e70aa9ef7b,6628df8e2ec4bdf738651ed0,,,,,,,,,,,,,,,,,,,,,,,,,,,,,,,,,,182.7994,185.4647,"[8,4,1,6,3,7,2,5]","[[0.3,0.2],[-0.3,0.2]]","[[0.125,-0.2],[-0.125,-0.2]]",-0.102118056,-0.225264757,1,0,0,2.1336,o2_image,185.465,1,185.9652,185.9653,187.9653,0,0,0,0,1,,,,,,,,,,,,,,,,,,,,,,,,,,,,,,,,,,,,,,,,,,,,,,,,,,
,,6557ebf8541bd32382739c1a,31,female,2024-04-24_20h32.29.222,stockport_simplified,2022.2.4,MacIntel,30.03003003,661e456ee6de07e70aa9ef7b,6628df8e2ec4bdf738651ed0,,,,,,,,,,,,,,,,,,,,,,,,,,,,,,,,,,,,,,,,,,,,,,,,,,,,,,,,0,2,2,46,1,B,Y,N,o2_image,stimuli/out2.png,stimuli/out1.png,stimuli/correct_out2.png,,,,,,,,,,,,,,,,,,,,,,,,,,,,,,,,,,,,,,
,,6557ebf8541bd32382739c1a,31,female,2024-04-24_20h32.29.222,stockport_simplified,2022.2.4,MacIntel,30.03003003,661e456ee6de07e70aa9ef7b,6628df8e2ec4bdf738651ed0,,,,,,,,,,,,,,,,,,,,,,,,,,,,,,,,,,187.9659,189.9981,"[8,4,1,6,3,7,2,5]","[[-0.3,0.2],[0.3,0.2]]","[[-0.125,-0.2],[0.125,-0.2]]",-0.102118056,-0.225264757,1,0,0,1.4982,o1_image,189.9985,1,190.4986,190.4988,192.4987,0,0,0,0,1,,,,,,,,,,,,,,,,,,,,,,,,,,,,,,,,,,,,,,,,,,,,,,,,,,
,,6557ebf8541bd32382739c1a,31,female,2024-04-24_20h32.29.222,stockport_simplified,2022.2.4,MacIntel,30.03003003,661e456ee6de07e70aa9ef7b,6628df8e2ec4bdf738651ed0,,,,,,,,,,,,,,,,,,,,,,,,,,,,,,,,,,,,,,,,,,,,,,,,,,,,,,,,0,3,3,22,1,N,M,C,o1_image,stimuli/out1.png,stimuli/correct_out1.png,stimuli/out2.png,,,,,,,,,,,,,,,,,,,,,,,,,,,,,,,,,,,,,,
,,6557ebf8541bd32382739c1a,31,female,2024-04-24_20h32.29.222,stockport_simplified,2022.2.4,MacIntel,30.03003003,661e456ee6de07e70aa9ef7b,6628df8e2ec4bdf738651ed0,,,,,,,,,,,,,,,,,,,,,,,,,,,,,,,,,,192.4991,194.7317,"[8,4,1,6,3,7,2,5]","[[-0.3,0.2],[0.3,0.2]]","[[-0.125,-0.2],[0.125,-0.2]]",-0.101866319,-0.225264757,1,0,0,1.6994,o1_image,194.7321,0,195.2314,195.2314,197.2321,0,0,0,0,1,,,,,,,,,,,,,,,,,,,,,,,,,,,,,,,,,,,,,,,,,,,,,,,,,,
,,6557ebf8541bd32382739c1a,31,female,2024-04-24_20h32.29.222,stockport_simplified,2022.2.4,MacIntel,30.03003003,661e456ee6de07e70aa9ef7b,6628df8e2ec4bdf738651ed0,,,,,,,,,,,,,,,,,,,,,,,,,,,,,,,,,,,,,,,,,,,,,,,,,,,,,,,,0,4,4,56,1,N,M,D,o2_image,stimuli/out2.png,stimuli/out1.png,stimuli/correct_out2.png,,,,,,,,,,,,,,,,,,,,,,,,,,,,,,,,,,,,,,
,,6557ebf8541bd32382739c1a,31,female,2024-04-24_20h32.29.222,stockport_simplified,2022.2.4,MacIntel,30.03003003,661e456ee6de07e70aa9ef7b,6628df8e2ec4bdf738651ed0,,,,,,,,,,,,,,,,,,,,,,,,,,,,,,,,,,197.2327,200.3983,"[8,4,1,6,3,7,2,5]","[[0.3,0.2],[-0.3,0.2]]","[[0.125,-0.2],[-0.125,-0.2]]",0.063342014,-0.195386285,1,0,0,2.6322,o1_image,200.4071,1,200.8983,200.8983,202.8984,0,0,0,0,1,,,,,,,,,,,,,,,,,,,,,,,,,,,,,,,,,,,,,,,,,,,,,,,,,,
,,6557ebf8541bd32382739c1a,31,female,2024-04-24_20h32.29.222,stockport_simplified,2022.2.4,MacIntel,30.03003003,661e456ee6de07e70aa9ef7b,6628df8e2ec4bdf738651ed0,,,,,,,,,,,,,,,,,,,,,,,,,,,,,,,,,,,,,,,,,,,,,,,,,,,,,,,,0,5,5,3,1,A,X,N,o1_image,stimuli/out1.png,stimuli/correct_out1.png,stimuli/out2.png,,,,,,,,,,,,,,,,,,,,,,,,,,,,,,,,,,,,,,
,,6557ebf8541bd32382739c1a,31,female,2024-04-24_20h32.29.222,stockport_simplified,2022.2.4,MacIntel,30.03003003,661e456ee6de07e70aa9ef7b,6628df8e2ec4bdf738651ed0,,,,,,,,,,,,,,,,,,,,,,,,,,,,,,,,,,202.8986,207.4986,"[8,4,1,6,3,7,2,5]","[[-0.3,0.2],[0.3,0.2]]","[[0.125,-0.2],[-0.125,-0.2]]",0.109092882,-0.204752604,1,0,0,4.0663,o1_image,207.5065,1,207.9989,207.9989,209.999,0,0,0,0,1,,,,,,,,,,,,,,,,,,,,,,,,,,,,,,,,,,,,,,,,,,,,,,,,,,
,,6557ebf8541bd32382739c1a,31,female,2024-04-24_20h32.29.222,stockport_simplified,2022.2.4,MacIntel,30.03003003,661e456ee6de07e70aa9ef7b,6628df8e2ec4bdf738651ed0,,,,,,,,,,,,,,,,,,,,,,,,,,,,,,,,,,,,,,,,,,,,,,,,,,,,,,,,0,6,6,0,1,A,X,N,o1_image,stimuli/out1.png,stimuli/correct_out1.png,stimuli/out2.png,,,,,,,,,,,,,,,,,,,,,,,,,,,,,,,,,,,,,,
,,6557ebf8541bd32382739c1a,31,female,2024-04-24_20h32.29.222,stockport_simplified,2022.2.4,MacIntel,30.03003003,661e456ee6de07e70aa9ef7b,6628df8e2ec4bdf738651ed0,,,,,,,,,,,,,,,,,,,,,,,,,,,,,,,,,,209.9996,212.0652,"[8,4,1,6,3,7,2,5]","[[0.3,0.2],[-0.3,0.2]]","[[-0.125,-0.2],[0.125,-0.2]]",-0.122395833,-0.2034375,1,0,0,1.5329,o1_image,212.0655,0,212.5656,212.5657,214.5652,0,0,0,0,1,,,,,,,,,,,,,,,,,,,,,,,,,,,,,,,,,,,,,,,,,,,,,,,,,,
,,6557ebf8541bd32382739c1a,31,female,2024-04-24_20h32.29.222,stockport_simplified,2022.2.4,MacIntel,30.03003003,661e456ee6de07e70aa9ef7b,6628df8e2ec4bdf738651ed0,,,,,,,,,,,,,,,,,,,,,,,,,,,,,,,,,,,,,,,,,,,,,,,,,,,,,,,,0,7,7,57,1,N,M,D,o2_image,stimuli/out2.png,stimuli/out1.png,stimuli/correct_out2.png,,,,,,,,,,,,,,,,,,,,,,,,,,,,,,,,,,,,,,
,,6557ebf8541bd32382739c1a,31,female,2024-04-24_20h32.29.222,stockport_simplified,2022.2.4,MacIntel,30.03003003,661e456ee6de07e70aa9ef7b,6628df8e2ec4bdf738651ed0,,,,,,,,,,,,,,,,,,,,,,,,,,,,,,,,,,214.5655,217.7986,"[8,4,1,6,3,7,2,5]","[[0.3,0.2],[-0.3,0.2]]","[[0.125,-0.2],[-0.125,-0.2]]",0.123923611,-0.188142361,1,0,0,2.732,o1_image,217.799,1,218.2993,218.2993,220.2993,0,0,0,0,1,,,,,,,,,,,,,,,,,,,,,,,,,,,,,,,,,,,,,,,,,,,,,,,,,,
,,6557ebf8541bd32382739c1a,31,female,2024-04-24_20h32.29.222,stockport_simplified,2022.2.4,MacIntel,30.03003003,661e456ee6de07e70aa9ef7b,6628df8e2ec4bdf738651ed0,,,,,,,,,,,,,,,,,,,,,,,,,,,,,,,,,,,,,,,,,,,,,,,,,,,,,,,,0,8,8,30,1,A,X,N,o1_image,stimuli/out1.png,stimuli/correct_out1.png,stimuli/out2.png,,,,,,,,,,,,,,,,,,,,,,,,,,,,,,,,,,,,,,
,,6557ebf8541bd32382739c1a,31,female,2024-04-24_20h32.29.222,stockport_simplified,2022.2.4,MacIntel,30.03003003,661e456ee6de07e70aa9ef7b,6628df8e2ec4bdf738651ed0,,,,,,,,,,,,,,,,,,,,,,,,,,,,,,,,,,220.2999,223.4654,"[8,4,1,6,3,7,2,5]","[[-0.3,0.2],[0.3,0.2]]","[[-0.125,-0.2],[0.125,-0.2]]",0.115993924,-0.182322049,1,0,0,2.6331,o2_image,223.4658,1,223.9659,223.9659,225.966,0,0,0,0,1,,,,,,,,,,,,,,,,,,,,,,,,,,,,,,,,,,,,,,,,,,,,,,,,,,
,,6557ebf8541bd32382739c1a,31,female,2024-04-24_20h32.29.222,stockport_simplified,2022.2.4,MacIntel,30.03003003,661e456ee6de07e70aa9ef7b,6628df8e2ec4bdf738651ed0,,,,,,,,,,,,,,,,,,,,,,,,,,,,,,,,,,,,,,,,,,,,,,,,,,,,,,,,0,9,9,55,1,N,M,D,o2_image,stimuli/out2.png,stimuli/out1.png,stimuli/correct_out2.png,,,,,,,,,,,,,,,,,,,,,,,,,,,,,,,,,,,,,,
,,6557ebf8541bd32382739c1a,31,female,2024-04-24_20h32.29.222,stockport_simplified,2022.2.4,MacIntel,30.03003003,661e456ee6de07e70aa9ef7b,6628df8e2ec4bdf738651ed0,,,,,,,,,,,,,,,,,,,,,,,,,,,,,,,,,,225.9666,228.9656,"[8,4,1,6,3,7,2,5]","[[-0.3,0.2],[0.3,0.2]]","[[0.125,-0.2],[-0.125,-0.2]]",0.118988715,-0.192439236,1,0,0,2.466,o1_image,228.9733,0,229.4662,229.4662,231.4661,0,0,0,0,1,,,,,,,,,,,,,,,,,,,,,,,,,,,,,,,,,,,,,,,,,,,,,,,,,,
,,6557ebf8541bd32382739c1a,31,female,2024-04-24_20h32.29.222,stockport_simplified,2022.2.4,MacIntel,30.03003003,661e456ee6de07e70aa9ef7b,6628df8e2ec4bdf738651ed0,,,,,,,,,,,,,,,,,,,,,,,,,,,,,,,,,,,,,,,,,,,,,,,,,,,,,,,,0,10,10,43,1,B,X,N,o2_image,stimuli/out2.png,stimuli/out1.png,stimuli/correct_out2.png,,,,,,,,,,,,,,,,,,,,,,,,,,,,,,,,,,,,,,
,,6557ebf8541bd32382739c1a,31,female,2024-04-24_20h32.29.222,stockport_simplified,2022.2.4,MacIntel,30.03003003,661e456ee6de07e70aa9ef7b,6628df8e2ec4bdf738651ed0,,,,,,,,,,,,,,,,,,,,,,,,,,,,,,,,,,231.4668,234.5655,"[8,4,1,6,3,7,2,5]","[[0.3,0.2],[-0.3,0.2]]","[[-0.125,-0.2],[0.125,-0.2]]",0.07093316,-0.17828559,1,0,0,2.5665,o2_image,234.5743,0,235.0661,235.0661,237.066,0,0,0,0,1,,,,,,,,,,,,,,,,,,,,,,,,,,,,,,,,,,,,,,,,,,,,,,,,,,
,,6557ebf8541bd32382739c1a,31,female,2024-04-24_20h32.29.222,stockport_simplified,2022.2.4,MacIntel,30.03003003,661e456ee6de07e70aa9ef7b,6628df8e2ec4bdf738651ed0,,,,,,,,,,,,,,,,,,,,,,,,,,,,,,,,,,,,,,,,,,,,,,,,,,,,,,,,0,11,11,31,1,A,X,N,o1_image,stimuli/out1.png,stimuli/correct_out1.png,stimuli/out2.png,,,,,,,,,,,,,,,,,,,,,,,,,,,,,,,,,,,,,,
,,6557ebf8541bd32382739c1a,31,female,2024-04-24_20h32.29.222,stockport_simplified,2022.2.4,MacIntel,30.03003003,661e456ee6de07e70aa9ef7b,6628df8e2ec4bdf738651ed0,,,,,,,,,,,,,,,,,,,,,,,,,,,,,,,,,,237.0666,239.699,"[8,4,1,6,3,7,2,5]","[[0.3,0.2],[-0.3,0.2]]","[[-0.125,-0.2],[0.125,-0.2]]",-0.07921441,-0.161453993,1,0,0,2.0993,o1_image,239.6993,0,240.199,240.199,242.1994,0,0,0,0,1,,,,,,,,,,,,,,,,,,,,,,,,,,,,,,,,,,,,,,,,,,,,,,,,,,
,,6557ebf8541bd32382739c1a,31,female,2024-04-24_20h32.29.222,stockport_simplified,2022.2.4,MacIntel,30.03003003,661e456ee6de07e70aa9ef7b,6628df8e2ec4bdf738651ed0,,,,,,,,,,,,,,,,,,,,,,,,,,,,,,,,,,,,,,,,,,,,,,,,,,,,,,,,0,12,12,41,1,B,X,N,o2_image,stimuli/out2.png,stimuli/out1.png,stimuli/correct_out2.png,,,,,,,,,,,,,,,,,,,,,,,,,,,,,,,,,,,,,,
,,6557ebf8541bd32382739c1a,31,female,2024-04-24_20h32.29.222,stockport_simplified,2022.2.4,MacIntel,30.03003003,661e456ee6de07e70aa9ef7b,6628df8e2ec4bdf738651ed0,,,,,,,,,,,,,,,,,,,,,,,,,,,,,,,,,,242.1998,245.198,"[8,4,1,6,3,7,2,5]","[[0.3,0.2],[-0.3,0.2]]","[[-0.125,-0.2],[0.125,-0.2]]",-0.084166667,-0.171284722,1,0,0,2.4653,o1_image,245.2058,1,245.6981,245.6981,247.6991,0,0,0,0,1,,,,,,,,,,,,,,,,,,,,,,,,,,,,,,,,,,,,,,,,,,,,,,,,,,
,,6557ebf8541bd32382739c1a,31,female,2024-04-24_20h32.29.222,stockport_simplified,2022.2.4,MacIntel,30.03003003,661e456ee6de07e70aa9ef7b,6628df8e2ec4bdf738651ed0,,,,,,,,,,,,,,,,,,,,,,,,,,,,,,,,,,,,,,,,,,,,,,,,,,,,,,,,0,13,13,53,1,N,M,C,o1_image,stimuli/out1.png,stimuli/correct_out1.png,stimuli/out2.png,,,,,,,,,,,,,,,,,,,,,,,,,,,,,,,,,,,,,,
,,6557ebf8541bd32382739c1a,31,female,2024-04-24_20h32.29.222,stockport_simplified,2022.2.4,MacIntel,30.03003003,661e456ee6de07e70aa9ef7b,6628df8e2ec4bdf738651ed0,,,,,,,,,,,,,,,,,,,,,,,,,,,,,,,,,,247.6994,251.5994,"[8,4,1,6,3,7,2,5]","[[0.3,0.2],[-0.3,0.2]]","[[-0.125,-0.2],[0.125,-0.2]]",-0.086588542,-0.159522569,1,0,0,3.3665,o1_image,251.6071,1,252.0981,252.0981,254.0999,0,0,0,0,1,,,,,,,,,,,,,,,,,,,,,,,,,,,,,,,,,,,,,,,,,,,,,,,,,,
,,6557ebf8541bd32382739c1a,31,female,2024-04-24_20h32.29.222,stockport_simplified,2022.2.4,MacIntel,30.03003003,661e456ee6de07e70aa9ef7b,6628df8e2ec4bdf738651ed0,,,,,,,,,,,,,,,,,,,,,,,,,,,,,,,,,,,,,,,,,,,,,,,,,,,,,,,,0,14,14,7,1,A,Y,N,o1_image,stimuli/out1.png,stimuli/correct_out1.png,stimuli/out2.png,,,,,,,,,,,,,,,,,,,,,,,,,,,,,,,,,,,,,,
,,6557ebf8541bd32382739c1a,31,female,2024-04-24_20h32.29.222,stockport_simplified,2022.2.4,MacIntel,30.03003003,661e456ee6de07e70aa9ef7b,6628df8e2ec4bdf738651ed0,,,,,,,,,,,,,,,,,,,,,,,,,,,,,,,,,,254.1006,256.5658,"[8,4,1,6,3,7,2,5]","[[0.3,0.2],[-0.3,0.2]]","[[-0.125,-0.2],[0.125,-0.2]]",0.06437066,-0.196822917,1,0,0,1.9324,o2_image,256.5737,0,257.065,257.065,259.065,0,0,0,0,1,,,,,,,,,,,,,,,,,,,,,,,,,,,,,,,,,,,,,,,,,,,,,,,,,,
,,6557ebf8541bd32382739c1a,31,female,2024-04-24_20h32.29.222,stockport_simplified,2022.2.4,MacIntel,30.03003003,661e456ee6de07e70aa9ef7b,6628df8e2ec4bdf738651ed0,,,,,,,,,,,,,,,,,,,,,,,,,,,,,,,,,,,,,,,,,,,,,,,,,,,,,,,,0,15,15,2,1,A,X,N,o1_image,stimuli/out1.png,stimuli/correct_out1.png,stimuli/out2.png,,,,,,,,,,,,,,,,,,,,,,,,,,,,,,,,,,,,,,
,,6557ebf8541bd32382739c1a,31,female,2024-04-24_20h32.29.222,stockport_simplified,2022.2.4,MacIntel,30.03003003,661e456ee6de07e70aa9ef7b,6628df8e2ec4bdf738651ed0,,,,,,,,,,,,,,,,,,,,,,,,,,,,,,,,,,259.0654,261.8318,"[8,4,1,6,3,7,2,5]","[[-0.3,0.2],[0.3,0.2]]","[[0.125,-0.2],[-0.125,-0.2]]",0.098841146,-0.190355903,1,0,0,2.2648,o1_image,261.8321,1,262.333,262.3331,264.3332,0,0,0,0,1,,,,,,,,,,,,,,,,,,,,,,,,,,,,,,,,,,,,,,,,,,,,,,,,,,
,,6557ebf8541bd32382739c1a,31,female,2024-04-24_20h32.29.222,stockport_simplified,2022.2.4,MacIntel,30.03003003,661e456ee6de07e70aa9ef7b,6628df8e2ec4bdf738651ed0,,,,,,,,,,,,,,,,,,,,,,,,,,,,,,,,,,,,,,,,,,,,,,,,,,,,,,,,0,16,16,20,1,N,M,C,o1_image,stimuli/out1.png,stimuli/correct_out1.png,stimuli/out2.png,,,,,,,,,,,,,,,,,,,,,,,,,,,,,,,,,,,,,,
,,6557ebf8541bd32382739c1a,31,female,2024-04-24_20h32.29.222,stockport_simplified,2022.2.4,MacIntel,30.03003003,661e456ee6de07e70aa9ef7b,6628df8e2ec4bdf738651ed0,,,,,,,,,,,,,,,,,,,,,,,,,,,,,,,,,,264.3337,269.5328,"[8,4,1,6,3,7,2,5]","[[-0.3,0.2],[0.3,0.2]]","[[-0.125,-0.2],[0.125,-0.2]]",0.069565972,-0.175460069,1,0,0,4.6667,o2_image,269.5412,1,270.0323,270.0323,272.0328,0,0,0,0,1,,,,,,,,,,,,,,,,,,,,,,,,,,,,,,,,,,,,,,,,,,,,,,,,,,
,,6557ebf8541bd32382739c1a,31,female,2024-04-24_20h32.29.222,stockport_simplified,2022.2.4,MacIntel,30.03003003,661e456ee6de07e70aa9ef7b,6628df8e2ec4bdf738651ed0,,,,,,,,,,,,,,,,,,,,,,,,,,,,,,,,,,,,,,,,,,,,,,,,,,,,,,,,0,17,17,42,1,B,X,N,o2_image,stimuli/out2.png,stimuli/out1.png,stimuli/correct_out2.png,,,,,,,,,,,,,,,,,,,,,,,,,,,,,,,,,,,,,,
,,6557ebf8541bd32382739c1a,31,female,2024-04-24_20h32.29.222,stockport_simplified,2022.2.4,MacIntel,30.03003003,661e456ee6de07e70aa9ef7b,6628df8e2ec4bdf738651ed0,,,,,,,,,,,,,,,,,,,,,,,,,,,,,,,,,,272.033,274.3319,"[8,4,1,6,3,7,2,5]","[[0.3,0.2],[-0.3,0.2]]","[[0.125,-0.2],[-0.125,-0.2]]",0.069565972,-0.175460069,1,0,0,1.7647,o1_image,274.3405,0,274.8324,274.8325,276.833,0,0,0,0,1,,,,,,,,,,,,,,,,,,,,,,,,,,,,,,,,,,,,,,,,,,,,,,,,,,
,,6557ebf8541bd32382739c1a,31,female,2024-04-24_20h32.29.222,stockport_simplified,2022.2.4,MacIntel,30.03003003,661e456ee6de07e70aa9ef7b,6628df8e2ec4bdf738651ed0,,,,,,,,,,,,,,,,,,,,,,,,,,,,,,,,,,,,,,,,,,,,,,,,,,,,,,,,0,18,18,27,1,N,M,D,o2_image,stimuli/out2.png,stimuli/out1.png,stimuli/correct_out2.png,,,,,,,,,,,,,,,,,,,,,,,,,,,,,,,,,,,,,,
,,6557ebf8541bd32382739c1a,31,female,2024-04-24_20h32.29.222,stockport_simplified,2022.2.4,MacIntel,30.03003003,661e456ee6de07e70aa9ef7b,6628df8e2ec4bdf738651ed0,,,,,,,,,,,,,,,,,,,,,,,,,,,,,,,,,,276.8333,280.8662,"[8,4,1,6,3,7,2,5]","[[-0.3,0.2],[0.3,0.2]]","[[0.125,-0.2],[-0.125,-0.2]]",-0.129817708,-0.126974826,1,0,0,3.4991,o2_image,280.874,0,281.3667,281.3668,283.3666,0,0,0,0,1,,,,,,,,,,,,,,,,,,,,,,,,,,,,,,,,,,,,,,,,,,,,,,,,,,
,,6557ebf8541bd32382739c1a,31,female,2024-04-24_20h32.29.222,stockport_simplified,2022.2.4,MacIntel,30.03003003,661e456ee6de07e70aa9ef7b,6628df8e2ec4bdf738651ed0,,,,,,,,,,,,,,,,,,,,,,,,,,,,,,,,,,,,,,,,,,,,,,,,,,,,,,,,0,19,19,38,1,A,Y,N,o1_image,stimuli/out1.png,stimuli/correct_out1.png,stimuli/out2.png,,,,,,,,,,,,,,,,,,,,,,,,,,,,,,,,,,,,,,
,,6557ebf8541bd32382739c1a,31,female,2024-04-24_20h32.29.222,stockport_simplified,2022.2.4,MacIntel,30.03003003,661e456ee6de07e70aa9ef7b,6628df8e2ec4bdf738651ed0,,,,,,,,,,,,,,,,,,,,,,,,,,,,,,,,,,283.3671,286.3322,"[8,4,1,6,3,7,2,5]","[[-0.3,0.2],[0.3,0.2]]","[[-0.125,-0.2],[0.125,-0.2]]",-0.098229167,-0.171966146,1,0,0,2.4331,o1_image,286.34,1,286.8331,286.8332,288.8333,0,0,0,0,1,,,,,,,,,,,,,,,,,,,,,,,,,,,,,,,,,,,,,,,,,,,,,,,,,,
,,6557ebf8541bd32382739c1a,31,female,2024-04-24_20h32.29.222,stockport_simplified,2022.2.4,MacIntel,30.03003003,661e456ee6de07e70aa9ef7b,6628df8e2ec4bdf738651ed0,,,,,,,,,,,,,,,,,,,,,,,,,,,,,,,,,,,,,,,,,,,,,,,,,,,,,,,,0,20,20,35,1,A,Y,N,o1_image,stimuli/out1.png,stimuli/correct_out1.png,stimuli/out2.png,,,,,,,,,,,,,,,,,,,,,,,,,,,,,,,,,,,,,,
,,6557ebf8541bd32382739c1a,31,female,2024-04-24_20h32.29.222,stockport_simplified,2022.2.4,MacIntel,30.03003003,661e456ee6de07e70aa9ef7b,6628df8e2ec4bdf738651ed0,,,,,,,,,,,,,,,,,,,,,,,,,,,,,,,,,,288.8337,293.1332,"[8,4,1,6,3,7,2,5]","[[0.3,0.2],[-0.3,0.2]]","[[-0.125,-0.2],[0.125,-0.2]]",-0.098077257,-0.185199653,1,0,0,3.7662,o1_image,293.1416,1,293.6336,293.6337,295.6328,0,0,0,0,1,,,,,,,,,,,,,,,,,,,,,,,,,,,,,,,,,,,,,,,,,,,,,,,,,,
,,6557ebf8541bd32382739c1a,31,female,2024-04-24_20h32.29.222,stockport_simplified,2022.2.4,MacIntel,30.03003003,661e456ee6de07e70aa9ef7b,6628df8e2ec4bdf738651ed0,,,,,,,,,,,,,,,,,,,,,,,,,,,,,,,,,,,,,,,,,,,,,,,,,,,,,,,,0,21,21,8,1,A,Y,N,o1_image,stimuli/out1.png,stimuli/correct_out1.png,stimuli/out2.png,,,,,,,,,,,,,,,,,,,,,,,,,,,,,,,,,,,,,,
,,6557ebf8541bd32382739c1a,31,female,2024-04-24_20h32.29.222,stockport_simplified,2022.2.4,MacIntel,30.03003003,661e456ee6de07e70aa9ef7b,6628df8e2ec4bdf738651ed0,,,,,,,,,,,,,,,,,,,,,,,,,,,,,,,,,,295.6335,298.4666,"[8,4,1,6,3,7,2,5]","[[0.3,0.2],[-0.3,0.2]]","[[0.125,-0.2],[-0.125,-0.2]]",-0.077126736,-0.172217882,1,0,0,2.3323,o2_image,298.4743,1,298.967,298.9671,300.9671,0,0,0,0,1,,,,,,,,,,,,,,,,,,,,,,,,,,,,,,,,,,,,,,,,,,,,,,,,,,
,,6557ebf8541bd32382739c1a,31,female,2024-04-24_20h32.29.222,stockport_simplified,2022.2.4,MacIntel,30.03003003,661e456ee6de07e70aa9ef7b,6628df8e2ec4bdf738651ed0,,,,,,,,,,,,,,,,,,,,,,,,,,,,,,,,,,,,,,,,,,,,,,,,,,,,,,,,0,22,22,11,1,B,X,N,o2_image,stimuli/out2.png,stimuli/out1.png,stimuli/correct_out2.png,,,,,,,,,,,,,,,,,,,,,,,,,,,,,,,,,,,,,,
,,6557ebf8541bd32382739c1a,31,female,2024-04-24_20h32.29.222,stockport_simplified,2022.2.4,MacIntel,30.03003003,661e456ee6de07e70aa9ef7b,6628df8e2ec4bdf738651ed0,,,,,,,,,,,,,,,,,,,,,,,,,,,,,,,,,,300.9676,304.8667,"[8,4,1,6,3,7,2,5]","[[-0.3,0.2],[0.3,0.2]]","[[-0.125,-0.2],[0.125,-0.2]]",0.073867188,-0.177052951,1,0,0,3.3658,o2_image,304.8753,0,305.3668,305.3668,307.367,0,0,0,0,1,,,,,,,,,,,,,,,,,,,,,,,,,,,,,,,,,,,,,,,,,,,,,,,,,,
,,6557ebf8541bd32382739c1a,31,female,2024-04-24_20h32.29.222,stockport_simplified,2022.2.4,MacIntel,30.03003003,661e456ee6de07e70aa9ef7b,6628df8e2ec4bdf738651ed0,,,,,,,,,,,,,,,,,,,,,,,,,,,,,,,,,,,,,,,,,,,,,,,,,,,,,,,,0,23,23,5,1,A,Y,N,o1_image,stimuli/out1.png,stimuli/correct_out1.png,stimuli/out2.png,,,,,,,,,,,,,,,,,,,,,,,,,,,,,,,,,,,,,,
,,6557ebf8541bd32382739c1a,31,female,2024-04-24_20h32.29.222,stockport_simplified,2022.2.4,MacIntel,30.03003003,661e456ee6de07e70aa9ef7b,6628df8e2ec4bdf738651ed0,,,,,,,,,,,,,,,,,,,,,,,,,,,,,,,,,,307.3674,309.5001,"[8,4,1,6,3,7,2,5]","[[0.3,0.2],[-0.3,0.2]]","[[0.125,-0.2],[-0.125,-0.2]]",-0.162222222,-0.150494792,1,0,0,1.5997,o2_image,309.5004,0,310.0002,310.0002,312.0006,0,0,0,0,1,,,,,,,,,,,,,,,,,,,,,,,,,,,,,,,,,,,,,,,,,,,,,,,,,,
,,6557ebf8541bd32382739c1a,31,female,2024-04-24_20h32.29.222,stockport_simplified,2022.2.4,MacIntel,30.03003003,661e456ee6de07e70aa9ef7b,6628df8e2ec4bdf738651ed0,,,,,,,,,,,,,,,,,,,,,,,,,,,,,,,,,,,,,,,,,,,,,,,,,,,,,,,,0,24,24,23,1,N,M,C,o1_image,stimuli/out1.png,stimuli/correct_out1.png,stimuli/out2.png,,,,,,,,,,,,,,,,,,,,,,,,,,,,,,,,,,,,,,
,,6557ebf8541bd32382739c1a,31,female,2024-04-24_20h32.29.222,stockport_simplified,2022.2.4,MacIntel,30.03003003,661e456ee6de07e70aa9ef7b,6628df8e2ec4bdf738651ed0,,,,,,,,,,,,,,,,,,,,,,,,,,,,,,,,,,312.0011,316.5335,"[8,4,1,6,3,7,2,5]","[[-0.3,0.2],[0.3,0.2]]","[[-0.125,-0.2],[0.125,-0.2]]",0.070290799,-0.188893229,1,0,0,3.9997,o2_image,316.5412,1,317.0327,317.0327,319.0336,0,0,0,0,1,,,,,,,,,,,,,,,,,,,,,,,,,,,,,,,,,,,,,,,,,,,,,,,,,,
,,6557ebf8541bd32382739c1a,31,female,2024-04-24_20h32.29.222,stockport_simplified,2022.2.4,MacIntel,30.03003003,661e456ee6de07e70aa9ef7b,6628df8e2ec4bdf738651ed0,,,,,,,,,,,,,,,,,,,,,,,,,,,,,,,,,,,,,,,,,,,,,,,,,,,,,,,,0,25,25,40,1,B,X,N,o2_image,stimuli/out2.png,stimuli/out1.png,stimuli/correct_out2.png,,,,,,,,,,,,,,,,,,,,,,,,,,,,,,,,,,,,,,
,,6557ebf8541bd32382739c1a,31,female,2024-04-24_20h32.29.222,stockport_simplified,2022.2.4,MacIntel,30.03003003,661e456ee6de07e70aa9ef7b,6628df8e2ec4bdf738651ed0,,,,,,,,,,,,,,,,,,,,,,,,,,,,,,,,,,319.0339,322.3327,"[8,4,1,6,3,7,2,5]","[[-0.3,0.2],[0.3,0.2]]","[[0.125,-0.2],[-0.125,-0.2]]",0.091983507,-0.190329861,1,0,0,2.766,o1_image,322.3331,0,322.8328,322.8328,324.8338,0,0,0,0,1,,,,,,,,,,,,,,,,,,,,,,,,,,,,,,,,,,,,,,,,,,,,,,,,,,
,,6557ebf8541bd32382739c1a,31,female,2024-04-24_20h32.29.222,stockport_simplified,2022.2.4,MacIntel,30.03003003,661e456ee6de07e70aa9ef7b,6628df8e2ec4bdf738651ed0,,,,,,,,,,,,,,,,,,,,,,,,,,,,,,,,,,,,,,,,,,,,,,,,,,,,,,,,0,26,26,17,1,B,Y,N,o2_image,stimuli/out2.png,stimuli/out1.png,stimuli/correct_out2.png,,,,,,,,,,,,,,,,,,,,,,,,,,,,,,,,,,,,,,
,,6557ebf8541bd32382739c1a,31,female,2024-04-24_20h32.29.222,stockport_simplified,2022.2.4,MacIntel,30.03003003,661e456ee6de07e70aa9ef7b,6628df8e2ec4bdf738651ed0,,,,,,,,,,,,,,,,,,,,,,,,,,,,,,,,,,324.8342,328.0995,"[8,4,1,6,3,7,2,5]","[[-0.3,0.2],[0.3,0.2]]","[[-0.125,-0.2],[0.125,-0.2]]",0.085421007,-0.168459201,1,0,0,2.7321,o2_image,328.0998,1,328.6007,328.6007,330.6008,0,0,0,0,1,,,,,,,,,,,,,,,,,,,,,,,,,,,,,,,,,,,,,,,,,,,,,,,,,,
,,6557ebf8541bd32382739c1a,31,female,2024-04-24_20h32.29.222,stockport_simplified,2022.2.4,MacIntel,30.03003003,661e456ee6de07e70aa9ef7b,6628df8e2ec4bdf738651ed0,,,,,,,,,,,,,,,,,,,,,,,,,,,,,,,,,,,,,,,,,,,,,,,,,,,,,,,,0,27,27,14,1,B,X,N,o2_image,stimuli/out2.png,stimuli/out1.png,stimuli/correct_out2.png,,,,,,,,,,,,,,,,,,,,,,,,,,,,,,,,,,,,,,
,,6557ebf8541bd32382739c1a,31,female,2024-04-24_20h32.29.222,stockport_simplified,2022.2.4,MacIntel,30.03003003,661e456ee6de07e70aa9ef7b,6628df8e2ec4bdf738651ed0,,,,,,,,,,,,,,,,,,,,,,,,,,,,,,,,,,330.6012,333.6004,"[8,4,1,6,3,7,2,5]","[[0.3,0.2],[-0.3,0.2]]","[[-0.125,-0.2],[0.125,-0.2]]",0.098411458,-0.187560764,1,0,0,2.4663,o2_image,333.6008,1,334.1,334.1,336.101,0,0,0,0,1,,,,,,,,,,,,,,,,,,,,,,,,,,,,,,,,,,,,,,,,,,,,,,,,,,
,,6557ebf8541bd32382739c1a,31,female,2024-04-24_20h32.29.222,stockport_simplified,2022.2.4,MacIntel,30.03003003,661e456ee6de07e70aa9ef7b,6628df8e2ec4bdf738651ed0,,,,,,,,,,,,,,,,,,,,,,,,,,,,,,,,,,,,,,,,,,,,,,,,,,,,,,,,0,28,28,29,1,N,M,D,o2_image,stimuli/out2.png,stimuli/out1.png,stimuli/correct_out2.png,,,,,,,,,,,,,,,,,,,,,,,,,,,,,,,,,,,,,,
,,6557ebf8541bd32382739c1a,31,female,2024-04-24_20h32.29.222,stockport_simplified,2022.2.4,MacIntel,30.03003003,661e456ee6de07e70aa9ef7b,6628df8e2ec4bdf738651ed0,,,,,,,,,,,,,,,,,,,,,,,,,,,,,,,,,,336.1015,340.0339,"[8,4,1,6,3,7,2,5]","[[-0.3,0.2],[0.3,0.2]]","[[-0.125,-0.2],[0.125,-0.2]]",0.098949653,-0.18781684,1,0,0,3.399,o2_image,340.0424,1,340.5331,340.5331,342.5341,0,0,0,0,1,,,,,,,,,,,,,,,,,,,,,,,,,,,,,,,,,,,,,,,,,,,,,,,,,,
,,6557ebf8541bd32382739c1a,31,female,2024-04-24_20h32.29.222,stockport_simplified,2022.2.4,MacIntel,30.03003003,661e456ee6de07e70aa9ef7b,6628df8e2ec4bdf738651ed0,,,,,,,,,,,,,,,,,,,,,,,,,,,,,,,,,,,,,,,,,,,,,,,,,,,,,,,,0,29,29,16,1,B,Y,N,o2_image,stimuli/out2.png,stimuli/out1.png,stimuli/correct_out2.png,,,,,,,,,,,,,,,,,,,,,,,,,,,,,,,,,,,,,,
,,6557ebf8541bd32382739c1a,31,female,2024-04-24_20h32.29.222,stockport_simplified,2022.2.4,MacIntel,30.03003003,661e456ee6de07e70aa9ef7b,6628df8e2ec4bdf738651ed0,,,,,,,,,,,,,,,,,,,,,,,,,,,,,,,,,,342.5343,346.8341,"[8,4,1,6,3,7,2,5]","[[0.3,0.2],[-0.3,0.2]]","[[0.125,-0.2],[-0.125,-0.2]]",-0.090724826,-0.179409722,1,0,0,3.7659,o2_image,346.8426,0,347.3344,347.3345,349.3343,0,0,0,0,1,,,,,,,,,,,,,,,,,,,,,,,,,,,,,,,,,,,,,,,,,,,,,,,,,,
,,6557ebf8541bd32382739c1a,31,female,2024-04-24_20h32.29.222,stockport_simplified,2022.2.4,MacIntel,30.03003003,661e456ee6de07e70aa9ef7b,6628df8e2ec4bdf738651ed0,,,,,,,,,,,,,,,,,,,,,,,,,,,,,,,,,,,,,,,,,,,,,,,,,,,,,,,,0,30,30,9,1,A,Y,N,o1_image,stimuli/out1.png,stimuli/correct_out1.png,stimuli/out2.png,,,,,,,,,,,,,,,,,,,,,,,,,,,,,,,,,,,,,,
,,6557ebf8541bd32382739c1a,31,female,2024-04-24_20h32.29.222,stockport_simplified,2022.2.4,MacIntel,30.03003003,661e456ee6de07e70aa9ef7b,6628df8e2ec4bdf738651ed0,,,,,,,,,,,,,,,,,,,,,,,,,,,,,,,,,,349.3345,352.4333,"[8,4,1,6,3,7,2,5]","[[-0.3,0.2],[0.3,0.2]]","[[0.125,-0.2],[-0.125,-0.2]]",-0.080577257,-0.173077257,1,0,0,2.5654,o2_image,352.4421,1,352.9345,352.9346,354.9342,0,0,0,0,1,,,,,,,,,,,,,,,,,,,,,,,,,,,,,,,,,,,,,,,,,,,,,,,,,,
,,6557ebf8541bd32382739c1a,31,female,2024-04-24_20h32.29.222,stockport_simplified,2022.2.4,MacIntel,30.03003003,661e456ee6de07e70aa9ef7b,6628df8e2ec4bdf738651ed0,,,,,,,,,,,,,,,,,,,,,,,,,,,,,,,,,,,,,,,,,,,,,,,,,,,,,,,,0,31,31,28,1,N,M,D,o2_image,stimuli/out2.png,stimuli/out1.png,stimuli/correct_out2.png,,,,,,,,,,,,,,,,,,,,,,,,,,,,,,,,,,,,,,
,,6557ebf8541bd32382739c1a,31,female,2024-04-24_20h32.29.222,stockport_simplified,2022.2.4,MacIntel,30.03003003,661e456ee6de07e70aa9ef7b,6628df8e2ec4bdf738651ed0,,,,,,,,,,,,,,,,,,,,,,,,,,,,,,,,,,354.9344,357.4668,"[8,4,1,6,3,7,2,5]","[[0.3,0.2],[-0.3,0.2]]","[[-0.125,-0.2],[0.125,-0.2]]",0.117921007,-0.186345486,1,0,0,2.032,o2_image,357.467,1,357.9675,357.9676,359.968,0,0,0,0,1,,,,,,,,,,,,,,,,,,,,,,,,,,,,,,,,,,,,,,,,,,,,,,,,,,
,,6557ebf8541bd32382739c1a,31,female,2024-04-24_20h32.29.222,stockport_simplified,2022.2.4,MacIntel,30.03003003,661e456ee6de07e70aa9ef7b,6628df8e2ec4bdf738651ed0,,,,,,,,,,,,,,,,,,,,,,,,,,,,,,,,,,,,,,,,,,,,,,,,,,,,,,,,0,32,32,59,1,N,M,D,o2_image,stimuli/out2.png,stimuli/out1.png,stimuli/correct_out2.png,,,,,,,,,,,,,,,,,,,,,,,,,,,,,,,,,,,,,,
,,6557ebf8541bd32382739c1a,31,female,2024-04-24_20h32.29.222,stockport_simplified,2022.2.4,MacIntel,30.03003003,661e456ee6de07e70aa9ef7b,6628df8e2ec4bdf738651ed0,,,,,,,,,,,,,,,,,,,,,,,,,,,,,,,,,,359.9688,364.901,"[8,4,1,6,3,7,2,5]","[[-0.3,0.2],[0.3,0.2]]","[[0.125,-0.2],[-0.125,-0.2]]",0.093190104,-0.171332465,1,0,0,4.399,o1_image,364.9087,0,365.4013,365.4014,367.4014,0,0,0,0,1,,,,,,,,,,,,,,,,,,,,,,,,,,,,,,,,,,,,,,,,,,,,,,,,,,
,,6557ebf8541bd32382739c1a,31,female,2024-04-24_20h32.29.222,stockport_simplified,2022.2.4,MacIntel,30.03003003,661e456ee6de07e70aa9ef7b,6628df8e2ec4bdf738651ed0,,,,,,,,,,,,,,,,,,,,,,,,,,,,,,,,,,,,,,,,,,,,,,,,,,,,,,,,0,33,33,10,1,B,X,N,o2_image,stimuli/out2.png,stimuli/out1.png,stimuli/correct_out2.png,,,,,,,,,,,,,,,,,,,,,,,,,,,,,,,,,,,,,,
,,6557ebf8541bd32382739c1a,31,female,2024-04-24_20h32.29.222,stockport_simplified,2022.2.4,MacIntel,30.03003003,661e456ee6de07e70aa9ef7b,6628df8e2ec4bdf738651ed0,,,,,,,,,,,,,,,,,,,,,,,,,,,,,,,,,,367.4019,369.3677,"[8,4,1,6,3,7,2,5]","[[-0.3,0.2],[0.3,0.2]]","[[0.125,-0.2],[-0.125,-0.2]]",-0.115724826,-0.21703559,1,0,0,1.4325,o2_image,369.368,0,369.8682,369.8682,371.8681,0,0,0,0,1,,,,,,,,,,,,,,,,,,,,,,,,,,,,,,,,,,,,,,,,,,,,,,,,,,
,,6557ebf8541bd32382739c1a,31,female,2024-04-24_20h32.29.222,stockport_simplified,2022.2.4,MacIntel,30.03003003,661e456ee6de07e70aa9ef7b,6628df8e2ec4bdf738651ed0,,,,,,,,,,,,,,,,,,,,,,,,,,,,,,,,,,,,,,,,,,,,,,,,,,,,,,,,0,34,34,32,1,A,X,N,o1_image,stimuli/out1.png,stimuli/correct_out1.png,stimuli/out2.png,,,,,,,,,,,,,,,,,,,,,,,,,,,,,,,,,,,,,,
,,6557ebf8541bd32382739c1a,31,female,2024-04-24_20h32.29.222,stockport_simplified,2022.2.4,MacIntel,30.03003003,661e456ee6de07e70aa9ef7b,6628df8e2ec4bdf738651ed0,,,,,,,,,,,,,,,,,,,,,,,,,,,,,,,,,,371.8686,374.8011,"[8,4,1,6,3,7,2,5]","[[0.3,0.2],[-0.3,0.2]]","[[0.125,-0.2],[-0.125,-0.2]]",-0.115724826,-0.21703559,1,0,0,2.3991,o2_image,374.8097,0,375.3017,375.3018,377.3018,0,0,0,0,1,,,,,,,,,,,,,,,,,,,,,,,,,,,,,,,,,,,,,,,,,,,,,,,,,,
,,6557ebf8541bd32382739c1a,31,female,2024-04-24_20h32.29.222,stockport_simplified,2022.2.4,MacIntel,30.03003003,661e456ee6de07e70aa9ef7b,6628df8e2ec4bdf738651ed0,,,,,,,,,,,,,,,,,,,,,,,,,,,,,,,,,,,,,,,,,,,,,,,,,,,,,,,,0,35,35,6,1,A,Y,N,o1_image,stimuli/out1.png,stimuli/correct_out1.png,stimuli/out2.png,,,,,,,,,,,,,,,,,,,,,,,,,,,,,,,,,,,,,,
,,6557ebf8541bd32382739c1a,31,female,2024-04-24_20h32.29.222,stockport_simplified,2022.2.4,MacIntel,30.03003003,661e456ee6de07e70aa9ef7b,6628df8e2ec4bdf738651ed0,,,,,,,,,,,,,,,,,,,,,,,,,,,,,,,,,,377.3024,380.7347,"[8,4,1,6,3,7,2,5]","[[-0.3,0.2],[0.3,0.2]]","[[-0.125,-0.2],[0.125,-0.2]]",0.117165799,-0.187174479,1,0,0,2.8997,o2_image,380.7431,1,381.2346,381.2347,383.2351,0,0,0,0,1,,,,,,,,,,,,,,,,,,,,,,,,,,,,,,,,,,,,,,,,,,,,,,,,,,
,,6557ebf8541bd32382739c1a,31,female,2024-04-24_20h32.29.222,stockport_simplified,2022.2.4,MacIntel,30.03003003,661e456ee6de07e70aa9ef7b,6628df8e2ec4bdf738651ed0,,,,,,,,,,,,,,,,,,,,,,,,,,,,,,,,,,,,,,,,,,,,,,,,,,,,,,,,0,36,36,26,1,N,M,D,o2_image,stimuli/out2.png,stimuli/out1.png,stimuli/correct_out2.png,,,,,,,,,,,,,,,,,,,,,,,,,,,,,,,,,,,,,,
,,6557ebf8541bd32382739c1a,31,female,2024-04-24_20h32.29.222,stockport_simplified,2022.2.4,MacIntel,30.03003003,661e456ee6de07e70aa9ef7b,6628df8e2ec4bdf738651ed0,,,,,,,,,,,,,,,,,,,,,,,,,,,,,,,,,,383.2357,387.468,"[8,4,1,6,3,7,2,5]","[[-0.3,0.2],[0.3,0.2]]","[[0.125,-0.2],[-0.125,-0.2]]",-0.098958333,-0.20187934,1,0,0,3.699,o2_image,387.4765,0,387.9684,387.9685,389.9685,0,0,0,0,1,,,,,,,,,,,,,,,,,,,,,,,,,,,,,,,,,,,,,,,,,,,,,,,,,,
,,6557ebf8541bd32382739c1a,31,female,2024-04-24_20h32.29.222,stockport_simplified,2022.2.4,MacIntel,30.03003003,661e456ee6de07e70aa9ef7b,6628df8e2ec4bdf738651ed0,,,,,,,,,,,,,,,,,,,,,,,,,,,,,,,,,,,,,,,,,,,,,,,,,,,,,,,,0,37,37,1,1,A,X,N,o1_image,stimuli/out1.png,stimuli/correct_out1.png,stimuli/out2.png,,,,,,,,,,,,,,,,,,,,,,,,,,,,,,,,,,,,,,
,,6557ebf8541bd32382739c1a,31,female,2024-04-24_20h32.29.222,stockport_simplified,2022.2.4,MacIntel,30.03003003,661e456ee6de07e70aa9ef7b,6628df8e2ec4bdf738651ed0,,,,,,,,,,,,,,,,,,,,,,,,,,,,,,,,,,389.9692,393.1339,"[8,4,1,6,3,7,2,5]","[[0.3,0.2],[-0.3,0.2]]","[[0.125,-0.2],[-0.125,-0.2]]",-0.098958333,-0.20187934,1,0,0,2.6314,o2_image,393.1427,1,393.6354,393.6354,395.6354,0,0,0,0,1,,,,,,,,,,,,,,,,,,,,,,,,,,,,,,,,,,,,,,,,,,,,,,,,,,
,,6557ebf8541bd32382739c1a,31,female,2024-04-24_20h32.29.222,stockport_simplified,2022.2.4,MacIntel,30.03003003,661e456ee6de07e70aa9ef7b,6628df8e2ec4bdf738651ed0,,,,,,,,,,,,,,,,,,,,,,,,,,,,,,,,,,,,,,,,,,,,,,,,,,,,,,,,0,38,38,12,1,B,X,N,o2_image,stimuli/out2.png,stimuli/out1.png,stimuli/correct_out2.png,,,,,,,,,,,,,,,,,,,,,,,,,,,,,,,,,,,,,,
,,6557ebf8541bd32382739c1a,31,female,2024-04-24_20h32.29.222,stockport_simplified,2022.2.4,MacIntel,30.03003003,661e456ee6de07e70aa9ef7b,6628df8e2ec4bdf738651ed0,,,,,,,,,,,,,,,,,,,,,,,,,,,,,,,,,,395.6359,398.6683,"[8,4,1,6,3,7,2,5]","[[0.3,0.2],[-0.3,0.2]]","[[0.125,-0.2],[-0.125,-0.2]]",-0.098958333,-0.20187934,1,0,0,2.4999,o2_image,398.6774,1,399.1682,399.1683,401.1684,0,0,0,0,1,,,,,,,,,,,,,,,,,,,,,,,,,,,,,,,,,,,,,,,,,,,,,,,,,,
,,6557ebf8541bd32382739c1a,31,female,2024-04-24_20h32.29.222,stockport_simplified,2022.2.4,MacIntel,30.03003003,661e456ee6de07e70aa9ef7b,6628df8e2ec4bdf738651ed0,,,,,,,,,,,,,,,,,,,,,,,,,,,,,,,,,,,,,,,,,,,,,,,,,,,,,,,,0,39,39,44,1,B,X,N,o2_image,stimuli/out2.png,stimuli/out1.png,stimuli/correct_out2.png,,,,,,,,,,,,,,,,,,,,,,,,,,,,,,,,,,,,,,
,,6557ebf8541bd32382739c1a,31,female,2024-04-24_20h32.29.222,stockport_simplified,2022.2.4,MacIntel,30.03003003,661e456ee6de07e70aa9ef7b,6628df8e2ec4bdf738651ed0,,,,,,,,,,,,,,,,,,,,,,,,,,,,,,,,,,401.1686,404.4349,"[8,4,1,6,3,7,2,5]","[[0.3,0.2],[-0.3,0.2]]","[[0.125,-0.2],[-0.125,-0.2]]",0.094244792,-0.218016493,1,0,0,2.7656,o1_image,404.4434,0,404.935,404.9351,406.9351,0,0,0,0,1,,,,,,,,,,,,,,,,,,,,,,,,,,,,,,,,,,,,,,,,,,,,,,,,,,
,,6557ebf8541bd32382739c1a,31,female,2024-04-24_20h32.29.222,stockport_simplified,2022.2.4,MacIntel,30.03003003,661e456ee6de07e70aa9ef7b,6628df8e2ec4bdf738651ed0,,,,,,,,,,,,,,,,,,,,,,,,,,,,,,,,,,,,,,,,,,,,,,,,,,,,,,,,0,40,40,48,1,B,Y,N,o2_image,stimuli/out2.png,stimuli/out1.png,stimuli/correct_out2.png,,,,,,,,,,,,,,,,,,,,,,,,,,,,,,,,,,,,,,
,,6557ebf8541bd32382739c1a,31,female,2024-04-24_20h32.29.222,stockport_simplified,2022.2.4,MacIntel,30.03003003,661e456ee6de07e70aa9ef7b,6628df8e2ec4bdf738651ed0,,,,,,,,,,,,,,,,,,,,,,,,,,,,,,,,,,406.9354,412.0018,"[8,4,1,6,3,7,2,5]","[[-0.3,0.2],[0.3,0.2]]","[[-0.125,-0.2],[0.125,-0.2]]",0.105512153,-0.201935764,1,0,0,4.5657,o2_image,412.0096,0,412.5022,412.5023,414.5023,0,0,0,0,1,,,,,,,,,,,,,,,,,,,,,,,,,,,,,,,,,,,,,,,,,,,,,,,,,,
,,6557ebf8541bd32382739c1a,31,female,2024-04-24_20h32.29.222,stockport_simplified,2022.2.4,MacIntel,30.03003003,661e456ee6de07e70aa9ef7b,6628df8e2ec4bdf738651ed0,,,,,,,,,,,,,,,,,,,,,,,,,,,,,,,,,,,,,,,,,,,,,,,,,,,,,,,,0,41,41,4,1,A,X,N,o1_image,stimuli/out1.png,stimuli/correct_out1.png,stimuli/out2.png,,,,,,,,,,,,,,,,,,,,,,,,,,,,,,,,,,,,,,
,,6557ebf8541bd32382739c1a,31,female,2024-04-24_20h32.29.222,stockport_simplified,2022.2.4,MacIntel,30.03003003,661e456ee6de07e70aa9ef7b,6628df8e2ec4bdf738651ed0,,,,,,,,,,,,,,,,,,,,,,,,,,,,,,,,,,414.5031,419.2352,"[8,4,1,6,3,7,2,5]","[[0.3,0.2],[-0.3,0.2]]","[[0.125,-0.2],[-0.125,-0.2]]",-0.072226562,-0.197204861,1,0,0,4.1992,o2_image,419.2431,0,419.7353,419.7353,421.7353,0,0,0,0,1,,,,,,,,,,,,,,,,,,,,,,,,,,,,,,,,,,,,,,,,,,,,,,,,,,
,,6557ebf8541bd32382739c1a,31,female,2024-04-24_20h32.29.222,stockport_simplified,2022.2.4,MacIntel,30.03003003,661e456ee6de07e70aa9ef7b,6628df8e2ec4bdf738651ed0,,,,,,,,,,,,,,,,,,,,,,,,,,,,,,,,,,,,,,,,,,,,,,,,,,,,,,,,0,42,42,36,1,A,Y,N,o1_image,stimuli/out1.png,stimuli/correct_out1.png,stimuli/out2.png,,,,,,,,,,,,,,,,,,,,,,,,,,,,,,,,,,,,,,
,,6557ebf8541bd32382739c1a,31,female,2024-04-24_20h32.29.222,stockport_simplified,2022.2.4,MacIntel,30.03003003,661e456ee6de07e70aa9ef7b,6628df8e2ec4bdf738651ed0,,,,,,,,,,,,,,,,,,,,,,,,,,,,,,,,,,421.7357,426.5686,"[8,4,1,6,3,7,2,5]","[[-0.3,0.2],[0.3,0.2]]","[[0.125,-0.2],[-0.125,-0.2]]",-0.129175347,-0.176740451,1,0,0,4.299,o2_image,426.5763,0,427.0687,427.0687,429.0691,0,0,0,0,1,,,,,,,,,,,,,,,,,,,,,,,,,,,,,,,,,,,,,,,,,,,,,,,,,,
,,6557ebf8541bd32382739c1a,31,female,2024-04-24_20h32.29.222,stockport_simplified,2022.2.4,MacIntel,30.03003003,661e456ee6de07e70aa9ef7b,6628df8e2ec4bdf738651ed0,,,,,,,,,,,,,,,,,,,,,,,,,,,,,,,,,,,,,,,,,,,,,,,,,,,,,,,,0,43,43,34,1,A,X,N,o1_image,stimuli/out1.png,stimuli/correct_out1.png,stimuli/out2.png,,,,,,,,,,,,,,,,,,,,,,,,,,,,,,,,,,,,,,
,,6557ebf8541bd32382739c1a,31,female,2024-04-24_20h32.29.222,stockport_simplified,2022.2.4,MacIntel,30.03003003,661e456ee6de07e70aa9ef7b,6628df8e2ec4bdf738651ed0,,,,,,,,,,,,,,,,,,,,,,,,,,,,,,,,,,429.0698,432.7687,"[8,4,1,6,3,7,2,5]","[[-0.3,0.2],[0.3,0.2]]","[[-0.125,-0.2],[0.125,-0.2]]",-0.124197049,-0.190086806,1,0,0,3.1655,o1_image,432.7775,0,433.2692,433.2692,435.2694,0,0,0,0,1,,,,,,,,,,,,,,,,,,,,,,,,,,,,,,,,,,,,,,,,,,,,,,,,,,
,,6557ebf8541bd32382739c1a,31,female,2024-04-24_20h32.29.222,stockport_simplified,2022.2.4,MacIntel,30.03003003,661e456ee6de07e70aa9ef7b,6628df8e2ec4bdf738651ed0,,,,,,,,,,,,,,,,,,,,,,,,,,,,,,,,,,,,,,,,,,,,,,,,,,,,,,,,0,44,44,45,1,B,Y,N,o2_image,stimuli/out2.png,stimuli/out1.png,stimuli/correct_out2.png,,,,,,,,,,,,,,,,,,,,,,,,,,,,,,,,,,,,,,
,,6557ebf8541bd32382739c1a,31,female,2024-04-24_20h32.29.222,stockport_simplified,2022.2.4,MacIntel,30.03003003,661e456ee6de07e70aa9ef7b,6628df8e2ec4bdf738651ed0,,,,,,,,,,,,,,,,,,,,,,,,,,,,,,,,,,435.27,439.1354,"[8,4,1,6,3,7,2,5]","[[-0.3,0.2],[0.3,0.2]]","[[-0.125,-0.2],[0.125,-0.2]]",0.077534722,-0.193493924,1,0,0,3.3322,o2_image,439.1433,1,439.6362,439.6362,441.6362,0,0,0,0,1,,,,,,,,,,,,,,,,,,,,,,,,,,,,,,,,,,,,,,,,,,,,,,,,,,
,,6557ebf8541bd32382739c1a,31,female,2024-04-24_20h32.29.222,stockport_simplified,2022.2.4,MacIntel,30.03003003,661e456ee6de07e70aa9ef7b,6628df8e2ec4bdf738651ed0,,,,,,,,,,,,,,,,,,,,,,,,,,,,,,,,,,,,,,,,,,,,,,,,,,,,,,,,0,45,45,13,1,B,X,N,o2_image,stimuli/out2.png,stimuli/out1.png,stimuli/correct_out2.png,,,,,,,,,,,,,,,,,,,,,,,,,,,,,,,,,,,,,,
,,6557ebf8541bd32382739c1a,31,female,2024-04-24_20h32.29.222,stockport_simplified,2022.2.4,MacIntel,30.03003003,661e456ee6de07e70aa9ef7b,6628df8e2ec4bdf738651ed0,,,,,,,,,,,,,,,,,,,,,,,,,,,,,,,,,,441.6368,444.0689,"[8,4,1,6,3,7,2,5]","[[0.3,0.2],[-0.3,0.2]]","[[-0.125,-0.2],[0.125,-0.2]]",-0.12921441,-0.194956597,1,0,0,1.8995,o1_image,444.0692,1,444.5694,444.5695,446.5694,0,0,0,0,1,,,,,,,,,,,,,,,,,,,,,,,,,,,,,,,,,,,,,,,,,,,,,,,,,,
,,6557ebf8541bd32382739c1a,31,female,2024-04-24_20h32.29.222,stockport_simplified,2022.2.4,MacIntel,30.03003003,661e456ee6de07e70aa9ef7b,6628df8e2ec4bdf738651ed0,,,,,,,,,,,,,,,,,,,,,,,,,,,,,,,,,,,,,,,,,,,,,,,,,,,,,,,,0,46,46,37,1,A,Y,N,o1_image,stimuli/out1.png,stimuli/correct_out1.png,stimuli/out2.png,,,,,,,,,,,,,,,,,,,,,,,,,,,,,,,,,,,,,,
,,6557ebf8541bd32382739c1a,31,female,2024-04-24_20h32.29.222,stockport_simplified,2022.2.4,MacIntel,30.03003003,661e456ee6de07e70aa9ef7b,6628df8e2ec4bdf738651ed0,,,,,,,,,,,,,,,,,,,,,,,,,,,,,,,,,,446.57,448.669,"[8,4,1,6,3,7,2,5]","[[0.3,0.2],[-0.3,0.2]]","[[-0.125,-0.2],[0.125,-0.2]]",0.112235243,-0.205125868,1,0,0,1.5657,o2_image,448.6692,1,449.1691,449.1691,451.1691,0,0,0,0,1,,,,,,,,,,,,,,,,,,,,,,,,,,,,,,,,,,,,,,,,,,,,,,,,,,
,,6557ebf8541bd32382739c1a,31,female,2024-04-24_20h32.29.222,stockport_simplified,2022.2.4,MacIntel,30.03003003,661e456ee6de07e70aa9ef7b,6628df8e2ec4bdf738651ed0,,,,,,,,,,,,,,,,,,,,,,,,,,,,,,,,,,,,,,,,,,,,,,,,,,,,,,,,0,47,47,25,1,N,M,D,o2_image,stimuli/out2.png,stimuli/out1.png,stimuli/correct_out2.png,,,,,,,,,,,,,,,,,,,,,,,,,,,,,,,,,,,,,,
,,6557ebf8541bd32382739c1a,31,female,2024-04-24_20h32.29.222,stockport_simplified,2022.2.4,MacIntel,30.03003003,661e456ee6de07e70aa9ef7b,6628df8e2ec4bdf738651ed0,,,,,,,,,,,,,,,,,,,,,,,,,,,,,,,,,,451.1693,457.3025,"[8,4,1,6,3,7,2,5]","[[0.3,0.2],[-0.3,0.2]]","[[-0.125,-0.2],[0.125,-0.2]]",-0.120269097,-0.198849826,1,0,0,5.6321,o1_image,457.3114,1,457.8031,457.8031,459.8032,0,0,0,0,1,,,,,,,,,,,,,,,,,,,,,,,,,,,,,,,,,,,,,,,,,,,,,,,,,,
,,6557ebf8541bd32382739c1a,31,female,2024-04-24_20h32.29.222,stockport_simplified,2022.2.4,MacIntel,30.03003003,661e456ee6de07e70aa9ef7b,6628df8e2ec4bdf738651ed0,,,,,,,,,,,,,,,,,,,,,,,,,,,,,,,,,,,,,,,,,,,,,,,,,,,,,,,,0,48,48,39,1,A,Y,N,o1_image,stimuli/out1.png,stimuli/correct_out1.png,stimuli/out2.png,,,,,,,,,,,,,,,,,,,,,,,,,,,,,,,,,,,,,,
,,6557ebf8541bd32382739c1a,31,female,2024-04-24_20h32.29.222,stockport_simplified,2022.2.4,MacIntel,30.03003003,661e456ee6de07e70aa9ef7b,6628df8e2ec4bdf738651ed0,,,,,,,,,,,,,,,,,,,,,,,,,,,,,,,,,,459.8038,462.236,"[8,4,1,6,3,7,2,5]","[[0.3,0.2],[-0.3,0.2]]","[[0.125,-0.2],[-0.125,-0.2]]",0.08828559,-0.171354167,1,0,0,1.8991,o1_image,462.2363,1,462.7364,462.7364,464.7363,0,0,0,0,1,,,,,,,,,,,,,,,,,,,,,,,,,,,,,,,,,,,,,,,,,,,,,,,,,,
,,6557ebf8541bd32382739c1a,31,female,2024-04-24_20h32.29.222,stockport_simplified,2022.2.4,MacIntel,30.03003003,661e456ee6de07e70aa9ef7b,6628df8e2ec4bdf738651ed0,,,,,,,,,,,,,,,,,,,,,,,,,,,,,,,,,,,,,,,,,,,,,,,,,,,,,,,,0,49,49,50,1,N,M,C,o1_image,stimuli/out1.png,stimuli/correct_out1.png,stimuli/out2.png,,,,,,,,,,,,,,,,,,,,,,,,,,,,,,,,,,,,,,
,,6557ebf8541bd32382739c1a,31,female,2024-04-24_20h32.29.222,stockport_simplified,2022.2.4,MacIntel,30.03003003,661e456ee6de07e70aa9ef7b,6628df8e2ec4bdf738651ed0,,,,,,,,,,,,,,,,,,,,,,,,,,,,,,,,,,464.7368,466.9027,"[8,4,1,6,3,7,2,5]","[[-0.3,0.2],[0.3,0.2]]","[[-0.125,-0.2],[0.125,-0.2]]",-0.100138889,-0.186662326,1,0,0,1.6325,o1_image,466.9031,1,467.4026,467.4026,469.4029,0,0,0,0,1,,,,,,,,,,,,,,,,,,,,,,,,,,,,,,,,,,,,,,,,,,,,,,,,,,
,,6557ebf8541bd32382739c1a,31,female,2024-04-24_20h32.29.222,stockport_simplified,2022.2.4,MacIntel,30.03003003,661e456ee6de07e70aa9ef7b,6628df8e2ec4bdf738651ed0,,,,,,,,,,,,,,,,,,,,,,,,,,,,,,,,,,,,,,,,,,,,,,,,,,,,,,,,0,50,50,21,1,N,M,C,o1_image,stimuli/out1.png,stimuli/correct_out1.png,stimuli/out2.png,,,,,,,,,,,,,,,,,,,,,,,,,,,,,,,,,,,,,,
,,6557ebf8541bd32382739c1a,31,female,2024-04-24_20h32.29.222,stockport_simplified,2022.2.4,MacIntel,30.03003003,661e456ee6de07e70aa9ef7b,6628df8e2ec4bdf738651ed0,,,,,,,,,,,,,,,,,,,,,,,,,,,,,,,,,,469.4035,473.4362,"[8,4,1,6,3,7,2,5]","[[-0.3,0.2],[0.3,0.2]]","[[-0.125,-0.2],[0.125,-0.2]]",-0.102365451,-0.174505208,1,0,0,3.5,o1_image,473.4439,0,473.9362,473.9362,475.9363,0,0,0,0,1,,,,,,,,,,,,,,,,,,,,,,,,,,,,,,,,,,,,,,,,,,,,,,,,,,
,,6557ebf8541bd32382739c1a,31,female,2024-04-24_20h32.29.222,stockport_simplified,2022.2.4,MacIntel,30.03003003,661e456ee6de07e70aa9ef7b,6628df8e2ec4bdf738651ed0,,,,,,,,,,,,,,,,,,,,,,,,,,,,,,,,,,,,,,,,,,,,,,,,,,,,,,,,0,51,51,49,1,B,Y,N,o2_image,stimuli/out2.png,stimuli/out1.png,stimuli/correct_out2.png,,,,,,,,,,,,,,,,,,,,,,,,,,,,,,,,,,,,,,
,,6557ebf8541bd32382739c1a,31,female,2024-04-24_20h32.29.222,stockport_simplified,2022.2.4,MacIntel,30.03003003,661e456ee6de07e70aa9ef7b,6628df8e2ec4bdf738651ed0,,,,,,,,,,,,,,,,,,,,,,,,,,,,,,,,,,475.9365,478.2362,"[8,4,1,6,3,7,2,5]","[[-0.3,0.2],[0.3,0.2]]","[[-0.125,-0.2],[0.125,-0.2]]",-0.090915799,-0.201506076,1,0,0,1.7656,o1_image,478.2365,1,478.7366,478.7367,480.7363,0,0,0,0,1,,,,,,,,,,,,,,,,,,,,,,,,,,,,,,,,,,,,,,,,,,,,,,,,,,
,,6557ebf8541bd32382739c1a,31,female,2024-04-24_20h32.29.222,stockport_simplified,2022.2.4,MacIntel,30.03003003,661e456ee6de07e70aa9ef7b,6628df8e2ec4bdf738651ed0,,,,,,,,,,,,,,,,,,,,,,,,,,,,,,,,,,,,,,,,,,,,,,,,,,,,,,,,0,52,52,51,1,N,M,C,o1_image,stimuli/out1.png,stimuli/correct_out1.png,stimuli/out2.png,,,,,,,,,,,,,,,,,,,,,,,,,,,,,,,,,,,,,,
,,6557ebf8541bd32382739c1a,31,female,2024-04-24_20h32.29.222,stockport_simplified,2022.2.4,MacIntel,30.03003003,661e456ee6de07e70aa9ef7b,6628df8e2ec4bdf738651ed0,,,,,,,,,,,,,,,,,,,,,,,,,,,,,,,,,,480.7366,483.7029,"[8,4,1,6,3,7,2,5]","[[-0.3,0.2],[0.3,0.2]]","[[-0.125,-0.2],[0.125,-0.2]]",0.100963542,-0.19922309,1,0,0,2.4653,o2_image,483.7031,0,484.2036,484.2036,486.2032,0,0,0,0,1,,,,,,,,,,,,,,,,,,,,,,,,,,,,,,,,,,,,,,,,,,,,,,,,,,
,,6557ebf8541bd32382739c1a,31,female,2024-04-24_20h32.29.222,stockport_simplified,2022.2.4,MacIntel,30.03003003,661e456ee6de07e70aa9ef7b,6628df8e2ec4bdf738651ed0,,,,,,,,,,,,,,,,,,,,,,,,,,,,,,,,,,,,,,,,,,,,,,,,,,,,,,,,0,53,53,33,1,A,X,N,o1_image,stimuli/out1.png,stimuli/correct_out1.png,stimuli/out2.png,,,,,,,,,,,,,,,,,,,,,,,,,,,,,,,,,,,,,,
,,6557ebf8541bd32382739c1a,31,female,2024-04-24_20h32.29.222,stockport_simplified,2022.2.4,MacIntel,30.03003003,661e456ee6de07e70aa9ef7b,6628df8e2ec4bdf738651ed0,,,,,,,,,,,,,,,,,,,,,,,,,,,,,,,,,,486.2038,489.2697,"[8,4,1,6,3,7,2,5]","[[-0.3,0.2],[0.3,0.2]]","[[0.125,-0.2],[-0.125,-0.2]]",0.095017361,-0.193098958,1,0,0,2.5323,o1_image,489.2775,0,489.7699,489.77,491.7701,0,0,0,0,1,,,,,,,,,,,,,,,,,,,,,,,,,,,,,,,,,,,,,,,,,,,,,,,,,,
,,6557ebf8541bd32382739c1a,31,female,2024-04-24_20h32.29.222,stockport_simplified,2022.2.4,MacIntel,30.03003003,661e456ee6de07e70aa9ef7b,6628df8e2ec4bdf738651ed0,,,,,,,,,,,,,,,,,,,,,,,,,,,,,,,,,,,,,,,,,,,,,,,,,,,,,,,,0,54,54,58,1,N,M,D,o2_image,stimuli/out2.png,stimuli/out1.png,stimuli/correct_out2.png,,,,,,,,,,,,,,,,,,,,,,,,,,,,,,,,,,,,,,
,,6557ebf8541bd32382739c1a,31,female,2024-04-24_20h32.29.222,stockport_simplified,2022.2.4,MacIntel,30.03003003,661e456ee6de07e70aa9ef7b,6628df8e2ec4bdf738651ed0,,,,,,,,,,,,,,,,,,,,,,,,,,,,,,,,,,491.7705,494.7031,"[8,4,1,6,3,7,2,5]","[[0.3,0.2],[-0.3,0.2]]","[[-0.125,-0.2],[0.125,-0.2]]",-0.11609809,-0.194856771,1,0,0,2.3994,o1_image,494.7118,1,495.2035,495.2036,497.2035,0,0,0,0,1,,,,,,,,,,,,,,,,,,,,,,,,,,,,,,,,,,,,,,,,,,,,,,,,,,
,,6557ebf8541bd32382739c1a,31,female,2024-04-24_20h32.29.222,stockport_simplified,2022.2.4,MacIntel,30.03003003,661e456ee6de07e70aa9ef7b,6628df8e2ec4bdf738651ed0,,,,,,,,,,,,,,,,,,,,,,,,,,,,,,,,,,,,,,,,,,,,,,,,,,,,,,,,0,55,55,54,1,N,M,C,o1_image,stimuli/out1.png,stimuli/correct_out1.png,stimuli/out2.png,,,,,,,,,,,,,,,,,,,,,,,,,,,,,,,,,,,,,,
,,6557ebf8541bd32382739c1a,31,female,2024-04-24_20h32.29.222,stockport_simplified,2022.2.4,MacIntel,30.03003003,661e456ee6de07e70aa9ef7b,6628df8e2ec4bdf738651ed0,,,,,,,,,,,,,,,,,,,,,,,,,,,,,,,,,,497.2041,501.1032,"[8,4,1,6,3,7,2,5]","[[0.3,0.2],[-0.3,0.2]]","[[0.125,-0.2],[-0.125,-0.2]]",0.055863715,-0.180186632,1,0,0,3.3663,o1_image,501.111,0,501.6036,501.6037,503.6037,0,0,0,0,1,,,,,,,,,,,,,,,,,,,,,,,,,,,,,,,,,,,,,,,,,,,,,,,,,,
,,6557ebf8541bd32382739c1a,31,female,2024-04-24_20h32.29.222,stockport_simplified,2022.2.4,MacIntel,30.03003003,661e456ee6de07e70aa9ef7b,6628df8e2ec4bdf738651ed0,,,,,,,,,,,,,,,,,,,,,,,,,,,,,,,,,,,,,,,,,,,,,,,,,,,,,,,,0,56,56,47,1,B,Y,N,o2_image,stimuli/out2.png,stimuli/out1.png,stimuli/correct_out2.png,,,,,,,,,,,,,,,,,,,,,,,,,,,,,,,,,,,,,,
,,6557ebf8541bd32382739c1a,31,female,2024-04-24_20h32.29.222,stockport_simplified,2022.2.4,MacIntel,30.03003003,661e456ee6de07e70aa9ef7b,6628df8e2ec4bdf738651ed0,,,,,,,,,,,,,,,,,,,,,,,,,,,,,,,,,,503.6043,506.1032,"[8,4,1,6,3,7,2,5]","[[0.3,0.2],[-0.3,0.2]]","[[0.125,-0.2],[-0.125,-0.2]]",-0.101315104,-0.203467882,1,0,0,1.9662,o2_image,506.1035,1,506.6038,506.6039,508.6034,0,0,0,0,1,,,,,,,,,,,,,,,,,,,,,,,,,,,,,,,,,,,,,,,,,,,,,,,,,,
,,6557ebf8541bd32382739c1a,31,female,2024-04-24_20h32.29.222,stockport_simplified,2022.2.4,MacIntel,30.03003003,661e456ee6de07e70aa9ef7b,6628df8e2ec4bdf738651ed0,,,,,,,,,,,,,,,,,,,,,,,,,,,,,,,,,,,,,,,,,,,,,,,,,,,,,,,,0,57,57,15,1,B,Y,N,o2_image,stimuli/out2.png,stimuli/out1.png,stimuli/correct_out2.png,,,,,,,,,,,,,,,,,,,,,,,,,,,,,,,,,,,,,,
,,6557ebf8541bd32382739c1a,31,female,2024-04-24_20h32.29.222,stockport_simplified,2022.2.4,MacIntel,30.03003003,661e456ee6de07e70aa9ef7b,6628df8e2ec4bdf738651ed0,,,,,,,,,,,,,,,,,,,,,,,,,,,,,,,,,,508.604,510.4368,"[8,4,1,6,3,7,2,5]","[[0.3,0.2],[-0.3,0.2]]","[[-0.125,-0.2],[0.125,-0.2]]",-0.107868924,-0.21578125,1,0,0,1.3001,o1_image,510.4372,1,510.9368,510.9368,512.9368,0,0,0,0,1,,,,,,,,,,,,,,,,,,,,,,,,,,,,,,,,,,,,,,,,,,,,,,,,,,
,,6557ebf8541bd32382739c1a,31,female,2024-04-24_20h32.29.222,stockport_simplified,2022.2.4,MacIntel,30.03003003,661e456ee6de07e70aa9ef7b,6628df8e2ec4bdf738651ed0,,,,,,,,,,,,,,,,,,,,,,,,,,,,,,,,,,,,,,,,,,,,,,,,,,,,,,,,0,58,58,24,1,N,M,C,o1_image,stimuli/out1.png,stimuli/correct_out1.png,stimuli/out2.png,,,,,,,,,,,,,,,,,,,,,,,,,,,,,,,,,,,,,,
,,6557ebf8541bd32382739c1a,31,female,2024-04-24_20h32.29.222,stockport_simplified,2022.2.4,MacIntel,30.03003003,661e456ee6de07e70aa9ef7b,6628df8e2ec4bdf738651ed0,,,,,,,,,,,,,,,,,,,,,,,,,,,,,,,,,,512.937,515.2368,"[8,4,1,6,3,7,2,5]","[[-0.3,0.2],[0.3,0.2]]","[[-0.125,-0.2],[0.125,-0.2]]",-0.114288194,-0.21578125,1,0,0,1.7663,o1_image,515.2371,1,515.737,515.737,517.737,0,0,0,0,1,,,,,,,,,,,,,,,,,,,,,,,,,,,,,,,,,,,,,,,,,,,,,,,,,,
,,6557ebf8541bd32382739c1a,31,female,2024-04-24_20h32.29.222,stockport_simplified,2022.2.4,MacIntel,30.03003003,661e456ee6de07e70aa9ef7b,6628df8e2ec4bdf738651ed0,,,,,,,,,,,,,,,,,,,,,,,,,,,,,,,,,,,,,,,,,,,,,,,,,,,,,,,,0,59,59,52,1,N,M,C,o1_image,stimuli/out1.png,stimuli/correct_out1.png,stimuli/out2.png,,,,,,,,,,,,,,,,,,,,,,,,,,,,,,,,,,,,,,
,,6557ebf8541bd32382739c1a,31,female,2024-04-24_20h32.29.222,stockport_simplified,2022.2.4,MacIntel,30.03003003,661e456ee6de07e70aa9ef7b,6628df8e2ec4bdf738651ed0,,,,,,,,,,,,,,,,,,,,,,,,,,,,,,,,,,517.7372,519.1369,"[8,4,1,6,3,7,2,5]","[[-0.3,0.2],[0.3,0.2]]","[[-0.125,-0.2],[0.125,-0.2]]",-0.111362847,-0.217907986,1,0,0,0.8664,o1_image,519.1372,1,519.6376,519.6376,521.6375,0,0,0,0,1,,,,,,,,,,,,,,,,,,,,,,,,,,,,,,,,,,,,,,,,,,,,,,,,,,
,,6557ebf8541bd32382739c1a,31,female,2024-04-24_20h32.29.222,stockport_simplified,2022.2.4,MacIntel,30.03003003,661e456ee6de07e70aa9ef7b,6628df8e2ec4bdf738651ed0,,,,,,,,,,,,,,,,,,,,,,,,,,,,,,,,,,,,,,,,,,,,,,,,,,,,,,,,1,0,60,53,1,N,M,C,o1_image,stimuli/out1.png,stimuli/correct_out1.png,stimuli/out2.png,,,,,,,,,,,,,,,,,,,,,,,,,,,,,,,,,,,,,,
,,6557ebf8541bd32382739c1a,31,female,2024-04-24_20h32.29.222,stockport_simplified,2022.2.4,MacIntel,30.03003003,661e456ee6de07e70aa9ef7b,6628df8e2ec4bdf738651ed0,,,,,,,,,,,,,,,,,,,,,,,,,,,,,,,,,,521.6381,522.9036,"[8,4,1,6,3,7,2,5]","[[-0.3,0.2],[0.3,0.2]]","[[0.125,-0.2],[-0.125,-0.2]]",-0.111362847,-0.217907986,1,0,0,0.7333,o2_image,522.904,0,523.4033,523.4033,525.4037,0,0,0,0,1,,,,,,,,,,,,,,,,,,,,,,,,,,,,,,,,,,,,,,,,,,,,,,,,,,
,,6557ebf8541bd32382739c1a,31,female,2024-04-24_20h32.29.222,stockport_simplified,2022.2.4,MacIntel,30.03003003,661e456ee6de07e70aa9ef7b,6628df8e2ec4bdf738651ed0,,,,,,,,,,,,,,,,,,,,,,,,,,,,,,,,,,,,,,,,,,,,,,,,,,,,,,,,1,1,61,51,1,N,M,C,o1_image,stimuli/out1.png,stimuli/correct_out1.png,stimuli/out2.png,,,,,,,,,,,,,,,,,,,,,,,,,,,,,,,,,,,,,,
,,6557ebf8541bd32382739c1a,31,female,2024-04-24_20h32.29.222,stockport_simplified,2022.2.4,MacIntel,30.03003003,661e456ee6de07e70aa9ef7b,6628df8e2ec4bdf738651ed0,,,,,,,,,,,,,,,,,,,,,,,,,,,,,,,,,,525.404,530.3705,"[8,4,1,6,3,7,2,5]","[[-0.3,0.2],[0.3,0.2]]","[[0.125,-0.2],[-0.125,-0.2]]",-0.060733507,-0.199418403,1,0,0,4.4332,o2_image,530.3783,0,530.8706,530.8706,532.8704,0,0,0,0,1,,,,,,,,,,,,,,,,,,,,,,,,,,,,,,,,,,,,,,,,,,,,,,,,,,
,,6557ebf8541bd32382739c1a,31,female,2024-04-24_20h32.29.222,stockport_simplified,2022.2.4,MacIntel,30.03003003,661e456ee6de07e70aa9ef7b,6628df8e2ec4bdf738651ed0,,,,,,,,,,,,,,,,,,,,,,,,,,,,,,,,,,,,,,,,,,,,,,,,,,,,,,,,1,2,62,37,1,A,Y,N,o1_image,stimuli/out1.png,stimuli/correct_out1.png,stimuli/out2.png,,,,,,,,,,,,,,,,,,,,,,,,,,,,,,,,,,,,,,
,,6557ebf8541bd32382739c1a,31,female,2024-04-24_20h32.29.222,stockport_simplified,2022.2.4,MacIntel,30.03003003,661e456ee6de07e70aa9ef7b,6628df8e2ec4bdf738651ed0,,,,,,,,,,,,,,,,,,,,,,,,,,,,,,,,,,532.8707,536.4038,"[8,4,1,6,3,7,2,5]","[[-0.3,0.2],[0.3,0.2]]","[[-0.125,-0.2],[0.125,-0.2]]",-0.088962674,-0.197552083,1,0,0,2.999,o1_image,536.4042,1,536.9038,536.9038,538.9038,0,0,0,0,1,,,,,,,,,,,,,,,,,,,,,,,,,,,,,,,,,,,,,,,,,,,,,,,,,,
,,6557ebf8541bd32382739c1a,31,female,2024-04-24_20h32.29.222,stockport_simplified,2022.2.4,MacIntel,30.03003003,661e456ee6de07e70aa9ef7b,6628df8e2ec4bdf738651ed0,,,,,,,,,,,,,,,,,,,,,,,,,,,,,,,,,,,,,,,,,,,,,,,,,,,,,,,,1,3,63,22,1,N,M,C,o1_image,stimuli/out1.png,stimuli/correct_out1.png,stimuli/out2.png,,,,,,,,,,,,,,,,,,,,,,,,,,,,,,,,,,,,,,
,,6557ebf8541bd32382739c1a,31,female,2024-04-24_20h32.29.222,stockport_simplified,2022.2.4,MacIntel,30.03003003,661e456ee6de07e70aa9ef7b,6628df8e2ec4bdf738651ed0,,,,,,,,,,,,,,,,,,,,,,,,,,,,,,,,,,538.9041,542.6362,"[8,4,1,6,3,7,2,5]","[[-0.3,0.2],[0.3,0.2]]","[[0.125,-0.2],[-0.125,-0.2]]",-0.105065104,-0.197868924,1,0,0,3.198,o2_image,542.644,1,543.1367,543.1368,545.1373,0,0,0,0,1,,,,,,,,,,,,,,,,,,,,,,,,,,,,,,,,,,,,,,,,,,,,,,,,,,
,,6557ebf8541bd32382739c1a,31,female,2024-04-24_20h32.29.222,stockport_simplified,2022.2.4,MacIntel,30.03003003,661e456ee6de07e70aa9ef7b,6628df8e2ec4bdf738651ed0,,,,,,,,,,,,,,,,,,,,,,,,,,,,,,,,,,,,,,,,,,,,,,,,,,,,,,,,1,4,64,14,1,B,X,N,o2_image,stimuli/out2.png,stimuli/out1.png,stimuli/correct_out2.png,,,,,,,,,,,,,,,,,,,,,,,,,,,,,,,,,,,,,,
,,6557ebf8541bd32382739c1a,31,female,2024-04-24_20h32.29.222,stockport_simplified,2022.2.4,MacIntel,30.03003003,661e456ee6de07e70aa9ef7b,6628df8e2ec4bdf738651ed0,,,,,,,,,,,,,,,,,,,,,,,,,,,,,,,,,,545.1375,549.2703,"[8,4,1,6,3,7,2,5]","[[-0.3,0.2],[0.3,0.2]]","[[-0.125,-0.2],[0.125,-0.2]]",0.131627604,-0.198394097,1,0,0,3.6318,o2_image,549.2781,0,549.7712,549.7713,551.7713,0,0,0,0,1,,,,,,,,,,,,,,,,,,,,,,,,,,,,,,,,,,,,,,,,,,,,,,,,,,
,,6557ebf8541bd32382739c1a,31,female,2024-04-24_20h32.29.222,stockport_simplified,2022.2.4,MacIntel,30.03003003,661e456ee6de07e70aa9ef7b,6628df8e2ec4bdf738651ed0,,,,,,,,,,,,,,,,,,,,,,,,,,,,,,,,,,,,,,,,,,,,,,,,,,,,,,,,1,5,65,35,1,A,Y,N,o1_image,stimuli/out1.png,stimuli/correct_out1.png,stimuli/out2.png,,,,,,,,,,,,,,,,,,,,,,,,,,,,,,,,,,,,,,
,,6557ebf8541bd32382739c1a,31,female,2024-04-24_20h32.29.222,stockport_simplified,2022.2.4,MacIntel,30.03003003,661e456ee6de07e70aa9ef7b,6628df8e2ec4bdf738651ed0,,,,,,,,,,,,,,,,,,,,,,,,,,,,,,,,,,551.7719,553.9041,"[8,4,1,6,3,7,2,5]","[[-0.3,0.2],[0.3,0.2]]","[[0.125,-0.2],[-0.125,-0.2]]",-0.077925347,-0.195802951,1,0,0,1.5987,o2_image,553.9044,1,554.4036,554.4036,556.4044,0,0,0,0,1,,,,,,,,,,,,,,,,,,,,,,,,,,,,,,,,,,,,,,,,,,,,,,,,,,
,,6557ebf8541bd32382739c1a,31,female,2024-04-24_20h32.29.222,stockport_simplified,2022.2.4,MacIntel,30.03003003,661e456ee6de07e70aa9ef7b,6628df8e2ec4bdf738651ed0,,,,,,,,,,,,,,,,,,,,,,,,,,,,,,,,,,,,,,,,,,,,,,,,,,,,,,,,1,6,66,26,1,N,M,D,o2_image,stimuli/out2.png,stimuli/out1.png,stimuli/correct_out2.png,,,,,,,,,,,,,,,,,,,,,,,,,,,,,,,,,,,,,,
,,6557ebf8541bd32382739c1a,31,female,2024-04-24_20h32.29.222,stockport_simplified,2022.2.4,MacIntel,30.03003003,661e456ee6de07e70aa9ef7b,6628df8e2ec4bdf738651ed0,,,,,,,,,,,,,,,,,,,,,,,,,,,,,,,,,,556.4049,559.1041,"[8,4,1,6,3,7,2,5]","[[0.3,0.2],[-0.3,0.2]]","[[0.125,-0.2],[-0.125,-0.2]]",0.092786458,-0.178368056,1,0,0,2.1665,o1_image,559.1119,1,559.6047,559.6048,561.6046,0,0,0,0,1,,,,,,,,,,,,,,,,,,,,,,,,,,,,,,,,,,,,,,,,,,,,,,,,,,
,,6557ebf8541bd32382739c1a,31,female,2024-04-24_20h32.29.222,stockport_simplified,2022.2.4,MacIntel,30.03003003,661e456ee6de07e70aa9ef7b,6628df8e2ec4bdf738651ed0,,,,,,,,,,,,,,,,,,,,,,,,,,,,,,,,,,,,,,,,,,,,,,,,,,,,,,,,1,7,67,20,1,N,M,C,o1_image,stimuli/out1.png,stimuli/correct_out1.png,stimuli/out2.png,,,,,,,,,,,,,,,,,,,,,,,,,,,,,,,,,,,,,,
,,6557ebf8541bd32382739c1a,31,female,2024-04-24_20h32.29.222,stockport_simplified,2022.2.4,MacIntel,30.03003003,661e456ee6de07e70aa9ef7b,6628df8e2ec4bdf738651ed0,,,,,,,,,,,,,,,,,,,,,,,,,,,,,,,,,,561.6052,564.5042,"[8,4,1,6,3,7,2,5]","[[-0.3,0.2],[0.3,0.2]]","[[0.125,-0.2],[-0.125,-0.2]]",-0.115733507,-0.194717882,1,0,0,2.3663,o2_image,564.5045,1,565.0042,565.0043,567.0038,0,0,0,0,1,,,,,,,,,,,,,,,,,,,,,,,,,,,,,,,,,,,,,,,,,,,,,,,,,,
,,6557ebf8541bd32382739c1a,31,female,2024-04-24_20h32.29.222,stockport_simplified,2022.2.4,MacIntel,30.03003003,661e456ee6de07e70aa9ef7b,6628df8e2ec4bdf738651ed0,,,,,,,,,,,,,,,,,,,,,,,,,,,,,,,,,,,,,,,,,,,,,,,,,,,,,,,,1,8,68,17,1,B,Y,N,o2_image,stimuli/out2.png,stimuli/out1.png,stimuli/correct_out2.png,,,,,,,,,,,,,,,,,,,,,,,,,,,,,,,,,,,,,,
,,6557ebf8541bd32382739c1a,31,female,2024-04-24_20h32.29.222,stockport_simplified,2022.2.4,MacIntel,30.03003003,661e456ee6de07e70aa9ef7b,6628df8e2ec4bdf738651ed0,,,,,,,,,,,,,,,,,,,,,,,,,,,,,,,,,,567.0041,570.2376,"[8,4,1,6,3,7,2,5]","[[-0.3,0.2],[0.3,0.2]]","[[0.125,-0.2],[-0.125,-0.2]]",0.128563368,-0.170559896,1,0,0,2.7331,o1_image,570.2379,1,570.7381,570.7382,572.7377,0,0,0,0,1,,,,,,,,,,,,,,,,,,,,,,,,,,,,,,,,,,,,,,,,,,,,,,,,,,
,,6557ebf8541bd32382739c1a,31,female,2024-04-24_20h32.29.222,stockport_simplified,2022.2.4,MacIntel,30.03003003,661e456ee6de07e70aa9ef7b,6628df8e2ec4bdf738651ed0,,,,,,,,,,,,,,,,,,,,,,,,,,,,,,,,,,,,,,,,,,,,,,,,,,,,,,,,1,9,69,54,1,N,M,C,o1_image,stimuli/out1.png,stimuli/correct_out1.png,stimuli/out2.png,,,,,,,,,,,,,,,,,,,,,,,,,,,,,,,,,,,,,,
,,6557ebf8541bd32382739c1a,31,female,2024-04-24_20h32.29.222,stockport_simplified,2022.2.4,MacIntel,30.03003003,661e456ee6de07e70aa9ef7b,6628df8e2ec4bdf738651ed0,,,,,,,,,,,,,,,,,,,,,,,,,,,,,,,,,,572.7379,576.7712,"[8,4,1,6,3,7,2,5]","[[-0.3,0.2],[0.3,0.2]]","[[-0.125,-0.2],[0.125,-0.2]]",0.140251736,-0.195881076,1,0,0,3.5325,o2_image,576.7789,0,577.2711,577.2712,579.2718,0,0,0,0,1,,,,,,,,,,,,,,,,,,,,,,,,,,,,,,,,,,,,,,,,,,,,,,,,,,
,,6557ebf8541bd32382739c1a,31,female,2024-04-24_20h32.29.222,stockport_simplified,2022.2.4,MacIntel,30.03003003,661e456ee6de07e70aa9ef7b,6628df8e2ec4bdf738651ed0,,,,,,,,,,,,,,,,,,,,,,,,,,,,,,,,,,,,,,,,,,,,,,,,,,,,,,,,1,10,70,0,1,A,X,N,o1_image,stimuli/out1.png,stimuli/correct_out1.png,stimuli/out2.png,,,,,,,,,,,,,,,,,,,,,,,,,,,,,,,,,,,,,,
,,6557ebf8541bd32382739c1a,31,female,2024-04-24_20h32.29.222,stockport_simplified,2022.2.4,MacIntel,30.03003003,661e456ee6de07e70aa9ef7b,6628df8e2ec4bdf738651ed0,,,,,,,,,,,,,,,,,,,,,,,,,,,,,,,,,,579.2725,581.6378,"[8,4,1,6,3,7,2,5]","[[0.3,0.2],[-0.3,0.2]]","[[-0.125,-0.2],[0.125,-0.2]]",0.092443576,-0.18422309,1,0,0,1.8324,o2_image,581.6381,1,582.1379,582.1379,584.1381,0,0,0,0,1,,,,,,,,,,,,,,,,,,,,,,,,,,,,,,,,,,,,,,,,,,,,,,,,,,
,,6557ebf8541bd32382739c1a,31,female,2024-04-24_20h32.29.222,stockport_simplified,2022.2.4,MacIntel,30.03003003,661e456ee6de07e70aa9ef7b,6628df8e2ec4bdf738651ed0,,,,,,,,,,,,,,,,,,,,,,,,,,,,,,,,,,,,,,,,,,,,,,,,,,,,,,,,1,11,71,56,1,N,M,D,o2_image,stimuli/out2.png,stimuli/out1.png,stimuli/correct_out2.png,,,,,,,,,,,,,,,,,,,,,,,,,,,,,,,,,,,,,,
,,6557ebf8541bd32382739c1a,31,female,2024-04-24_20h32.29.222,stockport_simplified,2022.2.4,MacIntel,30.03003003,661e456ee6de07e70aa9ef7b,6628df8e2ec4bdf738651ed0,,,,,,,,,,,,,,,,,,,,,,,,,,,,,,,,,,584.1382,588.3374,"[8,4,1,6,3,7,2,5]","[[0.3,0.2],[-0.3,0.2]]","[[-0.125,-0.2],[0.125,-0.2]]",-0.093845486,-0.129010417,1,0,0,3.665,o1_image,588.3459,0,588.8382,588.8383,590.8381,0,0,0,0,1,,,,,,,,,,,,,,,,,,,,,,,,,,,,,,,,,,,,,,,,,,,,,,,,,,
,,6557ebf8541bd32382739c1a,31,female,2024-04-24_20h32.29.222,stockport_simplified,2022.2.4,MacIntel,30.03003003,661e456ee6de07e70aa9ef7b,6628df8e2ec4bdf738651ed0,,,,,,,,,,,,,,,,,,,,,,,,,,,,,,,,,,,,,,,,,,,,,,,,,,,,,,,,1,12,72,48,1,B,Y,N,o2_image,stimuli/out2.png,stimuli/out1.png,stimuli/correct_out2.png,,,,,,,,,,,,,,,,,,,,,,,,,,,,,,,,,,,,,,
,,6557ebf8541bd32382739c1a,31,female,2024-04-24_20h32.29.222,stockport_simplified,2022.2.4,MacIntel,30.03003003,661e456ee6de07e70aa9ef7b,6628df8e2ec4bdf738651ed0,,,,,,,,,,,,,,,,,,,,,,,,,,,,,,,,,,590.8384,593.6714,"[8,4,1,6,3,7,2,5]","[[0.3,0.2],[-0.3,0.2]]","[[0.125,-0.2],[-0.125,-0.2]]",-0.106440972,-0.177938368,1,0,0,2.2995,o2_image,593.6717,0,594.1716,594.1716,596.1715,0,0,0,0,1,,,,,,,,,,,,,,,,,,,,,,,,,,,,,,,,,,,,,,,,,,,,,,,,,,
,,6557ebf8541bd32382739c1a,31,female,2024-04-24_20h32.29.222,stockport_simplified,2022.2.4,MacIntel,30.03003003,661e456ee6de07e70aa9ef7b,6628df8e2ec4bdf738651ed0,,,,,,,,,,,,,,,,,,,,,,,,,,,,,,,,,,,,,,,,,,,,,,,,,,,,,,,,1,13,73,31,1,A,X,N,o1_image,stimuli/out1.png,stimuli/correct_out1.png,stimuli/out2.png,,,,,,,,,,,,,,,,,,,,,,,,,,,,,,,,,,,,,,
,,6557ebf8541bd32382739c1a,31,female,2024-04-24_20h32.29.222,stockport_simplified,2022.2.4,MacIntel,30.03003003,661e456ee6de07e70aa9ef7b,6628df8e2ec4bdf738651ed0,,,,,,,,,,,,,,,,,,,,,,,,,,,,,,,,,,596.1718,598.1049,"[8,4,1,6,3,7,2,5]","[[0.3,0.2],[-0.3,0.2]]","[[0.125,-0.2],[-0.125,-0.2]]",-0.06687934,-0.17344184,1,0,0,1.4007,o2_image,598.1052,1,598.6052,598.6053,600.6053,0,0,0,0,1,,,,,,,,,,,,,,,,,,,,,,,,,,,,,,,,,,,,,,,,,,,,,,,,,,
,,6557ebf8541bd32382739c1a,31,female,2024-04-24_20h32.29.222,stockport_simplified,2022.2.4,MacIntel,30.03003003,661e456ee6de07e70aa9ef7b,6628df8e2ec4bdf738651ed0,,,,,,,,,,,,,,,,,,,,,,,,,,,,,,,,,,,,,,,,,,,,,,,,,,,,,,,,1,14,74,25,1,N,M,D,o2_image,stimuli/out2.png,stimuli/out1.png,stimuli/correct_out2.png,,,,,,,,,,,,,,,,,,,,,,,,,,,,,,,,,,,,,,
,,6557ebf8541bd32382739c1a,31,female,2024-04-24_20h32.29.222,stockport_simplified,2022.2.4,MacIntel,30.03003003,661e456ee6de07e70aa9ef7b,6628df8e2ec4bdf738651ed0,,,,,,,,,,,,,,,,,,,,,,,,,,,,,,,,,,600.606,605.7383,"[8,4,1,6,3,7,2,5]","[[0.3,0.2],[-0.3,0.2]]","[[0.125,-0.2],[-0.125,-0.2]]",0.085121528,-0.177252604,1,0,0,4.5995,o1_image,605.7464,0,606.2389,606.2389,608.2389,0,0,0,0,1,,,,,,,,,,,,,,,,,,,,,,,,,,,,,,,,,,,,,,,,,,,,,,,,,,
,,6557ebf8541bd32382739c1a,31,female,2024-04-24_20h32.29.222,stockport_simplified,2022.2.4,MacIntel,30.03003003,661e456ee6de07e70aa9ef7b,6628df8e2ec4bdf738651ed0,,,,,,,,,,,,,,,,,,,,,,,,,,,,,,,,,,,,,,,,,,,,,,,,,,,,,,,,1,15,75,43,1,B,X,N,o2_image,stimuli/out2.png,stimuli/out1.png,stimuli/correct_out2.png,,,,,,,,,,,,,,,,,,,,,,,,,,,,,,,,,,,,,,
,,6557ebf8541bd32382739c1a,31,female,2024-04-24_20h32.29.222,stockport_simplified,2022.2.4,MacIntel,30.03003003,661e456ee6de07e70aa9ef7b,6628df8e2ec4bdf738651ed0,,,,,,,,,,,,,,,,,,,,,,,,,,,,,,,,,,608.2396,615.0718,"[8,4,1,6,3,7,2,5]","[[-0.3,0.2],[0.3,0.2]]","[[0.125,-0.2],[-0.125,-0.2]]",0.095980903,-0.178823785,1,0,0,6.2992,o1_image,615.0798,1,615.5723,615.5724,617.5723,0,0,0,0,1,,,,,,,,,,,,,,,,,,,,,,,,,,,,,,,,,,,,,,,,,,,,,,,,,,
,,6557ebf8541bd32382739c1a,31,female,2024-04-24_20h32.29.222,stockport_simplified,2022.2.4,MacIntel,30.03003003,661e456ee6de07e70aa9ef7b,6628df8e2ec4bdf738651ed0,,,,,,,,,,,,,,,,,,,,,,,,,,,,,,,,,,,,,,,,,,,,,,,,,,,,,,,,1,16,76,5,1,A,Y,N,o1_image,stimuli/out1.png,stimuli/correct_out1.png,stimuli/out2.png,,,,,,,,,,,,,,,,,,,,,,,,,,,,,,,,,,,,,,
,,6557ebf8541bd32382739c1a,31,female,2024-04-24_20h32.29.222,stockport_simplified,2022.2.4,MacIntel,30.03003003,661e456ee6de07e70aa9ef7b,6628df8e2ec4bdf738651ed0,,,,,,,,,,,,,,,,,,,,,,,,,,,,,,,,,,617.5729,620.3385,"[8,4,1,6,3,7,2,5]","[[0.3,0.2],[-0.3,0.2]]","[[-0.125,-0.2],[0.125,-0.2]]",0.095724826,-0.178823785,1,0,0,2.2324,o2_image,620.3388,1,620.839,620.839,622.8387,0,0,0,0,1,,,,,,,,,,,,,,,,,,,,,,,,,,,,,,,,,,,,,,,,,,,,,,,,,,
,,6557ebf8541bd32382739c1a,31,female,2024-04-24_20h32.29.222,stockport_simplified,2022.2.4,MacIntel,30.03003003,661e456ee6de07e70aa9ef7b,6628df8e2ec4bdf738651ed0,,,,,,,,,,,,,,,,,,,,,,,,,,,,,,,,,,,,,,,,,,,,,,,,,,,,,,,,1,17,77,46,1,B,Y,N,o2_image,stimuli/out2.png,stimuli/out1.png,stimuli/correct_out2.png,,,,,,,,,,,,,,,,,,,,,,,,,,,,,,,,,,,,,,
,,6557ebf8541bd32382739c1a,31,female,2024-04-24_20h32.29.222,stockport_simplified,2022.2.4,MacIntel,30.03003003,661e456ee6de07e70aa9ef7b,6628df8e2ec4bdf738651ed0,,,,,,,,,,,,,,,,,,,,,,,,,,,,,,,,,,622.839,626.9043,"[8,4,1,6,3,7,2,5]","[[-0.3,0.2],[0.3,0.2]]","[[0.125,-0.2],[-0.125,-0.2]]",0.095724826,-0.178823785,1,0,0,3.5321,o1_image,626.9131,1,627.4057,627.4057,629.4053,0,0,0,0,1,,,,,,,,,,,,,,,,,,,,,,,,,,,,,,,,,,,,,,,,,,,,,,,,,,
,,6557ebf8541bd32382739c1a,31,female,2024-04-24_20h32.29.222,stockport_simplified,2022.2.4,MacIntel,30.03003003,661e456ee6de07e70aa9ef7b,6628df8e2ec4bdf738651ed0,,,,,,,,,,,,,,,,,,,,,,,,,,,,,,,,,,,,,,,,,,,,,,,,,,,,,,,,1,18,78,8,1,A,Y,N,o1_image,stimuli/out1.png,stimuli/correct_out1.png,stimuli/out2.png,,,,,,,,,,,,,,,,,,,,,,,,,,,,,,,,,,,,,,
,,6557ebf8541bd32382739c1a,31,female,2024-04-24_20h32.29.222,stockport_simplified,2022.2.4,MacIntel,30.03003003,661e456ee6de07e70aa9ef7b,6628df8e2ec4bdf738651ed0,,,,,,,,,,,,,,,,,,,,,,,,,,,,,,,,,,629.4055,631.672,"[8,4,1,6,3,7,2,5]","[[0.3,0.2],[-0.3,0.2]]","[[-0.125,-0.2],[0.125,-0.2]]",0.067621528,-0.187061632,1,0,0,1.7336,o2_image,631.6723,1,632.1721,632.1722,634.1712,0,0,0,0,1,,,,,,,,,,,,,,,,,,,,,,,,,,,,,,,,,,,,,,,,,,,,,,,,,,
,,6557ebf8541bd32382739c1a,31,female,2024-04-24_20h32.29.222,stockport_simplified,2022.2.4,MacIntel,30.03003003,661e456ee6de07e70aa9ef7b,6628df8e2ec4bdf738651ed0,,,,,,,,,,,,,,,,,,,,,,,,,,,,,,,,,,,,,,,,,,,,,,,,,,,,,,,,1,19,79,58,1,N,M,D,o2_image,stimuli/out2.png,stimuli/out1.png,stimuli/correct_out2.png,,,,,,,,,,,,,,,,,,,,,,,,,,,,,,,,,,,,,,
,,6557ebf8541bd32382739c1a,31,female,2024-04-24_20h32.29.222,stockport_simplified,2022.2.4,MacIntel,30.03003003,661e456ee6de07e70aa9ef7b,6628df8e2ec4bdf738651ed0,,,,,,,,,,,,,,,,,,,,,,,,,,,,,,,,,,634.1714,639.4378,"[8,4,1,6,3,7,2,5]","[[0.3,0.2],[-0.3,0.2]]","[[0.125,-0.2],[-0.125,-0.2]]",-0.08015625,-0.162213542,1,0,0,4.7647,o2_image,639.4461,1,639.939,639.939,641.9386,0,0,0,0,1,,,,,,,,,,,,,,,,,,,,,,,,,,,,,,,,,,,,,,,,,,,,,,,,,,
,,6557ebf8541bd32382739c1a,31,female,2024-04-24_20h32.29.222,stockport_simplified,2022.2.4,MacIntel,30.03003003,661e456ee6de07e70aa9ef7b,6628df8e2ec4bdf738651ed0,,,,,,,,,,,,,,,,,,,,,,,,,,,,,,,,,,,,,,,,,,,,,,,,,,,,,,,,1,20,80,15,1,B,Y,N,o2_image,stimuli/out2.png,stimuli/out1.png,stimuli/correct_out2.png,,,,,,,,,,,,,,,,,,,,,,,,,,,,,,,,,,,,,,
,,6557ebf8541bd32382739c1a,31,female,2024-04-24_20h32.29.222,stockport_simplified,2022.2.4,MacIntel,30.03003003,661e456ee6de07e70aa9ef7b,6628df8e2ec4bdf738651ed0,,,,,,,,,,,,,,,,,,,,,,,,,,,,,,,,,,641.9391,643.8713,"[8,4,1,6,3,7,2,5]","[[0.3,0.2],[-0.3,0.2]]","[[0.125,-0.2],[-0.125,-0.2]]",-0.08015625,-0.162721354,1,0,0,1.4314,o2_image,643.8716,1,644.3713,644.3713,646.3717,0,0,0,0,1,,,,,,,,,,,,,,,,,,,,,,,,,,,,,,,,,,,,,,,,,,,,,,,,,,
,,6557ebf8541bd32382739c1a,31,female,2024-04-24_20h32.29.222,stockport_simplified,2022.2.4,MacIntel,30.03003003,661e456ee6de07e70aa9ef7b,6628df8e2ec4bdf738651ed0,,,,,,,,,,,,,,,,,,,,,,,,,,,,,,,,,,,,,,,,,,,,,,,,,,,,,,,,1,21,81,57,1,N,M,D,o2_image,stimuli/out2.png,stimuli/out1.png,stimuli/correct_out2.png,,,,,,,,,,,,,,,,,,,,,,,,,,,,,,,,,,,,,,
,,6557ebf8541bd32382739c1a,31,female,2024-04-24_20h32.29.222,stockport_simplified,2022.2.4,MacIntel,30.03003003,661e456ee6de07e70aa9ef7b,6628df8e2ec4bdf738651ed0,,,,,,,,,,,,,,,,,,,,,,,,,,,,,,,,,,646.3721,648.4724,"[8,4,1,6,3,7,2,5]","[[0.3,0.2],[-0.3,0.2]]","[[0.125,-0.2],[-0.125,-0.2]]",-0.080672743,-0.162721354,1,0,0,1.5666,o2_image,648.4729,1,648.9728,648.9728,650.9729,0,0,0,0,1,,,,,,,,,,,,,,,,,,,,,,,,,,,,,,,,,,,,,,,,,,,,,,,,,,
,,6557ebf8541bd32382739c1a,31,female,2024-04-24_20h32.29.222,stockport_simplified,2022.2.4,MacIntel,30.03003003,661e456ee6de07e70aa9ef7b,6628df8e2ec4bdf738651ed0,,,,,,,,,,,,,,,,,,,,,,,,,,,,,,,,,,,,,,,,,,,,,,,,,,,,,,,,1,22,82,27,1,N,M,D,o2_image,stimuli/out2.png,stimuli/out1.png,stimuli/correct_out2.png,,,,,,,,,,,,,,,,,,,,,,,,,,,,,,,,,,,,,,
,,6557ebf8541bd32382739c1a,31,female,2024-04-24_20h32.29.222,stockport_simplified,2022.2.4,MacIntel,30.03003003,661e456ee6de07e70aa9ef7b,6628df8e2ec4bdf738651ed0,,,,,,,,,,,,,,,,,,,,,,,,,,,,,,,,,,650.9734,654.3384,"[8,4,1,6,3,7,2,5]","[[0.3,0.2],[-0.3,0.2]]","[[0.125,-0.2],[-0.125,-0.2]]",-0.071905382,-0.151614583,1,0,0,2.8328,o2_image,654.3388,1,654.8392,654.8393,656.8382,0,0,0,0,1,,,,,,,,,,,,,,,,,,,,,,,,,,,,,,,,,,,,,,,,,,,,,,,,,,
,,6557ebf8541bd32382739c1a,31,female,2024-04-24_20h32.29.222,stockport_simplified,2022.2.4,MacIntel,30.03003003,661e456ee6de07e70aa9ef7b,6628df8e2ec4bdf738651ed0,,,,,,,,,,,,,,,,,,,,,,,,,,,,,,,,,,,,,,,,,,,,,,,,,,,,,,,,1,23,83,41,1,B,X,N,o2_image,stimuli/out2.png,stimuli/out1.png,stimuli/correct_out2.png,,,,,,,,,,,,,,,,,,,,,,,,,,,,,,,,,,,,,,
,,6557ebf8541bd32382739c1a,31,female,2024-04-24_20h32.29.222,stockport_simplified,2022.2.4,MacIntel,30.03003003,661e456ee6de07e70aa9ef7b,6628df8e2ec4bdf738651ed0,,,,,,,,,,,,,,,,,,,,,,,,,,,,,,,,,,656.8385,660.9726,"[8,4,1,6,3,7,2,5]","[[0.3,0.2],[-0.3,0.2]]","[[-0.125,-0.2],[0.125,-0.2]]",-0.089492188,-0.17687066,1,0,0,3.6008,o1_image,660.9816,0,661.4731,661.4731,663.4729,0,0,0,0,1,,,,,,,,,,,,,,,,,,,,,,,,,,,,,,,,,,,,,,,,,,,,,,,,,,
,,6557ebf8541bd32382739c1a,31,female,2024-04-24_20h32.29.222,stockport_simplified,2022.2.4,MacIntel,30.03003003,661e456ee6de07e70aa9ef7b,6628df8e2ec4bdf738651ed0,,,,,,,,,,,,,,,,,,,,,,,,,,,,,,,,,,,,,,,,,,,,,,,,,,,,,,,,1,24,84,16,1,B,Y,N,o2_image,stimuli/out2.png,stimuli/out1.png,stimuli/correct_out2.png,,,,,,,,,,,,,,,,,,,,,,,,,,,,,,,,,,,,,,
,,6557ebf8541bd32382739c1a,31,female,2024-04-24_20h32.29.222,stockport_simplified,2022.2.4,MacIntel,30.03003003,661e456ee6de07e70aa9ef7b,6628df8e2ec4bdf738651ed0,,,,,,,,,,,,,,,,,,,,,,,,,,,,,,,,,,663.4737,667.4726,"[8,4,1,6,3,7,2,5]","[[0.3,0.2],[-0.3,0.2]]","[[0.125,-0.2],[-0.125,-0.2]]",-0.084934896,-0.188051215,1,0,0,3.4659,o2_image,667.4813,0,667.9739,667.9739,669.9733,0,0,0,0,1,,,,,,,,,,,,,,,,,,,,,,,,,,,,,,,,,,,,,,,,,,,,,,,,,,
,,6557ebf8541bd32382739c1a,31,female,2024-04-24_20h32.29.222,stockport_simplified,2022.2.4,MacIntel,30.03003003,661e456ee6de07e70aa9ef7b,6628df8e2ec4bdf738651ed0,,,,,,,,,,,,,,,,,,,,,,,,,,,,,,,,,,,,,,,,,,,,,,,,,,,,,,,,1,25,85,1,1,A,X,N,o1_image,stimuli/out1.png,stimuli/correct_out1.png,stimuli/out2.png,,,,,,,,,,,,,,,,,,,,,,,,,,,,,,,,,,,,,,
,,6557ebf8541bd32382739c1a,31,female,2024-04-24_20h32.29.222,stockport_simplified,2022.2.4,MacIntel,30.03003003,661e456ee6de07e70aa9ef7b,6628df8e2ec4bdf738651ed0,,,,,,,,,,,,,,,,,,,,,,,,,,,,,,,,,,669.974,673.9727,"[8,4,1,6,3,7,2,5]","[[-0.3,0.2],[0.3,0.2]]","[[0.125,-0.2],[-0.125,-0.2]]",-0.085972222,-0.188051215,1,0,0,3.4657,o2_image,673.9815,1,674.4733,674.4734,676.4734,0,0,0,0,1,,,,,,,,,,,,,,,,,,,,,,,,,,,,,,,,,,,,,,,,,,,,,,,,,,
,,6557ebf8541bd32382739c1a,31,female,2024-04-24_20h32.29.222,stockport_simplified,2022.2.4,MacIntel,30.03003003,661e456ee6de07e70aa9ef7b,6628df8e2ec4bdf738651ed0,,,,,,,,,,,,,,,,,,,,,,,,,,,,,,,,,,,,,,,,,,,,,,,,,,,,,,,,1,26,86,18,1,B,Y,N,o2_image,stimuli/out2.png,stimuli/out1.png,stimuli/correct_out2.png,,,,,,,,,,,,,,,,,,,,,,,,,,,,,,,,,,,,,,
,,6557ebf8541bd32382739c1a,31,female,2024-04-24_20h32.29.222,stockport_simplified,2022.2.4,MacIntel,30.03003003,661e456ee6de07e70aa9ef7b,6628df8e2ec4bdf738651ed0,,,,,,,,,,,,,,,,,,,,,,,,,,,,,,,,,,676.474,678.9051,"[8,4,1,6,3,7,2,5]","[[0.3,0.2],[-0.3,0.2]]","[[0.125,-0.2],[-0.125,-0.2]]",0.124053819,-0.169947917,1,0,0,1.8982,o1_image,678.913,0,679.406,679.4061,681.4054,0,0,0,0,1,,,,,,,,,,,,,,,,,,,,,,,,,,,,,,,,,,,,,,,,,,,,,,,,,,
,,6557ebf8541bd32382739c1a,31,female,2024-04-24_20h32.29.222,stockport_simplified,2022.2.4,MacIntel,30.03003003,661e456ee6de07e70aa9ef7b,6628df8e2ec4bdf738651ed0,,,,,,,,,,,,,,,,,,,,,,,,,,,,,,,,,,,,,,,,,,,,,,,,,,,,,,,,1,27,87,40,1,B,X,N,o2_image,stimuli/out2.png,stimuli/out1.png,stimuli/correct_out2.png,,,,,,,,,,,,,,,,,,,,,,,,,,,,,,,,,,,,,,
,,6557ebf8541bd32382739c1a,31,female,2024-04-24_20h32.29.222,stockport_simplified,2022.2.4,MacIntel,30.03003003,661e456ee6de07e70aa9ef7b,6628df8e2ec4bdf738651ed0,,,,,,,,,,,,,,,,,,,,,,,,,,,,,,,,,,681.4057,684.7388,"[8,4,1,6,3,7,2,5]","[[0.3,0.2],[-0.3,0.2]]","[[0.125,-0.2],[-0.125,-0.2]]",-0.085381944,-0.144401042,1,0,0,2.8325,o2_image,684.7466,0,685.2399,685.2399,687.2402,0,0,0,0,1,,,,,,,,,,,,,,,,,,,,,,,,,,,,,,,,,,,,,,,,,,,,,,,,,,
,,6557ebf8541bd32382739c1a,31,female,2024-04-24_20h32.29.222,stockport_simplified,2022.2.4,MacIntel,30.03003003,661e456ee6de07e70aa9ef7b,6628df8e2ec4bdf738651ed0,,,,,,,,,,,,,,,,,,,,,,,,,,,,,,,,,,,,,,,,,,,,,,,,,,,,,,,,1,28,88,32,1,A,X,N,o1_image,stimuli/out1.png,stimuli/correct_out1.png,stimuli/out2.png,,,,,,,,,,,,,,,,,,,,,,,,,,,,,,,,,,,,,,
,,6557ebf8541bd32382739c1a,31,female,2024-04-24_20h32.29.222,stockport_simplified,2022.2.4,MacIntel,30.03003003,661e456ee6de07e70aa9ef7b,6628df8e2ec4bdf738651ed0,,,,,,,,,,,,,,,,,,,,,,,,,,,,,,,,,,687.2407,693.8397,"[8,4,1,6,3,7,2,5]","[[0.3,0.2],[-0.3,0.2]]","[[0.125,-0.2],[-0.125,-0.2]]",-0.145342882,-0.180664063,1,0,0,6.0663,o2_image,693.8474,1,694.3393,694.3394,696.3403,0,0,0,0,1,,,,,,,,,,,,,,,,,,,,,,,,,,,,,,,,,,,,,,,,,,,,,,,,,,
,,6557ebf8541bd32382739c1a,31,female,2024-04-24_20h32.29.222,stockport_simplified,2022.2.4,MacIntel,30.03003003,661e456ee6de07e70aa9ef7b,6628df8e2ec4bdf738651ed0,,,,,,,,,,,,,,,,,,,,,,,,,,,,,,,,,,,,,,,,,,,,,,,,,,,,,,,,1,29,89,45,1,B,Y,N,o2_image,stimuli/out2.png,stimuli/out1.png,stimuli/correct_out2.png,,,,,,,,,,,,,,,,,,,,,,,,,,,,,,,,,,,,,,
,,6557ebf8541bd32382739c1a,31,female,2024-04-24_20h32.29.222,stockport_simplified,2022.2.4,MacIntel,30.03003003,661e456ee6de07e70aa9ef7b,6628df8e2ec4bdf738651ed0,,,,,,,,,,,,,,,,,,,,,,,,,,,,,,,,,,696.3407,701.3399,"[8,4,1,6,3,7,2,5]","[[-0.3,0.2],[0.3,0.2]]","[[-0.125,-0.2],[0.125,-0.2]]",0.101605903,-0.127847222,1,0,0,4.4674,o2_image,701.3477,0,701.84,701.84,703.84,0,0,0,0,1,,,,,,,,,,,,,,,,,,,,,,,,,,,,,,,,,,,,,,,,,,,,,,,,,,
,,6557ebf8541bd32382739c1a,31,female,2024-04-24_20h32.29.222,stockport_simplified,2022.2.4,MacIntel,30.03003003,661e456ee6de07e70aa9ef7b,6628df8e2ec4bdf738651ed0,,,,,,,,,,,,,,,,,,,,,,,,,,,,,,,,,,,,,,,,,,,,,,,,,,,,,,,,1,30,90,6,1,A,Y,N,o1_image,stimuli/out1.png,stimuli/correct_out1.png,stimuli/out2.png,,,,,,,,,,,,,,,,,,,,,,,,,,,,,,,,,,,,,,
,,6557ebf8541bd32382739c1a,31,female,2024-04-24_20h32.29.222,stockport_simplified,2022.2.4,MacIntel,30.03003003,661e456ee6de07e70aa9ef7b,6628df8e2ec4bdf738651ed0,,,,,,,,,,,,,,,,,,,,,,,,,,,,,,,,,,703.8403,710.2066,"[8,4,1,6,3,7,2,5]","[[-0.3,0.2],[0.3,0.2]]","[[-0.125,-0.2],[0.125,-0.2]]",0.099930556,-0.17625434,1,0,0,5.834,o2_image,710.2145,1,710.7068,710.7068,712.7069,0,0,0,0,1,,,,,,,,,,,,,,,,,,,,,,,,,,,,,,,,,,,,,,,,,,,,,,,,,,
,,6557ebf8541bd32382739c1a,31,female,2024-04-24_20h32.29.222,stockport_simplified,2022.2.4,MacIntel,30.03003003,661e456ee6de07e70aa9ef7b,6628df8e2ec4bdf738651ed0,,,,,,,,,,,,,,,,,,,,,,,,,,,,,,,,,,,,,,,,,,,,,,,,,,,,,,,,1,31,91,44,1,B,X,N,o2_image,stimuli/out2.png,stimuli/out1.png,stimuli/correct_out2.png,,,,,,,,,,,,,,,,,,,,,,,,,,,,,,,,,,,,,,
,,6557ebf8541bd32382739c1a,31,female,2024-04-24_20h32.29.222,stockport_simplified,2022.2.4,MacIntel,30.03003003,661e456ee6de07e70aa9ef7b,6628df8e2ec4bdf738651ed0,,,,,,,,,,,,,,,,,,,,,,,,,,,,,,,,,,712.7072,717.3734,"[8,4,1,6,3,7,2,5]","[[0.3,0.2],[-0.3,0.2]]","[[0.125,-0.2],[-0.125,-0.2]]",0.099930556,-0.17625434,1,0,0,4.1333,o1_image,717.3819,0,717.8735,717.8735,719.8726,0,0,0,0,1,,,,,,,,,,,,,,,,,,,,,,,,,,,,,,,,,,,,,,,,,,,,,,,,,,
,,6557ebf8541bd32382739c1a,31,female,2024-04-24_20h32.29.222,stockport_simplified,2022.2.4,MacIntel,30.03003003,661e456ee6de07e70aa9ef7b,6628df8e2ec4bdf738651ed0,,,,,,,,,,,,,,,,,,,,,,,,,,,,,,,,,,,,,,,,,,,,,,,,,,,,,,,,1,32,92,42,1,B,X,N,o2_image,stimuli/out2.png,stimuli/out1.png,stimuli/correct_out2.png,,,,,,,,,,,,,,,,,,,,,,,,,,,,,,,,,,,,,,
,,6557ebf8541bd32382739c1a,31,female,2024-04-24_20h32.29.222,stockport_simplified,2022.2.4,MacIntel,30.03003003,661e456ee6de07e70aa9ef7b,6628df8e2ec4bdf738651ed0,,,,,,,,,,,,,,,,,,,,,,,,,,,,,,,,,,719.8728,722.6402,"[8,4,1,6,3,7,2,5]","[[-0.3,0.2],[0.3,0.2]]","[[-0.125,-0.2],[0.125,-0.2]]",-0.093289931,-0.191983507,1,0,0,2.2665,o1_image,722.6485,1,723.1402,723.1403,725.1403,0,0,0,0,1,,,,,,,,,,,,,,,,,,,,,,,,,,,,,,,,,,,,,,,,,,,,,,,,,,
,,6557ebf8541bd32382739c1a,31,female,2024-04-24_20h32.29.222,stockport_simplified,2022.2.4,MacIntel,30.03003003,661e456ee6de07e70aa9ef7b,6628df8e2ec4bdf738651ed0,,,,,,,,,,,,,,,,,,,,,,,,,,,,,,,,,,,,,,,,,,,,,,,,,,,,,,,,1,33,93,36,1,A,Y,N,o1_image,stimuli/out1.png,stimuli/correct_out1.png,stimuli/out2.png,,,,,,,,,,,,,,,,,,,,,,,,,,,,,,,,,,,,,,
,,6557ebf8541bd32382739c1a,31,female,2024-04-24_20h32.29.222,stockport_simplified,2022.2.4,MacIntel,30.03003003,661e456ee6de07e70aa9ef7b,6628df8e2ec4bdf738651ed0,,,,,,,,,,,,,,,,,,,,,,,,,,,,,,,,,,725.1405,730.3404,"[8,4,1,6,3,7,2,5]","[[0.3,0.2],[-0.3,0.2]]","[[0.125,-0.2],[-0.125,-0.2]]",-0.093003472,-0.191163194,1,0,0,4.6661,o2_image,730.3492,0,730.8404,730.8405,732.8409,0,0,0,0,1,,,,,,,,,,,,,,,,,,,,,,,,,,,,,,,,,,,,,,,,,,,,,,,,,,
,,6557ebf8541bd32382739c1a,31,female,2024-04-24_20h32.29.222,stockport_simplified,2022.2.4,MacIntel,30.03003003,661e456ee6de07e70aa9ef7b,6628df8e2ec4bdf738651ed0,,,,,,,,,,,,,,,,,,,,,,,,,,,,,,,,,,,,,,,,,,,,,,,,,,,,,,,,1,34,94,52,1,N,M,C,o1_image,stimuli/out1.png,stimuli/correct_out1.png,stimuli/out2.png,,,,,,,,,,,,,,,,,,,,,,,,,,,,,,,,,,,,,,
,,6557ebf8541bd32382739c1a,31,female,2024-04-24_20h32.29.222,stockport_simplified,2022.2.4,MacIntel,30.03003003,661e456ee6de07e70aa9ef7b,6628df8e2ec4bdf738651ed0,,,,,,,,,,,,,,,,,,,,,,,,,,,,,,,,,,732.8414,736.1061,"[8,4,1,6,3,7,2,5]","[[-0.3,0.2],[0.3,0.2]]","[[-0.125,-0.2],[0.125,-0.2]]",0.098211806,-0.15469184,1,0,0,2.7322,o2_image,736.1065,0,736.6076,736.6077,738.6074,0,0,0,0,1,,,,,,,,,,,,,,,,,,,,,,,,,,,,,,,,,,,,,,,,,,,,,,,,,,
,,6557ebf8541bd32382739c1a,31,female,2024-04-24_20h32.29.222,stockport_simplified,2022.2.4,MacIntel,30.03003003,661e456ee6de07e70aa9ef7b,6628df8e2ec4bdf738651ed0,,,,,,,,,,,,,,,,,,,,,,,,,,,,,,,,,,,,,,,,,,,,,,,,,,,,,,,,1,35,95,9,1,A,Y,N,o1_image,stimuli/out1.png,stimuli/correct_out1.png,stimuli/out2.png,,,,,,,,,,,,,,,,,,,,,,,,,,,,,,,,,,,,,,
,,6557ebf8541bd32382739c1a,31,female,2024-04-24_20h32.29.222,stockport_simplified,2022.2.4,MacIntel,30.03003003,661e456ee6de07e70aa9ef7b,6628df8e2ec4bdf738651ed0,,,,,,,,,,,,,,,,,,,,,,,,,,,,,,,,,,738.6079,741.2063,"[8,4,1,6,3,7,2,5]","[[-0.3,0.2],[0.3,0.2]]","[[-0.125,-0.2],[0.125,-0.2]]",-0.114127604,-0.198810764,1,0,0,2.0663,o1_image,741.2152,1,741.7064,741.7064,743.7065,0,0,0,0,1,,,,,,,,,,,,,,,,,,,,,,,,,,,,,,,,,,,,,,,,,,,,,,,,,,
,,6557ebf8541bd32382739c1a,31,female,2024-04-24_20h32.29.222,stockport_simplified,2022.2.4,MacIntel,30.03003003,661e456ee6de07e70aa9ef7b,6628df8e2ec4bdf738651ed0,,,,,,,,,,,,,,,,,,,,,,,,,,,,,,,,,,,,,,,,,,,,,,,,,,,,,,,,1,36,96,23,1,N,M,C,o1_image,stimuli/out1.png,stimuli/correct_out1.png,stimuli/out2.png,,,,,,,,,,,,,,,,,,,,,,,,,,,,,,,,,,,,,,
,,6557ebf8541bd32382739c1a,31,female,2024-04-24_20h32.29.222,stockport_simplified,2022.2.4,MacIntel,30.03003003,661e456ee6de07e70aa9ef7b,6628df8e2ec4bdf738651ed0,,,,,,,,,,,,,,,,,,,,,,,,,,,,,,,,,,743.7067,745.7405,"[8,4,1,6,3,7,2,5]","[[0.3,0.2],[-0.3,0.2]]","[[-0.125,-0.2],[0.125,-0.2]]",0.092790799,-0.179813368,1,0,0,1.5327,o2_image,745.7409,1,746.241,746.241,748.2407,0,0,0,0,1,,,,,,,,,,,,,,,,,,,,,,,,,,,,,,,,,,,,,,,,,,,,,,,,,,
,,6557ebf8541bd32382739c1a,31,female,2024-04-24_20h32.29.222,stockport_simplified,2022.2.4,MacIntel,30.03003003,661e456ee6de07e70aa9ef7b,6628df8e2ec4bdf738651ed0,,,,,,,,,,,,,,,,,,,,,,,,,,,,,,,,,,,,,,,,,,,,,,,,,,,,,,,,1,37,97,55,1,N,M,D,o2_image,stimuli/out2.png,stimuli/out1.png,stimuli/correct_out2.png,,,,,,,,,,,,,,,,,,,,,,,,,,,,,,,,,,,,,,
,,6557ebf8541bd32382739c1a,31,female,2024-04-24_20h32.29.222,stockport_simplified,2022.2.4,MacIntel,30.03003003,661e456ee6de07e70aa9ef7b,6628df8e2ec4bdf738651ed0,,,,,,,,,,,,,,,,,,,,,,,,,,,,,,,,,,748.2409,752.1074,"[8,4,1,6,3,7,2,5]","[[-0.3,0.2],[0.3,0.2]]","[[0.125,-0.2],[-0.125,-0.2]]",-0.082078993,-0.190347222,1,0,0,3.3328,o2_image,752.1157,1,752.6068,752.6069,754.6078,0,0,0,0,1,,,,,,,,,,,,,,,,,,,,,,,,,,,,,,,,,,,,,,,,,,,,,,,,,,
,,6557ebf8541bd32382739c1a,31,female,2024-04-24_20h32.29.222,stockport_simplified,2022.2.4,MacIntel,30.03003003,661e456ee6de07e70aa9ef7b,6628df8e2ec4bdf738651ed0,,,,,,,,,,,,,,,,,,,,,,,,,,,,,,,,,,,,,,,,,,,,,,,,,,,,,,,,1,38,98,28,1,N,M,D,o2_image,stimuli/out2.png,stimuli/out1.png,stimuli/correct_out2.png,,,,,,,,,,,,,,,,,,,,,,,,,,,,,,,,,,,,,,
,,6557ebf8541bd32382739c1a,31,female,2024-04-24_20h32.29.222,stockport_simplified,2022.2.4,MacIntel,30.03003003,661e456ee6de07e70aa9ef7b,6628df8e2ec4bdf738651ed0,,,,,,,,,,,,,,,,,,,,,,,,,,,,,,,,,,754.6084,757.0075,"[8,4,1,6,3,7,2,5]","[[-0.3,0.2],[0.3,0.2]]","[[0.125,-0.2],[-0.125,-0.2]]",-0.07844184,-0.152782118,1,0,0,1.8666,o2_image,757.0152,0,757.5079,757.5079,759.5079,0,0,0,0,1,,,,,,,,,,,,,,,,,,,,,,,,,,,,,,,,,,,,,,,,,,,,,,,,,,
,,6557ebf8541bd32382739c1a,31,female,2024-04-24_20h32.29.222,stockport_simplified,2022.2.4,MacIntel,30.03003003,661e456ee6de07e70aa9ef7b,6628df8e2ec4bdf738651ed0,,,,,,,,,,,,,,,,,,,,,,,,,,,,,,,,,,,,,,,,,,,,,,,,,,,,,,,,1,39,99,50,1,N,M,C,o1_image,stimuli/out1.png,stimuli/correct_out1.png,stimuli/out2.png,,,,,,,,,,,,,,,,,,,,,,,,,,,,,,,,,,,,,,
,,6557ebf8541bd32382739c1a,31,female,2024-04-24_20h32.29.222,stockport_simplified,2022.2.4,MacIntel,30.03003003,661e456ee6de07e70aa9ef7b,6628df8e2ec4bdf738651ed0,,,,,,,,,,,,,,,,,,,,,,,,,,,,,,,,,,759.5086,762.2742,"[8,4,1,6,3,7,2,5]","[[-0.3,0.2],[0.3,0.2]]","[[-0.125,-0.2],[0.125,-0.2]]",0.124513889,-0.151445313,1,0,0,2.2329,o2_image,762.2744,0,762.7737,762.7738,764.7743,0,0,0,0,1,,,,,,,,,,,,,,,,,,,,,,,,,,,,,,,,,,,,,,,,,,,,,,,,,,
,,6557ebf8541bd32382739c1a,31,female,2024-04-24_20h32.29.222,stockport_simplified,2022.2.4,MacIntel,30.03003003,661e456ee6de07e70aa9ef7b,6628df8e2ec4bdf738651ed0,,,,,,,,,,,,,,,,,,,,,,,,,,,,,,,,,,,,,,,,,,,,,,,,,,,,,,,,1,40,100,3,1,A,X,N,o1_image,stimuli/out1.png,stimuli/correct_out1.png,stimuli/out2.png,,,,,,,,,,,,,,,,,,,,,,,,,,,,,,,,,,,,,,
,,6557ebf8541bd32382739c1a,31,female,2024-04-24_20h32.29.222,stockport_simplified,2022.2.4,MacIntel,30.03003003,661e456ee6de07e70aa9ef7b,6628df8e2ec4bdf738651ed0,,,,,,,,,,,,,,,,,,,,,,,,,,,,,,,,,,764.7746,768.7743,"[8,4,1,6,3,7,2,5]","[[0.3,0.2],[-0.3,0.2]]","[[-0.125,-0.2],[0.125,-0.2]]",0.124513889,-0.151445313,1,0,0,3.4661,o2_image,768.7833,0,769.2738,769.2739,771.275,0,0,0,0,1,,,,,,,,,,,,,,,,,,,,,,,,,,,,,,,,,,,,,,,,,,,,,,,,,,
,,6557ebf8541bd32382739c1a,31,female,2024-04-24_20h32.29.222,stockport_simplified,2022.2.4,MacIntel,30.03003003,661e456ee6de07e70aa9ef7b,6628df8e2ec4bdf738651ed0,,,,,,,,,,,,,,,,,,,,,,,,,,,,,,,,,,,,,,,,,,,,,,,,,,,,,,,,1,41,101,2,1,A,X,N,o1_image,stimuli/out1.png,stimuli/correct_out1.png,stimuli/out2.png,,,,,,,,,,,,,,,,,,,,,,,,,,,,,,,,,,,,,,
,,6557ebf8541bd32382739c1a,31,female,2024-04-24_20h32.29.222,stockport_simplified,2022.2.4,MacIntel,30.03003003,661e456ee6de07e70aa9ef7b,6628df8e2ec4bdf738651ed0,,,,,,,,,,,,,,,,,,,,,,,,,,,,,,,,,,771.2757,775.608,"[8,4,1,6,3,7,2,5]","[[-0.3,0.2],[0.3,0.2]]","[[0.125,-0.2],[-0.125,-0.2]]",0.189296875,-0.181575521,1,0,0,3.7993,o1_image,775.6158,0,776.1078,776.1078,778.1082,0,0,0,0,1,,,,,,,,,,,,,,,,,,,,,,,,,,,,,,,,,,,,,,,,,,,,,,,,,,
,,6557ebf8541bd32382739c1a,31,female,2024-04-24_20h32.29.222,stockport_simplified,2022.2.4,MacIntel,30.03003003,661e456ee6de07e70aa9ef7b,6628df8e2ec4bdf738651ed0,,,,,,,,,,,,,,,,,,,,,,,,,,,,,,,,,,,,,,,,,,,,,,,,,,,,,,,,1,42,102,10,1,B,X,N,o2_image,stimuli/out2.png,stimuli/out1.png,stimuli/correct_out2.png,,,,,,,,,,,,,,,,,,,,,,,,,,,,,,,,,,,,,,
,,6557ebf8541bd32382739c1a,31,female,2024-04-24_20h32.29.222,stockport_simplified,2022.2.4,MacIntel,30.03003003,661e456ee6de07e70aa9ef7b,6628df8e2ec4bdf738651ed0,,,,,,,,,,,,,,,,,,,,,,,,,,,,,,,,,,778.1088,781.7745,"[8,4,1,6,3,7,2,5]","[[0.3,0.2],[-0.3,0.2]]","[[0.125,-0.2],[-0.125,-0.2]]",0.107460938,-0.201371528,1,0,0,3.1324,o1_image,781.7823,1,782.275,782.275,784.2752,0,0,0,0,1,,,,,,,,,,,,,,,,,,,,,,,,,,,,,,,,,,,,,,,,,,,,,,,,,,
,,6557ebf8541bd32382739c1a,31,female,2024-04-24_20h32.29.222,stockport_simplified,2022.2.4,MacIntel,30.03003003,661e456ee6de07e70aa9ef7b,6628df8e2ec4bdf738651ed0,,,,,,,,,,,,,,,,,,,,,,,,,,,,,,,,,,,,,,,,,,,,,,,,,,,,,,,,1,43,103,33,1,A,X,N,o1_image,stimuli/out1.png,stimuli/correct_out1.png,stimuli/out2.png,,,,,,,,,,,,,,,,,,,,,,,,,,,,,,,,,,,,,,
,,6557ebf8541bd32382739c1a,31,female,2024-04-24_20h32.29.222,stockport_simplified,2022.2.4,MacIntel,30.03003003,661e456ee6de07e70aa9ef7b,6628df8e2ec4bdf738651ed0,,,,,,,,,,,,,,,,,,,,,,,,,,,,,,,,,,784.2758,786.3079,"[8,4,1,6,3,7,2,5]","[[0.3,0.2],[-0.3,0.2]]","[[0.125,-0.2],[-0.125,-0.2]]",-0.092105035,-0.184605035,1,0,0,1.4989,o2_image,786.3082,1,786.8085,786.8085,788.8085,0,0,0,0,1,,,,,,,,,,,,,,,,,,,,,,,,,,,,,,,,,,,,,,,,,,,,,,,,,,
,,6557ebf8541bd32382739c1a,31,female,2024-04-24_20h32.29.222,stockport_simplified,2022.2.4,MacIntel,30.03003003,661e456ee6de07e70aa9ef7b,6628df8e2ec4bdf738651ed0,,,,,,,,,,,,,,,,,,,,,,,,,,,,,,,,,,,,,,,,,,,,,,,,,,,,,,,,1,44,104,29,1,N,M,D,o2_image,stimuli/out2.png,stimuli/out1.png,stimuli/correct_out2.png,,,,,,,,,,,,,,,,,,,,,,,,,,,,,,,,,,,,,,
,,6557ebf8541bd32382739c1a,31,female,2024-04-24_20h32.29.222,stockport_simplified,2022.2.4,MacIntel,30.03003003,661e456ee6de07e70aa9ef7b,6628df8e2ec4bdf738651ed0,,,,,,,,,,,,,,,,,,,,,,,,,,,,,,,,,,788.8092,791.8414,"[8,4,1,6,3,7,2,5]","[[0.3,0.2],[-0.3,0.2]]","[[0.125,-0.2],[-0.125,-0.2]]",-0.123871528,-0.203007812,1,0,0,2.4998,o2_image,791.8418,1,792.3419,792.3419,794.3415,0,0,0,0,1,,,,,,,,,,,,,,,,,,,,,,,,,,,,,,,,,,,,,,,,,,,,,,,,,,
,,6557ebf8541bd32382739c1a,31,female,2024-04-24_20h32.29.222,stockport_simplified,2022.2.4,MacIntel,30.03003003,661e456ee6de07e70aa9ef7b,6628df8e2ec4bdf738651ed0,,,,,,,,,,,,,,,,,,,,,,,,,,,,,,,,,,,,,,,,,,,,,,,,,,,,,,,,1,45,105,47,1,B,Y,N,o2_image,stimuli/out2.png,stimuli/out1.png,stimuli/correct_out2.png,,,,,,,,,,,,,,,,,,,,,,,,,,,,,,,,,,,,,,
,,6557ebf8541bd32382739c1a,31,female,2024-04-24_20h32.29.222,stockport_simplified,2022.2.4,MacIntel,30.03003003,661e456ee6de07e70aa9ef7b,6628df8e2ec4bdf738651ed0,,,,,,,,,,,,,,,,,,,,,,,,,,,,,,,,,,794.3417,799.708,"[8,4,1,6,3,7,2,5]","[[-0.3,0.2],[0.3,0.2]]","[[0.125,-0.2],[-0.125,-0.2]]",-0.136944444,-0.207486979,1,0,0,4.8331,o2_image,799.7158,0,800.2082,800.2082,802.2086,0,0,0,0,1,,,,,,,,,,,,,,,,,,,,,,,,,,,,,,,,,,,,,,,,,,,,,,,,,,
,,6557ebf8541bd32382739c1a,31,female,2024-04-24_20h32.29.222,stockport_simplified,2022.2.4,MacIntel,30.03003003,661e456ee6de07e70aa9ef7b,6628df8e2ec4bdf738651ed0,,,,,,,,,,,,,,,,,,,,,,,,,,,,,,,,,,,,,,,,,,,,,,,,,,,,,,,,1,46,106,4,1,A,X,N,o1_image,stimuli/out1.png,stimuli/correct_out1.png,stimuli/out2.png,,,,,,,,,,,,,,,,,,,,,,,,,,,,,,,,,,,,,,
,,6557ebf8541bd32382739c1a,31,female,2024-04-24_20h32.29.222,stockport_simplified,2022.2.4,MacIntel,30.03003003,661e456ee6de07e70aa9ef7b,6628df8e2ec4bdf738651ed0,,,,,,,,,,,,,,,,,,,,,,,,,,,,,,,,,,802.209,806.5418,"[8,4,1,6,3,7,2,5]","[[0.3,0.2],[-0.3,0.2]]","[[0.125,-0.2],[-0.125,-0.2]]",-0.113007812,-0.188715278,1,0,0,3.8,o2_image,806.5496,1,807.0416,807.0417,809.041,0,0,0,0,1,,,,,,,,,,,,,,,,,,,,,,,,,,,,,,,,,,,,,,,,,,,,,,,,,,
,,6557ebf8541bd32382739c1a,31,female,2024-04-24_20h32.29.222,stockport_simplified,2022.2.4,MacIntel,30.03003003,661e456ee6de07e70aa9ef7b,6628df8e2ec4bdf738651ed0,,,,,,,,,,,,,,,,,,,,,,,,,,,,,,,,,,,,,,,,,,,,,,,,,,,,,,,,1,47,107,11,1,B,X,N,o2_image,stimuli/out2.png,stimuli/out1.png,stimuli/correct_out2.png,,,,,,,,,,,,,,,,,,,,,,,,,,,,,,,,,,,,,,
,,6557ebf8541bd32382739c1a,31,female,2024-04-24_20h32.29.222,stockport_simplified,2022.2.4,MacIntel,30.03003003,661e456ee6de07e70aa9ef7b,6628df8e2ec4bdf738651ed0,,,,,,,,,,,,,,,,,,,,,,,,,,,,,,,,,,809.0413,812.475,"[8,4,1,6,3,7,2,5]","[[0.3,0.2],[-0.3,0.2]]","[[0.125,-0.2],[-0.125,-0.2]]",-0.081866319,-0.177517361,1,0,0,2.9326,o2_image,812.4753,0,812.9752,812.9753,814.9755,0,0,0,0,1,,,,,,,,,,,,,,,,,,,,,,,,,,,,,,,,,,,,,,,,,,,,,,,,,,
,,6557ebf8541bd32382739c1a,31,female,2024-04-24_20h32.29.222,stockport_simplified,2022.2.4,MacIntel,30.03003003,661e456ee6de07e70aa9ef7b,6628df8e2ec4bdf738651ed0,,,,,,,,,,,,,,,,,,,,,,,,,,,,,,,,,,,,,,,,,,,,,,,,,,,,,,,,1,48,108,24,1,N,M,C,o1_image,stimuli/out1.png,stimuli/correct_out1.png,stimuli/out2.png,,,,,,,,,,,,,,,,,,,,,,,,,,,,,,,,,,,,,,
,,6557ebf8541bd32382739c1a,31,female,2024-04-24_20h32.29.222,stockport_simplified,2022.2.4,MacIntel,30.03003003,661e456ee6de07e70aa9ef7b,6628df8e2ec4bdf738651ed0,,,,,,,,,,,,,,,,,,,,,,,,,,,,,,,,,,814.9761,820.1418,"[8,4,1,6,3,7,2,5]","[[-0.3,0.2],[0.3,0.2]]","[[-0.125,-0.2],[0.125,-0.2]]",0.09671441,-0.129431424,1,0,0,4.6323,o2_image,820.1496,1,820.6424,820.6424,822.6424,0,0,0,0,1,,,,,,,,,,,,,,,,,,,,,,,,,,,,,,,,,,,,,,,,,,,,,,,,,,
,,6557ebf8541bd32382739c1a,31,female,2024-04-24_20h32.29.222,stockport_simplified,2022.2.4,MacIntel,30.03003003,661e456ee6de07e70aa9ef7b,6628df8e2ec4bdf738651ed0,,,,,,,,,,,,,,,,,,,,,,,,,,,,,,,,,,,,,,,,,,,,,,,,,,,,,,,,1,49,109,12,1,B,X,N,o2_image,stimuli/out2.png,stimuli/out1.png,stimuli/correct_out2.png,,,,,,,,,,,,,,,,,,,,,,,,,,,,,,,,,,,,,,
,,6557ebf8541bd32382739c1a,31,female,2024-04-24_20h32.29.222,stockport_simplified,2022.2.4,MacIntel,30.03003003,661e456ee6de07e70aa9ef7b,6628df8e2ec4bdf738651ed0,,,,,,,,,,,,,,,,,,,,,,,,,,,,,,,,,,822.643,826.7419,"[8,4,1,6,3,7,2,5]","[[0.3,0.2],[-0.3,0.2]]","[[-0.125,-0.2],[0.125,-0.2]]",0.070824653,-0.149921875,1,0,0,3.5665,o2_image,826.7502,0,827.2423,827.2424,829.2423,0,0,0,0,1,,,,,,,,,,,,,,,,,,,,,,,,,,,,,,,,,,,,,,,,,,,,,,,,,,
,,6557ebf8541bd32382739c1a,31,female,2024-04-24_20h32.29.222,stockport_simplified,2022.2.4,MacIntel,30.03003003,661e456ee6de07e70aa9ef7b,6628df8e2ec4bdf738651ed0,,,,,,,,,,,,,,,,,,,,,,,,,,,,,,,,,,,,,,,,,,,,,,,,,,,,,,,,1,50,110,7,1,A,Y,N,o1_image,stimuli/out1.png,stimuli/correct_out1.png,stimuli/out2.png,,,,,,,,,,,,,,,,,,,,,,,,,,,,,,,,,,,,,,
,,6557ebf8541bd32382739c1a,31,female,2024-04-24_20h32.29.222,stockport_simplified,2022.2.4,MacIntel,30.03003003,661e456ee6de07e70aa9ef7b,6628df8e2ec4bdf738651ed0,,,,,,,,,,,,,,,,,,,,,,,,,,,,,,,,,,829.2429,833.3756,"[8,4,1,6,3,7,2,5]","[[-0.3,0.2],[0.3,0.2]]","[[0.125,-0.2],[-0.125,-0.2]]",0.123164063,-0.186128472,1,0,0,3.5995,o1_image,833.3832,1,833.8754,833.8754,835.8758,0,0,0,0,1,,,,,,,,,,,,,,,,,,,,,,,,,,,,,,,,,,,,,,,,,,,,,,,,,,
,,6557ebf8541bd32382739c1a,31,female,2024-04-24_20h32.29.222,stockport_simplified,2022.2.4,MacIntel,30.03003003,661e456ee6de07e70aa9ef7b,6628df8e2ec4bdf738651ed0,,,,,,,,,,,,,,,,,,,,,,,,,,,,,,,,,,,,,,,,,,,,,,,,,,,,,,,,1,51,111,30,1,A,X,N,o1_image,stimuli/out1.png,stimuli/correct_out1.png,stimuli/out2.png,,,,,,,,,,,,,,,,,,,,,,,,,,,,,,,,,,,,,,
,,6557ebf8541bd32382739c1a,31,female,2024-04-24_20h32.29.222,stockport_simplified,2022.2.4,MacIntel,30.03003003,661e456ee6de07e70aa9ef7b,6628df8e2ec4bdf738651ed0,,,,,,,,,,,,,,,,,,,,,,,,,,,,,,,,,,835.8763,838.8756,"[8,4,1,6,3,7,2,5]","[[0.3,0.2],[-0.3,0.2]]","[[-0.125,-0.2],[0.125,-0.2]]",-0.093975694,-0.194149306,1,0,0,2.4668,o1_image,838.8835,1,839.3753,839.3753,841.3756,0,0,0,0,1,,,,,,,,,,,,,,,,,,,,,,,,,,,,,,,,,,,,,,,,,,,,,,,,,,
,,6557ebf8541bd32382739c1a,31,female,2024-04-24_20h32.29.222,stockport_simplified,2022.2.4,MacIntel,30.03003003,661e456ee6de07e70aa9ef7b,6628df8e2ec4bdf738651ed0,,,,,,,,,,,,,,,,,,,,,,,,,,,,,,,,,,,,,,,,,,,,,,,,,,,,,,,,1,52,112,39,1,A,Y,N,o1_image,stimuli/out1.png,stimuli/correct_out1.png,stimuli/out2.png,,,,,,,,,,,,,,,,,,,,,,,,,,,,,,,,,,,,,,
,,6557ebf8541bd32382739c1a,31,female,2024-04-24_20h32.29.222,stockport_simplified,2022.2.4,MacIntel,30.03003003,661e456ee6de07e70aa9ef7b,6628df8e2ec4bdf738651ed0,,,,,,,,,,,,,,,,,,,,,,,,,,,,,,,,,,841.3759,844.7756,"[8,4,1,6,3,7,2,5]","[[-0.3,0.2],[0.3,0.2]]","[[0.125,-0.2],[-0.125,-0.2]]",-0.093975694,-0.194700521,1,0,0,2.8664,o2_image,844.7844,1,845.276,845.276,847.2761,0,0,0,0,1,,,,,,,,,,,,,,,,,,,,,,,,,,,,,,,,,,,,,,,,,,,,,,,,,,
,,6557ebf8541bd32382739c1a,31,female,2024-04-24_20h32.29.222,stockport_simplified,2022.2.4,MacIntel,30.03003003,661e456ee6de07e70aa9ef7b,6628df8e2ec4bdf738651ed0,,,,,,,,,,,,,,,,,,,,,,,,,,,,,,,,,,,,,,,,,,,,,,,,,,,,,,,,1,53,113,49,1,B,Y,N,o2_image,stimuli/out2.png,stimuli/out1.png,stimuli/correct_out2.png,,,,,,,,,,,,,,,,,,,,,,,,,,,,,,,,,,,,,,
,,6557ebf8541bd32382739c1a,31,female,2024-04-24_20h32.29.222,stockport_simplified,2022.2.4,MacIntel,30.03003003,661e456ee6de07e70aa9ef7b,6628df8e2ec4bdf738651ed0,,,,,,,,,,,,,,,,,,,,,,,,,,,,,,,,,,847.2766,853.0756,"[8,4,1,6,3,7,2,5]","[[-0.3,0.2],[0.3,0.2]]","[[-0.125,-0.2],[0.125,-0.2]]",-0.066701389,-0.207560764,1,0,0,5.2657,o1_image,853.0834,1,853.5762,853.5762,855.5762,0,0,0,0,1,,,,,,,,,,,,,,,,,,,,,,,,,,,,,,,,,,,,,,,,,,,,,,,,,,
,,6557ebf8541bd32382739c1a,31,female,2024-04-24_20h32.29.222,stockport_simplified,2022.2.4,MacIntel,30.03003003,661e456ee6de07e70aa9ef7b,6628df8e2ec4bdf738651ed0,,,,,,,,,,,,,,,,,,,,,,,,,,,,,,,,,,,,,,,,,,,,,,,,,,,,,,,,1,54,114,34,1,A,X,N,o1_image,stimuli/out1.png,stimuli/correct_out1.png,stimuli/out2.png,,,,,,,,,,,,,,,,,,,,,,,,,,,,,,,,,,,,,,
,,6557ebf8541bd32382739c1a,31,female,2024-04-24_20h32.29.222,stockport_simplified,2022.2.4,MacIntel,30.03003003,661e456ee6de07e70aa9ef7b,6628df8e2ec4bdf738651ed0,,,,,,,,,,,,,,,,,,,,,,,,,,,,,,,,,,855.577,857.5425,"[8,4,1,6,3,7,2,5]","[[0.3,0.2],[-0.3,0.2]]","[[-0.125,-0.2],[0.125,-0.2]]",0.130872396,-0.157699653,1,0,0,1.4325,o2_image,857.5428,1,858.0425,858.0425,860.0426,0,0,0,0,1,,,,,,,,,,,,,,,,,,,,,,,,,,,,,,,,,,,,,,,,,,,,,,,,,,
,,6557ebf8541bd32382739c1a,31,female,2024-04-24_20h32.29.222,stockport_simplified,2022.2.4,MacIntel,30.03003003,661e456ee6de07e70aa9ef7b,6628df8e2ec4bdf738651ed0,,,,,,,,,,,,,,,,,,,,,,,,,,,,,,,,,,,,,,,,,,,,,,,,,,,,,,,,1,55,115,59,1,N,M,D,o2_image,stimuli/out2.png,stimuli/out1.png,stimuli/correct_out2.png,,,,,,,,,,,,,,,,,,,,,,,,,,,,,,,,,,,,,,
,,6557ebf8541bd32382739c1a,31,female,2024-04-24_20h32.29.222,stockport_simplified,2022.2.4,MacIntel,30.03003003,661e456ee6de07e70aa9ef7b,6628df8e2ec4bdf738651ed0,,,,,,,,,,,,,,,,,,,,,,,,,,,,,,,,,,860.0428,865.1094,"[8,4,1,6,3,7,2,5]","[[0.3,0.2],[-0.3,0.2]]","[[-0.125,-0.2],[0.125,-0.2]]",0.090577257,-0.155052083,1,0,0,4.5334,o2_image,865.1173,1,865.6097,865.6097,867.6097,0,0,0,0,1,,,,,,,,,,,,,,,,,,,,,,,,,,,,,,,,,,,,,,,,,,,,,,,,,,
,,6557ebf8541bd32382739c1a,31,female,2024-04-24_20h32.29.222,stockport_simplified,2022.2.4,MacIntel,30.03003003,661e456ee6de07e70aa9ef7b,6628df8e2ec4bdf738651ed0,,,,,,,,,,,,,,,,,,,,,,,,,,,,,,,,,,,,,,,,,,,,,,,,,,,,,,,,1,56,116,19,1,B,Y,N,o2_image,stimuli/out2.png,stimuli/out1.png,stimuli/correct_out2.png,,,,,,,,,,,,,,,,,,,,,,,,,,,,,,,,,,,,,,
,,6557ebf8541bd32382739c1a,31,female,2024-04-24_20h32.29.222,stockport_simplified,2022.2.4,MacIntel,30.03003003,661e456ee6de07e70aa9ef7b,6628df8e2ec4bdf738651ed0,,,,,,,,,,,,,,,,,,,,,,,,,,,,,,,,,,867.6103,872.8428,"[8,4,1,6,3,7,2,5]","[[0.3,0.2],[-0.3,0.2]]","[[-0.125,-0.2],[0.125,-0.2]]",0.060598958,-0.159978299,1,0,0,4.6999,o2_image,872.8515,1,873.3431,873.3432,875.3427,0,0,0,0,1,,,,,,,,,,,,,,,,,,,,,,,,,,,,,,,,,,,,,,,,,,,,,,,,,,
,,6557ebf8541bd32382739c1a,31,female,2024-04-24_20h32.29.222,stockport_simplified,2022.2.4,MacIntel,30.03003003,661e456ee6de07e70aa9ef7b,6628df8e2ec4bdf738651ed0,,,,,,,,,,,,,,,,,,,,,,,,,,,,,,,,,,,,,,,,,,,,,,,,,,,,,,,,1,57,117,13,1,B,X,N,o2_image,stimuli/out2.png,stimuli/out1.png,stimuli/correct_out2.png,,,,,,,,,,,,,,,,,,,,,,,,,,,,,,,,,,,,,,
,,6557ebf8541bd32382739c1a,31,female,2024-04-24_20h32.29.222,stockport_simplified,2022.2.4,MacIntel,30.03003003,661e456ee6de07e70aa9ef7b,6628df8e2ec4bdf738651ed0,,,,,,,,,,,,,,,,,,,,,,,,,,,,,,,,,,875.3429,880.1094,"[8,4,1,6,3,7,2,5]","[[0.3,0.2],[-0.3,0.2]]","[[-0.125,-0.2],[0.125,-0.2]]",-0.090885417,-0.193871528,1,0,0,4.2332,o1_image,880.1171,1,880.61,880.61,882.6099,0,0,0,0,1,,,,,,,,,,,,,,,,,,,,,,,,,,,,,,,,,,,,,,,,,,,,,,,,,,
,,6557ebf8541bd32382739c1a,31,female,2024-04-24_20h32.29.222,stockport_simplified,2022.2.4,MacIntel,30.03003003,661e456ee6de07e70aa9ef7b,6628df8e2ec4bdf738651ed0,,,,,,,,,,,,,,,,,,,,,,,,,,,,,,,,,,,,,,,,,,,,,,,,,,,,,,,,1,58,118,21,1,N,M,C,o1_image,stimuli/out1.png,stimuli/correct_out1.png,stimuli/out2.png,,,,,,,,,,,,,,,,,,,,,,,,,,,,,,,,,,,,,,
,,6557ebf8541bd32382739c1a,31,female,2024-04-24_20h32.29.222,stockport_simplified,2022.2.4,MacIntel,30.03003003,661e456ee6de07e70aa9ef7b,6628df8e2ec4bdf738651ed0,,,,,,,,,,,,,,,,,,,,,,,,,,,,,,,,,,882.6105,885.1761,"[8,4,1,6,3,7,2,5]","[[0.3,0.2],[-0.3,0.2]]","[[-0.125,-0.2],[0.125,-0.2]]",0.162300347,-0.16625434,1,0,0,2.033,o2_image,885.1838,0,885.6761,885.6762,887.6762,0,0,0,0,1,,,,,,,,,,,,,,,,,,,,,,,,,,,,,,,,,,,,,,,,,,,,,,,,,,
,,6557ebf8541bd32382739c1a,31,female,2024-04-24_20h32.29.222,stockport_simplified,2022.2.4,MacIntel,30.03003003,661e456ee6de07e70aa9ef7b,6628df8e2ec4bdf738651ed0,,,,,,,,,,,,,,,,,,,,,,,,,,,,,,,,,,,,,,,,,,,,,,,,,,,,,,,,1,59,119,38,1,A,Y,N,o1_image,stimuli/out1.png,stimuli/correct_out1.png,stimuli/out2.png,,,,,,,,,,,,,,,,,,,,,,,,,,,,,,,,,,,,,,
,,6557ebf8541bd32382739c1a,31,female,2024-04-24_20h32.29.222,stockport_simplified,2022.2.4,MacIntel,30.03003003,661e456ee6de07e70aa9ef7b,6628df8e2ec4bdf738651ed0,,,,,,,,,,,,,,,,,,,,,,,,,,,,,,,,,,887.6863,890.9429,"[8,4,1,6,3,7,2,5]","[[0.3,0.2],[-0.3,0.2]]","[[-0.125,-0.2],[0.125,-0.2]]",-0.065842014,-0.212782118,1,0,0,2.7327,o1_image,890.951,0,891.4435,891.4435,893.4434,,,,,,,,,,,,,,,,,,0,0,0,0,1,,,,,,,,,,,,,,,,,,,,,,,,,,,,,,,,,
,,6557ebf8541bd32382739c1a,31,female,2024-04-24_20h32.29.222,stockport_simplified,2022.2.4,MacIntel,30.03003003,661e456ee6de07e70aa9ef7b,6628df8e2ec4bdf738651ed0,,,,,,,,,,,,,,,,,,,,,,,,,,,,,,,,,,,,,,,,,,,,,,,,,,,,,,,,,,,,,A,X,N,o2_image,stimuli/out2.png,stimuli/out1.png,stimuli/correct_out2.png,,,,,,0,0,0,7,1,,,,,,,,,,,,,,,,,,,,,,,,,,,,
,,6557ebf8541bd32382739c1a,31,female,2024-04-24_20h32.29.222,stockport_simplified,2022.2.4,MacIntel,30.03003003,661e456ee6de07e70aa9ef7b,6628df8e2ec4bdf738651ed0,,,,,,,,,,,,,,,,,,,,,,,,,,,,,,,,,,893.4444,898.043,"[8,4,1,6,3,7,2,5]","[[-0.3,0.2],[0.3,0.2]]","[[0.125,-0.2],[-0.125,-0.2]]",0.129249132,-0.232486979,1,0,0,4.066,o1_image,898.0509,0,898.5434,898.5434,900.5436,,,,,,,,,,,,,,,,,,0,0,0,0,1,,,,,,,,,,,,,,,,,,,,,,,,,,,,,,,,,
,,6557ebf8541bd32382739c1a,31,female,2024-04-24_20h32.29.222,stockport_simplified,2022.2.4,MacIntel,30.03003003,661e456ee6de07e70aa9ef7b,6628df8e2ec4bdf738651ed0,,,,,,,,,,,,,,,,,,,,,,,,,,,,,,,,,,,,,,,,,,,,,,,,,,,,,,,,,,,,,A,X,N,o2_image,stimuli/out2.png,stimuli/out1.png,stimuli/correct_out2.png,,,,,,0,1,1,6,1,,,,,,,,,,,,,,,,,,,,,,,,,,,,
,,6557ebf8541bd32382739c1a,31,female,2024-04-24_20h32.29.222,stockport_simplified,2022.2.4,MacIntel,30.03003003,661e456ee6de07e70aa9ef7b,6628df8e2ec4bdf738651ed0,,,,,,,,,,,,,,,,,,,,,,,,,,,,,,,,,,900.544,902.3766,"[8,4,1,6,3,7,2,5]","[[-0.3,0.2],[0.3,0.2]]","[[0.125,-0.2],[-0.125,-0.2]]",-0.097491319,-0.188420139,1,0,0,1.299,o2_image,902.3769,1,902.8766,902.8766,904.8768,,,,,,,,,,,,,,,,,,0,0,0,0,1,,,,,,,,,,,,,,,,,,,,,,,,,,,,,,,,,
