counterbalance_2.started,counterbalance_2.stopped,participant,age,gender,date,expName,psychopyVersion,OS,frameRate,STUDY_ID,SESSION_ID,information_2.started,information_2.stopped,information_loop.thisRepN,information_loop.thisTrialN,information_loop.thisN,information_loop.thisIndex,information_loop.ran,information,consent_2.started,consent_2.stopped,slider_1.response,slider_2.response,slider_3.response,slider_4.response,slider_5.response,slider_6.response,instructions.started,instructions.stopped,task1_instr.thisRepN,task1_instr.thisTrialN,task1_instr.thisN,task1_instr.thisIndex,task1_instr.ran,task1,comprehension1_2.started,comprehension1_2.stopped,comp1_mouse.x,comp1_mouse.y,comp1_mouse.leftButton,comp1_mouse.midButton,comp1_mouse.rightButton,comp1_mouse.time,comp1_mouse.clicked_name,cue_o__trial_2.started,cue_o__trial_2.stopped,order,cue_order,out_order,cue_o_mouse.x,cue_o_mouse.y,cue_o_mouse.leftButton,cue_o_mouse.midButton,cue_o_mouse.rightButton,cue_o_mouse.time,cue_o_mouse.clicked_name,cue_selection_2.started,correct_answer,cue_selection_2.stopped,feedback_2.started,feedback_2.stopped,feedback_loop.thisRepN,feedback_loop.thisTrialN,feedback_loop.thisN,feedback_loop.thisIndex,feedback_loop.ran,stage1_trials.thisRepN,stage1_trials.thisTrialN,stage1_trials.thisN,stage1_trials.thisIndex,stage1_trials.ran,cue1,cue2,cue3,outcome,correct_out,o1_feedback,o2_feedback,stage2_feedback_loop.thisRepN,stage2_feedback_loop.thisTrialN,stage2_feedback_loop.thisN,stage2_feedback_loop.thisIndex,stage2_feedback_loop.ran,stage2_trials.thisRepN,stage2_trials.thisTrialN,stage2_trials.thisN,stage2_trials.thisIndex,stage2_trials.ran,stage3_feedback_loop.thisRepN,stage3_feedback_loop.thisTrialN,stage3_feedback_loop.thisN,stage3_feedback_loop.thisIndex,stage3_feedback_loop.ran,stage3_trials.thisRepN,stage3_trials.thisTrialN,stage3_trials.thisN,stage3_trials.thisIndex,stage3_trials.ran,debrief_2.started,debrief_2.stopped,debrief_loop.thisRepN,debrief_loop.thisTrialN,debrief_loop.thisN,debrief_loop.thisIndex,debrief_loop.ran,debrief_img,compr1_completed.thisRepN,compr1_completed.thisTrialN,compr1_completed.thisN,compr1_completed.thisIndex,compr1_completed.ran,consent_loop.thisRepN,consent_loop.thisTrialN,consent_loop.thisN,consent_loop.thisIndex,consent_loop.ran
0.0005,0.0008,65c636b3226605112093d9cf,21,female,2024-04-16_12h21.48.575,stockport_simplified,2022.2.4,Win32,60.60606061,661e456ee6de07e70aa9ef7b,661e5126ac52da4490fb11dc,,,,,,,,,,,,,,,,,,,,,,,,,,,,,,,,,,,,,,,,,,,,,,,,,,,,,,,,,,,,,,,,,,,,,,,,,,,,,,,,,,,,,,,,,,,,,,,,,,,,,,,,,
,,65c636b3226605112093d9cf,21,female,2024-04-16_12h21.48.575,stockport_simplified,2022.2.4,Win32,60.60606061,661e456ee6de07e70aa9ef7b,661e5126ac52da4490fb11dc,0.0264,24.5766,0,0,0,0,1,instructions/info1.png,,,,,,,,,,,,,,,,,,,,,,,,,,,,,,,,,,,,,,,,,,,,,,,,,,,,,,,,,,,,,,,,,,,,,,,,,,,,,,,,,,,,,,,,,,,,,,,,,
,,65c636b3226605112093d9cf,21,female,2024-04-16_12h21.48.575,stockport_simplified,2022.2.4,Win32,60.60606061,661e456ee6de07e70aa9ef7b,661e5126ac52da4490fb11dc,24.5794,36.2621,0,1,1,1,1,instructions/info2.png,,,,,,,,,,,,,,,,,,,,,,,,,,,,,,,,,,,,,,,,,,,,,,,,,,,,,,,,,,,,,,,,,,,,,,,,,,,,,,,,,,,,,,,,,,,,,,,,,
,,65c636b3226605112093d9cf,21,female,2024-04-16_12h21.48.575,stockport_simplified,2022.2.4,Win32,60.60606061,661e456ee6de07e70aa9ef7b,661e5126ac52da4490fb11dc,36.2625,55.358,0,2,2,2,1,instructions/info3.png,,,,,,,,,,,,,,,,,,,,,,,,,,,,,,,,,,,,,,,,,,,,,,,,,,,,,,,,,,,,,,,,,,,,,,,,,,,,,,,,,,,,,,,,,,,,,,,,,
,,65c636b3226605112093d9cf,21,female,2024-04-16_12h21.48.575,stockport_simplified,2022.2.4,Win32,60.60606061,661e456ee6de07e70aa9ef7b,661e5126ac52da4490fb11dc,,,,,,,,,55.3959,78.8009,1,1,1,1,1,1,,,,,,,,,,,,,,,,,,,,,,,,,,,,,,,,,,,,,,,,,,,,,,,,,,,,,,,,,,,,,,,,,,,,,,,,,,,,,,,,,,,,,,,,,
,,65c636b3226605112093d9cf,21,female,2024-04-16_12h21.48.575,stockport_simplified,2022.2.4,Win32,60.60606061,661e456ee6de07e70aa9ef7b,661e5126ac52da4490fb11dc,,,,,,,,,,,,,,,,,78.8372,128.3327,0,0,0,0,1,instructions/task1_1.png,,,,,,,,,,,,,,,,,,,,,,,,,,,,,,,,,,,,,,,,,,,,,,,,,,,,,,,,,,,,,,,,,,,,,,,,,,,,,,,,,
,,65c636b3226605112093d9cf,21,female,2024-04-16_12h21.48.575,stockport_simplified,2022.2.4,Win32,60.60606061,661e456ee6de07e70aa9ef7b,661e5126ac52da4490fb11dc,,,,,,,,,,,,,,,,,128.3691,142.0998,0,1,1,1,1,instructions/task1_2.png,,,,,,,,,,,,,,,,,,,,,,,,,,,,,,,,,,,,,,,,,,,,,,,,,,,,,,,,,,,,,,,,,,,,,,,,,,,,,,,,,
,,65c636b3226605112093d9cf,21,female,2024-04-16_12h21.48.575,stockport_simplified,2022.2.4,Win32,60.60606061,661e456ee6de07e70aa9ef7b,661e5126ac52da4490fb11dc,,,,,,,,,,,,,,,,,142.1379,158.9201,0,2,2,2,1,instructions/task1_3.png,,,,,,,,,,,,,,,,,,,,,,,,,,,,,,,,,,,,,,,,,,,,,,,,,,,,,,,,,,,,,,,,,,,,,,,,,,,,,,,,,
,,65c636b3226605112093d9cf,21,female,2024-04-16_12h21.48.575,stockport_simplified,2022.2.4,Win32,60.60606061,661e456ee6de07e70aa9ef7b,661e5126ac52da4490fb11dc,,,,,,,,,,,,,,,,,,,,,,,,,158.9256,182.0546,-0.229629601,-0.329629686,1,0,0,23.1266,comp1_resp1,182.1214,185.5979,"[1,4,5,7,6,2,3,8]","[[0.3,0.2],[-0.3,0.2]]","[[-0.125,-0.2],[0.125,-0.2]]",0.123148176,-0.205555556,1,0,0,2.9609,o2_image,185.6046,0,186.0984,186.0989,188.0951,0,0,0,0,1,,,,,,,,,,,,,,,,,,,,,,,,,,,,,,,,,,,,,,,,,,,,,,,,,,
,,65c636b3226605112093d9cf,21,female,2024-04-16_12h21.48.575,stockport_simplified,2022.2.4,Win32,60.60606061,661e456ee6de07e70aa9ef7b,661e5126ac52da4490fb11dc,,,,,,,,,,,,,,,,,,,,,,,,,,,,,,,,,,,,,,,,,,,,,,,,,,,,,,,,0,0,0,9,1,A,Y,N,o1_image,stimuli/out1.png,stimuli/correct_out1.png,stimuli/out2.png,,,,,,,,,,,,,,,,,,,,,,,,,,,,,,,,,,,,,,
,,65c636b3226605112093d9cf,21,female,2024-04-16_12h21.48.575,stockport_simplified,2022.2.4,Win32,60.60606061,661e456ee6de07e70aa9ef7b,661e5126ac52da4490fb11dc,,,,,,,,,,,,,,,,,,,,,,,,,,,,,,,,,,188.097,190.2287,"[1,4,5,7,6,2,3,8]","[[-0.3,0.2],[0.3,0.2]]","[[0.125,-0.2],[-0.125,-0.2]]",0.121296353,-0.172222222,1,0,0,1.6158,o1_image,190.2327,0,190.7277,190.7277,192.727,0,0,0,0,1,,,,,,,,,,,,,,,,,,,,,,,,,,,,,,,,,,,,,,,,,,,,,,,,,,
,,65c636b3226605112093d9cf,21,female,2024-04-16_12h21.48.575,stockport_simplified,2022.2.4,Win32,60.60606061,661e456ee6de07e70aa9ef7b,661e5126ac52da4490fb11dc,,,,,,,,,,,,,,,,,,,,,,,,,,,,,,,,,,,,,,,,,,,,,,,,,,,,,,,,0,1,1,18,1,B,Y,N,o2_image,stimuli/out2.png,stimuli/out1.png,stimuli/correct_out2.png,,,,,,,,,,,,,,,,,,,,,,,,,,,,,,,,,,,,,,
,,65c636b3226605112093d9cf,21,female,2024-04-16_12h21.48.575,stockport_simplified,2022.2.4,Win32,60.60606061,661e456ee6de07e70aa9ef7b,661e5126ac52da4490fb11dc,,,,,,,,,,,,,,,,,,,,,,,,,,,,,,,,,,192.7282,194.6274,"[1,4,5,7,6,2,3,8]","[[-0.3,0.2],[0.3,0.2]]","[[0.125,-0.2],[-0.125,-0.2]]",-0.073148092,-0.197222222,1,0,0,1.3823,o2_image,194.6322,1,195.1264,195.1267,197.1259,0,0,0,0,1,,,,,,,,,,,,,,,,,,,,,,,,,,,,,,,,,,,,,,,,,,,,,,,,,,
,,65c636b3226605112093d9cf,21,female,2024-04-16_12h21.48.575,stockport_simplified,2022.2.4,Win32,60.60606061,661e456ee6de07e70aa9ef7b,661e5126ac52da4490fb11dc,,,,,,,,,,,,,,,,,,,,,,,,,,,,,,,,,,,,,,,,,,,,,,,,,,,,,,,,0,2,2,11,1,B,X,N,o2_image,stimuli/out2.png,stimuli/out1.png,stimuli/correct_out2.png,,,,,,,,,,,,,,,,,,,,,,,,,,,,,,,,,,,,,,
,,65c636b3226605112093d9cf,21,female,2024-04-16_12h21.48.575,stockport_simplified,2022.2.4,Win32,60.60606061,661e456ee6de07e70aa9ef7b,661e5126ac52da4490fb11dc,,,,,,,,,,,,,,,,,,,,,,,,,,,,,,,,,,197.1274,199.1932,"[1,4,5,7,6,2,3,8]","[[0.3,0.2],[-0.3,0.2]]","[[0.125,-0.2],[-0.125,-0.2]]",-0.094444444,-0.176851866,1,0,0,1.5499,o2_image,199.1973,1,199.6924,199.6925,201.6917,0,0,0,0,1,,,,,,,,,,,,,,,,,,,,,,,,,,,,,,,,,,,,,,,,,,,,,,,,,,
,,65c636b3226605112093d9cf,21,female,2024-04-16_12h21.48.575,stockport_simplified,2022.2.4,Win32,60.60606061,661e456ee6de07e70aa9ef7b,661e5126ac52da4490fb11dc,,,,,,,,,,,,,,,,,,,,,,,,,,,,,,,,,,,,,,,,,,,,,,,,,,,,,,,,0,3,3,44,1,B,X,N,o2_image,stimuli/out2.png,stimuli/out1.png,stimuli/correct_out2.png,,,,,,,,,,,,,,,,,,,,,,,,,,,,,,,,,,,,,,
,,65c636b3226605112093d9cf,21,female,2024-04-16_12h21.48.575,stockport_simplified,2022.2.4,Win32,60.60606061,661e456ee6de07e70aa9ef7b,661e5126ac52da4490fb11dc,,,,,,,,,,,,,,,,,,,,,,,,,,,,,,,,,,201.6936,204.4913,"[1,4,5,7,6,2,3,8]","[[-0.3,0.2],[0.3,0.2]]","[[-0.125,-0.2],[0.125,-0.2]]",-0.141666667,-0.20648151,1,0,0,2.28,o1_image,204.5282,0,205.0239,205.024,207.0232,0,0,0,0,1,,,,,,,,,,,,,,,,,,,,,,,,,,,,,,,,,,,,,,,,,,,,,,,,,,
,,65c636b3226605112093d9cf,21,female,2024-04-16_12h21.48.575,stockport_simplified,2022.2.4,Win32,60.60606061,661e456ee6de07e70aa9ef7b,661e5126ac52da4490fb11dc,,,,,,,,,,,,,,,,,,,,,,,,,,,,,,,,,,,,,,,,,,,,,,,,,,,,,,,,0,4,4,28,1,N,M,D,o2_image,stimuli/out2.png,stimuli/out1.png,stimuli/correct_out2.png,,,,,,,,,,,,,,,,,,,,,,,,,,,,,,,,,,,,,,
,,65c636b3226605112093d9cf,21,female,2024-04-16_12h21.48.575,stockport_simplified,2022.2.4,Win32,60.60606061,661e456ee6de07e70aa9ef7b,661e5126ac52da4490fb11dc,,,,,,,,,,,,,,,,,,,,,,,,,,,,,,,,,,207.0242,209.0575,"[1,4,5,7,6,2,3,8]","[[-0.3,0.2],[0.3,0.2]]","[[-0.125,-0.2],[0.125,-0.2]]",-0.114814758,-0.201851866,1,0,0,1.5167,o1_image,209.0607,1,209.5557,209.5557,211.5553,0,0,0,0,1,,,,,,,,,,,,,,,,,,,,,,,,,,,,,,,,,,,,,,,,,,,,,,,,,,
,,65c636b3226605112093d9cf,21,female,2024-04-16_12h21.48.575,stockport_simplified,2022.2.4,Win32,60.60606061,661e456ee6de07e70aa9ef7b,661e5126ac52da4490fb11dc,,,,,,,,,,,,,,,,,,,,,,,,,,,,,,,,,,,,,,,,,,,,,,,,,,,,,,,,0,5,5,22,1,N,M,C,o1_image,stimuli/out1.png,stimuli/correct_out1.png,stimuli/out2.png,,,,,,,,,,,,,,,,,,,,,,,,,,,,,,,,,,,,,,
,,65c636b3226605112093d9cf,21,female,2024-04-16_12h21.48.575,stockport_simplified,2022.2.4,Win32,60.60606061,661e456ee6de07e70aa9ef7b,661e5126ac52da4490fb11dc,,,,,,,,,,,,,,,,,,,,,,,,,,,,,,,,,,211.5564,214.9052,"[1,4,5,7,6,2,3,8]","[[-0.3,0.2],[0.3,0.2]]","[[-0.125,-0.2],[0.125,-0.2]]",0.129629686,-0.208333333,1,0,0,2.8317,o2_image,214.9397,1,215.4373,215.4375,217.4363,0,0,0,0,1,,,,,,,,,,,,,,,,,,,,,,,,,,,,,,,,,,,,,,,,,,,,,,,,,,
,,65c636b3226605112093d9cf,21,female,2024-04-16_12h21.48.575,stockport_simplified,2022.2.4,Win32,60.60606061,661e456ee6de07e70aa9ef7b,661e5126ac52da4490fb11dc,,,,,,,,,,,,,,,,,,,,,,,,,,,,,,,,,,,,,,,,,,,,,,,,,,,,,,,,0,6,6,41,1,B,X,N,o2_image,stimuli/out2.png,stimuli/out1.png,stimuli/correct_out2.png,,,,,,,,,,,,,,,,,,,,,,,,,,,,,,,,,,,,,,
,,65c636b3226605112093d9cf,21,female,2024-04-16_12h21.48.575,stockport_simplified,2022.2.4,Win32,60.60606061,661e456ee6de07e70aa9ef7b,661e5126ac52da4490fb11dc,,,,,,,,,,,,,,,,,,,,,,,,,,,,,,,,,,217.4368,220.0707,"[1,4,5,7,6,2,3,8]","[[-0.3,0.2],[0.3,0.2]]","[[-0.125,-0.2],[0.125,-0.2]]",0.063888889,-0.204629644,1,0,0,2.1157,o2_image,220.0746,1,220.5712,220.5714,222.5687,0,0,0,0,1,,,,,,,,,,,,,,,,,,,,,,,,,,,,,,,,,,,,,,,,,,,,,,,,,,
,,65c636b3226605112093d9cf,21,female,2024-04-16_12h21.48.575,stockport_simplified,2022.2.4,Win32,60.60606061,661e456ee6de07e70aa9ef7b,661e5126ac52da4490fb11dc,,,,,,,,,,,,,,,,,,,,,,,,,,,,,,,,,,,,,,,,,,,,,,,,,,,,,,,,0,7,7,48,1,B,Y,N,o2_image,stimuli/out2.png,stimuli/out1.png,stimuli/correct_out2.png,,,,,,,,,,,,,,,,,,,,,,,,,,,,,,,,,,,,,,
,,65c636b3226605112093d9cf,21,female,2024-04-16_12h21.48.575,stockport_simplified,2022.2.4,Win32,60.60606061,661e456ee6de07e70aa9ef7b,661e5126ac52da4490fb11dc,,,,,,,,,,,,,,,,,,,,,,,,,,,,,,,,,,222.5698,224.7697,"[1,4,5,7,6,2,3,8]","[[0.3,0.2],[-0.3,0.2]]","[[-0.125,-0.2],[0.125,-0.2]]",0.098148176,-0.195370399,1,0,0,1.6836,o2_image,224.7734,0,225.2753,225.2754,227.268,0,0,0,0,1,,,,,,,,,,,,,,,,,,,,,,,,,,,,,,,,,,,,,,,,,,,,,,,,,,
,,65c636b3226605112093d9cf,21,female,2024-04-16_12h21.48.575,stockport_simplified,2022.2.4,Win32,60.60606061,661e456ee6de07e70aa9ef7b,661e5126ac52da4490fb11dc,,,,,,,,,,,,,,,,,,,,,,,,,,,,,,,,,,,,,,,,,,,,,,,,,,,,,,,,0,8,8,5,1,A,Y,N,o1_image,stimuli/out1.png,stimuli/correct_out1.png,stimuli/out2.png,,,,,,,,,,,,,,,,,,,,,,,,,,,,,,,,,,,,,,
,,65c636b3226605112093d9cf,21,female,2024-04-16_12h21.48.575,stockport_simplified,2022.2.4,Win32,60.60606061,661e456ee6de07e70aa9ef7b,661e5126ac52da4490fb11dc,,,,,,,,,,,,,,,,,,,,,,,,,,,,,,,,,,227.2703,230.0008,"[1,4,5,7,6,2,3,8]","[[0.3,0.2],[-0.3,0.2]]","[[-0.125,-0.2],[0.125,-0.2]]",-0.090740712,-0.201851866,1,0,0,2.2143,o1_image,230.004,1,230.5066,230.5067,232.4992,0,0,0,0,1,,,,,,,,,,,,,,,,,,,,,,,,,,,,,,,,,,,,,,,,,,,,,,,,,,
,,65c636b3226605112093d9cf,21,female,2024-04-16_12h21.48.575,stockport_simplified,2022.2.4,Win32,60.60606061,661e456ee6de07e70aa9ef7b,661e5126ac52da4490fb11dc,,,,,,,,,,,,,,,,,,,,,,,,,,,,,,,,,,,,,,,,,,,,,,,,,,,,,,,,0,9,9,34,1,A,X,N,o1_image,stimuli/out1.png,stimuli/correct_out1.png,stimuli/out2.png,,,,,,,,,,,,,,,,,,,,,,,,,,,,,,,,,,,,,,
,,65c636b3226605112093d9cf,21,female,2024-04-16_12h21.48.575,stockport_simplified,2022.2.4,Win32,60.60606061,661e456ee6de07e70aa9ef7b,661e5126ac52da4490fb11dc,,,,,,,,,,,,,,,,,,,,,,,,,,,,,,,,,,232.5005,235.754,"[1,4,5,7,6,2,3,8]","[[0.3,0.2],[-0.3,0.2]]","[[0.125,-0.2],[-0.125,-0.2]]",0.104629686,-0.199074088,1,0,0,2.7373,o1_image,235.7563,1,236.2486,236.2488,238.249,0,0,0,0,1,,,,,,,,,,,,,,,,,,,,,,,,,,,,,,,,,,,,,,,,,,,,,,,,,,
,,65c636b3226605112093d9cf,21,female,2024-04-16_12h21.48.575,stockport_simplified,2022.2.4,Win32,60.60606061,661e456ee6de07e70aa9ef7b,661e5126ac52da4490fb11dc,,,,,,,,,,,,,,,,,,,,,,,,,,,,,,,,,,,,,,,,,,,,,,,,,,,,,,,,0,10,10,39,1,A,Y,N,o1_image,stimuli/out1.png,stimuli/correct_out1.png,stimuli/out2.png,,,,,,,,,,,,,,,,,,,,,,,,,,,,,,,,,,,,,,
,,65c636b3226605112093d9cf,21,female,2024-04-16_12h21.48.575,stockport_simplified,2022.2.4,Win32,60.60606061,661e456ee6de07e70aa9ef7b,661e5126ac52da4490fb11dc,,,,,,,,,,,,,,,,,,,,,,,,,,,,,,,,,,238.2509,240.8875,"[1,4,5,7,6,2,3,8]","[[-0.3,0.2],[0.3,0.2]]","[[-0.125,-0.2],[0.125,-0.2]]",-0.175,-0.162037065,1,0,0,2.1161,o1_image,240.8887,1,241.3802,241.3803,243.3796,0,0,0,0,1,,,,,,,,,,,,,,,,,,,,,,,,,,,,,,,,,,,,,,,,,,,,,,,,,,
,,65c636b3226605112093d9cf,21,female,2024-04-16_12h21.48.575,stockport_simplified,2022.2.4,Win32,60.60606061,661e456ee6de07e70aa9ef7b,661e5126ac52da4490fb11dc,,,,,,,,,,,,,,,,,,,,,,,,,,,,,,,,,,,,,,,,,,,,,,,,,,,,,,,,0,11,11,33,1,A,X,N,o1_image,stimuli/out1.png,stimuli/correct_out1.png,stimuli/out2.png,,,,,,,,,,,,,,,,,,,,,,,,,,,,,,,,,,,,,,
,,65c636b3226605112093d9cf,21,female,2024-04-16_12h21.48.575,stockport_simplified,2022.2.4,Win32,60.60606061,661e456ee6de07e70aa9ef7b,661e5126ac52da4490fb11dc,,,,,,,,,,,,,,,,,,,,,,,,,,,,,,,,,,243.3807,246.1295,"[1,4,5,7,6,2,3,8]","[[-0.3,0.2],[0.3,0.2]]","[[0.125,-0.2],[-0.125,-0.2]]",0.099074131,-0.19629631,1,0,0,2.2323,o1_image,246.132,0,246.6289,246.629,248.6283,0,0,0,0,1,,,,,,,,,,,,,,,,,,,,,,,,,,,,,,,,,,,,,,,,,,,,,,,,,,
,,65c636b3226605112093d9cf,21,female,2024-04-16_12h21.48.575,stockport_simplified,2022.2.4,Win32,60.60606061,661e456ee6de07e70aa9ef7b,661e5126ac52da4490fb11dc,,,,,,,,,,,,,,,,,,,,,,,,,,,,,,,,,,,,,,,,,,,,,,,,,,,,,,,,0,12,12,10,1,B,X,N,o2_image,stimuli/out2.png,stimuli/out1.png,stimuli/correct_out2.png,,,,,,,,,,,,,,,,,,,,,,,,,,,,,,,,,,,,,,
,,65c636b3226605112093d9cf,21,female,2024-04-16_12h21.48.575,stockport_simplified,2022.2.4,Win32,60.60606061,661e456ee6de07e70aa9ef7b,661e5126ac52da4490fb11dc,,,,,,,,,,,,,,,,,,,,,,,,,,,,,,,,,,248.6293,252.1787,"[1,4,5,7,6,2,3,8]","[[0.3,0.2],[-0.3,0.2]]","[[0.125,-0.2],[-0.125,-0.2]]",0.147222222,-0.195370399,1,0,0,3.0324,o1_image,252.1832,0,252.6786,252.6788,254.6765,0,0,0,0,1,,,,,,,,,,,,,,,,,,,,,,,,,,,,,,,,,,,,,,,,,,,,,,,,,,
,,65c636b3226605112093d9cf,21,female,2024-04-16_12h21.48.575,stockport_simplified,2022.2.4,Win32,60.60606061,661e456ee6de07e70aa9ef7b,661e5126ac52da4490fb11dc,,,,,,,,,,,,,,,,,,,,,,,,,,,,,,,,,,,,,,,,,,,,,,,,,,,,,,,,0,13,13,56,1,N,M,D,o2_image,stimuli/out2.png,stimuli/out1.png,stimuli/correct_out2.png,,,,,,,,,,,,,,,,,,,,,,,,,,,,,,,,,,,,,,
,,65c636b3226605112093d9cf,21,female,2024-04-16_12h21.48.575,stockport_simplified,2022.2.4,Win32,60.60606061,661e456ee6de07e70aa9ef7b,661e5126ac52da4490fb11dc,,,,,,,,,,,,,,,,,,,,,,,,,,,,,,,,,,254.6777,258.2019,"[1,4,5,7,6,2,3,8]","[[0.3,0.2],[-0.3,0.2]]","[[0.125,-0.2],[-0.125,-0.2]]",-0.11851849,-0.221296353,1,0,0,3.0067,o2_image,258.2039,1,258.6925,258.6926,260.692,0,0,0,0,1,,,,,,,,,,,,,,,,,,,,,,,,,,,,,,,,,,,,,,,,,,,,,,,,,,
,,65c636b3226605112093d9cf,21,female,2024-04-16_12h21.48.575,stockport_simplified,2022.2.4,Win32,60.60606061,661e456ee6de07e70aa9ef7b,661e5126ac52da4490fb11dc,,,,,,,,,,,,,,,,,,,,,,,,,,,,,,,,,,,,,,,,,,,,,,,,,,,,,,,,0,14,14,17,1,B,Y,N,o2_image,stimuli/out2.png,stimuli/out1.png,stimuli/correct_out2.png,,,,,,,,,,,,,,,,,,,,,,,,,,,,,,,,,,,,,,
,,65c636b3226605112093d9cf,21,female,2024-04-16_12h21.48.575,stockport_simplified,2022.2.4,Win32,60.60606061,661e456ee6de07e70aa9ef7b,661e5126ac52da4490fb11dc,,,,,,,,,,,,,,,,,,,,,,,,,,,,,,,,,,260.6945,264.4246,"[1,4,5,7,6,2,3,8]","[[-0.3,0.2],[0.3,0.2]]","[[-0.125,-0.2],[0.125,-0.2]]",0.097222222,-0.167592621,1,0,0,3.2111,o2_image,264.4598,0,264.9571,264.9573,266.965,0,0,0,0,1,,,,,,,,,,,,,,,,,,,,,,,,,,,,,,,,,,,,,,,,,,,,,,,,,,
,,65c636b3226605112093d9cf,21,female,2024-04-16_12h21.48.575,stockport_simplified,2022.2.4,Win32,60.60606061,661e456ee6de07e70aa9ef7b,661e5126ac52da4490fb11dc,,,,,,,,,,,,,,,,,,,,,,,,,,,,,,,,,,,,,,,,,,,,,,,,,,,,,,,,0,15,15,20,1,N,M,C,o1_image,stimuli/out1.png,stimuli/correct_out1.png,stimuli/out2.png,,,,,,,,,,,,,,,,,,,,,,,,,,,,,,,,,,,,,,
,,65c636b3226605112093d9cf,21,female,2024-04-16_12h21.48.575,stockport_simplified,2022.2.4,Win32,60.60606061,661e456ee6de07e70aa9ef7b,661e5126ac52da4490fb11dc,,,,,,,,,,,,,,,,,,,,,,,,,,,,,,,,,,266.9661,270.8729,"[1,4,5,7,6,2,3,8]","[[0.3,0.2],[-0.3,0.2]]","[[-0.125,-0.2],[0.125,-0.2]]",-0.121296268,-0.178703732,1,0,0,3.3961,o1_image,270.9076,0,271.4053,271.4055,273.4047,0,0,0,0,1,,,,,,,,,,,,,,,,,,,,,,,,,,,,,,,,,,,,,,,,,,,,,,,,,,
,,65c636b3226605112093d9cf,21,female,2024-04-16_12h21.48.575,stockport_simplified,2022.2.4,Win32,60.60606061,661e456ee6de07e70aa9ef7b,661e5126ac52da4490fb11dc,,,,,,,,,,,,,,,,,,,,,,,,,,,,,,,,,,,,,,,,,,,,,,,,,,,,,,,,0,16,16,13,1,B,X,N,o2_image,stimuli/out2.png,stimuli/out1.png,stimuli/correct_out2.png,,,,,,,,,,,,,,,,,,,,,,,,,,,,,,,,,,,,,,
,,65c636b3226605112093d9cf,21,female,2024-04-16_12h21.48.575,stockport_simplified,2022.2.4,Win32,60.60606061,661e456ee6de07e70aa9ef7b,661e5126ac52da4490fb11dc,,,,,,,,,,,,,,,,,,,,,,,,,,,,,,,,,,273.4059,276.6211,"[1,4,5,7,6,2,3,8]","[[-0.3,0.2],[0.3,0.2]]","[[-0.125,-0.2],[0.125,-0.2]]",0.133333333,-0.179629644,1,0,0,2.6992,o2_image,276.6556,1,277.1606,277.1607,279.1601,0,0,0,0,1,,,,,,,,,,,,,,,,,,,,,,,,,,,,,,,,,,,,,,,,,,,,,,,,,,
,,65c636b3226605112093d9cf,21,female,2024-04-16_12h21.48.575,stockport_simplified,2022.2.4,Win32,60.60606061,661e456ee6de07e70aa9ef7b,661e5126ac52da4490fb11dc,,,,,,,,,,,,,,,,,,,,,,,,,,,,,,,,,,,,,,,,,,,,,,,,,,,,,,,,0,17,17,14,1,B,X,N,o2_image,stimuli/out2.png,stimuli/out1.png,stimuli/correct_out2.png,,,,,,,,,,,,,,,,,,,,,,,,,,,,,,,,,,,,,,
,,65c636b3226605112093d9cf,21,female,2024-04-16_12h21.48.575,stockport_simplified,2022.2.4,Win32,60.60606061,661e456ee6de07e70aa9ef7b,661e5126ac52da4490fb11dc,,,,,,,,,,,,,,,,,,,,,,,,,,,,,,,,,,279.1612,283.2436,"[1,4,5,7,6,2,3,8]","[[0.3,0.2],[-0.3,0.2]]","[[0.125,-0.2],[-0.125,-0.2]]",-0.091666667,-0.198148176,1,0,0,3.5666,o2_image,283.2781,0,283.7697,283.7699,285.7582,0,0,0,0,1,,,,,,,,,,,,,,,,,,,,,,,,,,,,,,,,,,,,,,,,,,,,,,,,,,
,,65c636b3226605112093d9cf,21,female,2024-04-16_12h21.48.575,stockport_simplified,2022.2.4,Win32,60.60606061,661e456ee6de07e70aa9ef7b,661e5126ac52da4490fb11dc,,,,,,,,,,,,,,,,,,,,,,,,,,,,,,,,,,,,,,,,,,,,,,,,,,,,,,,,0,18,18,50,1,N,M,C,o1_image,stimuli/out1.png,stimuli/correct_out1.png,stimuli/out2.png,,,,,,,,,,,,,,,,,,,,,,,,,,,,,,,,,,,,,,
,,65c636b3226605112093d9cf,21,female,2024-04-16_12h21.48.575,stockport_simplified,2022.2.4,Win32,60.60606061,661e456ee6de07e70aa9ef7b,661e5126ac52da4490fb11dc,,,,,,,,,,,,,,,,,,,,,,,,,,,,,,,,,,285.7595,289.2346,"[1,4,5,7,6,2,3,8]","[[0.3,0.2],[-0.3,0.2]]","[[0.125,-0.2],[-0.125,-0.2]]",-0.091666667,-0.198148176,1,0,0,2.9623,o2_image,289.2697,1,289.7669,289.7669,291.7668,0,0,0,0,1,,,,,,,,,,,,,,,,,,,,,,,,,,,,,,,,,,,,,,,,,,,,,,,,,,
,,65c636b3226605112093d9cf,21,female,2024-04-16_12h21.48.575,stockport_simplified,2022.2.4,Win32,60.60606061,661e456ee6de07e70aa9ef7b,661e5126ac52da4490fb11dc,,,,,,,,,,,,,,,,,,,,,,,,,,,,,,,,,,,,,,,,,,,,,,,,,,,,,,,,0,19,19,45,1,B,Y,N,o2_image,stimuli/out2.png,stimuli/out1.png,stimuli/correct_out2.png,,,,,,,,,,,,,,,,,,,,,,,,,,,,,,,,,,,,,,
,,65c636b3226605112093d9cf,21,female,2024-04-16_12h21.48.575,stockport_simplified,2022.2.4,Win32,60.60606061,661e456ee6de07e70aa9ef7b,661e5126ac52da4490fb11dc,,,,,,,,,,,,,,,,,,,,,,,,,,,,,,,,,,291.7679,294.5663,"[1,4,5,7,6,2,3,8]","[[-0.3,0.2],[0.3,0.2]]","[[0.125,-0.2],[-0.125,-0.2]]",-0.091666667,-0.198148176,1,0,0,2.2811,o2_image,294.6008,0,295.1047,295.1048,297.0986,0,0,0,0,1,,,,,,,,,,,,,,,,,,,,,,,,,,,,,,,,,,,,,,,,,,,,,,,,,,
,,65c636b3226605112093d9cf,21,female,2024-04-16_12h21.48.575,stockport_simplified,2022.2.4,Win32,60.60606061,661e456ee6de07e70aa9ef7b,661e5126ac52da4490fb11dc,,,,,,,,,,,,,,,,,,,,,,,,,,,,,,,,,,,,,,,,,,,,,,,,,,,,,,,,0,20,20,51,1,N,M,C,o1_image,stimuli/out1.png,stimuli/correct_out1.png,stimuli/out2.png,,,,,,,,,,,,,,,,,,,,,,,,,,,,,,,,,,,,,,
,,65c636b3226605112093d9cf,21,female,2024-04-16_12h21.48.575,stockport_simplified,2022.2.4,Win32,60.60606061,661e456ee6de07e70aa9ef7b,661e5126ac52da4490fb11dc,,,,,,,,,,,,,,,,,,,,,,,,,,,,,,,,,,297.1001,299.7322,"[1,4,5,7,6,2,3,8]","[[-0.3,0.2],[0.3,0.2]]","[[-0.125,-0.2],[0.125,-0.2]]",-0.083333333,-0.192592621,1,0,0,2.1162,o1_image,299.736,1,300.2308,300.231,302.2303,0,0,0,0,1,,,,,,,,,,,,,,,,,,,,,,,,,,,,,,,,,,,,,,,,,,,,,,,,,,
,,65c636b3226605112093d9cf,21,female,2024-04-16_12h21.48.575,stockport_simplified,2022.2.4,Win32,60.60606061,661e456ee6de07e70aa9ef7b,661e5126ac52da4490fb11dc,,,,,,,,,,,,,,,,,,,,,,,,,,,,,,,,,,,,,,,,,,,,,,,,,,,,,,,,0,21,21,23,1,N,M,C,o1_image,stimuli/out1.png,stimuli/correct_out1.png,stimuli/out2.png,,,,,,,,,,,,,,,,,,,,,,,,,,,,,,,,,,,,,,
,,65c636b3226605112093d9cf,21,female,2024-04-16_12h21.48.575,stockport_simplified,2022.2.4,Win32,60.60606061,661e456ee6de07e70aa9ef7b,661e5126ac52da4490fb11dc,,,,,,,,,,,,,,,,,,,,,,,,,,,,,,,,,,302.232,305.6133,"[1,4,5,7,6,2,3,8]","[[0.3,0.2],[-0.3,0.2]]","[[0.125,-0.2],[-0.125,-0.2]]",-0.116666667,-0.204629644,1,0,0,2.8628,o2_image,305.6496,0,306.1461,306.1463,308.1468,0,0,0,0,1,,,,,,,,,,,,,,,,,,,,,,,,,,,,,,,,,,,,,,,,,,,,,,,,,,
,,65c636b3226605112093d9cf,21,female,2024-04-16_12h21.48.575,stockport_simplified,2022.2.4,Win32,60.60606061,661e456ee6de07e70aa9ef7b,661e5126ac52da4490fb11dc,,,,,,,,,,,,,,,,,,,,,,,,,,,,,,,,,,,,,,,,,,,,,,,,,,,,,,,,0,22,22,36,1,A,Y,N,o1_image,stimuli/out1.png,stimuli/correct_out1.png,stimuli/out2.png,,,,,,,,,,,,,,,,,,,,,,,,,,,,,,,,,,,,,,
,,65c636b3226605112093d9cf,21,female,2024-04-16_12h21.48.575,stockport_simplified,2022.2.4,Win32,60.60606061,661e456ee6de07e70aa9ef7b,661e5126ac52da4490fb11dc,,,,,,,,,,,,,,,,,,,,,,,,,,,,,,,,,,308.1484,311.5128,"[1,4,5,7,6,2,3,8]","[[0.3,0.2],[-0.3,0.2]]","[[-0.125,-0.2],[0.125,-0.2]]",-0.122222222,-0.148148176,1,0,0,2.8475,o1_image,311.5262,1,312.0289,312.0291,314.0281,0,0,0,0,1,,,,,,,,,,,,,,,,,,,,,,,,,,,,,,,,,,,,,,,,,,,,,,,,,,
,,65c636b3226605112093d9cf,21,female,2024-04-16_12h21.48.575,stockport_simplified,2022.2.4,Win32,60.60606061,661e456ee6de07e70aa9ef7b,661e5126ac52da4490fb11dc,,,,,,,,,,,,,,,,,,,,,,,,,,,,,,,,,,,,,,,,,,,,,,,,,,,,,,,,0,23,23,3,1,A,X,N,o1_image,stimuli/out1.png,stimuli/correct_out1.png,stimuli/out2.png,,,,,,,,,,,,,,,,,,,,,,,,,,,,,,,,,,,,,,
,,65c636b3226605112093d9cf,21,female,2024-04-16_12h21.48.575,stockport_simplified,2022.2.4,Win32,60.60606061,661e456ee6de07e70aa9ef7b,661e5126ac52da4490fb11dc,,,,,,,,,,,,,,,,,,,,,,,,,,,,,,,,,,314.03,317.5802,"[1,4,5,7,6,2,3,8]","[[0.3,0.2],[-0.3,0.2]]","[[0.125,-0.2],[-0.125,-0.2]]",0.163888889,-0.187037065,1,0,0,3.047,o1_image,317.6164,1,318.1092,318.1092,320.109,0,0,0,0,1,,,,,,,,,,,,,,,,,,,,,,,,,,,,,,,,,,,,,,,,,,,,,,,,,,
,,65c636b3226605112093d9cf,21,female,2024-04-16_12h21.48.575,stockport_simplified,2022.2.4,Win32,60.60606061,661e456ee6de07e70aa9ef7b,661e5126ac52da4490fb11dc,,,,,,,,,,,,,,,,,,,,,,,,,,,,,,,,,,,,,,,,,,,,,,,,,,,,,,,,0,24,24,32,1,A,X,N,o1_image,stimuli/out1.png,stimuli/correct_out1.png,stimuli/out2.png,,,,,,,,,,,,,,,,,,,,,,,,,,,,,,,,,,,,,,
,,65c636b3226605112093d9cf,21,female,2024-04-16_12h21.48.575,stockport_simplified,2022.2.4,Win32,60.60606061,661e456ee6de07e70aa9ef7b,661e5126ac52da4490fb11dc,,,,,,,,,,,,,,,,,,,,,,,,,,,,,,,,,,320.1107,324.3256,"[1,4,5,7,6,2,3,8]","[[-0.3,0.2],[0.3,0.2]]","[[-0.125,-0.2],[0.125,-0.2]]",0.073148176,-0.187962977,1,0,0,3.6993,o2_image,324.3531,0,324.8573,324.8573,326.8568,0,0,0,0,1,,,,,,,,,,,,,,,,,,,,,,,,,,,,,,,,,,,,,,,,,,,,,,,,,,
,,65c636b3226605112093d9cf,21,female,2024-04-16_12h21.48.575,stockport_simplified,2022.2.4,Win32,60.60606061,661e456ee6de07e70aa9ef7b,661e5126ac52da4490fb11dc,,,,,,,,,,,,,,,,,,,,,,,,,,,,,,,,,,,,,,,,,,,,,,,,,,,,,,,,0,25,25,4,1,A,X,N,o1_image,stimuli/out1.png,stimuli/correct_out1.png,stimuli/out2.png,,,,,,,,,,,,,,,,,,,,,,,,,,,,,,,,,,,,,,
,,65c636b3226605112093d9cf,21,female,2024-04-16_12h21.48.575,stockport_simplified,2022.2.4,Win32,60.60606061,661e456ee6de07e70aa9ef7b,661e5126ac52da4490fb11dc,,,,,,,,,,,,,,,,,,,,,,,,,,,,,,,,,,326.858,329.3813,"[1,4,5,7,6,2,3,8]","[[-0.3,0.2],[0.3,0.2]]","[[-0.125,-0.2],[0.125,-0.2]]",0.142592621,-0.266666667,1,0,0,2.0213,o2_image,329.3831,1,329.873,329.8732,331.8722,0,0,0,0,1,,,,,,,,,,,,,,,,,,,,,,,,,,,,,,,,,,,,,,,,,,,,,,,,,,
,,65c636b3226605112093d9cf,21,female,2024-04-16_12h21.48.575,stockport_simplified,2022.2.4,Win32,60.60606061,661e456ee6de07e70aa9ef7b,661e5126ac52da4490fb11dc,,,,,,,,,,,,,,,,,,,,,,,,,,,,,,,,,,,,,,,,,,,,,,,,,,,,,,,,0,26,26,57,1,N,M,D,o2_image,stimuli/out2.png,stimuli/out1.png,stimuli/correct_out2.png,,,,,,,,,,,,,,,,,,,,,,,,,,,,,,,,,,,,,,
,,65c636b3226605112093d9cf,21,female,2024-04-16_12h21.48.575,stockport_simplified,2022.2.4,Win32,60.60606061,661e456ee6de07e70aa9ef7b,661e5126ac52da4490fb11dc,,,,,,,,,,,,,,,,,,,,,,,,,,,,,,,,,,331.8734,334.4227,"[1,4,5,7,6,2,3,8]","[[-0.3,0.2],[0.3,0.2]]","[[-0.125,-0.2],[0.125,-0.2]]",-0.130555556,-0.204629644,1,0,0,2.0322,o1_image,334.4266,0,334.9209,334.9211,336.9206,0,0,0,0,1,,,,,,,,,,,,,,,,,,,,,,,,,,,,,,,,,,,,,,,,,,,,,,,,,,
,,65c636b3226605112093d9cf,21,female,2024-04-16_12h21.48.575,stockport_simplified,2022.2.4,Win32,60.60606061,661e456ee6de07e70aa9ef7b,661e5126ac52da4490fb11dc,,,,,,,,,,,,,,,,,,,,,,,,,,,,,,,,,,,,,,,,,,,,,,,,,,,,,,,,0,27,27,47,1,B,Y,N,o2_image,stimuli/out2.png,stimuli/out1.png,stimuli/correct_out2.png,,,,,,,,,,,,,,,,,,,,,,,,,,,,,,,,,,,,,,
,,65c636b3226605112093d9cf,21,female,2024-04-16_12h21.48.575,stockport_simplified,2022.2.4,Win32,60.60606061,661e456ee6de07e70aa9ef7b,661e5126ac52da4490fb11dc,,,,,,,,,,,,,,,,,,,,,,,,,,,,,,,,,,336.9216,339.8541,"[1,4,5,7,6,2,3,8]","[[-0.3,0.2],[0.3,0.2]]","[[-0.125,-0.2],[0.125,-0.2]]",0.139814843,-0.209259288,1,0,0,2.4156,o2_image,339.8574,1,340.3529,340.353,342.3524,0,0,0,0,1,,,,,,,,,,,,,,,,,,,,,,,,,,,,,,,,,,,,,,,,,,,,,,,,,,
,,65c636b3226605112093d9cf,21,female,2024-04-16_12h21.48.575,stockport_simplified,2022.2.4,Win32,60.60606061,661e456ee6de07e70aa9ef7b,661e5126ac52da4490fb11dc,,,,,,,,,,,,,,,,,,,,,,,,,,,,,,,,,,,,,,,,,,,,,,,,,,,,,,,,0,28,28,25,1,N,M,D,o2_image,stimuli/out2.png,stimuli/out1.png,stimuli/correct_out2.png,,,,,,,,,,,,,,,,,,,,,,,,,,,,,,,,,,,,,,
,,65c636b3226605112093d9cf,21,female,2024-04-16_12h21.48.575,stockport_simplified,2022.2.4,Win32,60.60606061,661e456ee6de07e70aa9ef7b,661e5126ac52da4490fb11dc,,,,,,,,,,,,,,,,,,,,,,,,,,,,,,,,,,342.3535,346.9598,"[1,4,5,7,6,2,3,8]","[[-0.3,0.2],[0.3,0.2]]","[[-0.125,-0.2],[0.125,-0.2]]",0.097222222,-0.159259288,1,0,0,4.0894,o2_image,346.9961,1,347.4846,347.4848,349.4844,0,0,0,0,1,,,,,,,,,,,,,,,,,,,,,,,,,,,,,,,,,,,,,,,,,,,,,,,,,,
,,65c636b3226605112093d9cf,21,female,2024-04-16_12h21.48.575,stockport_simplified,2022.2.4,Win32,60.60606061,661e456ee6de07e70aa9ef7b,661e5126ac52da4490fb11dc,,,,,,,,,,,,,,,,,,,,,,,,,,,,,,,,,,,,,,,,,,,,,,,,,,,,,,,,0,29,29,43,1,B,X,N,o2_image,stimuli/out2.png,stimuli/out1.png,stimuli/correct_out2.png,,,,,,,,,,,,,,,,,,,,,,,,,,,,,,,,,,,,,,
,,65c636b3226605112093d9cf,21,female,2024-04-16_12h21.48.575,stockport_simplified,2022.2.4,Win32,60.60606061,661e456ee6de07e70aa9ef7b,661e5126ac52da4490fb11dc,,,,,,,,,,,,,,,,,,,,,,,,,,,,,,,,,,349.4862,352.7244,"[1,4,5,7,6,2,3,8]","[[-0.3,0.2],[0.3,0.2]]","[[0.125,-0.2],[-0.125,-0.2]]",-0.080555556,-0.193518533,1,0,0,2.721,o2_image,352.7594,0,353.2499,353.25,355.2487,0,0,0,0,1,,,,,,,,,,,,,,,,,,,,,,,,,,,,,,,,,,,,,,,,,,,,,,,,,,
,,65c636b3226605112093d9cf,21,female,2024-04-16_12h21.48.575,stockport_simplified,2022.2.4,Win32,60.60606061,661e456ee6de07e70aa9ef7b,661e5126ac52da4490fb11dc,,,,,,,,,,,,,,,,,,,,,,,,,,,,,,,,,,,,,,,,,,,,,,,,,,,,,,,,0,30,30,7,1,A,Y,N,o1_image,stimuli/out1.png,stimuli/correct_out1.png,stimuli/out2.png,,,,,,,,,,,,,,,,,,,,,,,,,,,,,,,,,,,,,,
,,65c636b3226605112093d9cf,21,female,2024-04-16_12h21.48.575,stockport_simplified,2022.2.4,Win32,60.60606061,661e456ee6de07e70aa9ef7b,661e5126ac52da4490fb11dc,,,,,,,,,,,,,,,,,,,,,,,,,,,,,,,,,,355.2499,357.4824,"[1,4,5,7,6,2,3,8]","[[-0.3,0.2],[0.3,0.2]]","[[-0.125,-0.2],[0.125,-0.2]]",-0.109259203,-0.17129631,1,0,0,1.7163,o1_image,357.4844,1,357.9806,357.9807,359.9808,0,0,0,0,1,,,,,,,,,,,,,,,,,,,,,,,,,,,,,,,,,,,,,,,,,,,,,,,,,,
,,65c636b3226605112093d9cf,21,female,2024-04-16_12h21.48.575,stockport_simplified,2022.2.4,Win32,60.60606061,661e456ee6de07e70aa9ef7b,661e5126ac52da4490fb11dc,,,,,,,,,,,,,,,,,,,,,,,,,,,,,,,,,,,,,,,,,,,,,,,,,,,,,,,,0,31,31,37,1,A,Y,N,o1_image,stimuli/out1.png,stimuli/correct_out1.png,stimuli/out2.png,,,,,,,,,,,,,,,,,,,,,,,,,,,,,,,,,,,,,,
,,65c636b3226605112093d9cf,21,female,2024-04-16_12h21.48.575,stockport_simplified,2022.2.4,Win32,60.60606061,661e456ee6de07e70aa9ef7b,661e5126ac52da4490fb11dc,,,,,,,,,,,,,,,,,,,,,,,,,,,,,,,,,,359.9819,363.1874,"[1,4,5,7,6,2,3,8]","[[-0.3,0.2],[0.3,0.2]]","[[0.125,-0.2],[-0.125,-0.2]]",-0.116666667,-0.184259288,1,0,0,2.6881,o2_image,363.2252,0,363.7137,363.7139,365.7137,0,0,0,0,1,,,,,,,,,,,,,,,,,,,,,,,,,,,,,,,,,,,,,,,,,,,,,,,,,,
,,65c636b3226605112093d9cf,21,female,2024-04-16_12h21.48.575,stockport_simplified,2022.2.4,Win32,60.60606061,661e456ee6de07e70aa9ef7b,661e5126ac52da4490fb11dc,,,,,,,,,,,,,,,,,,,,,,,,,,,,,,,,,,,,,,,,,,,,,,,,,,,,,,,,0,32,32,24,1,N,M,C,o1_image,stimuli/out1.png,stimuli/correct_out1.png,stimuli/out2.png,,,,,,,,,,,,,,,,,,,,,,,,,,,,,,,,,,,,,,
,,65c636b3226605112093d9cf,21,female,2024-04-16_12h21.48.575,stockport_simplified,2022.2.4,Win32,60.60606061,661e456ee6de07e70aa9ef7b,661e5126ac52da4490fb11dc,,,,,,,,,,,,,,,,,,,,,,,,,,,,,,,,,,365.7154,368.7364,"[1,4,5,7,6,2,3,8]","[[0.3,0.2],[-0.3,0.2]]","[[-0.125,-0.2],[0.125,-0.2]]",-0.095370314,-0.157407422,1,0,0,2.5023,o1_image,368.738,1,369.2282,369.2283,371.2291,0,0,0,0,1,,,,,,,,,,,,,,,,,,,,,,,,,,,,,,,,,,,,,,,,,,,,,,,,,,
,,65c636b3226605112093d9cf,21,female,2024-04-16_12h21.48.575,stockport_simplified,2022.2.4,Win32,60.60606061,661e456ee6de07e70aa9ef7b,661e5126ac52da4490fb11dc,,,,,,,,,,,,,,,,,,,,,,,,,,,,,,,,,,,,,,,,,,,,,,,,,,,,,,,,0,33,33,0,1,A,X,N,o1_image,stimuli/out1.png,stimuli/correct_out1.png,stimuli/out2.png,,,,,,,,,,,,,,,,,,,,,,,,,,,,,,,,,,,,,,
,,65c636b3226605112093d9cf,21,female,2024-04-16_12h21.48.575,stockport_simplified,2022.2.4,Win32,60.60606061,661e456ee6de07e70aa9ef7b,661e5126ac52da4490fb11dc,,,,,,,,,,,,,,,,,,,,,,,,,,,,,,,,,,371.2311,373.5517,"[1,4,5,7,6,2,3,8]","[[-0.3,0.2],[0.3,0.2]]","[[0.125,-0.2],[-0.125,-0.2]]",0.08148151,-0.17129631,1,0,0,1.8174,o1_image,373.5535,1,374.0446,374.0447,376.0433,0,0,0,0,1,,,,,,,,,,,,,,,,,,,,,,,,,,,,,,,,,,,,,,,,,,,,,,,,,,
,,65c636b3226605112093d9cf,21,female,2024-04-16_12h21.48.575,stockport_simplified,2022.2.4,Win32,60.60606061,661e456ee6de07e70aa9ef7b,661e5126ac52da4490fb11dc,,,,,,,,,,,,,,,,,,,,,,,,,,,,,,,,,,,,,,,,,,,,,,,,,,,,,,,,0,34,34,53,1,N,M,C,o1_image,stimuli/out1.png,stimuli/correct_out1.png,stimuli/out2.png,,,,,,,,,,,,,,,,,,,,,,,,,,,,,,,,,,,,,,
,,65c636b3226605112093d9cf,21,female,2024-04-16_12h21.48.575,stockport_simplified,2022.2.4,Win32,60.60606061,661e456ee6de07e70aa9ef7b,661e5126ac52da4490fb11dc,,,,,,,,,,,,,,,,,,,,,,,,,,,,,,,,,,376.0445,378.5763,"[1,4,5,7,6,2,3,8]","[[-0.3,0.2],[0.3,0.2]]","[[0.125,-0.2],[-0.125,-0.2]]",-0.097222222,-0.222222222,1,0,0,2.0154,o2_image,378.5799,1,379.0791,379.0792,381.0753,0,0,0,0,1,,,,,,,,,,,,,,,,,,,,,,,,,,,,,,,,,,,,,,,,,,,,,,,,,,
,,65c636b3226605112093d9cf,21,female,2024-04-16_12h21.48.575,stockport_simplified,2022.2.4,Win32,60.60606061,661e456ee6de07e70aa9ef7b,661e5126ac52da4490fb11dc,,,,,,,,,,,,,,,,,,,,,,,,,,,,,,,,,,,,,,,,,,,,,,,,,,,,,,,,0,35,35,59,1,N,M,D,o2_image,stimuli/out2.png,stimuli/out1.png,stimuli/correct_out2.png,,,,,,,,,,,,,,,,,,,,,,,,,,,,,,,,,,,,,,
,,65c636b3226605112093d9cf,21,female,2024-04-16_12h21.48.575,stockport_simplified,2022.2.4,Win32,60.60606061,661e456ee6de07e70aa9ef7b,661e5126ac52da4490fb11dc,,,,,,,,,,,,,,,,,,,,,,,,,,,,,,,,,,381.0773,384.2662,"[1,4,5,7,6,2,3,8]","[[0.3,0.2],[-0.3,0.2]]","[[-0.125,-0.2],[0.125,-0.2]]",-0.145370314,-0.19629631,1,0,0,2.6712,o1_image,384.2679,1,384.7602,384.7603,386.7582,0,0,0,0,1,,,,,,,,,,,,,,,,,,,,,,,,,,,,,,,,,,,,,,,,,,,,,,,,,,
,,65c636b3226605112093d9cf,21,female,2024-04-16_12h21.48.575,stockport_simplified,2022.2.4,Win32,60.60606061,661e456ee6de07e70aa9ef7b,661e5126ac52da4490fb11dc,,,,,,,,,,,,,,,,,,,,,,,,,,,,,,,,,,,,,,,,,,,,,,,,,,,,,,,,0,36,36,31,1,A,X,N,o1_image,stimuli/out1.png,stimuli/correct_out1.png,stimuli/out2.png,,,,,,,,,,,,,,,,,,,,,,,,,,,,,,,,,,,,,,
,,65c636b3226605112093d9cf,21,female,2024-04-16_12h21.48.575,stockport_simplified,2022.2.4,Win32,60.60606061,661e456ee6de07e70aa9ef7b,661e5126ac52da4490fb11dc,,,,,,,,,,,,,,,,,,,,,,,,,,,,,,,,,,386.7597,389.7234,"[1,4,5,7,6,2,3,8]","[[0.3,0.2],[-0.3,0.2]]","[[-0.125,-0.2],[0.125,-0.2]]",-0.129629601,-0.215740797,1,0,0,2.4477,o1_image,389.7557,1,390.2558,390.2559,392.2553,0,0,0,0,1,,,,,,,,,,,,,,,,,,,,,,,,,,,,,,,,,,,,,,,,,,,,,,,,,,
,,65c636b3226605112093d9cf,21,female,2024-04-16_12h21.48.575,stockport_simplified,2022.2.4,Win32,60.60606061,661e456ee6de07e70aa9ef7b,661e5126ac52da4490fb11dc,,,,,,,,,,,,,,,,,,,,,,,,,,,,,,,,,,,,,,,,,,,,,,,,,,,,,,,,0,37,37,8,1,A,Y,N,o1_image,stimuli/out1.png,stimuli/correct_out1.png,stimuli/out2.png,,,,,,,,,,,,,,,,,,,,,,,,,,,,,,,,,,,,,,
,,65c636b3226605112093d9cf,21,female,2024-04-16_12h21.48.575,stockport_simplified,2022.2.4,Win32,60.60606061,661e456ee6de07e70aa9ef7b,661e5126ac52da4490fb11dc,,,,,,,,,,,,,,,,,,,,,,,,,,,,,,,,,,392.2563,395.505,"[1,4,5,7,6,2,3,8]","[[0.3,0.2],[-0.3,0.2]]","[[-0.125,-0.2],[0.125,-0.2]]",-0.125925869,-0.280555556,1,0,0,2.7322,o1_image,395.532,1,396.0209,396.021,398.0204,0,0,0,0,1,,,,,,,,,,,,,,,,,,,,,,,,,,,,,,,,,,,,,,,,,,,,,,,,,,
,,65c636b3226605112093d9cf,21,female,2024-04-16_12h21.48.575,stockport_simplified,2022.2.4,Win32,60.60606061,661e456ee6de07e70aa9ef7b,661e5126ac52da4490fb11dc,,,,,,,,,,,,,,,,,,,,,,,,,,,,,,,,,,,,,,,,,,,,,,,,,,,,,,,,0,38,38,2,1,A,X,N,o1_image,stimuli/out1.png,stimuli/correct_out1.png,stimuli/out2.png,,,,,,,,,,,,,,,,,,,,,,,,,,,,,,,,,,,,,,
,,65c636b3226605112093d9cf,21,female,2024-04-16_12h21.48.575,stockport_simplified,2022.2.4,Win32,60.60606061,661e456ee6de07e70aa9ef7b,661e5126ac52da4490fb11dc,,,,,,,,,,,,,,,,,,,,,,,,,,,,,,,,,,398.0217,400.3704,"[1,4,5,7,6,2,3,8]","[[-0.3,0.2],[0.3,0.2]]","[[0.125,-0.2],[-0.125,-0.2]]",0.137963019,-0.204629644,1,0,0,1.8314,o1_image,400.3736,1,400.8694,400.8696,402.8689,0,0,0,0,1,,,,,,,,,,,,,,,,,,,,,,,,,,,,,,,,,,,,,,,,,,,,,,,,,,
,,65c636b3226605112093d9cf,21,female,2024-04-16_12h21.48.575,stockport_simplified,2022.2.4,Win32,60.60606061,661e456ee6de07e70aa9ef7b,661e5126ac52da4490fb11dc,,,,,,,,,,,,,,,,,,,,,,,,,,,,,,,,,,,,,,,,,,,,,,,,,,,,,,,,0,39,39,54,1,N,M,C,o1_image,stimuli/out1.png,stimuli/correct_out1.png,stimuli/out2.png,,,,,,,,,,,,,,,,,,,,,,,,,,,,,,,,,,,,,,
,,65c636b3226605112093d9cf,21,female,2024-04-16_12h21.48.575,stockport_simplified,2022.2.4,Win32,60.60606061,661e456ee6de07e70aa9ef7b,661e5126ac52da4490fb11dc,,,,,,,,,,,,,,,,,,,,,,,,,,,,,,,,,,402.87,405.8876,"[1,4,5,7,6,2,3,8]","[[0.3,0.2],[-0.3,0.2]]","[[0.125,-0.2],[-0.125,-0.2]]",-0.106481425,-0.219444444,1,0,0,2.5005,o2_image,405.9103,1,406.4079,406.408,408.4009,0,0,0,0,1,,,,,,,,,,,,,,,,,,,,,,,,,,,,,,,,,,,,,,,,,,,,,,,,,,
,,65c636b3226605112093d9cf,21,female,2024-04-16_12h21.48.575,stockport_simplified,2022.2.4,Win32,60.60606061,661e456ee6de07e70aa9ef7b,661e5126ac52da4490fb11dc,,,,,,,,,,,,,,,,,,,,,,,,,,,,,,,,,,,,,,,,,,,,,,,,,,,,,,,,0,40,40,42,1,B,X,N,o2_image,stimuli/out2.png,stimuli/out1.png,stimuli/correct_out2.png,,,,,,,,,,,,,,,,,,,,,,,,,,,,,,,,,,,,,,
,,65c636b3226605112093d9cf,21,female,2024-04-16_12h21.48.575,stockport_simplified,2022.2.4,Win32,60.60606061,661e456ee6de07e70aa9ef7b,661e5126ac52da4490fb11dc,,,,,,,,,,,,,,,,,,,,,,,,,,,,,,,,,,408.402,410.8842,"[1,4,5,7,6,2,3,8]","[[-0.3,0.2],[0.3,0.2]]","[[0.125,-0.2],[-0.125,-0.2]]",-0.073148092,-0.177777778,1,0,0,1.9646,o2_image,410.8867,1,411.3833,411.3834,413.3829,0,0,0,0,1,,,,,,,,,,,,,,,,,,,,,,,,,,,,,,,,,,,,,,,,,,,,,,,,,,
,,65c636b3226605112093d9cf,21,female,2024-04-16_12h21.48.575,stockport_simplified,2022.2.4,Win32,60.60606061,661e456ee6de07e70aa9ef7b,661e5126ac52da4490fb11dc,,,,,,,,,,,,,,,,,,,,,,,,,,,,,,,,,,,,,,,,,,,,,,,,,,,,,,,,0,41,41,27,1,N,M,D,o2_image,stimuli/out2.png,stimuli/out1.png,stimuli/correct_out2.png,,,,,,,,,,,,,,,,,,,,,,,,,,,,,,,,,,,,,,
,,65c636b3226605112093d9cf,21,female,2024-04-16_12h21.48.575,stockport_simplified,2022.2.4,Win32,60.60606061,661e456ee6de07e70aa9ef7b,661e5126ac52da4490fb11dc,,,,,,,,,,,,,,,,,,,,,,,,,,,,,,,,,,413.3839,415.2667,"[1,4,5,7,6,2,3,8]","[[0.3,0.2],[-0.3,0.2]]","[[-0.125,-0.2],[0.125,-0.2]]",0.112037065,-0.175925954,1,0,0,1.3665,o2_image,415.2697,1,415.7653,415.7653,417.7649,0,0,0,0,1,,,,,,,,,,,,,,,,,,,,,,,,,,,,,,,,,,,,,,,,,,,,,,,,,,
,,65c636b3226605112093d9cf,21,female,2024-04-16_12h21.48.575,stockport_simplified,2022.2.4,Win32,60.60606061,661e456ee6de07e70aa9ef7b,661e5126ac52da4490fb11dc,,,,,,,,,,,,,,,,,,,,,,,,,,,,,,,,,,,,,,,,,,,,,,,,,,,,,,,,0,42,42,26,1,N,M,D,o2_image,stimuli/out2.png,stimuli/out1.png,stimuli/correct_out2.png,,,,,,,,,,,,,,,,,,,,,,,,,,,,,,,,,,,,,,
,,65c636b3226605112093d9cf,21,female,2024-04-16_12h21.48.575,stockport_simplified,2022.2.4,Win32,60.60606061,661e456ee6de07e70aa9ef7b,661e5126ac52da4490fb11dc,,,,,,,,,,,,,,,,,,,,,,,,,,,,,,,,,,417.766,421.6722,"[1,4,5,7,6,2,3,8]","[[0.3,0.2],[-0.3,0.2]]","[[-0.125,-0.2],[0.125,-0.2]]",0.109259288,-0.184259288,1,0,0,3.3886,o2_image,421.7072,1,422.1988,422.1991,424.1962,0,0,0,0,1,,,,,,,,,,,,,,,,,,,,,,,,,,,,,,,,,,,,,,,,,,,,,,,,,,
,,65c636b3226605112093d9cf,21,female,2024-04-16_12h21.48.575,stockport_simplified,2022.2.4,Win32,60.60606061,661e456ee6de07e70aa9ef7b,661e5126ac52da4490fb11dc,,,,,,,,,,,,,,,,,,,,,,,,,,,,,,,,,,,,,,,,,,,,,,,,,,,,,,,,0,43,43,19,1,B,Y,N,o2_image,stimuli/out2.png,stimuli/out1.png,stimuli/correct_out2.png,,,,,,,,,,,,,,,,,,,,,,,,,,,,,,,,,,,,,,
,,65c636b3226605112093d9cf,21,female,2024-04-16_12h21.48.575,stockport_simplified,2022.2.4,Win32,60.60606061,661e456ee6de07e70aa9ef7b,661e5126ac52da4490fb11dc,,,,,,,,,,,,,,,,,,,,,,,,,,,,,,,,,,424.1972,427.8621,"[1,4,5,7,6,2,3,8]","[[-0.3,0.2],[0.3,0.2]]","[[0.125,-0.2],[-0.125,-0.2]]",0.097222222,-0.186111111,1,0,0,3.1631,o1_image,427.886,1,428.3785,428.3786,430.3849,0,0,0,0,1,,,,,,,,,,,,,,,,,,,,,,,,,,,,,,,,,,,,,,,,,,,,,,,,,,
,,65c636b3226605112093d9cf,21,female,2024-04-16_12h21.48.575,stockport_simplified,2022.2.4,Win32,60.60606061,661e456ee6de07e70aa9ef7b,661e5126ac52da4490fb11dc,,,,,,,,,,,,,,,,,,,,,,,,,,,,,,,,,,,,,,,,,,,,,,,,,,,,,,,,0,44,44,38,1,A,Y,N,o1_image,stimuli/out1.png,stimuli/correct_out1.png,stimuli/out2.png,,,,,,,,,,,,,,,,,,,,,,,,,,,,,,,,,,,,,,
,,65c636b3226605112093d9cf,21,female,2024-04-16_12h21.48.575,stockport_simplified,2022.2.4,Win32,60.60606061,661e456ee6de07e70aa9ef7b,661e5126ac52da4490fb11dc,,,,,,,,,,,,,,,,,,,,,,,,,,,,,,,,,,430.386,434.3491,"[1,4,5,7,6,2,3,8]","[[0.3,0.2],[-0.3,0.2]]","[[0.125,-0.2],[-0.125,-0.2]]",0.110185242,-0.201851866,1,0,0,3.451,o1_image,434.3844,1,434.8782,434.8787,436.877,0,0,0,0,1,,,,,,,,,,,,,,,,,,,,,,,,,,,,,,,,,,,,,,,,,,,,,,,,,,
,,65c636b3226605112093d9cf,21,female,2024-04-16_12h21.48.575,stockport_simplified,2022.2.4,Win32,60.60606061,661e456ee6de07e70aa9ef7b,661e5126ac52da4490fb11dc,,,,,,,,,,,,,,,,,,,,,,,,,,,,,,,,,,,,,,,,,,,,,,,,,,,,,,,,0,45,45,21,1,N,M,C,o1_image,stimuli/out1.png,stimuli/correct_out1.png,stimuli/out2.png,,,,,,,,,,,,,,,,,,,,,,,,,,,,,,,,,,,,,,
,,65c636b3226605112093d9cf,21,female,2024-04-16_12h21.48.575,stockport_simplified,2022.2.4,Win32,60.60606061,661e456ee6de07e70aa9ef7b,661e5126ac52da4490fb11dc,,,,,,,,,,,,,,,,,,,,,,,,,,,,,,,,,,436.8793,439.8504,"[1,4,5,7,6,2,3,8]","[[0.3,0.2],[-0.3,0.2]]","[[0.125,-0.2],[-0.125,-0.2]]",-0.15,-0.170370399,1,0,0,2.4492,o2_image,439.8856,1,440.3756,440.3758,442.3757,0,0,0,0,1,,,,,,,,,,,,,,,,,,,,,,,,,,,,,,,,,,,,,,,,,,,,,,,,,,
,,65c636b3226605112093d9cf,21,female,2024-04-16_12h21.48.575,stockport_simplified,2022.2.4,Win32,60.60606061,661e456ee6de07e70aa9ef7b,661e5126ac52da4490fb11dc,,,,,,,,,,,,,,,,,,,,,,,,,,,,,,,,,,,,,,,,,,,,,,,,,,,,,,,,0,46,46,12,1,B,X,N,o2_image,stimuli/out2.png,stimuli/out1.png,stimuli/correct_out2.png,,,,,,,,,,,,,,,,,,,,,,,,,,,,,,,,,,,,,,
,,65c636b3226605112093d9cf,21,female,2024-04-16_12h21.48.575,stockport_simplified,2022.2.4,Win32,60.60606061,661e456ee6de07e70aa9ef7b,661e5126ac52da4490fb11dc,,,,,,,,,,,,,,,,,,,,,,,,,,,,,,,,,,442.3777,445.1746,"[1,4,5,7,6,2,3,8]","[[0.3,0.2],[-0.3,0.2]]","[[-0.125,-0.2],[0.125,-0.2]]",-0.134259203,-0.184259288,1,0,0,2.2924,o1_image,445.2097,1,445.7071,445.7072,447.7072,0,0,0,0,1,,,,,,,,,,,,,,,,,,,,,,,,,,,,,,,,,,,,,,,,,,,,,,,,,,
,,65c636b3226605112093d9cf,21,female,2024-04-16_12h21.48.575,stockport_simplified,2022.2.4,Win32,60.60606061,661e456ee6de07e70aa9ef7b,661e5126ac52da4490fb11dc,,,,,,,,,,,,,,,,,,,,,,,,,,,,,,,,,,,,,,,,,,,,,,,,,,,,,,,,0,47,47,35,1,A,Y,N,o1_image,stimuli/out1.png,stimuli/correct_out1.png,stimuli/out2.png,,,,,,,,,,,,,,,,,,,,,,,,,,,,,,,,,,,,,,
,,65c636b3226605112093d9cf,21,female,2024-04-16_12h21.48.575,stockport_simplified,2022.2.4,Win32,60.60606061,661e456ee6de07e70aa9ef7b,661e5126ac52da4490fb11dc,,,,,,,,,,,,,,,,,,,,,,,,,,,,,,,,,,447.7093,451.2079,"[1,4,5,7,6,2,3,8]","[[0.3,0.2],[-0.3,0.2]]","[[-0.125,-0.2],[0.125,-0.2]]",0.098148176,-0.166666667,1,0,0,2.9833,o2_image,451.2434,1,451.7388,451.7389,453.7385,0,0,0,0,1,,,,,,,,,,,,,,,,,,,,,,,,,,,,,,,,,,,,,,,,,,,,,,,,,,
,,65c636b3226605112093d9cf,21,female,2024-04-16_12h21.48.575,stockport_simplified,2022.2.4,Win32,60.60606061,661e456ee6de07e70aa9ef7b,661e5126ac52da4490fb11dc,,,,,,,,,,,,,,,,,,,,,,,,,,,,,,,,,,,,,,,,,,,,,,,,,,,,,,,,0,48,48,15,1,B,Y,N,o2_image,stimuli/out2.png,stimuli/out1.png,stimuli/correct_out2.png,,,,,,,,,,,,,,,,,,,,,,,,,,,,,,,,,,,,,,
,,65c636b3226605112093d9cf,21,female,2024-04-16_12h21.48.575,stockport_simplified,2022.2.4,Win32,60.60606061,661e456ee6de07e70aa9ef7b,661e5126ac52da4490fb11dc,,,,,,,,,,,,,,,,,,,,,,,,,,,,,,,,,,453.7398,456.2551,"[1,4,5,7,6,2,3,8]","[[-0.3,0.2],[0.3,0.2]]","[[0.125,-0.2],[-0.125,-0.2]]",0.166666667,-0.287037065,1,0,0,1.9989,o1_image,456.2584,1,456.7541,456.7542,458.7532,0,0,0,0,1,,,,,,,,,,,,,,,,,,,,,,,,,,,,,,,,,,,,,,,,,,,,,,,,,,
,,65c636b3226605112093d9cf,21,female,2024-04-16_12h21.48.575,stockport_simplified,2022.2.4,Win32,60.60606061,661e456ee6de07e70aa9ef7b,661e5126ac52da4490fb11dc,,,,,,,,,,,,,,,,,,,,,,,,,,,,,,,,,,,,,,,,,,,,,,,,,,,,,,,,0,49,49,52,1,N,M,C,o1_image,stimuli/out1.png,stimuli/correct_out1.png,stimuli/out2.png,,,,,,,,,,,,,,,,,,,,,,,,,,,,,,,,,,,,,,
,,65c636b3226605112093d9cf,21,female,2024-04-16_12h21.48.575,stockport_simplified,2022.2.4,Win32,60.60606061,661e456ee6de07e70aa9ef7b,661e5126ac52da4490fb11dc,,,,,,,,,,,,,,,,,,,,,,,,,,,,,,,,,,458.7541,461.7191,"[1,4,5,7,6,2,3,8]","[[0.3,0.2],[-0.3,0.2]]","[[-0.125,-0.2],[0.125,-0.2]]",0.127777778,-0.20648151,1,0,0,2.449,o2_image,461.733,1,462.2358,462.2358,464.2363,0,0,0,0,1,,,,,,,,,,,,,,,,,,,,,,,,,,,,,,,,,,,,,,,,,,,,,,,,,,
,,65c636b3226605112093d9cf,21,female,2024-04-16_12h21.48.575,stockport_simplified,2022.2.4,Win32,60.60606061,661e456ee6de07e70aa9ef7b,661e5126ac52da4490fb11dc,,,,,,,,,,,,,,,,,,,,,,,,,,,,,,,,,,,,,,,,,,,,,,,,,,,,,,,,0,50,50,29,1,N,M,D,o2_image,stimuli/out2.png,stimuli/out1.png,stimuli/correct_out2.png,,,,,,,,,,,,,,,,,,,,,,,,,,,,,,,,,,,,,,
,,65c636b3226605112093d9cf,21,female,2024-04-16_12h21.48.575,stockport_simplified,2022.2.4,Win32,60.60606061,661e456ee6de07e70aa9ef7b,661e5126ac52da4490fb11dc,,,,,,,,,,,,,,,,,,,,,,,,,,,,,,,,,,464.2384,467.0429,"[1,4,5,7,6,2,3,8]","[[-0.3,0.2],[0.3,0.2]]","[[0.125,-0.2],[-0.125,-0.2]]",0.164814843,-0.253703732,1,0,0,2.3011,o1_image,467.0449,1,467.5342,467.5343,469.5339,0,0,0,0,1,,,,,,,,,,,,,,,,,,,,,,,,,,,,,,,,,,,,,,,,,,,,,,,,,,
,,65c636b3226605112093d9cf,21,female,2024-04-16_12h21.48.575,stockport_simplified,2022.2.4,Win32,60.60606061,661e456ee6de07e70aa9ef7b,661e5126ac52da4490fb11dc,,,,,,,,,,,,,,,,,,,,,,,,,,,,,,,,,,,,,,,,,,,,,,,,,,,,,,,,0,51,51,6,1,A,Y,N,o1_image,stimuli/out1.png,stimuli/correct_out1.png,stimuli/out2.png,,,,,,,,,,,,,,,,,,,,,,,,,,,,,,,,,,,,,,
,,65c636b3226605112093d9cf,21,female,2024-04-16_12h21.48.575,stockport_simplified,2022.2.4,Win32,60.60606061,661e456ee6de07e70aa9ef7b,661e5126ac52da4490fb11dc,,,,,,,,,,,,,,,,,,,,,,,,,,,,,,,,,,469.535,473.7832,"[1,4,5,7,6,2,3,8]","[[0.3,0.2],[-0.3,0.2]]","[[-0.125,-0.2],[0.125,-0.2]]",0.094444444,-0.191666667,1,0,0,3.7313,o2_image,473.8194,1,474.3159,474.316,476.3155,0,0,0,0,1,,,,,,,,,,,,,,,,,,,,,,,,,,,,,,,,,,,,,,,,,,,,,,,,,,
,,65c636b3226605112093d9cf,21,female,2024-04-16_12h21.48.575,stockport_simplified,2022.2.4,Win32,60.60606061,661e456ee6de07e70aa9ef7b,661e5126ac52da4490fb11dc,,,,,,,,,,,,,,,,,,,,,,,,,,,,,,,,,,,,,,,,,,,,,,,,,,,,,,,,0,52,52,40,1,B,X,N,o2_image,stimuli/out2.png,stimuli/out1.png,stimuli/correct_out2.png,,,,,,,,,,,,,,,,,,,,,,,,,,,,,,,,,,,,,,
,,65c636b3226605112093d9cf,21,female,2024-04-16_12h21.48.575,stockport_simplified,2022.2.4,Win32,60.60606061,661e456ee6de07e70aa9ef7b,661e5126ac52da4490fb11dc,,,,,,,,,,,,,,,,,,,,,,,,,,,,,,,,,,476.3167,478.8318,"[1,4,5,7,6,2,3,8]","[[0.3,0.2],[-0.3,0.2]]","[[0.125,-0.2],[-0.125,-0.2]]",-0.111111111,-0.145370399,1,0,0,1.9973,o2_image,478.8339,1,479.3313,479.3313,481.3309,0,0,0,0,1,,,,,,,,,,,,,,,,,,,,,,,,,,,,,,,,,,,,,,,,,,,,,,,,,,
,,65c636b3226605112093d9cf,21,female,2024-04-16_12h21.48.575,stockport_simplified,2022.2.4,Win32,60.60606061,661e456ee6de07e70aa9ef7b,661e5126ac52da4490fb11dc,,,,,,,,,,,,,,,,,,,,,,,,,,,,,,,,,,,,,,,,,,,,,,,,,,,,,,,,0,53,53,55,1,N,M,D,o2_image,stimuli/out2.png,stimuli/out1.png,stimuli/correct_out2.png,,,,,,,,,,,,,,,,,,,,,,,,,,,,,,,,,,,,,,
,,65c636b3226605112093d9cf,21,female,2024-04-16_12h21.48.575,stockport_simplified,2022.2.4,Win32,60.60606061,661e456ee6de07e70aa9ef7b,661e5126ac52da4490fb11dc,,,,,,,,,,,,,,,,,,,,,,,,,,,,,,,,,,481.3325,482.9976,"[1,4,5,7,6,2,3,8]","[[0.3,0.2],[-0.3,0.2]]","[[-0.125,-0.2],[0.125,-0.2]]",0.110185242,-0.169444444,1,0,0,1.15,o2_image,483.0005,1,483.4967,483.4967,485.496,0,0,0,0,1,,,,,,,,,,,,,,,,,,,,,,,,,,,,,,,,,,,,,,,,,,,,,,,,,,
,,65c636b3226605112093d9cf,21,female,2024-04-16_12h21.48.575,stockport_simplified,2022.2.4,Win32,60.60606061,661e456ee6de07e70aa9ef7b,661e5126ac52da4490fb11dc,,,,,,,,,,,,,,,,,,,,,,,,,,,,,,,,,,,,,,,,,,,,,,,,,,,,,,,,0,54,54,58,1,N,M,D,o2_image,stimuli/out2.png,stimuli/out1.png,stimuli/correct_out2.png,,,,,,,,,,,,,,,,,,,,,,,,,,,,,,,,,,,,,,
,,65c636b3226605112093d9cf,21,female,2024-04-16_12h21.48.575,stockport_simplified,2022.2.4,Win32,60.60606061,661e456ee6de07e70aa9ef7b,661e5126ac52da4490fb11dc,,,,,,,,,,,,,,,,,,,,,,,,,,,,,,,,,,485.4972,488.4621,"[1,4,5,7,6,2,3,8]","[[-0.3,0.2],[0.3,0.2]]","[[0.125,-0.2],[-0.125,-0.2]]",-0.151851824,-0.151851866,1,0,0,2.4481,o2_image,488.4644,1,488.9523,488.9524,490.9446,0,0,0,0,1,,,,,,,,,,,,,,,,,,,,,,,,,,,,,,,,,,,,,,,,,,,,,,,,,,
,,65c636b3226605112093d9cf,21,female,2024-04-16_12h21.48.575,stockport_simplified,2022.2.4,Win32,60.60606061,661e456ee6de07e70aa9ef7b,661e5126ac52da4490fb11dc,,,,,,,,,,,,,,,,,,,,,,,,,,,,,,,,,,,,,,,,,,,,,,,,,,,,,,,,0,55,55,46,1,B,Y,N,o2_image,stimuli/out2.png,stimuli/out1.png,stimuli/correct_out2.png,,,,,,,,,,,,,,,,,,,,,,,,,,,,,,,,,,,,,,
,,65c636b3226605112093d9cf,21,female,2024-04-16_12h21.48.575,stockport_simplified,2022.2.4,Win32,60.60606061,661e456ee6de07e70aa9ef7b,661e5126ac52da4490fb11dc,,,,,,,,,,,,,,,,,,,,,,,,,,,,,,,,,,490.946,493.98,"[1,4,5,7,6,2,3,8]","[[0.3,0.2],[-0.3,0.2]]","[[-0.125,-0.2],[0.125,-0.2]]",0.137037065,-0.143518533,1,0,0,2.5186,o2_image,494.0158,1,494.5105,494.5106,496.51,0,0,0,0,1,,,,,,,,,,,,,,,,,,,,,,,,,,,,,,,,,,,,,,,,,,,,,,,,,,
,,65c636b3226605112093d9cf,21,female,2024-04-16_12h21.48.575,stockport_simplified,2022.2.4,Win32,60.60606061,661e456ee6de07e70aa9ef7b,661e5126ac52da4490fb11dc,,,,,,,,,,,,,,,,,,,,,,,,,,,,,,,,,,,,,,,,,,,,,,,,,,,,,,,,0,56,56,16,1,B,Y,N,o2_image,stimuli/out2.png,stimuli/out1.png,stimuli/correct_out2.png,,,,,,,,,,,,,,,,,,,,,,,,,,,,,,,,,,,,,,
,,65c636b3226605112093d9cf,21,female,2024-04-16_12h21.48.575,stockport_simplified,2022.2.4,Win32,60.60606061,661e456ee6de07e70aa9ef7b,661e5126ac52da4490fb11dc,,,,,,,,,,,,,,,,,,,,,,,,,,,,,,,,,,496.5122,500.2847,"[1,4,5,7,6,2,3,8]","[[-0.3,0.2],[0.3,0.2]]","[[-0.125,-0.2],[0.125,-0.2]]",-0.100925869,-0.182407422,1,0,0,3.257,o1_image,500.3212,1,500.8249,500.8251,502.8249,0,0,0,0,1,,,,,,,,,,,,,,,,,,,,,,,,,,,,,,,,,,,,,,,,,,,,,,,,,,
,,65c636b3226605112093d9cf,21,female,2024-04-16_12h21.48.575,stockport_simplified,2022.2.4,Win32,60.60606061,661e456ee6de07e70aa9ef7b,661e5126ac52da4490fb11dc,,,,,,,,,,,,,,,,,,,,,,,,,,,,,,,,,,,,,,,,,,,,,,,,,,,,,,,,0,57,57,1,1,A,X,N,o1_image,stimuli/out1.png,stimuli/correct_out1.png,stimuli/out2.png,,,,,,,,,,,,,,,,,,,,,,,,,,,,,,,,,,,,,,
,,65c636b3226605112093d9cf,21,female,2024-04-16_12h21.48.575,stockport_simplified,2022.2.4,Win32,60.60606061,661e456ee6de07e70aa9ef7b,661e5126ac52da4490fb11dc,,,,,,,,,,,,,,,,,,,,,,,,,,,,,,,,,,502.8262,505.5489,"[1,4,5,7,6,2,3,8]","[[-0.3,0.2],[0.3,0.2]]","[[-0.125,-0.2],[0.125,-0.2]]",0.155555556,-0.229629686,1,0,0,2.2035,o2_image,505.5835,1,506.074,506.0741,508.0734,0,0,0,0,1,,,,,,,,,,,,,,,,,,,,,,,,,,,,,,,,,,,,,,,,,,,,,,,,,,
,,65c636b3226605112093d9cf,21,female,2024-04-16_12h21.48.575,stockport_simplified,2022.2.4,Win32,60.60606061,661e456ee6de07e70aa9ef7b,661e5126ac52da4490fb11dc,,,,,,,,,,,,,,,,,,,,,,,,,,,,,,,,,,,,,,,,,,,,,,,,,,,,,,,,0,58,58,49,1,B,Y,N,o2_image,stimuli/out2.png,stimuli/out1.png,stimuli/correct_out2.png,,,,,,,,,,,,,,,,,,,,,,,,,,,,,,,,,,,,,,
,,65c636b3226605112093d9cf,21,female,2024-04-16_12h21.48.575,stockport_simplified,2022.2.4,Win32,60.60606061,661e456ee6de07e70aa9ef7b,661e5126ac52da4490fb11dc,,,,,,,,,,,,,,,,,,,,,,,,,,,,,,,,,,508.0745,511.7252,"[1,4,5,7,6,2,3,8]","[[-0.3,0.2],[0.3,0.2]]","[[0.125,-0.2],[-0.125,-0.2]]",0.158333333,-0.184259288,1,0,0,3.1341,o1_image,511.761,1,512.2562,512.2564,514.2546,0,0,0,0,1,,,,,,,,,,,,,,,,,,,,,,,,,,,,,,,,,,,,,,,,,,,,,,,,,,
,,65c636b3226605112093d9cf,21,female,2024-04-16_12h21.48.575,stockport_simplified,2022.2.4,Win32,60.60606061,661e456ee6de07e70aa9ef7b,661e5126ac52da4490fb11dc,,,,,,,,,,,,,,,,,,,,,,,,,,,,,,,,,,,,,,,,,,,,,,,,,,,,,,,,0,59,59,30,1,A,X,N,o1_image,stimuli/out1.png,stimuli/correct_out1.png,stimuli/out2.png,,,,,,,,,,,,,,,,,,,,,,,,,,,,,,,,,,,,,,
,,65c636b3226605112093d9cf,21,female,2024-04-16_12h21.48.575,stockport_simplified,2022.2.4,Win32,60.60606061,661e456ee6de07e70aa9ef7b,661e5126ac52da4490fb11dc,,,,,,,,,,,,,,,,,,,,,,,,,,,,,,,,,,514.2558,517.188,"[1,4,5,7,6,2,3,8]","[[0.3,0.2],[-0.3,0.2]]","[[0.125,-0.2],[-0.125,-0.2]]",-0.121296268,-0.170370399,1,0,0,2.4153,o2_image,517.1911,1,517.6878,517.688,519.6877,0,0,0,0,1,,,,,,,,,,,,,,,,,,,,,,,,,,,,,,,,,,,,,,,,,,,,,,,,,,
,,65c636b3226605112093d9cf,21,female,2024-04-16_12h21.48.575,stockport_simplified,2022.2.4,Win32,60.60606061,661e456ee6de07e70aa9ef7b,661e5126ac52da4490fb11dc,,,,,,,,,,,,,,,,,,,,,,,,,,,,,,,,,,,,,,,,,,,,,,,,,,,,,,,,1,0,60,49,1,B,Y,N,o2_image,stimuli/out2.png,stimuli/out1.png,stimuli/correct_out2.png,,,,,,,,,,,,,,,,,,,,,,,,,,,,,,,,,,,,,,
,,65c636b3226605112093d9cf,21,female,2024-04-16_12h21.48.575,stockport_simplified,2022.2.4,Win32,60.60606061,661e456ee6de07e70aa9ef7b,661e5126ac52da4490fb11dc,,,,,,,,,,,,,,,,,,,,,,,,,,,,,,,,,,519.6894,522.4865,"[1,4,5,7,6,2,3,8]","[[0.3,0.2],[-0.3,0.2]]","[[0.125,-0.2],[-0.125,-0.2]]",-0.094444444,-0.199074088,1,0,0,2.2801,o2_image,522.4889,1,522.9871,522.9873,524.9859,0,0,0,0,1,,,,,,,,,,,,,,,,,,,,,,,,,,,,,,,,,,,,,,,,,,,,,,,,,,
,,65c636b3226605112093d9cf,21,female,2024-04-16_12h21.48.575,stockport_simplified,2022.2.4,Win32,60.60606061,661e456ee6de07e70aa9ef7b,661e5126ac52da4490fb11dc,,,,,,,,,,,,,,,,,,,,,,,,,,,,,,,,,,,,,,,,,,,,,,,,,,,,,,,,1,1,61,12,1,B,X,N,o2_image,stimuli/out2.png,stimuli/out1.png,stimuli/correct_out2.png,,,,,,,,,,,,,,,,,,,,,,,,,,,,,,,,,,,,,,
,,65c636b3226605112093d9cf,21,female,2024-04-16_12h21.48.575,stockport_simplified,2022.2.4,Win32,60.60606061,661e456ee6de07e70aa9ef7b,661e5126ac52da4490fb11dc,,,,,,,,,,,,,,,,,,,,,,,,,,,,,,,,,,524.9881,528.1684,"[1,4,5,7,6,2,3,8]","[[-0.3,0.2],[0.3,0.2]]","[[-0.125,-0.2],[0.125,-0.2]]",0.125925954,-0.175,1,0,0,2.6641,o2_image,528.2019,1,528.7009,528.701,530.7003,0,0,0,0,1,,,,,,,,,,,,,,,,,,,,,,,,,,,,,,,,,,,,,,,,,,,,,,,,,,
,,65c636b3226605112093d9cf,21,female,2024-04-16_12h21.48.575,stockport_simplified,2022.2.4,Win32,60.60606061,661e456ee6de07e70aa9ef7b,661e5126ac52da4490fb11dc,,,,,,,,,,,,,,,,,,,,,,,,,,,,,,,,,,,,,,,,,,,,,,,,,,,,,,,,1,2,62,48,1,B,Y,N,o2_image,stimuli/out2.png,stimuli/out1.png,stimuli/correct_out2.png,,,,,,,,,,,,,,,,,,,,,,,,,,,,,,,,,,,,,,
,,65c636b3226605112093d9cf,21,female,2024-04-16_12h21.48.575,stockport_simplified,2022.2.4,Win32,60.60606061,661e456ee6de07e70aa9ef7b,661e5126ac52da4490fb11dc,,,,,,,,,,,,,,,,,,,,,,,,,,,,,,,,,,530.7014,534.9833,"[1,4,5,7,6,2,3,8]","[[-0.3,0.2],[0.3,0.2]]","[[0.125,-0.2],[-0.125,-0.2]]",0.123148176,-0.189814843,1,0,0,3.7649,o1_image,535.0185,1,535.5161,535.5164,537.5174,0,0,0,0,1,,,,,,,,,,,,,,,,,,,,,,,,,,,,,,,,,,,,,,,,,,,,,,,,,,
,,65c636b3226605112093d9cf,21,female,2024-04-16_12h21.48.575,stockport_simplified,2022.2.4,Win32,60.60606061,661e456ee6de07e70aa9ef7b,661e5126ac52da4490fb11dc,,,,,,,,,,,,,,,,,,,,,,,,,,,,,,,,,,,,,,,,,,,,,,,,,,,,,,,,1,3,63,52,1,N,M,C,o1_image,stimuli/out1.png,stimuli/correct_out1.png,stimuli/out2.png,,,,,,,,,,,,,,,,,,,,,,,,,,,,,,,,,,,,,,
,,65c636b3226605112093d9cf,21,female,2024-04-16_12h21.48.575,stockport_simplified,2022.2.4,Win32,60.60606061,661e456ee6de07e70aa9ef7b,661e5126ac52da4490fb11dc,,,,,,,,,,,,,,,,,,,,,,,,,,,,,,,,,,537.5202,541.7724,"[1,4,5,7,6,2,3,8]","[[-0.3,0.2],[0.3,0.2]]","[[-0.125,-0.2],[0.125,-0.2]]",-0.096296268,-0.216666667,1,0,0,3.7388,o1_image,541.8077,1,542.2972,542.2972,544.2878,0,0,0,0,1,,,,,,,,,,,,,,,,,,,,,,,,,,,,,,,,,,,,,,,,,,,,,,,,,,
,,65c636b3226605112093d9cf,21,female,2024-04-16_12h21.48.575,stockport_simplified,2022.2.4,Win32,60.60606061,661e456ee6de07e70aa9ef7b,661e5126ac52da4490fb11dc,,,,,,,,,,,,,,,,,,,,,,,,,,,,,,,,,,,,,,,,,,,,,,,,,,,,,,,,1,4,64,38,1,A,Y,N,o1_image,stimuli/out1.png,stimuli/correct_out1.png,stimuli/out2.png,,,,,,,,,,,,,,,,,,,,,,,,,,,,,,,,,,,,,,
,,65c636b3226605112093d9cf,21,female,2024-04-16_12h21.48.575,stockport_simplified,2022.2.4,Win32,60.60606061,661e456ee6de07e70aa9ef7b,661e5126ac52da4490fb11dc,,,,,,,,,,,,,,,,,,,,,,,,,,,,,,,,,,544.2891,546.4132,"[1,4,5,7,6,2,3,8]","[[-0.3,0.2],[0.3,0.2]]","[[0.125,-0.2],[-0.125,-0.2]]",-0.111111111,-0.137037065,1,0,0,1.6067,o2_image,546.4166,1,546.9129,546.9129,548.9127,0,0,0,0,1,,,,,,,,,,,,,,,,,,,,,,,,,,,,,,,,,,,,,,,,,,,,,,,,,,
,,65c636b3226605112093d9cf,21,female,2024-04-16_12h21.48.575,stockport_simplified,2022.2.4,Win32,60.60606061,661e456ee6de07e70aa9ef7b,661e5126ac52da4490fb11dc,,,,,,,,,,,,,,,,,,,,,,,,,,,,,,,,,,,,,,,,,,,,,,,,,,,,,,,,1,5,65,13,1,B,X,N,o2_image,stimuli/out2.png,stimuli/out1.png,stimuli/correct_out2.png,,,,,,,,,,,,,,,,,,,,,,,,,,,,,,,,,,,,,,
,,65c636b3226605112093d9cf,21,female,2024-04-16_12h21.48.575,stockport_simplified,2022.2.4,Win32,60.60606061,661e456ee6de07e70aa9ef7b,661e5126ac52da4490fb11dc,,,,,,,,,,,,,,,,,,,,,,,,,,,,,,,,,,548.9137,551.1785,"[1,4,5,7,6,2,3,8]","[[0.3,0.2],[-0.3,0.2]]","[[0.125,-0.2],[-0.125,-0.2]]",-0.108333333,-0.18148151,1,0,0,1.7487,o2_image,551.1811,1,551.6771,551.6771,553.6782,0,0,0,0,1,,,,,,,,,,,,,,,,,,,,,,,,,,,,,,,,,,,,,,,,,,,,,,,,,,
,,65c636b3226605112093d9cf,21,female,2024-04-16_12h21.48.575,stockport_simplified,2022.2.4,Win32,60.60606061,661e456ee6de07e70aa9ef7b,661e5126ac52da4490fb11dc,,,,,,,,,,,,,,,,,,,,,,,,,,,,,,,,,,,,,,,,,,,,,,,,,,,,,,,,1,6,66,40,1,B,X,N,o2_image,stimuli/out2.png,stimuli/out1.png,stimuli/correct_out2.png,,,,,,,,,,,,,,,,,,,,,,,,,,,,,,,,,,,,,,
,,65c636b3226605112093d9cf,21,female,2024-04-16_12h21.48.575,stockport_simplified,2022.2.4,Win32,60.60606061,661e456ee6de07e70aa9ef7b,661e5126ac52da4490fb11dc,,,,,,,,,,,,,,,,,,,,,,,,,,,,,,,,,,553.6802,556.7957,"[1,4,5,7,6,2,3,8]","[[0.3,0.2],[-0.3,0.2]]","[[0.125,-0.2],[-0.125,-0.2]]",-0.079629601,-0.201851866,1,0,0,2.5978,o2_image,556.797,1,557.2935,557.2937,559.2932,0,0,0,0,1,,,,,,,,,,,,,,,,,,,,,,,,,,,,,,,,,,,,,,,,,,,,,,,,,,
,,65c636b3226605112093d9cf,21,female,2024-04-16_12h21.48.575,stockport_simplified,2022.2.4,Win32,60.60606061,661e456ee6de07e70aa9ef7b,661e5126ac52da4490fb11dc,,,,,,,,,,,,,,,,,,,,,,,,,,,,,,,,,,,,,,,,,,,,,,,,,,,,,,,,1,7,67,57,1,N,M,D,o2_image,stimuli/out2.png,stimuli/out1.png,stimuli/correct_out2.png,,,,,,,,,,,,,,,,,,,,,,,,,,,,,,,,,,,,,,
,,65c636b3226605112093d9cf,21,female,2024-04-16_12h21.48.575,stockport_simplified,2022.2.4,Win32,60.60606061,661e456ee6de07e70aa9ef7b,661e5126ac52da4490fb11dc,,,,,,,,,,,,,,,,,,,,,,,,,,,,,,,,,,559.2955,561.5004,"[1,4,5,7,6,2,3,8]","[[0.3,0.2],[-0.3,0.2]]","[[-0.125,-0.2],[0.125,-0.2]]",0.175925954,-0.204629644,1,0,0,1.6832,o2_image,561.5021,1,561.9917,561.9917,563.9904,0,0,0,0,1,,,,,,,,,,,,,,,,,,,,,,,,,,,,,,,,,,,,,,,,,,,,,,,,,,
,,65c636b3226605112093d9cf,21,female,2024-04-16_12h21.48.575,stockport_simplified,2022.2.4,Win32,60.60606061,661e456ee6de07e70aa9ef7b,661e5126ac52da4490fb11dc,,,,,,,,,,,,,,,,,,,,,,,,,,,,,,,,,,,,,,,,,,,,,,,,,,,,,,,,1,8,68,10,1,B,X,N,o2_image,stimuli/out2.png,stimuli/out1.png,stimuli/correct_out2.png,,,,,,,,,,,,,,,,,,,,,,,,,,,,,,,,,,,,,,
,,65c636b3226605112093d9cf,21,female,2024-04-16_12h21.48.575,stockport_simplified,2022.2.4,Win32,60.60606061,661e456ee6de07e70aa9ef7b,661e5126ac52da4490fb11dc,,,,,,,,,,,,,,,,,,,,,,,,,,,,,,,,,,563.9908,567.8651,"[1,4,5,7,6,2,3,8]","[[0.3,0.2],[-0.3,0.2]]","[[0.125,-0.2],[-0.125,-0.2]]",0.146296353,-0.162962977,1,0,0,3.356,o1_image,567.9001,1,568.3902,568.3902,570.3893,0,0,0,0,1,,,,,,,,,,,,,,,,,,,,,,,,,,,,,,,,,,,,,,,,,,,,,,,,,,
,,65c636b3226605112093d9cf,21,female,2024-04-16_12h21.48.575,stockport_simplified,2022.2.4,Win32,60.60606061,661e456ee6de07e70aa9ef7b,661e5126ac52da4490fb11dc,,,,,,,,,,,,,,,,,,,,,,,,,,,,,,,,,,,,,,,,,,,,,,,,,,,,,,,,1,9,69,36,1,A,Y,N,o1_image,stimuli/out1.png,stimuli/correct_out1.png,stimuli/out2.png,,,,,,,,,,,,,,,,,,,,,,,,,,,,,,,,,,,,,,
,,65c636b3226605112093d9cf,21,female,2024-04-16_12h21.48.575,stockport_simplified,2022.2.4,Win32,60.60606061,661e456ee6de07e70aa9ef7b,661e5126ac52da4490fb11dc,,,,,,,,,,,,,,,,,,,,,,,,,,,,,,,,,,570.3905,572.5887,"[1,4,5,7,6,2,3,8]","[[-0.3,0.2],[0.3,0.2]]","[[-0.125,-0.2],[0.125,-0.2]]",-0.081481425,-0.164814843,1,0,0,1.6794,o1_image,572.59,1,573.0887,573.0888,575.0954,0,0,0,0,1,,,,,,,,,,,,,,,,,,,,,,,,,,,,,,,,,,,,,,,,,,,,,,,,,,
,,65c636b3226605112093d9cf,21,female,2024-04-16_12h21.48.575,stockport_simplified,2022.2.4,Win32,60.60606061,661e456ee6de07e70aa9ef7b,661e5126ac52da4490fb11dc,,,,,,,,,,,,,,,,,,,,,,,,,,,,,,,,,,,,,,,,,,,,,,,,,,,,,,,,1,10,70,20,1,N,M,C,o1_image,stimuli/out1.png,stimuli/correct_out1.png,stimuli/out2.png,,,,,,,,,,,,,,,,,,,,,,,,,,,,,,,,,,,,,,
,,65c636b3226605112093d9cf,21,female,2024-04-16_12h21.48.575,stockport_simplified,2022.2.4,Win32,60.60606061,661e456ee6de07e70aa9ef7b,661e5126ac52da4490fb11dc,,,,,,,,,,,,,,,,,,,,,,,,,,,,,,,,,,575.0966,577.0461,"[1,4,5,7,6,2,3,8]","[[0.3,0.2],[-0.3,0.2]]","[[-0.125,-0.2],[0.125,-0.2]]",-0.106481425,-0.174074088,1,0,0,1.4405,o1_image,577.0475,1,577.5439,577.5439,579.5378,0,0,0,0,1,,,,,,,,,,,,,,,,,,,,,,,,,,,,,,,,,,,,,,,,,,,,,,,,,,
,,65c636b3226605112093d9cf,21,female,2024-04-16_12h21.48.575,stockport_simplified,2022.2.4,Win32,60.60606061,661e456ee6de07e70aa9ef7b,661e5126ac52da4490fb11dc,,,,,,,,,,,,,,,,,,,,,,,,,,,,,,,,,,,,,,,,,,,,,,,,,,,,,,,,1,11,71,22,1,N,M,C,o1_image,stimuli/out1.png,stimuli/correct_out1.png,stimuli/out2.png,,,,,,,,,,,,,,,,,,,,,,,,,,,,,,,,,,,,,,
,,65c636b3226605112093d9cf,21,female,2024-04-16_12h21.48.575,stockport_simplified,2022.2.4,Win32,60.60606061,661e456ee6de07e70aa9ef7b,661e5126ac52da4490fb11dc,,,,,,,,,,,,,,,,,,,,,,,,,,,,,,,,,,579.5396,582.7698,"[1,4,5,7,6,2,3,8]","[[0.3,0.2],[-0.3,0.2]]","[[0.125,-0.2],[-0.125,-0.2]]",0.116666667,-0.2,1,0,0,2.7125,o1_image,582.8037,1,583.3032,583.3034,585.302,0,0,0,0,1,,,,,,,,,,,,,,,,,,,,,,,,,,,,,,,,,,,,,,,,,,,,,,,,,,
,,65c636b3226605112093d9cf,21,female,2024-04-16_12h21.48.575,stockport_simplified,2022.2.4,Win32,60.60606061,661e456ee6de07e70aa9ef7b,661e5126ac52da4490fb11dc,,,,,,,,,,,,,,,,,,,,,,,,,,,,,,,,,,,,,,,,,,,,,,,,,,,,,,,,1,12,72,4,1,A,X,N,o1_image,stimuli/out1.png,stimuli/correct_out1.png,stimuli/out2.png,,,,,,,,,,,,,,,,,,,,,,,,,,,,,,,,,,,,,,
,,65c636b3226605112093d9cf,21,female,2024-04-16_12h21.48.575,stockport_simplified,2022.2.4,Win32,60.60606061,661e456ee6de07e70aa9ef7b,661e5126ac52da4490fb11dc,,,,,,,,,,,,,,,,,,,,,,,,,,,,,,,,,,585.3038,587.8534,"[1,4,5,7,6,2,3,8]","[[-0.3,0.2],[0.3,0.2]]","[[-0.125,-0.2],[0.125,-0.2]]",0.128703732,-0.197222222,1,0,0,2.0332,o2_image,587.8712,1,588.3671,588.3671,590.3672,0,0,0,0,1,,,,,,,,,,,,,,,,,,,,,,,,,,,,,,,,,,,,,,,,,,,,,,,,,,
,,65c636b3226605112093d9cf,21,female,2024-04-16_12h21.48.575,stockport_simplified,2022.2.4,Win32,60.60606061,661e456ee6de07e70aa9ef7b,661e5126ac52da4490fb11dc,,,,,,,,,,,,,,,,,,,,,,,,,,,,,,,,,,,,,,,,,,,,,,,,,,,,,,,,1,13,73,45,1,B,Y,N,o2_image,stimuli/out2.png,stimuli/out1.png,stimuli/correct_out2.png,,,,,,,,,,,,,,,,,,,,,,,,,,,,,,,,,,,,,,
,,65c636b3226605112093d9cf,21,female,2024-04-16_12h21.48.575,stockport_simplified,2022.2.4,Win32,60.60606061,661e456ee6de07e70aa9ef7b,661e5126ac52da4490fb11dc,,,,,,,,,,,,,,,,,,,,,,,,,,,,,,,,,,590.3682,593.1004,"[1,4,5,7,6,2,3,8]","[[-0.3,0.2],[0.3,0.2]]","[[0.125,-0.2],[-0.125,-0.2]]",0.133333333,-0.185185199,1,0,0,2.2157,o1_image,593.1039,1,593.6057,593.6059,595.5992,0,0,0,0,1,,,,,,,,,,,,,,,,,,,,,,,,,,,,,,,,,,,,,,,,,,,,,,,,,,
,,65c636b3226605112093d9cf,21,female,2024-04-16_12h21.48.575,stockport_simplified,2022.2.4,Win32,60.60606061,661e456ee6de07e70aa9ef7b,661e5126ac52da4490fb11dc,,,,,,,,,,,,,,,,,,,,,,,,,,,,,,,,,,,,,,,,,,,,,,,,,,,,,,,,1,14,74,30,1,A,X,N,o1_image,stimuli/out1.png,stimuli/correct_out1.png,stimuli/out2.png,,,,,,,,,,,,,,,,,,,,,,,,,,,,,,,,,,,,,,
,,65c636b3226605112093d9cf,21,female,2024-04-16_12h21.48.575,stockport_simplified,2022.2.4,Win32,60.60606061,661e456ee6de07e70aa9ef7b,661e5126ac52da4490fb11dc,,,,,,,,,,,,,,,,,,,,,,,,,,,,,,,,,,595.6004,599.0321,"[1,4,5,7,6,2,3,8]","[[-0.3,0.2],[0.3,0.2]]","[[0.125,-0.2],[-0.125,-0.2]]",0.122222222,-0.189814843,1,0,0,2.9151,o1_image,599.0656,1,599.5648,599.5649,601.5642,0,0,0,0,1,,,,,,,,,,,,,,,,,,,,,,,,,,,,,,,,,,,,,,,,,,,,,,,,,,
,,65c636b3226605112093d9cf,21,female,2024-04-16_12h21.48.575,stockport_simplified,2022.2.4,Win32,60.60606061,661e456ee6de07e70aa9ef7b,661e5126ac52da4490fb11dc,,,,,,,,,,,,,,,,,,,,,,,,,,,,,,,,,,,,,,,,,,,,,,,,,,,,,,,,1,15,75,6,1,A,Y,N,o1_image,stimuli/out1.png,stimuli/correct_out1.png,stimuli/out2.png,,,,,,,,,,,,,,,,,,,,,,,,,,,,,,,,,,,,,,
,,65c636b3226605112093d9cf,21,female,2024-04-16_12h21.48.575,stockport_simplified,2022.2.4,Win32,60.60606061,661e456ee6de07e70aa9ef7b,661e5126ac52da4490fb11dc,,,,,,,,,,,,,,,,,,,,,,,,,,,,,,,,,,601.5657,604.0145,"[1,4,5,7,6,2,3,8]","[[-0.3,0.2],[0.3,0.2]]","[[0.125,-0.2],[-0.125,-0.2]]",0.122222222,-0.189814843,1,0,0,1.9332,o1_image,604.0495,1,604.5474,604.5477,606.5473,0,0,0,0,1,,,,,,,,,,,,,,,,,,,,,,,,,,,,,,,,,,,,,,,,,,,,,,,,,,
,,65c636b3226605112093d9cf,21,female,2024-04-16_12h21.48.575,stockport_simplified,2022.2.4,Win32,60.60606061,661e456ee6de07e70aa9ef7b,661e5126ac52da4490fb11dc,,,,,,,,,,,,,,,,,,,,,,,,,,,,,,,,,,,,,,,,,,,,,,,,,,,,,,,,1,16,76,9,1,A,Y,N,o1_image,stimuli/out1.png,stimuli/correct_out1.png,stimuli/out2.png,,,,,,,,,,,,,,,,,,,,,,,,,,,,,,,,,,,,,,
,,65c636b3226605112093d9cf,21,female,2024-04-16_12h21.48.575,stockport_simplified,2022.2.4,Win32,60.60606061,661e456ee6de07e70aa9ef7b,661e5126ac52da4490fb11dc,,,,,,,,,,,,,,,,,,,,,,,,,,,,,,,,,,606.5487,610.3459,"[1,4,5,7,6,2,3,8]","[[-0.3,0.2],[0.3,0.2]]","[[0.125,-0.2],[-0.125,-0.2]]",0.122222222,-0.189814843,1,0,0,3.2809,o1_image,610.3793,1,610.8785,610.8785,612.8785,0,0,0,0,1,,,,,,,,,,,,,,,,,,,,,,,,,,,,,,,,,,,,,,,,,,,,,,,,,,
,,65c636b3226605112093d9cf,21,female,2024-04-16_12h21.48.575,stockport_simplified,2022.2.4,Win32,60.60606061,661e456ee6de07e70aa9ef7b,661e5126ac52da4490fb11dc,,,,,,,,,,,,,,,,,,,,,,,,,,,,,,,,,,,,,,,,,,,,,,,,,,,,,,,,1,17,77,34,1,A,X,N,o1_image,stimuli/out1.png,stimuli/correct_out1.png,stimuli/out2.png,,,,,,,,,,,,,,,,,,,,,,,,,,,,,,,,,,,,,,
,,65c636b3226605112093d9cf,21,female,2024-04-16_12h21.48.575,stockport_simplified,2022.2.4,Win32,60.60606061,661e456ee6de07e70aa9ef7b,661e5126ac52da4490fb11dc,,,,,,,,,,,,,,,,,,,,,,,,,,,,,,,,,,612.8806,615.1132,"[1,4,5,7,6,2,3,8]","[[-0.3,0.2],[0.3,0.2]]","[[0.125,-0.2],[-0.125,-0.2]]",0.122222222,-0.189814843,1,0,0,1.7294,o1_image,615.1155,1,615.6115,615.6117,617.6172,0,0,0,0,1,,,,,,,,,,,,,,,,,,,,,,,,,,,,,,,,,,,,,,,,,,,,,,,,,,
,,65c636b3226605112093d9cf,21,female,2024-04-16_12h21.48.575,stockport_simplified,2022.2.4,Win32,60.60606061,661e456ee6de07e70aa9ef7b,661e5126ac52da4490fb11dc,,,,,,,,,,,,,,,,,,,,,,,,,,,,,,,,,,,,,,,,,,,,,,,,,,,,,,,,1,18,78,0,1,A,X,N,o1_image,stimuli/out1.png,stimuli/correct_out1.png,stimuli/out2.png,,,,,,,,,,,,,,,,,,,,,,,,,,,,,,,,,,,,,,
,,65c636b3226605112093d9cf,21,female,2024-04-16_12h21.48.575,stockport_simplified,2022.2.4,Win32,60.60606061,661e456ee6de07e70aa9ef7b,661e5126ac52da4490fb11dc,,,,,,,,,,,,,,,,,,,,,,,,,,,,,,,,,,617.6183,621.9503,"[1,4,5,7,6,2,3,8]","[[0.3,0.2],[-0.3,0.2]]","[[0.125,-0.2],[-0.125,-0.2]]",0.122222222,-0.189814843,1,0,0,3.8172,o1_image,621.9854,1,622.4751,622.4751,624.4745,0,0,0,0,1,,,,,,,,,,,,,,,,,,,,,,,,,,,,,,,,,,,,,,,,,,,,,,,,,,
,,65c636b3226605112093d9cf,21,female,2024-04-16_12h21.48.575,stockport_simplified,2022.2.4,Win32,60.60606061,661e456ee6de07e70aa9ef7b,661e5126ac52da4490fb11dc,,,,,,,,,,,,,,,,,,,,,,,,,,,,,,,,,,,,,,,,,,,,,,,,,,,,,,,,1,19,79,1,1,A,X,N,o1_image,stimuli/out1.png,stimuli/correct_out1.png,stimuli/out2.png,,,,,,,,,,,,,,,,,,,,,,,,,,,,,,,,,,,,,,
,,65c636b3226605112093d9cf,21,female,2024-04-16_12h21.48.575,stockport_simplified,2022.2.4,Win32,60.60606061,661e456ee6de07e70aa9ef7b,661e5126ac52da4490fb11dc,,,,,,,,,,,,,,,,,,,,,,,,,,,,,,,,,,624.4756,626.5913,"[1,4,5,7,6,2,3,8]","[[0.3,0.2],[-0.3,0.2]]","[[0.125,-0.2],[-0.125,-0.2]]",0.122222222,-0.189814843,1,0,0,1.5993,o1_image,626.5941,1,627.0906,627.0908,629.0894,0,0,0,0,1,,,,,,,,,,,,,,,,,,,,,,,,,,,,,,,,,,,,,,,,,,,,,,,,,,
,,65c636b3226605112093d9cf,21,female,2024-04-16_12h21.48.575,stockport_simplified,2022.2.4,Win32,60.60606061,661e456ee6de07e70aa9ef7b,661e5126ac52da4490fb11dc,,,,,,,,,,,,,,,,,,,,,,,,,,,,,,,,,,,,,,,,,,,,,,,,,,,,,,,,1,20,80,31,1,A,X,N,o1_image,stimuli/out1.png,stimuli/correct_out1.png,stimuli/out2.png,,,,,,,,,,,,,,,,,,,,,,,,,,,,,,,,,,,,,,
,,65c636b3226605112093d9cf,21,female,2024-04-16_12h21.48.575,stockport_simplified,2022.2.4,Win32,60.60606061,661e456ee6de07e70aa9ef7b,661e5126ac52da4490fb11dc,,,,,,,,,,,,,,,,,,,,,,,,,,,,,,,,,,629.0902,632.4401,"[1,4,5,7,6,2,3,8]","[[0.3,0.2],[-0.3,0.2]]","[[-0.125,-0.2],[0.125,-0.2]]",0.146296353,-0.182407422,1,0,0,2.8333,o2_image,632.4797,1,632.9721,632.9722,634.9717,0,0,0,0,1,,,,,,,,,,,,,,,,,,,,,,,,,,,,,,,,,,,,,,,,,,,,,,,,,,
,,65c636b3226605112093d9cf,21,female,2024-04-16_12h21.48.575,stockport_simplified,2022.2.4,Win32,60.60606061,661e456ee6de07e70aa9ef7b,661e5126ac52da4490fb11dc,,,,,,,,,,,,,,,,,,,,,,,,,,,,,,,,,,,,,,,,,,,,,,,,,,,,,,,,1,21,81,41,1,B,X,N,o2_image,stimuli/out2.png,stimuli/out1.png,stimuli/correct_out2.png,,,,,,,,,,,,,,,,,,,,,,,,,,,,,,,,,,,,,,
,,65c636b3226605112093d9cf,21,female,2024-04-16_12h21.48.575,stockport_simplified,2022.2.4,Win32,60.60606061,661e456ee6de07e70aa9ef7b,661e5126ac52da4490fb11dc,,,,,,,,,,,,,,,,,,,,,,,,,,,,,,,,,,634.9728,638.2212,"[1,4,5,7,6,2,3,8]","[[-0.3,0.2],[0.3,0.2]]","[[-0.125,-0.2],[0.125,-0.2]]",-0.128703647,-0.182407422,1,0,0,2.732,o1_image,638.2587,1,638.7539,638.754,640.7607,0,0,0,0,1,,,,,,,,,,,,,,,,,,,,,,,,,,,,,,,,,,,,,,,,,,,,,,,,,,
,,65c636b3226605112093d9cf,21,female,2024-04-16_12h21.48.575,stockport_simplified,2022.2.4,Win32,60.60606061,661e456ee6de07e70aa9ef7b,661e5126ac52da4490fb11dc,,,,,,,,,,,,,,,,,,,,,,,,,,,,,,,,,,,,,,,,,,,,,,,,,,,,,,,,1,22,82,33,1,A,X,N,o1_image,stimuli/out1.png,stimuli/correct_out1.png,stimuli/out2.png,,,,,,,,,,,,,,,,,,,,,,,,,,,,,,,,,,,,,,
,,65c636b3226605112093d9cf,21,female,2024-04-16_12h21.48.575,stockport_simplified,2022.2.4,Win32,60.60606061,661e456ee6de07e70aa9ef7b,661e5126ac52da4490fb11dc,,,,,,,,,,,,,,,,,,,,,,,,,,,,,,,,,,640.7618,644.7366,"[1,4,5,7,6,2,3,8]","[[0.3,0.2],[-0.3,0.2]]","[[-0.125,-0.2],[0.125,-0.2]]",0.163888889,-0.202777778,1,0,0,3.4634,o2_image,644.772,1,645.269,645.2692,647.2719,0,0,0,0,1,,,,,,,,,,,,,,,,,,,,,,,,,,,,,,,,,,,,,,,,,,,,,,,,,,
,,65c636b3226605112093d9cf,21,female,2024-04-16_12h21.48.575,stockport_simplified,2022.2.4,Win32,60.60606061,661e456ee6de07e70aa9ef7b,661e5126ac52da4490fb11dc,,,,,,,,,,,,,,,,,,,,,,,,,,,,,,,,,,,,,,,,,,,,,,,,,,,,,,,,1,23,83,27,1,N,M,D,o2_image,stimuli/out2.png,stimuli/out1.png,stimuli/correct_out2.png,,,,,,,,,,,,,,,,,,,,,,,,,,,,,,,,,,,,,,
,,65c636b3226605112093d9cf,21,female,2024-04-16_12h21.48.575,stockport_simplified,2022.2.4,Win32,60.60606061,661e456ee6de07e70aa9ef7b,661e5126ac52da4490fb11dc,,,,,,,,,,,,,,,,,,,,,,,,,,,,,,,,,,647.2738,650.735,"[1,4,5,7,6,2,3,8]","[[-0.3,0.2],[0.3,0.2]]","[[-0.125,-0.2],[0.125,-0.2]]",0.148148176,-0.202777778,1,0,0,2.9498,o2_image,650.764,1,651.2671,651.2672,653.2667,0,0,0,0,1,,,,,,,,,,,,,,,,,,,,,,,,,,,,,,,,,,,,,,,,,,,,,,,,,,
,,65c636b3226605112093d9cf,21,female,2024-04-16_12h21.48.575,stockport_simplified,2022.2.4,Win32,60.60606061,661e456ee6de07e70aa9ef7b,661e5126ac52da4490fb11dc,,,,,,,,,,,,,,,,,,,,,,,,,,,,,,,,,,,,,,,,,,,,,,,,,,,,,,,,1,24,84,17,1,B,Y,N,o2_image,stimuli/out2.png,stimuli/out1.png,stimuli/correct_out2.png,,,,,,,,,,,,,,,,,,,,,,,,,,,,,,,,,,,,,,
,,65c636b3226605112093d9cf,21,female,2024-04-16_12h21.48.575,stockport_simplified,2022.2.4,Win32,60.60606061,661e456ee6de07e70aa9ef7b,661e5126ac52da4490fb11dc,,,,,,,,,,,,,,,,,,,,,,,,,,,,,,,,,,653.268,655.4832,"[1,4,5,7,6,2,3,8]","[[-0.3,0.2],[0.3,0.2]]","[[0.125,-0.2],[-0.125,-0.2]]",0.180555556,-0.184259288,1,0,0,1.6987,o1_image,655.4853,1,655.9837,655.9839,657.9833,0,0,0,0,1,,,,,,,,,,,,,,,,,,,,,,,,,,,,,,,,,,,,,,,,,,,,,,,,,,
,,65c636b3226605112093d9cf,21,female,2024-04-16_12h21.48.575,stockport_simplified,2022.2.4,Win32,60.60606061,661e456ee6de07e70aa9ef7b,661e5126ac52da4490fb11dc,,,,,,,,,,,,,,,,,,,,,,,,,,,,,,,,,,,,,,,,,,,,,,,,,,,,,,,,1,25,85,35,1,A,Y,N,o1_image,stimuli/out1.png,stimuli/correct_out1.png,stimuli/out2.png,,,,,,,,,,,,,,,,,,,,,,,,,,,,,,,,,,,,,,
,,65c636b3226605112093d9cf,21,female,2024-04-16_12h21.48.575,stockport_simplified,2022.2.4,Win32,60.60606061,661e456ee6de07e70aa9ef7b,661e5126ac52da4490fb11dc,,,,,,,,,,,,,,,,,,,,,,,,,,,,,,,,,,657.9852,660.8198,"[1,4,5,7,6,2,3,8]","[[-0.3,0.2],[0.3,0.2]]","[[0.125,-0.2],[-0.125,-0.2]]",-0.104629601,-0.179629644,1,0,0,2.319,o2_image,660.8214,1,661.3142,661.3143,663.3173,0,0,0,0,1,,,,,,,,,,,,,,,,,,,,,,,,,,,,,,,,,,,,,,,,,,,,,,,,,,
,,65c636b3226605112093d9cf,21,female,2024-04-16_12h21.48.575,stockport_simplified,2022.2.4,Win32,60.60606061,661e456ee6de07e70aa9ef7b,661e5126ac52da4490fb11dc,,,,,,,,,,,,,,,,,,,,,,,,,,,,,,,,,,,,,,,,,,,,,,,,,,,,,,,,1,26,86,25,1,N,M,D,o2_image,stimuli/out2.png,stimuli/out1.png,stimuli/correct_out2.png,,,,,,,,,,,,,,,,,,,,,,,,,,,,,,,,,,,,,,
,,65c636b3226605112093d9cf,21,female,2024-04-16_12h21.48.575,stockport_simplified,2022.2.4,Win32,60.60606061,661e456ee6de07e70aa9ef7b,661e5126ac52da4490fb11dc,,,,,,,,,,,,,,,,,,,,,,,,,,,,,,,,,,663.3184,665.1038,"[1,4,5,7,6,2,3,8]","[[-0.3,0.2],[0.3,0.2]]","[[-0.125,-0.2],[0.125,-0.2]]",0.137037065,-0.189814843,1,0,0,1.2722,o2_image,665.1054,1,665.5963,665.5966,667.5964,0,0,0,0,1,,,,,,,,,,,,,,,,,,,,,,,,,,,,,,,,,,,,,,,,,,,,,,,,,,
,,65c636b3226605112093d9cf,21,female,2024-04-16_12h21.48.575,stockport_simplified,2022.2.4,Win32,60.60606061,661e456ee6de07e70aa9ef7b,661e5126ac52da4490fb11dc,,,,,,,,,,,,,,,,,,,,,,,,,,,,,,,,,,,,,,,,,,,,,,,,,,,,,,,,1,27,87,55,1,N,M,D,o2_image,stimuli/out2.png,stimuli/out1.png,stimuli/correct_out2.png,,,,,,,,,,,,,,,,,,,,,,,,,,,,,,,,,,,,,,
,,65c636b3226605112093d9cf,21,female,2024-04-16_12h21.48.575,stockport_simplified,2022.2.4,Win32,60.60606061,661e456ee6de07e70aa9ef7b,661e5126ac52da4490fb11dc,,,,,,,,,,,,,,,,,,,,,,,,,,,,,,,,,,667.5988,671.4982,"[1,4,5,7,6,2,3,8]","[[0.3,0.2],[-0.3,0.2]]","[[0.125,-0.2],[-0.125,-0.2]]",0.102777778,-0.219444444,1,0,0,3.3956,o1_image,671.5142,1,672.0249,672.0249,674.018,0,0,0,0,1,,,,,,,,,,,,,,,,,,,,,,,,,,,,,,,,,,,,,,,,,,,,,,,,,,
,,65c636b3226605112093d9cf,21,female,2024-04-16_12h21.48.575,stockport_simplified,2022.2.4,Win32,60.60606061,661e456ee6de07e70aa9ef7b,661e5126ac52da4490fb11dc,,,,,,,,,,,,,,,,,,,,,,,,,,,,,,,,,,,,,,,,,,,,,,,,,,,,,,,,1,28,88,24,1,N,M,C,o1_image,stimuli/out1.png,stimuli/correct_out1.png,stimuli/out2.png,,,,,,,,,,,,,,,,,,,,,,,,,,,,,,,,,,,,,,
,,65c636b3226605112093d9cf,21,female,2024-04-16_12h21.48.575,stockport_simplified,2022.2.4,Win32,60.60606061,661e456ee6de07e70aa9ef7b,661e5126ac52da4490fb11dc,,,,,,,,,,,,,,,,,,,,,,,,,,,,,,,,,,674.0191,676.4853,"[1,4,5,7,6,2,3,8]","[[0.3,0.2],[-0.3,0.2]]","[[-0.125,-0.2],[0.125,-0.2]]",0.171296353,-0.176851866,1,0,0,1.9539,o2_image,676.4876,1,676.9769,676.9769,678.976,0,0,0,0,1,,,,,,,,,,,,,,,,,,,,,,,,,,,,,,,,,,,,,,,,,,,,,,,,,,
,,65c636b3226605112093d9cf,21,female,2024-04-16_12h21.48.575,stockport_simplified,2022.2.4,Win32,60.60606061,661e456ee6de07e70aa9ef7b,661e5126ac52da4490fb11dc,,,,,,,,,,,,,,,,,,,,,,,,,,,,,,,,,,,,,,,,,,,,,,,,,,,,,,,,1,29,89,47,1,B,Y,N,o2_image,stimuli/out2.png,stimuli/out1.png,stimuli/correct_out2.png,,,,,,,,,,,,,,,,,,,,,,,,,,,,,,,,,,,,,,
,,65c636b3226605112093d9cf,21,female,2024-04-16_12h21.48.575,stockport_simplified,2022.2.4,Win32,60.60606061,661e456ee6de07e70aa9ef7b,661e5126ac52da4490fb11dc,,,,,,,,,,,,,,,,,,,,,,,,,,,,,,,,,,678.9772,682.3778,"[1,4,5,7,6,2,3,8]","[[-0.3,0.2],[0.3,0.2]]","[[-0.125,-0.2],[0.125,-0.2]]",0.134259288,-0.173148176,1,0,0,2.8838,o2_image,682.4135,1,682.9083,682.9084,684.9082,0,0,0,0,1,,,,,,,,,,,,,,,,,,,,,,,,,,,,,,,,,,,,,,,,,,,,,,,,,,
,,65c636b3226605112093d9cf,21,female,2024-04-16_12h21.48.575,stockport_simplified,2022.2.4,Win32,60.60606061,661e456ee6de07e70aa9ef7b,661e5126ac52da4490fb11dc,,,,,,,,,,,,,,,,,,,,,,,,,,,,,,,,,,,,,,,,,,,,,,,,,,,,,,,,1,30,90,28,1,N,M,D,o2_image,stimuli/out2.png,stimuli/out1.png,stimuli/correct_out2.png,,,,,,,,,,,,,,,,,,,,,,,,,,,,,,,,,,,,,,
,,65c636b3226605112093d9cf,21,female,2024-04-16_12h21.48.575,stockport_simplified,2022.2.4,Win32,60.60606061,661e456ee6de07e70aa9ef7b,661e5126ac52da4490fb11dc,,,,,,,,,,,,,,,,,,,,,,,,,,,,,,,,,,684.9095,686.6422,"[1,4,5,7,6,2,3,8]","[[-0.3,0.2],[0.3,0.2]]","[[0.125,-0.2],[-0.125,-0.2]]",-0.192592578,-0.167592621,1,0,0,1.217,o2_image,686.6457,1,687.1407,687.1408,689.1402,0,0,0,0,1,,,,,,,,,,,,,,,,,,,,,,,,,,,,,,,,,,,,,,,,,,,,,,,,,,
,,65c636b3226605112093d9cf,21,female,2024-04-16_12h21.48.575,stockport_simplified,2022.2.4,Win32,60.60606061,661e456ee6de07e70aa9ef7b,661e5126ac52da4490fb11dc,,,,,,,,,,,,,,,,,,,,,,,,,,,,,,,,,,,,,,,,,,,,,,,,,,,,,,,,1,31,91,29,1,N,M,D,o2_image,stimuli/out2.png,stimuli/out1.png,stimuli/correct_out2.png,,,,,,,,,,,,,,,,,,,,,,,,,,,,,,,,,,,,,,
,,65c636b3226605112093d9cf,21,female,2024-04-16_12h21.48.575,stockport_simplified,2022.2.4,Win32,60.60606061,661e456ee6de07e70aa9ef7b,661e5126ac52da4490fb11dc,,,,,,,,,,,,,,,,,,,,,,,,,,,,,,,,,,689.1416,691.6426,"[1,4,5,7,6,2,3,8]","[[0.3,0.2],[-0.3,0.2]]","[[-0.125,-0.2],[0.125,-0.2]]",-0.104629601,-0.187037065,1,0,0,1.9839,o1_image,691.6447,1,692.1391,692.1392,694.1386,0,0,0,0,1,,,,,,,,,,,,,,,,,,,,,,,,,,,,,,,,,,,,,,,,,,,,,,,,,,
,,65c636b3226605112093d9cf,21,female,2024-04-16_12h21.48.575,stockport_simplified,2022.2.4,Win32,60.60606061,661e456ee6de07e70aa9ef7b,661e5126ac52da4490fb11dc,,,,,,,,,,,,,,,,,,,,,,,,,,,,,,,,,,,,,,,,,,,,,,,,,,,,,,,,1,32,92,37,1,A,Y,N,o1_image,stimuli/out1.png,stimuli/correct_out1.png,stimuli/out2.png,,,,,,,,,,,,,,,,,,,,,,,,,,,,,,,,,,,,,,
,,65c636b3226605112093d9cf,21,female,2024-04-16_12h21.48.575,stockport_simplified,2022.2.4,Win32,60.60606061,661e456ee6de07e70aa9ef7b,661e5126ac52da4490fb11dc,,,,,,,,,,,,,,,,,,,,,,,,,,,,,,,,,,694.1397,696.4553,"[1,4,5,7,6,2,3,8]","[[-0.3,0.2],[0.3,0.2]]","[[-0.125,-0.2],[0.125,-0.2]]",0.137963019,-0.189814843,1,0,0,1.7995,o2_image,696.4575,1,696.9545,696.9546,698.944,0,0,0,0,1,,,,,,,,,,,,,,,,,,,,,,,,,,,,,,,,,,,,,,,,,,,,,,,,,,
,,65c636b3226605112093d9cf,21,female,2024-04-16_12h21.48.575,stockport_simplified,2022.2.4,Win32,60.60606061,661e456ee6de07e70aa9ef7b,661e5126ac52da4490fb11dc,,,,,,,,,,,,,,,,,,,,,,,,,,,,,,,,,,,,,,,,,,,,,,,,,,,,,,,,1,33,93,18,1,B,Y,N,o2_image,stimuli/out2.png,stimuli/out1.png,stimuli/correct_out2.png,,,,,,,,,,,,,,,,,,,,,,,,,,,,,,,,,,,,,,
,,65c636b3226605112093d9cf,21,female,2024-04-16_12h21.48.575,stockport_simplified,2022.2.4,Win32,60.60606061,661e456ee6de07e70aa9ef7b,661e5126ac52da4490fb11dc,,,,,,,,,,,,,,,,,,,,,,,,,,,,,,,,,,698.9452,700.6573,"[1,4,5,7,6,2,3,8]","[[-0.3,0.2],[0.3,0.2]]","[[-0.125,-0.2],[0.125,-0.2]]",0.137963019,-0.189814843,1,0,0,1.1968,o2_image,700.6591,1,701.1537,701.1538,703.1534,0,0,0,0,1,,,,,,,,,,,,,,,,,,,,,,,,,,,,,,,,,,,,,,,,,,,,,,,,,,
,,65c636b3226605112093d9cf,21,female,2024-04-16_12h21.48.575,stockport_simplified,2022.2.4,Win32,60.60606061,661e456ee6de07e70aa9ef7b,661e5126ac52da4490fb11dc,,,,,,,,,,,,,,,,,,,,,,,,,,,,,,,,,,,,,,,,,,,,,,,,,,,,,,,,1,34,94,15,1,B,Y,N,o2_image,stimuli/out2.png,stimuli/out1.png,stimuli/correct_out2.png,,,,,,,,,,,,,,,,,,,,,,,,,,,,,,,,,,,,,,
,,65c636b3226605112093d9cf,21,female,2024-04-16_12h21.48.575,stockport_simplified,2022.2.4,Win32,60.60606061,661e456ee6de07e70aa9ef7b,661e5126ac52da4490fb11dc,,,,,,,,,,,,,,,,,,,,,,,,,,,,,,,,,,703.1556,706.436,"[1,4,5,7,6,2,3,8]","[[0.3,0.2],[-0.3,0.2]]","[[-0.125,-0.2],[0.125,-0.2]]",0.135185242,-0.185185199,1,0,0,2.759,o2_image,706.4712,1,706.9683,706.9683,708.9677,0,0,0,0,1,,,,,,,,,,,,,,,,,,,,,,,,,,,,,,,,,,,,,,,,,,,,,,,,,,
,,65c636b3226605112093d9cf,21,female,2024-04-16_12h21.48.575,stockport_simplified,2022.2.4,Win32,60.60606061,661e456ee6de07e70aa9ef7b,661e5126ac52da4490fb11dc,,,,,,,,,,,,,,,,,,,,,,,,,,,,,,,,,,,,,,,,,,,,,,,,,,,,,,,,1,35,95,58,1,N,M,D,o2_image,stimuli/out2.png,stimuli/out1.png,stimuli/correct_out2.png,,,,,,,,,,,,,,,,,,,,,,,,,,,,,,,,,,,,,,
,,65c636b3226605112093d9cf,21,female,2024-04-16_12h21.48.575,stockport_simplified,2022.2.4,Win32,60.60606061,661e456ee6de07e70aa9ef7b,661e5126ac52da4490fb11dc,,,,,,,,,,,,,,,,,,,,,,,,,,,,,,,,,,708.9688,712.703,"[1,4,5,7,6,2,3,8]","[[0.3,0.2],[-0.3,0.2]]","[[0.125,-0.2],[-0.125,-0.2]]",0.195370399,-0.151851866,1,0,0,3.2178,o1_image,712.7321,1,713.2334,713.2334,715.2328,0,0,0,0,1,,,,,,,,,,,,,,,,,,,,,,,,,,,,,,,,,,,,,,,,,,,,,,,,,,
,,65c636b3226605112093d9cf,21,female,2024-04-16_12h21.48.575,stockport_simplified,2022.2.4,Win32,60.60606061,661e456ee6de07e70aa9ef7b,661e5126ac52da4490fb11dc,,,,,,,,,,,,,,,,,,,,,,,,,,,,,,,,,,,,,,,,,,,,,,,,,,,,,,,,1,36,96,2,1,A,X,N,o1_image,stimuli/out1.png,stimuli/correct_out1.png,stimuli/out2.png,,,,,,,,,,,,,,,,,,,,,,,,,,,,,,,,,,,,,,
,,65c636b3226605112093d9cf,21,female,2024-04-16_12h21.48.575,stockport_simplified,2022.2.4,Win32,60.60606061,661e456ee6de07e70aa9ef7b,661e5126ac52da4490fb11dc,,,,,,,,,,,,,,,,,,,,,,,,,,,,,,,,,,715.234,718.3571,"[1,4,5,7,6,2,3,8]","[[0.3,0.2],[-0.3,0.2]]","[[0.125,-0.2],[-0.125,-0.2]]",0.112963019,-0.212037065,1,0,0,2.6071,o1_image,718.4012,1,718.8993,718.8995,720.9046,0,0,0,0,1,,,,,,,,,,,,,,,,,,,,,,,,,,,,,,,,,,,,,,,,,,,,,,,,,,
,,65c636b3226605112093d9cf,21,female,2024-04-16_12h21.48.575,stockport_simplified,2022.2.4,Win32,60.60606061,661e456ee6de07e70aa9ef7b,661e5126ac52da4490fb11dc,,,,,,,,,,,,,,,,,,,,,,,,,,,,,,,,,,,,,,,,,,,,,,,,,,,,,,,,1,37,97,50,1,N,M,C,o1_image,stimuli/out1.png,stimuli/correct_out1.png,stimuli/out2.png,,,,,,,,,,,,,,,,,,,,,,,,,,,,,,,,,,,,,,
,,65c636b3226605112093d9cf,21,female,2024-04-16_12h21.48.575,stockport_simplified,2022.2.4,Win32,60.60606061,661e456ee6de07e70aa9ef7b,661e5126ac52da4490fb11dc,,,,,,,,,,,,,,,,,,,,,,,,,,,,,,,,,,720.9062,723.2057,"[1,4,5,7,6,2,3,8]","[[-0.3,0.2],[0.3,0.2]]","[[-0.125,-0.2],[0.125,-0.2]]",0.171296353,-0.189814843,1,0,0,1.7834,o2_image,723.2071,1,723.7042,723.7043,725.6965,0,0,0,0,1,,,,,,,,,,,,,,,,,,,,,,,,,,,,,,,,,,,,,,,,,,,,,,,,,,
,,65c636b3226605112093d9cf,21,female,2024-04-16_12h21.48.575,stockport_simplified,2022.2.4,Win32,60.60606061,661e456ee6de07e70aa9ef7b,661e5126ac52da4490fb11dc,,,,,,,,,,,,,,,,,,,,,,,,,,,,,,,,,,,,,,,,,,,,,,,,,,,,,,,,1,38,98,44,1,B,X,N,o2_image,stimuli/out2.png,stimuli/out1.png,stimuli/correct_out2.png,,,,,,,,,,,,,,,,,,,,,,,,,,,,,,,,,,,,,,
,,65c636b3226605112093d9cf,21,female,2024-04-16_12h21.48.575,stockport_simplified,2022.2.4,Win32,60.60606061,661e456ee6de07e70aa9ef7b,661e5126ac52da4490fb11dc,,,,,,,,,,,,,,,,,,,,,,,,,,,,,,,,,,725.6976,727.2635,"[1,4,5,7,6,2,3,8]","[[0.3,0.2],[-0.3,0.2]]","[[-0.125,-0.2],[0.125,-0.2]]",0.171296353,-0.189814843,1,0,0,1.0494,o2_image,727.2671,1,727.7627,727.7628,729.7622,0,0,0,0,1,,,,,,,,,,,,,,,,,,,,,,,,,,,,,,,,,,,,,,,,,,,,,,,,,,
,,65c636b3226605112093d9cf,21,female,2024-04-16_12h21.48.575,stockport_simplified,2022.2.4,Win32,60.60606061,661e456ee6de07e70aa9ef7b,661e5126ac52da4490fb11dc,,,,,,,,,,,,,,,,,,,,,,,,,,,,,,,,,,,,,,,,,,,,,,,,,,,,,,,,1,39,99,42,1,B,X,N,o2_image,stimuli/out2.png,stimuli/out1.png,stimuli/correct_out2.png,,,,,,,,,,,,,,,,,,,,,,,,,,,,,,,,,,,,,,
,,65c636b3226605112093d9cf,21,female,2024-04-16_12h21.48.575,stockport_simplified,2022.2.4,Win32,60.60606061,661e456ee6de07e70aa9ef7b,661e5126ac52da4490fb11dc,,,,,,,,,,,,,,,,,,,,,,,,,,,,,,,,,,729.7634,732.0137,"[1,4,5,7,6,2,3,8]","[[0.3,0.2],[-0.3,0.2]]","[[0.125,-0.2],[-0.125,-0.2]]",0.137963019,-0.17129631,1,0,0,1.7342,o1_image,732.0188,1,732.51,732.5101,734.5108,0,0,0,0,1,,,,,,,,,,,,,,,,,,,,,,,,,,,,,,,,,,,,,,,,,,,,,,,,,,
,,65c636b3226605112093d9cf,21,female,2024-04-16_12h21.48.575,stockport_simplified,2022.2.4,Win32,60.60606061,661e456ee6de07e70aa9ef7b,661e5126ac52da4490fb11dc,,,,,,,,,,,,,,,,,,,,,,,,,,,,,,,,,,,,,,,,,,,,,,,,,,,,,,,,1,40,100,5,1,A,Y,N,o1_image,stimuli/out1.png,stimuli/correct_out1.png,stimuli/out2.png,,,,,,,,,,,,,,,,,,,,,,,,,,,,,,,,,,,,,,
,,65c636b3226605112093d9cf,21,female,2024-04-16_12h21.48.575,stockport_simplified,2022.2.4,Win32,60.60606061,661e456ee6de07e70aa9ef7b,661e5126ac52da4490fb11dc,,,,,,,,,,,,,,,,,,,,,,,,,,,,,,,,,,734.5118,737.1294,"[1,4,5,7,6,2,3,8]","[[0.3,0.2],[-0.3,0.2]]","[[0.125,-0.2],[-0.125,-0.2]]",-0.075,-0.187037065,1,0,0,2.1013,o2_image,737.1324,1,737.63,737.6301,739.6259,0,0,0,0,1,,,,,,,,,,,,,,,,,,,,,,,,,,,,,,,,,,,,,,,,,,,,,,,,,,
,,65c636b3226605112093d9cf,21,female,2024-04-16_12h21.48.575,stockport_simplified,2022.2.4,Win32,60.60606061,661e456ee6de07e70aa9ef7b,661e5126ac52da4490fb11dc,,,,,,,,,,,,,,,,,,,,,,,,,,,,,,,,,,,,,,,,,,,,,,,,,,,,,,,,1,41,101,19,1,B,Y,N,o2_image,stimuli/out2.png,stimuli/out1.png,stimuli/correct_out2.png,,,,,,,,,,,,,,,,,,,,,,,,,,,,,,,,,,,,,,
,,65c636b3226605112093d9cf,21,female,2024-04-16_12h21.48.575,stockport_simplified,2022.2.4,Win32,60.60606061,661e456ee6de07e70aa9ef7b,661e5126ac52da4490fb11dc,,,,,,,,,,,,,,,,,,,,,,,,,,,,,,,,,,739.6272,742.1096,"[1,4,5,7,6,2,3,8]","[[-0.3,0.2],[0.3,0.2]]","[[-0.125,-0.2],[0.125,-0.2]]",-0.099074046,-0.192592621,1,0,0,1.966,o1_image,742.1127,1,742.6088,742.6089,744.6078,0,0,0,0,1,,,,,,,,,,,,,,,,,,,,,,,,,,,,,,,,,,,,,,,,,,,,,,,,,,
,,65c636b3226605112093d9cf,21,female,2024-04-16_12h21.48.575,stockport_simplified,2022.2.4,Win32,60.60606061,661e456ee6de07e70aa9ef7b,661e5126ac52da4490fb11dc,,,,,,,,,,,,,,,,,,,,,,,,,,,,,,,,,,,,,,,,,,,,,,,,,,,,,,,,1,42,102,54,1,N,M,C,o1_image,stimuli/out1.png,stimuli/correct_out1.png,stimuli/out2.png,,,,,,,,,,,,,,,,,,,,,,,,,,,,,,,,,,,,,,
,,65c636b3226605112093d9cf,21,female,2024-04-16_12h21.48.575,stockport_simplified,2022.2.4,Win32,60.60606061,661e456ee6de07e70aa9ef7b,661e5126ac52da4490fb11dc,,,,,,,,,,,,,,,,,,,,,,,,,,,,,,,,,,744.6089,748.3417,"[1,4,5,7,6,2,3,8]","[[-0.3,0.2],[0.3,0.2]]","[[-0.125,-0.2],[0.125,-0.2]]",0.103703732,-0.204629644,1,0,0,3.2165,o2_image,748.3817,1,748.8736,748.8737,750.874,0,0,0,0,1,,,,,,,,,,,,,,,,,,,,,,,,,,,,,,,,,,,,,,,,,,,,,,,,,,
,,65c636b3226605112093d9cf,21,female,2024-04-16_12h21.48.575,stockport_simplified,2022.2.4,Win32,60.60606061,661e456ee6de07e70aa9ef7b,661e5126ac52da4490fb11dc,,,,,,,,,,,,,,,,,,,,,,,,,,,,,,,,,,,,,,,,,,,,,,,,,,,,,,,,1,43,103,26,1,N,M,D,o2_image,stimuli/out2.png,stimuli/out1.png,stimuli/correct_out2.png,,,,,,,,,,,,,,,,,,,,,,,,,,,,,,,,,,,,,,
,,65c636b3226605112093d9cf,21,female,2024-04-16_12h21.48.575,stockport_simplified,2022.2.4,Win32,60.60606061,661e456ee6de07e70aa9ef7b,661e5126ac52da4490fb11dc,,,,,,,,,,,,,,,,,,,,,,,,,,,,,,,,,,750.8763,753.206,"[1,4,5,7,6,2,3,8]","[[-0.3,0.2],[0.3,0.2]]","[[-0.125,-0.2],[0.125,-0.2]]",0.107407464,-0.191666667,1,0,0,1.8135,o2_image,753.2091,1,753.7054,753.7054,755.7087,0,0,0,0,1,,,,,,,,,,,,,,,,,,,,,,,,,,,,,,,,,,,,,,,,,,,,,,,,,,
,,65c636b3226605112093d9cf,21,female,2024-04-16_12h21.48.575,stockport_simplified,2022.2.4,Win32,60.60606061,661e456ee6de07e70aa9ef7b,661e5126ac52da4490fb11dc,,,,,,,,,,,,,,,,,,,,,,,,,,,,,,,,,,,,,,,,,,,,,,,,,,,,,,,,1,44,104,11,1,B,X,N,o2_image,stimuli/out2.png,stimuli/out1.png,stimuli/correct_out2.png,,,,,,,,,,,,,,,,,,,,,,,,,,,,,,,,,,,,,,
,,65c636b3226605112093d9cf,21,female,2024-04-16_12h21.48.575,stockport_simplified,2022.2.4,Win32,60.60606061,661e456ee6de07e70aa9ef7b,661e5126ac52da4490fb11dc,,,,,,,,,,,,,,,,,,,,,,,,,,,,,,,,,,755.7096,759.2893,"[1,4,5,7,6,2,3,8]","[[-0.3,0.2],[0.3,0.2]]","[[0.125,-0.2],[-0.125,-0.2]]",0.144444444,-0.188888889,1,0,0,3.0756,o1_image,759.3194,1,759.8205,759.8206,761.8207,0,0,0,0,1,,,,,,,,,,,,,,,,,,,,,,,,,,,,,,,,,,,,,,,,,,,,,,,,,,
,,65c636b3226605112093d9cf,21,female,2024-04-16_12h21.48.575,stockport_simplified,2022.2.4,Win32,60.60606061,661e456ee6de07e70aa9ef7b,661e5126ac52da4490fb11dc,,,,,,,,,,,,,,,,,,,,,,,,,,,,,,,,,,,,,,,,,,,,,,,,,,,,,,,,1,45,105,32,1,A,X,N,o1_image,stimuli/out1.png,stimuli/correct_out1.png,stimuli/out2.png,,,,,,,,,,,,,,,,,,,,,,,,,,,,,,,,,,,,,,
,,65c636b3226605112093d9cf,21,female,2024-04-16_12h21.48.575,stockport_simplified,2022.2.4,Win32,60.60606061,661e456ee6de07e70aa9ef7b,661e5126ac52da4490fb11dc,,,,,,,,,,,,,,,,,,,,,,,,,,,,,,,,,,761.823,763.9884,"[1,4,5,7,6,2,3,8]","[[-0.3,0.2],[0.3,0.2]]","[[-0.125,-0.2],[0.125,-0.2]]",-0.116666667,-0.189814843,1,0,0,1.6467,o1_image,763.9897,1,764.4867,764.4869,766.4853,0,0,0,0,1,,,,,,,,,,,,,,,,,,,,,,,,,,,,,,,,,,,,,,,,,,,,,,,,,,
,,65c636b3226605112093d9cf,21,female,2024-04-16_12h21.48.575,stockport_simplified,2022.2.4,Win32,60.60606061,661e456ee6de07e70aa9ef7b,661e5126ac52da4490fb11dc,,,,,,,,,,,,,,,,,,,,,,,,,,,,,,,,,,,,,,,,,,,,,,,,,,,,,,,,1,46,106,51,1,N,M,C,o1_image,stimuli/out1.png,stimuli/correct_out1.png,stimuli/out2.png,,,,,,,,,,,,,,,,,,,,,,,,,,,,,,,,,,,,,,
,,65c636b3226605112093d9cf,21,female,2024-04-16_12h21.48.575,stockport_simplified,2022.2.4,Win32,60.60606061,661e456ee6de07e70aa9ef7b,661e5126ac52da4490fb11dc,,,,,,,,,,,,,,,,,,,,,,,,,,,,,,,,,,766.4865,768.8101,"[1,4,5,7,6,2,3,8]","[[0.3,0.2],[-0.3,0.2]]","[[-0.125,-0.2],[0.125,-0.2]]",0.121296353,-0.180555556,1,0,0,1.8071,o2_image,768.8119,1,769.3015,769.3017,771.3007,0,0,0,0,1,,,,,,,,,,,,,,,,,,,,,,,,,,,,,,,,,,,,,,,,,,,,,,,,,,
,,65c636b3226605112093d9cf,21,female,2024-04-16_12h21.48.575,stockport_simplified,2022.2.4,Win32,60.60606061,661e456ee6de07e70aa9ef7b,661e5126ac52da4490fb11dc,,,,,,,,,,,,,,,,,,,,,,,,,,,,,,,,,,,,,,,,,,,,,,,,,,,,,,,,1,47,107,14,1,B,X,N,o2_image,stimuli/out2.png,stimuli/out1.png,stimuli/correct_out2.png,,,,,,,,,,,,,,,,,,,,,,,,,,,,,,,,,,,,,,
,,65c636b3226605112093d9cf,21,female,2024-04-16_12h21.48.575,stockport_simplified,2022.2.4,Win32,60.60606061,661e456ee6de07e70aa9ef7b,661e5126ac52da4490fb11dc,,,,,,,,,,,,,,,,,,,,,,,,,,,,,,,,,,771.3019,773.9836,"[1,4,5,7,6,2,3,8]","[[-0.3,0.2],[0.3,0.2]]","[[-0.125,-0.2],[0.125,-0.2]]",-0.087036981,-0.178703732,1,0,0,2.1652,o1_image,773.9861,1,774.4831,774.4832,776.4826,0,0,0,0,1,,,,,,,,,,,,,,,,,,,,,,,,,,,,,,,,,,,,,,,,,,,,,,,,,,
,,65c636b3226605112093d9cf,21,female,2024-04-16_12h21.48.575,stockport_simplified,2022.2.4,Win32,60.60606061,661e456ee6de07e70aa9ef7b,661e5126ac52da4490fb11dc,,,,,,,,,,,,,,,,,,,,,,,,,,,,,,,,,,,,,,,,,,,,,,,,,,,,,,,,1,48,108,23,1,N,M,C,o1_image,stimuli/out1.png,stimuli/correct_out1.png,stimuli/out2.png,,,,,,,,,,,,,,,,,,,,,,,,,,,,,,,,,,,,,,
,,65c636b3226605112093d9cf,21,female,2024-04-16_12h21.48.575,stockport_simplified,2022.2.4,Win32,60.60606061,661e456ee6de07e70aa9ef7b,661e5126ac52da4490fb11dc,,,,,,,,,,,,,,,,,,,,,,,,,,,,,,,,,,776.4837,777.8829,"[1,4,5,7,6,2,3,8]","[[-0.3,0.2],[0.3,0.2]]","[[-0.125,-0.2],[0.125,-0.2]]",-0.087036981,-0.178703732,1,0,0,0.8832,o1_image,777.8852,1,778.3822,778.3822,780.3814,0,0,0,0,1,,,,,,,,,,,,,,,,,,,,,,,,,,,,,,,,,,,,,,,,,,,,,,,,,,
,,65c636b3226605112093d9cf,21,female,2024-04-16_12h21.48.575,stockport_simplified,2022.2.4,Win32,60.60606061,661e456ee6de07e70aa9ef7b,661e5126ac52da4490fb11dc,,,,,,,,,,,,,,,,,,,,,,,,,,,,,,,,,,,,,,,,,,,,,,,,,,,,,,,,1,49,109,21,1,N,M,C,o1_image,stimuli/out1.png,stimuli/correct_out1.png,stimuli/out2.png,,,,,,,,,,,,,,,,,,,,,,,,,,,,,,,,,,,,,,
,,65c636b3226605112093d9cf,21,female,2024-04-16_12h21.48.575,stockport_simplified,2022.2.4,Win32,60.60606061,661e456ee6de07e70aa9ef7b,661e5126ac52da4490fb11dc,,,,,,,,,,,,,,,,,,,,,,,,,,,,,,,,,,780.3825,782.0638,"[1,4,5,7,6,2,3,8]","[[0.3,0.2],[-0.3,0.2]]","[[0.125,-0.2],[-0.125,-0.2]]",0.154629686,-0.176851866,1,0,0,1.1655,o1_image,782.0646,1,782.5636,782.5636,784.5637,0,0,0,0,1,,,,,,,,,,,,,,,,,,,,,,,,,,,,,,,,,,,,,,,,,,,,,,,,,,
,,65c636b3226605112093d9cf,21,female,2024-04-16_12h21.48.575,stockport_simplified,2022.2.4,Win32,60.60606061,661e456ee6de07e70aa9ef7b,661e5126ac52da4490fb11dc,,,,,,,,,,,,,,,,,,,,,,,,,,,,,,,,,,,,,,,,,,,,,,,,,,,,,,,,1,50,110,53,1,N,M,C,o1_image,stimuli/out1.png,stimuli/correct_out1.png,stimuli/out2.png,,,,,,,,,,,,,,,,,,,,,,,,,,,,,,,,,,,,,,
,,65c636b3226605112093d9cf,21,female,2024-04-16_12h21.48.575,stockport_simplified,2022.2.4,Win32,60.60606061,661e456ee6de07e70aa9ef7b,661e5126ac52da4490fb11dc,,,,,,,,,,,,,,,,,,,,,,,,,,,,,,,,,,784.5648,787.7136,"[1,4,5,7,6,2,3,8]","[[0.3,0.2],[-0.3,0.2]]","[[-0.125,-0.2],[0.125,-0.2]]",-0.112962935,-0.197222222,1,0,0,2.6322,o1_image,787.7158,1,788.2127,788.2127,790.212,0,0,0,0,1,,,,,,,,,,,,,,,,,,,,,,,,,,,,,,,,,,,,,,,,,,,,,,,,,,
,,65c636b3226605112093d9cf,21,female,2024-04-16_12h21.48.575,stockport_simplified,2022.2.4,Win32,60.60606061,661e456ee6de07e70aa9ef7b,661e5126ac52da4490fb11dc,,,,,,,,,,,,,,,,,,,,,,,,,,,,,,,,,,,,,,,,,,,,,,,,,,,,,,,,1,51,111,8,1,A,Y,N,o1_image,stimuli/out1.png,stimuli/correct_out1.png,stimuli/out2.png,,,,,,,,,,,,,,,,,,,,,,,,,,,,,,,,,,,,,,
,,65c636b3226605112093d9cf,21,female,2024-04-16_12h21.48.575,stockport_simplified,2022.2.4,Win32,60.60606061,661e456ee6de07e70aa9ef7b,661e5126ac52da4490fb11dc,,,,,,,,,,,,,,,,,,,,,,,,,,,,,,,,,,790.2129,792.1468,"[1,4,5,7,6,2,3,8]","[[-0.3,0.2],[0.3,0.2]]","[[-0.125,-0.2],[0.125,-0.2]]",0.146296353,-0.164814843,1,0,0,1.4173,o2_image,792.1496,1,792.6385,792.6385,794.6337,0,0,0,0,1,,,,,,,,,,,,,,,,,,,,,,,,,,,,,,,,,,,,,,,,,,,,,,,,,,
,,65c636b3226605112093d9cf,21,female,2024-04-16_12h21.48.575,stockport_simplified,2022.2.4,Win32,60.60606061,661e456ee6de07e70aa9ef7b,661e5126ac52da4490fb11dc,,,,,,,,,,,,,,,,,,,,,,,,,,,,,,,,,,,,,,,,,,,,,,,,,,,,,,,,1,52,112,43,1,B,X,N,o2_image,stimuli/out2.png,stimuli/out1.png,stimuli/correct_out2.png,,,,,,,,,,,,,,,,,,,,,,,,,,,,,,,,,,,,,,
,,65c636b3226605112093d9cf,21,female,2024-04-16_12h21.48.575,stockport_simplified,2022.2.4,Win32,60.60606061,661e456ee6de07e70aa9ef7b,661e5126ac52da4490fb11dc,,,,,,,,,,,,,,,,,,,,,,,,,,,,,,,,,,794.6355,797.5603,"[1,4,5,7,6,2,3,8]","[[0.3,0.2],[-0.3,0.2]]","[[-0.125,-0.2],[0.125,-0.2]]",0.10648151,-0.219444444,1,0,0,2.4135,o2_image,797.563,1,798.0598,798.0598,800.0593,0,0,0,0,1,,,,,,,,,,,,,,,,,,,,,,,,,,,,,,,,,,,,,,,,,,,,,,,,,,
,,65c636b3226605112093d9cf,21,female,2024-04-16_12h21.48.575,stockport_simplified,2022.2.4,Win32,60.60606061,661e456ee6de07e70aa9ef7b,661e5126ac52da4490fb11dc,,,,,,,,,,,,,,,,,,,,,,,,,,,,,,,,,,,,,,,,,,,,,,,,,,,,,,,,1,53,113,59,1,N,M,D,o2_image,stimuli/out2.png,stimuli/out1.png,stimuli/correct_out2.png,,,,,,,,,,,,,,,,,,,,,,,,,,,,,,,,,,,,,,
,,65c636b3226605112093d9cf,21,female,2024-04-16_12h21.48.575,stockport_simplified,2022.2.4,Win32,60.60606061,661e456ee6de07e70aa9ef7b,661e5126ac52da4490fb11dc,,,,,,,,,,,,,,,,,,,,,,,,,,,,,,,,,,800.0604,802.7011,"[1,4,5,7,6,2,3,8]","[[0.3,0.2],[-0.3,0.2]]","[[-0.125,-0.2],[0.125,-0.2]]",0.107407464,-0.217592621,1,0,0,2.1245,o2_image,802.7339,1,803.2252,803.2252,805.2245,0,0,0,0,1,,,,,,,,,,,,,,,,,,,,,,,,,,,,,,,,,,,,,,,,,,,,,,,,,,
,,65c636b3226605112093d9cf,21,female,2024-04-16_12h21.48.575,stockport_simplified,2022.2.4,Win32,60.60606061,661e456ee6de07e70aa9ef7b,661e5126ac52da4490fb11dc,,,,,,,,,,,,,,,,,,,,,,,,,,,,,,,,,,,,,,,,,,,,,,,,,,,,,,,,1,54,114,46,1,B,Y,N,o2_image,stimuli/out2.png,stimuli/out1.png,stimuli/correct_out2.png,,,,,,,,,,,,,,,,,,,,,,,,,,,,,,,,,,,,,,
,,65c636b3226605112093d9cf,21,female,2024-04-16_12h21.48.575,stockport_simplified,2022.2.4,Win32,60.60606061,661e456ee6de07e70aa9ef7b,661e5126ac52da4490fb11dc,,,,,,,,,,,,,,,,,,,,,,,,,,,,,,,,,,805.2257,807.1812,"[1,4,5,7,6,2,3,8]","[[-0.3,0.2],[0.3,0.2]]","[[-0.125,-0.2],[0.125,-0.2]]",0.092592621,-0.217592621,1,0,0,1.439,o2_image,807.183,1,807.6739,807.674,809.6737,0,0,0,0,1,,,,,,,,,,,,,,,,,,,,,,,,,,,,,,,,,,,,,,,,,,,,,,,,,,
,,65c636b3226605112093d9cf,21,female,2024-04-16_12h21.48.575,stockport_simplified,2022.2.4,Win32,60.60606061,661e456ee6de07e70aa9ef7b,661e5126ac52da4490fb11dc,,,,,,,,,,,,,,,,,,,,,,,,,,,,,,,,,,,,,,,,,,,,,,,,,,,,,,,,1,55,115,56,1,N,M,D,o2_image,stimuli/out2.png,stimuli/out1.png,stimuli/correct_out2.png,,,,,,,,,,,,,,,,,,,,,,,,,,,,,,,,,,,,,,
,,65c636b3226605112093d9cf,21,female,2024-04-16_12h21.48.575,stockport_simplified,2022.2.4,Win32,60.60606061,661e456ee6de07e70aa9ef7b,661e5126ac52da4490fb11dc,,,,,,,,,,,,,,,,,,,,,,,,,,,,,,,,,,809.6749,811.709,"[1,4,5,7,6,2,3,8]","[[-0.3,0.2],[0.3,0.2]]","[[-0.125,-0.2],[0.125,-0.2]]",-0.120370314,-0.202777778,1,0,0,1.5173,o1_image,811.7111,1,812.206,812.206,814.2054,0,0,0,0,1,,,,,,,,,,,,,,,,,,,,,,,,,,,,,,,,,,,,,,,,,,,,,,,,,,
,,65c636b3226605112093d9cf,21,female,2024-04-16_12h21.48.575,stockport_simplified,2022.2.4,Win32,60.60606061,661e456ee6de07e70aa9ef7b,661e5126ac52da4490fb11dc,,,,,,,,,,,,,,,,,,,,,,,,,,,,,,,,,,,,,,,,,,,,,,,,,,,,,,,,1,56,116,39,1,A,Y,N,o1_image,stimuli/out1.png,stimuli/correct_out1.png,stimuli/out2.png,,,,,,,,,,,,,,,,,,,,,,,,,,,,,,,,,,,,,,
,,65c636b3226605112093d9cf,21,female,2024-04-16_12h21.48.575,stockport_simplified,2022.2.4,Win32,60.60606061,661e456ee6de07e70aa9ef7b,661e5126ac52da4490fb11dc,,,,,,,,,,,,,,,,,,,,,,,,,,,,,,,,,,814.2066,816.3387,"[1,4,5,7,6,2,3,8]","[[0.3,0.2],[-0.3,0.2]]","[[-0.125,-0.2],[0.125,-0.2]]",-0.091666667,-0.194444444,1,0,0,1.616,o1_image,816.341,1,816.8379,816.838,818.8377,0,0,0,0,1,,,,,,,,,,,,,,,,,,,,,,,,,,,,,,,,,,,,,,,,,,,,,,,,,,
,,65c636b3226605112093d9cf,21,female,2024-04-16_12h21.48.575,stockport_simplified,2022.2.4,Win32,60.60606061,661e456ee6de07e70aa9ef7b,661e5126ac52da4490fb11dc,,,,,,,,,,,,,,,,,,,,,,,,,,,,,,,,,,,,,,,,,,,,,,,,,,,,,,,,1,57,117,7,1,A,Y,N,o1_image,stimuli/out1.png,stimuli/correct_out1.png,stimuli/out2.png,,,,,,,,,,,,,,,,,,,,,,,,,,,,,,,,,,,,,,
,,65c636b3226605112093d9cf,21,female,2024-04-16_12h21.48.575,stockport_simplified,2022.2.4,Win32,60.60606061,661e456ee6de07e70aa9ef7b,661e5126ac52da4490fb11dc,,,,,,,,,,,,,,,,,,,,,,,,,,,,,,,,,,818.8389,821.9219,"[1,4,5,7,6,2,3,8]","[[0.3,0.2],[-0.3,0.2]]","[[0.125,-0.2],[-0.125,-0.2]]",-0.100925869,-0.177777778,1,0,0,2.5671,o2_image,821.9244,1,822.4201,822.4203,824.4204,0,0,0,0,1,,,,,,,,,,,,,,,,,,,,,,,,,,,,,,,,,,,,,,,,,,,,,,,,,,
,,65c636b3226605112093d9cf,21,female,2024-04-16_12h21.48.575,stockport_simplified,2022.2.4,Win32,60.60606061,661e456ee6de07e70aa9ef7b,661e5126ac52da4490fb11dc,,,,,,,,,,,,,,,,,,,,,,,,,,,,,,,,,,,,,,,,,,,,,,,,,,,,,,,,1,58,118,16,1,B,Y,N,o2_image,stimuli/out2.png,stimuli/out1.png,stimuli/correct_out2.png,,,,,,,,,,,,,,,,,,,,,,,,,,,,,,,,,,,,,,
,,65c636b3226605112093d9cf,21,female,2024-04-16_12h21.48.575,stockport_simplified,2022.2.4,Win32,60.60606061,661e456ee6de07e70aa9ef7b,661e5126ac52da4490fb11dc,,,,,,,,,,,,,,,,,,,,,,,,,,,,,,,,,,824.4226,826.8194,"[1,4,5,7,6,2,3,8]","[[-0.3,0.2],[0.3,0.2]]","[[0.125,-0.2],[-0.125,-0.2]]",0.108333333,-0.183333333,1,0,0,1.8812,o1_image,826.8542,1,827.3518,827.3519,829.3514,0,0,0,0,1,,,,,,,,,,,,,,,,,,,,,,,,,,,,,,,,,,,,,,,,,,,,,,,,,,
,,65c636b3226605112093d9cf,21,female,2024-04-16_12h21.48.575,stockport_simplified,2022.2.4,Win32,60.60606061,661e456ee6de07e70aa9ef7b,661e5126ac52da4490fb11dc,,,,,,,,,,,,,,,,,,,,,,,,,,,,,,,,,,,,,,,,,,,,,,,,,,,,,,,,1,59,119,3,1,A,X,N,o1_image,stimuli/out1.png,stimuli/correct_out1.png,stimuli/out2.png,,,,,,,,,,,,,,,,,,,,,,,,,,,,,,,,,,,,,,
,,65c636b3226605112093d9cf,21,female,2024-04-16_12h21.48.575,stockport_simplified,2022.2.4,Win32,60.60606061,661e456ee6de07e70aa9ef7b,661e5126ac52da4490fb11dc,,,,,,,,,,,,,,,,,,,,,,,,,,,,,,,,,,829.41,831.5363,"[1,4,5,7,6,2,3,8]","[[-0.3,0.2],[0.3,0.2]]","[[-0.125,-0.2],[0.125,-0.2]]",0.159259288,-0.2,1,0,0,1.6173,o2_image,831.5399,0,832.0344,832.0346,834.0336,,,,,,,,,,,,,,,,,,0,0,0,0,1,,,,,,,,,,,,,,,,,,,,,,,,,,,,,,,,,
,,65c636b3226605112093d9cf,21,female,2024-04-16_12h21.48.575,stockport_simplified,2022.2.4,Win32,60.60606061,661e456ee6de07e70aa9ef7b,661e5126ac52da4490fb11dc,,,,,,,,,,,,,,,,,,,,,,,,,,,,,,,,,,,,,,,,,,,,,,,,,,,,,,,,,,,,,B,X,N,o1_image,stimuli/out1.png,stimuli/correct_out1.png,stimuli/out2.png,,,,,,0,0,0,25,1,,,,,,,,,,,,,,,,,,,,,,,,,,,,
,,65c636b3226605112093d9cf,21,female,2024-04-16_12h21.48.575,stockport_simplified,2022.2.4,Win32,60.60606061,661e456ee6de07e70aa9ef7b,661e5126ac52da4490fb11dc,,,,,,,,,,,,,,,,,,,,,,,,,,,,,,,,,,834.0355,836.3007,"[1,4,5,7,6,2,3,8]","[[-0.3,0.2],[0.3,0.2]]","[[-0.125,-0.2],[0.125,-0.2]]",-0.078703647,-0.198148176,1,0,0,1.7492,o1_image,836.3045,1,836.7997,836.7998,838.7992,,,,,,,,,,,,,,,,,,0,0,0,0,1,,,,,,,,,,,,,,,,,,,,,,,,,,,,,,,,,
,,65c636b3226605112093d9cf,21,female,2024-04-16_12h21.48.575,stockport_simplified,2022.2.4,Win32,60.60606061,661e456ee6de07e70aa9ef7b,661e5126ac52da4490fb11dc,,,,,,,,,,,,,,,,,,,,,,,,,,,,,,,,,,,,,,,,,,,,,,,,,,,,,,,,,,,,,N,M,C,o1_image,stimuli/out1.png,stimuli/correct_out1.png,stimuli/out2.png,,,,,,0,1,1,46,1,,,,,,,,,,,,,,,,,,,,,,,,,,,,
,,65c636b3226605112093d9cf,21,female,2024-04-16_12h21.48.575,stockport_simplified,2022.2.4,Win32,60.60606061,661e456ee6de07e70aa9ef7b,661e5126ac52da4490fb11dc,,,,,,,,,,,,,,,,,,,,,,,,,,,,,,,,,,838.8015,840.874,"[1,4,5,7,6,2,3,8]","[[-0.3,0.2],[0.3,0.2]]","[[0.125,-0.2],[-0.125,-0.2]]",0.1,-0.204629644,1,0,0,1.5689,o1_image,840.8759,1,841.3652,841.3653,843.3542,,,,,,,,,,,,,,,,,,0,0,0,0,1,,,,,,,,,,,,,,,,,,,,,,,,,,,,,,,,,
,,65c636b3226605112093d9cf,21,female,2024-04-16_12h21.48.575,stockport_simplified,2022.2.4,Win32,60.60606061,661e456ee6de07e70aa9ef7b,661e5126ac52da4490fb11dc,,,,,,,,,,,,,,,,,,,,,,,,,,,,,,,,,,,,,,,,,,,,,,,,,,,,,,,,,,,,,N,M,C,o1_image,stimuli/out1.png,stimuli/correct_out1.png,stimuli/out2.png,,,,,,0,2,2,43,1,,,,,,,,,,,,,,,,,,,,,,,,,,,,
,,65c636b3226605112093d9cf,21,female,2024-04-16_12h21.48.575,stockport_simplified,2022.2.4,Win32,60.60606061,661e456ee6de07e70aa9ef7b,661e5126ac52da4490fb11dc,,,,,,,,,,,,,,,,,,,,,,,,,,,,,,,,,,843.3555,845.6384,"[1,4,5,7,6,2,3,8]","[[0.3,0.2],[-0.3,0.2]]","[[0.125,-0.2],[-0.125,-0.2]]",-0.082407379,-0.190740755,1,0,0,1.7664,o2_image,845.6401,1,846.1307,846.131,848.1299,,,,,,,,,,,,,,,,,,0,0,0,0,1,,,,,,,,,,,,,,,,,,,,,,,,,,,,,,,,,
