counterbalance_2.started,counterbalance_2.stopped,participant,age,gender,date,expName,psychopyVersion,OS,frameRate,STUDY_ID,SESSION_ID,information_2.started,information_2.stopped,information_loop.thisRepN,information_loop.thisTrialN,information_loop.thisN,information_loop.thisIndex,information_loop.ran,information,consent_2.started,consent_2.stopped,slider_1.response,slider_2.response,slider_3.response,slider_4.response,slider_5.response,slider_6.response,instructions.started,instructions.stopped,task1_instr.thisRepN,task1_instr.thisTrialN,task1_instr.thisN,task1_instr.thisIndex,task1_instr.ran,task1,comprehension1_2.started,comprehension1_2.stopped,comp1_mouse.x,comp1_mouse.y,comp1_mouse.leftButton,comp1_mouse.midButton,comp1_mouse.rightButton,comp1_mouse.time,comp1_mouse.clicked_name,cue_o__trial_2.started,cue_o__trial_2.stopped,order,cue_order,out_order,cue_o_mouse.x,cue_o_mouse.y,cue_o_mouse.leftButton,cue_o_mouse.midButton,cue_o_mouse.rightButton,cue_o_mouse.time,cue_o_mouse.clicked_name,cue_selection_2.started,correct_answer,cue_selection_2.stopped,feedback_2.started,feedback_2.stopped,feedback_loop.thisRepN,feedback_loop.thisTrialN,feedback_loop.thisN,feedback_loop.thisIndex,feedback_loop.ran,stage1_trials.thisRepN,stage1_trials.thisTrialN,stage1_trials.thisN,stage1_trials.thisIndex,stage1_trials.ran,cue1,cue2,cue3,outcome,correct_out,o1_feedback,o2_feedback,stage2_feedback_loop.thisRepN,stage2_feedback_loop.thisTrialN,stage2_feedback_loop.thisN,stage2_feedback_loop.thisIndex,stage2_feedback_loop.ran,stage2_trials.thisRepN,stage2_trials.thisTrialN,stage2_trials.thisN,stage2_trials.thisIndex,stage2_trials.ran,stage3_feedback_loop.thisRepN,stage3_feedback_loop.thisTrialN,stage3_feedback_loop.thisN,stage3_feedback_loop.thisIndex,stage3_feedback_loop.ran,stage3_trials.thisRepN,stage3_trials.thisTrialN,stage3_trials.thisN,stage3_trials.thisIndex,stage3_trials.ran,debrief_2.started,debrief_2.stopped,debrief_loop.thisRepN,debrief_loop.thisTrialN,debrief_loop.thisN,debrief_loop.thisIndex,debrief_loop.ran,debrief_img,compr1_completed.thisRepN,compr1_completed.thisTrialN,compr1_completed.thisN,compr1_completed.thisIndex,compr1_completed.ran,consent_loop.thisRepN,consent_loop.thisTrialN,consent_loop.thisN,consent_loop.thisIndex,consent_loop.ran
0.0003,0.0006,612520bd6605794b27e6a0fd,36,male,2024-04-19_17h37.13.785,stockport_simplified,2022.2.4,Win32,59.88023952,661e456ee6de07e70aa9ef7b,66229d97e63d311ac0a28c58,,,,,,,,,,,,,,,,,,,,,,,,,,,,,,,,,,,,,,,,,,,,,,,,,,,,,,,,,,,,,,,,,,,,,,,,,,,,,,,,,,,,,,,,,,,,,,,,,,,,,,,,,
,,612520bd6605794b27e6a0fd,36,male,2024-04-19_17h37.13.785,stockport_simplified,2022.2.4,Win32,59.88023952,661e456ee6de07e70aa9ef7b,66229d97e63d311ac0a28c58,0.0218,59.6377,0,0,0,0,1,instructions/info1.png,,,,,,,,,,,,,,,,,,,,,,,,,,,,,,,,,,,,,,,,,,,,,,,,,,,,,,,,,,,,,,,,,,,,,,,,,,,,,,,,,,,,,,,,,,,,,,,,,
,,612520bd6605794b27e6a0fd,36,male,2024-04-19_17h37.13.785,stockport_simplified,2022.2.4,Win32,59.88023952,661e456ee6de07e70aa9ef7b,66229d97e63d311ac0a28c58,59.6381,72.1601,0,1,1,1,1,instructions/info2.png,,,,,,,,,,,,,,,,,,,,,,,,,,,,,,,,,,,,,,,,,,,,,,,,,,,,,,,,,,,,,,,,,,,,,,,,,,,,,,,,,,,,,,,,,,,,,,,,,
,,612520bd6605794b27e6a0fd,36,male,2024-04-19_17h37.13.785,stockport_simplified,2022.2.4,Win32,59.88023952,661e456ee6de07e70aa9ef7b,66229d97e63d311ac0a28c58,72.1696,86.806,0,2,2,2,1,instructions/info3.png,,,,,,,,,,,,,,,,,,,,,,,,,,,,,,,,,,,,,,,,,,,,,,,,,,,,,,,,,,,,,,,,,,,,,,,,,,,,,,,,,,,,,,,,,,,,,,,,,
,,612520bd6605794b27e6a0fd,36,male,2024-04-19_17h37.13.785,stockport_simplified,2022.2.4,Win32,59.88023952,661e456ee6de07e70aa9ef7b,66229d97e63d311ac0a28c58,,,,,,,,,86.8156,103.7879,1,1,1,1,1,1,,,,,,,,,,,,,,,,,,,,,,,,,,,,,,,,,,,,,,,,,,,,,,,,,,,,,,,,,,,,,,,,,,,,,,,,,,,,,,,,,,,,,,,,,
,,612520bd6605794b27e6a0fd,36,male,2024-04-19_17h37.13.785,stockport_simplified,2022.2.4,Win32,59.88023952,661e456ee6de07e70aa9ef7b,66229d97e63d311ac0a28c58,,,,,,,,,,,,,,,,,103.7957,136.5661,0,0,0,0,1,instructions/task1_1.png,,,,,,,,,,,,,,,,,,,,,,,,,,,,,,,,,,,,,,,,,,,,,,,,,,,,,,,,,,,,,,,,,,,,,,,,,,,,,,,,,
,,612520bd6605794b27e6a0fd,36,male,2024-04-19_17h37.13.785,stockport_simplified,2022.2.4,Win32,59.88023952,661e456ee6de07e70aa9ef7b,66229d97e63d311ac0a28c58,,,,,,,,,,,,,,,,,136.5751,155.065,0,1,1,1,1,instructions/task1_2.png,,,,,,,,,,,,,,,,,,,,,,,,,,,,,,,,,,,,,,,,,,,,,,,,,,,,,,,,,,,,,,,,,,,,,,,,,,,,,,,,,
,,612520bd6605794b27e6a0fd,36,male,2024-04-19_17h37.13.785,stockport_simplified,2022.2.4,Win32,59.88023952,661e456ee6de07e70aa9ef7b,66229d97e63d311ac0a28c58,,,,,,,,,,,,,,,,,155.0741,177.5344,0,2,2,2,1,instructions/task1_3.png,,,,,,,,,,,,,,,,,,,,,,,,,,,,,,,,,,,,,,,,,,,,,,,,,,,,,,,,,,,,,,,,,,,,,,,,,,,,,,,,,
,,612520bd6605794b27e6a0fd,36,male,2024-04-19_17h37.13.785,stockport_simplified,2022.2.4,Win32,59.88023952,661e456ee6de07e70aa9ef7b,66229d97e63d311ac0a28c58,,,,,,,,,,,,,,,,,,,,,,,,,177.5357,219.7547,0.003333333,-0.325833333,1,0,0,42.2182,comp1_resp1,219.7781,221.6059,"[4,6,3,1,7,5,8,2]","[[0.3,0.2],[-0.3,0.2]]","[[-0.125,-0.2],[0.125,-0.2]]",-0.110833333,-0.2075,1,0,0,1.3171,o1_image,221.6073,1,222.1063,222.1065,224.1083,0,0,0,0,1,,,,,,,,,,,,,,,,,,,,,,,,,,,,,,,,,,,,,,,,,,,,,,,,,,
,,612520bd6605794b27e6a0fd,36,male,2024-04-19_17h37.13.785,stockport_simplified,2022.2.4,Win32,59.88023952,661e456ee6de07e70aa9ef7b,66229d97e63d311ac0a28c58,,,,,,,,,,,,,,,,,,,,,,,,,,,,,,,,,,,,,,,,,,,,,,,,,,,,,,,,0,0,0,4,1,A,X,N,o1_image,stimuli/out1.png,stimuli/correct_out1.png,stimuli/out2.png,,,,,,,,,,,,,,,,,,,,,,,,,,,,,,,,,,,,,,
,,612520bd6605794b27e6a0fd,36,male,2024-04-19_17h37.13.785,stockport_simplified,2022.2.4,Win32,59.88023952,661e456ee6de07e70aa9ef7b,66229d97e63d311ac0a28c58,,,,,,,,,,,,,,,,,,,,,,,,,,,,,,,,,,224.1093,226.7935,"[4,6,3,1,7,5,8,2]","[[0.3,0.2],[-0.3,0.2]]","[[0.125,-0.2],[-0.125,-0.2]]",-0.135833333,-0.188333333,1,0,0,2.1829,o2_image,226.7944,1,227.2939,227.2939,229.2958,0,0,0,0,1,,,,,,,,,,,,,,,,,,,,,,,,,,,,,,,,,,,,,,,,,,,,,,,,,,
,,612520bd6605794b27e6a0fd,36,male,2024-04-19_17h37.13.785,stockport_simplified,2022.2.4,Win32,59.88023952,661e456ee6de07e70aa9ef7b,66229d97e63d311ac0a28c58,,,,,,,,,,,,,,,,,,,,,,,,,,,,,,,,,,,,,,,,,,,,,,,,,,,,,,,,0,1,1,45,1,B,Y,N,o2_image,stimuli/out2.png,stimuli/out1.png,stimuli/correct_out2.png,,,,,,,,,,,,,,,,,,,,,,,,,,,,,,,,,,,,,,
,,612520bd6605794b27e6a0fd,36,male,2024-04-19_17h37.13.785,stockport_simplified,2022.2.4,Win32,59.88023952,661e456ee6de07e70aa9ef7b,66229d97e63d311ac0a28c58,,,,,,,,,,,,,,,,,,,,,,,,,,,,,,,,,,229.2966,231.7477,"[4,6,3,1,7,5,8,2]","[[0.3,0.2],[-0.3,0.2]]","[[-0.125,-0.2],[0.125,-0.2]]",-0.120833333,-0.1925,1,0,0,1.9341,o1_image,231.7486,1,232.2482,232.2482,234.25,0,0,0,0,1,,,,,,,,,,,,,,,,,,,,,,,,,,,,,,,,,,,,,,,,,,,,,,,,,,
,,612520bd6605794b27e6a0fd,36,male,2024-04-19_17h37.13.785,stockport_simplified,2022.2.4,Win32,59.88023952,661e456ee6de07e70aa9ef7b,66229d97e63d311ac0a28c58,,,,,,,,,,,,,,,,,,,,,,,,,,,,,,,,,,,,,,,,,,,,,,,,,,,,,,,,0,2,2,0,1,A,X,N,o1_image,stimuli/out1.png,stimuli/correct_out1.png,stimuli/out2.png,,,,,,,,,,,,,,,,,,,,,,,,,,,,,,,,,,,,,,
,,612520bd6605794b27e6a0fd,36,male,2024-04-19_17h37.13.785,stockport_simplified,2022.2.4,Win32,59.88023952,661e456ee6de07e70aa9ef7b,66229d97e63d311ac0a28c58,,,,,,,,,,,,,,,,,,,,,,,,,,,,,,,,,,234.2505,235.7512,"[4,6,3,1,7,5,8,2]","[[0.3,0.2],[-0.3,0.2]]","[[-0.125,-0.2],[0.125,-0.2]]",-0.120833333,-0.219166667,1,0,0,0.9836,o1_image,235.7521,0,236.2516,236.2517,238.2534,0,0,0,0,1,,,,,,,,,,,,,,,,,,,,,,,,,,,,,,,,,,,,,,,,,,,,,,,,,,
,,612520bd6605794b27e6a0fd,36,male,2024-04-19_17h37.13.785,stockport_simplified,2022.2.4,Win32,59.88023952,661e456ee6de07e70aa9ef7b,66229d97e63d311ac0a28c58,,,,,,,,,,,,,,,,,,,,,,,,,,,,,,,,,,,,,,,,,,,,,,,,,,,,,,,,0,3,3,43,1,B,X,N,o2_image,stimuli/out2.png,stimuli/out1.png,stimuli/correct_out2.png,,,,,,,,,,,,,,,,,,,,,,,,,,,,,,,,,,,,,,
,,612520bd6605794b27e6a0fd,36,male,2024-04-19_17h37.13.785,stockport_simplified,2022.2.4,Win32,59.88023952,661e456ee6de07e70aa9ef7b,66229d97e63d311ac0a28c58,,,,,,,,,,,,,,,,,,,,,,,,,,,,,,,,,,238.2539,240.2217,"[4,6,3,1,7,5,8,2]","[[0.3,0.2],[-0.3,0.2]]","[[-0.125,-0.2],[0.125,-0.2]]",0.126666667,-0.180833333,1,0,0,1.4511,o2_image,240.2225,1,240.7223,240.7224,242.7238,0,0,0,0,1,,,,,,,,,,,,,,,,,,,,,,,,,,,,,,,,,,,,,,,,,,,,,,,,,,
,,612520bd6605794b27e6a0fd,36,male,2024-04-19_17h37.13.785,stockport_simplified,2022.2.4,Win32,59.88023952,661e456ee6de07e70aa9ef7b,66229d97e63d311ac0a28c58,,,,,,,,,,,,,,,,,,,,,,,,,,,,,,,,,,,,,,,,,,,,,,,,,,,,,,,,0,4,4,42,1,B,X,N,o2_image,stimuli/out2.png,stimuli/out1.png,stimuli/correct_out2.png,,,,,,,,,,,,,,,,,,,,,,,,,,,,,,,,,,,,,,
,,612520bd6605794b27e6a0fd,36,male,2024-04-19_17h37.13.785,stockport_simplified,2022.2.4,Win32,59.88023952,661e456ee6de07e70aa9ef7b,66229d97e63d311ac0a28c58,,,,,,,,,,,,,,,,,,,,,,,,,,,,,,,,,,242.7245,245.3928,"[4,6,3,1,7,5,8,2]","[[0.3,0.2],[-0.3,0.2]]","[[0.125,-0.2],[-0.125,-0.2]]",0.164166667,-0.21,1,0,0,2.1513,o1_image,245.3936,0,245.8935,245.8935,247.8949,0,0,0,0,1,,,,,,,,,,,,,,,,,,,,,,,,,,,,,,,,,,,,,,,,,,,,,,,,,,
,,612520bd6605794b27e6a0fd,36,male,2024-04-19_17h37.13.785,stockport_simplified,2022.2.4,Win32,59.88023952,661e456ee6de07e70aa9ef7b,66229d97e63d311ac0a28c58,,,,,,,,,,,,,,,,,,,,,,,,,,,,,,,,,,,,,,,,,,,,,,,,,,,,,,,,0,5,5,19,1,B,Y,N,o2_image,stimuli/out2.png,stimuli/out1.png,stimuli/correct_out2.png,,,,,,,,,,,,,,,,,,,,,,,,,,,,,,,,,,,,,,
,,612520bd6605794b27e6a0fd,36,male,2024-04-19_17h37.13.785,stockport_simplified,2022.2.4,Win32,59.88023952,661e456ee6de07e70aa9ef7b,66229d97e63d311ac0a28c58,,,,,,,,,,,,,,,,,,,,,,,,,,,,,,,,,,247.8954,250.0469,"[4,6,3,1,7,5,8,2]","[[-0.3,0.2],[0.3,0.2]]","[[-0.125,-0.2],[0.125,-0.2]]",-0.106666667,-0.1975,1,0,0,1.6343,o1_image,250.0477,0,250.5473,250.5473,252.5491,0,0,0,0,1,,,,,,,,,,,,,,,,,,,,,,,,,,,,,,,,,,,,,,,,,,,,,,,,,,
,,612520bd6605794b27e6a0fd,36,male,2024-04-19_17h37.13.785,stockport_simplified,2022.2.4,Win32,59.88023952,661e456ee6de07e70aa9ef7b,66229d97e63d311ac0a28c58,,,,,,,,,,,,,,,,,,,,,,,,,,,,,,,,,,,,,,,,,,,,,,,,,,,,,,,,0,6,6,29,1,N,M,D,o2_image,stimuli/out2.png,stimuli/out1.png,stimuli/correct_out2.png,,,,,,,,,,,,,,,,,,,,,,,,,,,,,,,,,,,,,,
,,612520bd6605794b27e6a0fd,36,male,2024-04-19_17h37.13.785,stockport_simplified,2022.2.4,Win32,59.88023952,661e456ee6de07e70aa9ef7b,66229d97e63d311ac0a28c58,,,,,,,,,,,,,,,,,,,,,,,,,,,,,,,,,,252.5495,254.7176,"[4,6,3,1,7,5,8,2]","[[0.3,0.2],[-0.3,0.2]]","[[0.125,-0.2],[-0.125,-0.2]]",-0.1125,-0.175833333,1,0,0,1.6508,o2_image,254.7185,0,255.2178,255.2179,257.2197,0,0,0,0,1,,,,,,,,,,,,,,,,,,,,,,,,,,,,,,,,,,,,,,,,,,,,,,,,,,
,,612520bd6605794b27e6a0fd,36,male,2024-04-19_17h37.13.785,stockport_simplified,2022.2.4,Win32,59.88023952,661e456ee6de07e70aa9ef7b,66229d97e63d311ac0a28c58,,,,,,,,,,,,,,,,,,,,,,,,,,,,,,,,,,,,,,,,,,,,,,,,,,,,,,,,0,7,7,9,1,A,Y,N,o1_image,stimuli/out1.png,stimuli/correct_out1.png,stimuli/out2.png,,,,,,,,,,,,,,,,,,,,,,,,,,,,,,,,,,,,,,
,,612520bd6605794b27e6a0fd,36,male,2024-04-19_17h37.13.785,stockport_simplified,2022.2.4,Win32,59.88023952,661e456ee6de07e70aa9ef7b,66229d97e63d311ac0a28c58,,,,,,,,,,,,,,,,,,,,,,,,,,,,,,,,,,257.2201,260.2389,"[4,6,3,1,7,5,8,2]","[[-0.3,0.2],[0.3,0.2]]","[[0.125,-0.2],[-0.125,-0.2]]",-0.09,-0.2025,1,0,0,2.5016,o2_image,260.2478,1,260.7394,260.7395,262.7412,0,0,0,0,1,,,,,,,,,,,,,,,,,,,,,,,,,,,,,,,,,,,,,,,,,,,,,,,,,,
,,612520bd6605794b27e6a0fd,36,male,2024-04-19_17h37.13.785,stockport_simplified,2022.2.4,Win32,59.88023952,661e456ee6de07e70aa9ef7b,66229d97e63d311ac0a28c58,,,,,,,,,,,,,,,,,,,,,,,,,,,,,,,,,,,,,,,,,,,,,,,,,,,,,,,,0,8,8,14,1,B,X,N,o2_image,stimuli/out2.png,stimuli/out1.png,stimuli/correct_out2.png,,,,,,,,,,,,,,,,,,,,,,,,,,,,,,,,,,,,,,
,,612520bd6605794b27e6a0fd,36,male,2024-04-19_17h37.13.785,stockport_simplified,2022.2.4,Win32,59.88023952,661e456ee6de07e70aa9ef7b,66229d97e63d311ac0a28c58,,,,,,,,,,,,,,,,,,,,,,,,,,,,,,,,,,262.7419,265.727,"[4,6,3,1,7,5,8,2]","[[0.3,0.2],[-0.3,0.2]]","[[0.125,-0.2],[-0.125,-0.2]]",0.074166667,-0.2125,1,0,0,2.4682,o1_image,265.7279,1,266.2275,266.2275,268.2293,0,0,0,0,1,,,,,,,,,,,,,,,,,,,,,,,,,,,,,,,,,,,,,,,,,,,,,,,,,,
,,612520bd6605794b27e6a0fd,36,male,2024-04-19_17h37.13.785,stockport_simplified,2022.2.4,Win32,59.88023952,661e456ee6de07e70aa9ef7b,66229d97e63d311ac0a28c58,,,,,,,,,,,,,,,,,,,,,,,,,,,,,,,,,,,,,,,,,,,,,,,,,,,,,,,,0,9,9,20,1,N,M,C,o1_image,stimuli/out1.png,stimuli/correct_out1.png,stimuli/out2.png,,,,,,,,,,,,,,,,,,,,,,,,,,,,,,,,,,,,,,
,,612520bd6605794b27e6a0fd,36,male,2024-04-19_17h37.13.785,stockport_simplified,2022.2.4,Win32,59.88023952,661e456ee6de07e70aa9ef7b,66229d97e63d311ac0a28c58,,,,,,,,,,,,,,,,,,,,,,,,,,,,,,,,,,268.2298,271.1817,"[4,6,3,1,7,5,8,2]","[[0.3,0.2],[-0.3,0.2]]","[[-0.125,-0.2],[0.125,-0.2]]",0.1225,-0.204166667,1,0,0,2.435,o2_image,271.1826,1,271.682,271.6821,273.6839,0,0,0,0,1,,,,,,,,,,,,,,,,,,,,,,,,,,,,,,,,,,,,,,,,,,,,,,,,,,
,,612520bd6605794b27e6a0fd,36,male,2024-04-19_17h37.13.785,stockport_simplified,2022.2.4,Win32,59.88023952,661e456ee6de07e70aa9ef7b,66229d97e63d311ac0a28c58,,,,,,,,,,,,,,,,,,,,,,,,,,,,,,,,,,,,,,,,,,,,,,,,,,,,,,,,0,10,10,40,1,B,X,N,o2_image,stimuli/out2.png,stimuli/out1.png,stimuli/correct_out2.png,,,,,,,,,,,,,,,,,,,,,,,,,,,,,,,,,,,,,,
,,612520bd6605794b27e6a0fd,36,male,2024-04-19_17h37.13.785,stockport_simplified,2022.2.4,Win32,59.88023952,661e456ee6de07e70aa9ef7b,66229d97e63d311ac0a28c58,,,,,,,,,,,,,,,,,,,,,,,,,,,,,,,,,,273.6843,276.6364,"[4,6,3,1,7,5,8,2]","[[-0.3,0.2],[0.3,0.2]]","[[0.125,-0.2],[-0.125,-0.2]]",0.136666667,-0.2,1,0,0,2.4348,o1_image,276.6454,1,277.1368,277.1368,279.1386,0,0,0,0,1,,,,,,,,,,,,,,,,,,,,,,,,,,,,,,,,,,,,,,,,,,,,,,,,,,
,,612520bd6605794b27e6a0fd,36,male,2024-04-19_17h37.13.785,stockport_simplified,2022.2.4,Win32,59.88023952,661e456ee6de07e70aa9ef7b,66229d97e63d311ac0a28c58,,,,,,,,,,,,,,,,,,,,,,,,,,,,,,,,,,,,,,,,,,,,,,,,,,,,,,,,0,11,11,22,1,N,M,C,o1_image,stimuli/out1.png,stimuli/correct_out1.png,stimuli/out2.png,,,,,,,,,,,,,,,,,,,,,,,,,,,,,,,,,,,,,,
,,612520bd6605794b27e6a0fd,36,male,2024-04-19_17h37.13.785,stockport_simplified,2022.2.4,Win32,59.88023952,661e456ee6de07e70aa9ef7b,66229d97e63d311ac0a28c58,,,,,,,,,,,,,,,,,,,,,,,,,,,,,,,,,,279.1389,281.2404,"[4,6,3,1,7,5,8,2]","[[0.3,0.2],[-0.3,0.2]]","[[0.125,-0.2],[-0.125,-0.2]]",-0.115,-0.185833333,1,0,0,1.6007,o2_image,281.2413,1,281.7408,281.7408,283.7428,0,0,0,0,1,,,,,,,,,,,,,,,,,,,,,,,,,,,,,,,,,,,,,,,,,,,,,,,,,,
,,612520bd6605794b27e6a0fd,36,male,2024-04-19_17h37.13.785,stockport_simplified,2022.2.4,Win32,59.88023952,661e456ee6de07e70aa9ef7b,66229d97e63d311ac0a28c58,,,,,,,,,,,,,,,,,,,,,,,,,,,,,,,,,,,,,,,,,,,,,,,,,,,,,,,,0,12,12,57,1,N,M,D,o2_image,stimuli/out2.png,stimuli/out1.png,stimuli/correct_out2.png,,,,,,,,,,,,,,,,,,,,,,,,,,,,,,,,,,,,,,
,,612520bd6605794b27e6a0fd,36,male,2024-04-19_17h37.13.785,stockport_simplified,2022.2.4,Win32,59.88023952,661e456ee6de07e70aa9ef7b,66229d97e63d311ac0a28c58,,,,,,,,,,,,,,,,,,,,,,,,,,,,,,,,,,283.7434,287.2955,"[4,6,3,1,7,5,8,2]","[[0.3,0.2],[-0.3,0.2]]","[[-0.125,-0.2],[0.125,-0.2]]",0.115,-0.189166667,1,0,0,3.0354,o2_image,287.3043,0,287.7961,287.7961,289.798,0,0,0,0,1,,,,,,,,,,,,,,,,,,,,,,,,,,,,,,,,,,,,,,,,,,,,,,,,,,
,,612520bd6605794b27e6a0fd,36,male,2024-04-19_17h37.13.785,stockport_simplified,2022.2.4,Win32,59.88023952,661e456ee6de07e70aa9ef7b,66229d97e63d311ac0a28c58,,,,,,,,,,,,,,,,,,,,,,,,,,,,,,,,,,,,,,,,,,,,,,,,,,,,,,,,0,13,13,38,1,A,Y,N,o1_image,stimuli/out1.png,stimuli/correct_out1.png,stimuli/out2.png,,,,,,,,,,,,,,,,,,,,,,,,,,,,,,,,,,,,,,
,,612520bd6605794b27e6a0fd,36,male,2024-04-19_17h37.13.785,stockport_simplified,2022.2.4,Win32,59.88023952,661e456ee6de07e70aa9ef7b,66229d97e63d311ac0a28c58,,,,,,,,,,,,,,,,,,,,,,,,,,,,,,,,,,289.7986,292.7502,"[4,6,3,1,7,5,8,2]","[[0.3,0.2],[-0.3,0.2]]","[[0.125,-0.2],[-0.125,-0.2]]",-0.135,-0.171666667,1,0,0,2.4342,o2_image,292.759,0,293.2508,293.2508,295.2526,0,0,0,0,1,,,,,,,,,,,,,,,,,,,,,,,,,,,,,,,,,,,,,,,,,,,,,,,,,,
,,612520bd6605794b27e6a0fd,36,male,2024-04-19_17h37.13.785,stockport_simplified,2022.2.4,Win32,59.88023952,661e456ee6de07e70aa9ef7b,66229d97e63d311ac0a28c58,,,,,,,,,,,,,,,,,,,,,,,,,,,,,,,,,,,,,,,,,,,,,,,,,,,,,,,,0,14,14,30,1,A,X,N,o1_image,stimuli/out1.png,stimuli/correct_out1.png,stimuli/out2.png,,,,,,,,,,,,,,,,,,,,,,,,,,,,,,,,,,,,,,
,,612520bd6605794b27e6a0fd,36,male,2024-04-19_17h37.13.785,stockport_simplified,2022.2.4,Win32,59.88023952,661e456ee6de07e70aa9ef7b,66229d97e63d311ac0a28c58,,,,,,,,,,,,,,,,,,,,,,,,,,,,,,,,,,295.2531,297.5379,"[4,6,3,1,7,5,8,2]","[[0.3,0.2],[-0.3,0.2]]","[[0.125,-0.2],[-0.125,-0.2]]",-0.1025,-0.171666667,1,0,0,1.7675,o2_image,297.5386,1,298.0386,298.0388,300.0401,0,0,0,0,1,,,,,,,,,,,,,,,,,,,,,,,,,,,,,,,,,,,,,,,,,,,,,,,,,,
,,612520bd6605794b27e6a0fd,36,male,2024-04-19_17h37.13.785,stockport_simplified,2022.2.4,Win32,59.88023952,661e456ee6de07e70aa9ef7b,66229d97e63d311ac0a28c58,,,,,,,,,,,,,,,,,,,,,,,,,,,,,,,,,,,,,,,,,,,,,,,,,,,,,,,,0,15,15,48,1,B,Y,N,o2_image,stimuli/out2.png,stimuli/out1.png,stimuli/correct_out2.png,,,,,,,,,,,,,,,,,,,,,,,,,,,,,,,,,,,,,,
,,612520bd6605794b27e6a0fd,36,male,2024-04-19_17h37.13.785,stockport_simplified,2022.2.4,Win32,59.88023952,661e456ee6de07e70aa9ef7b,66229d97e63d311ac0a28c58,,,,,,,,,,,,,,,,,,,,,,,,,,,,,,,,,,300.0404,302.0749,"[4,6,3,1,7,5,8,2]","[[0.3,0.2],[-0.3,0.2]]","[[-0.125,-0.2],[0.125,-0.2]]",0.145,-0.170833333,1,0,0,1.5174,o2_image,302.0756,1,302.5755,302.5755,304.5773,0,0,0,0,1,,,,,,,,,,,,,,,,,,,,,,,,,,,,,,,,,,,,,,,,,,,,,,,,,,
,,612520bd6605794b27e6a0fd,36,male,2024-04-19_17h37.13.785,stockport_simplified,2022.2.4,Win32,59.88023952,661e456ee6de07e70aa9ef7b,66229d97e63d311ac0a28c58,,,,,,,,,,,,,,,,,,,,,,,,,,,,,,,,,,,,,,,,,,,,,,,,,,,,,,,,0,16,16,11,1,B,X,N,o2_image,stimuli/out2.png,stimuli/out1.png,stimuli/correct_out2.png,,,,,,,,,,,,,,,,,,,,,,,,,,,,,,,,,,,,,,
,,612520bd6605794b27e6a0fd,36,male,2024-04-19_17h37.13.785,stockport_simplified,2022.2.4,Win32,59.88023952,661e456ee6de07e70aa9ef7b,66229d97e63d311ac0a28c58,,,,,,,,,,,,,,,,,,,,,,,,,,,,,,,,,,304.5779,307.6632,"[4,6,3,1,7,5,8,2]","[[0.3,0.2],[-0.3,0.2]]","[[-0.125,-0.2],[0.125,-0.2]]",-0.120833333,-0.195,1,0,0,2.5684,o1_image,307.664,1,308.1636,308.1636,310.1654,0,0,0,0,1,,,,,,,,,,,,,,,,,,,,,,,,,,,,,,,,,,,,,,,,,,,,,,,,,,
,,612520bd6605794b27e6a0fd,36,male,2024-04-19_17h37.13.785,stockport_simplified,2022.2.4,Win32,59.88023952,661e456ee6de07e70aa9ef7b,66229d97e63d311ac0a28c58,,,,,,,,,,,,,,,,,,,,,,,,,,,,,,,,,,,,,,,,,,,,,,,,,,,,,,,,0,17,17,37,1,A,Y,N,o1_image,stimuli/out1.png,stimuli/correct_out1.png,stimuli/out2.png,,,,,,,,,,,,,,,,,,,,,,,,,,,,,,,,,,,,,,
,,612520bd6605794b27e6a0fd,36,male,2024-04-19_17h37.13.785,stockport_simplified,2022.2.4,Win32,59.88023952,661e456ee6de07e70aa9ef7b,66229d97e63d311ac0a28c58,,,,,,,,,,,,,,,,,,,,,,,,,,,,,,,,,,310.1657,312.267,"[4,6,3,1,7,5,8,2]","[[0.3,0.2],[-0.3,0.2]]","[[0.125,-0.2],[-0.125,-0.2]]",-0.136666667,-0.175833333,1,0,0,1.5842,o2_image,312.2677,1,312.7675,312.7675,314.7694,0,0,0,0,1,,,,,,,,,,,,,,,,,,,,,,,,,,,,,,,,,,,,,,,,,,,,,,,,,,
,,612520bd6605794b27e6a0fd,36,male,2024-04-19_17h37.13.785,stockport_simplified,2022.2.4,Win32,59.88023952,661e456ee6de07e70aa9ef7b,66229d97e63d311ac0a28c58,,,,,,,,,,,,,,,,,,,,,,,,,,,,,,,,,,,,,,,,,,,,,,,,,,,,,,,,0,18,18,15,1,B,Y,N,o2_image,stimuli/out2.png,stimuli/out1.png,stimuli/correct_out2.png,,,,,,,,,,,,,,,,,,,,,,,,,,,,,,,,,,,,,,
,,612520bd6605794b27e6a0fd,36,male,2024-04-19_17h37.13.785,stockport_simplified,2022.2.4,Win32,59.88023952,661e456ee6de07e70aa9ef7b,66229d97e63d311ac0a28c58,,,,,,,,,,,,,,,,,,,,,,,,,,,,,,,,,,314.7699,317.1378,"[4,6,3,1,7,5,8,2]","[[-0.3,0.2],[0.3,0.2]]","[[0.125,-0.2],[-0.125,-0.2]]",0.125,-0.18,1,0,0,1.8507,o1_image,317.1386,1,317.6384,317.6384,319.6402,0,0,0,0,1,,,,,,,,,,,,,,,,,,,,,,,,,,,,,,,,,,,,,,,,,,,,,,,,,,
,,612520bd6605794b27e6a0fd,36,male,2024-04-19_17h37.13.785,stockport_simplified,2022.2.4,Win32,59.88023952,661e456ee6de07e70aa9ef7b,66229d97e63d311ac0a28c58,,,,,,,,,,,,,,,,,,,,,,,,,,,,,,,,,,,,,,,,,,,,,,,,,,,,,,,,0,19,19,21,1,N,M,C,o1_image,stimuli/out1.png,stimuli/correct_out1.png,stimuli/out2.png,,,,,,,,,,,,,,,,,,,,,,,,,,,,,,,,,,,,,,
,,612520bd6605794b27e6a0fd,36,male,2024-04-19_17h37.13.785,stockport_simplified,2022.2.4,Win32,59.88023952,661e456ee6de07e70aa9ef7b,66229d97e63d311ac0a28c58,,,,,,,,,,,,,,,,,,,,,,,,,,,,,,,,,,319.6406,321.9755,"[4,6,3,1,7,5,8,2]","[[0.3,0.2],[-0.3,0.2]]","[[0.125,-0.2],[-0.125,-0.2]]",-0.091666667,-0.2025,1,0,0,1.8173,o2_image,321.9843,1,322.4759,322.4759,324.4776,0,0,0,0,1,,,,,,,,,,,,,,,,,,,,,,,,,,,,,,,,,,,,,,,,,,,,,,,,,,
,,612520bd6605794b27e6a0fd,36,male,2024-04-19_17h37.13.785,stockport_simplified,2022.2.4,Win32,59.88023952,661e456ee6de07e70aa9ef7b,66229d97e63d311ac0a28c58,,,,,,,,,,,,,,,,,,,,,,,,,,,,,,,,,,,,,,,,,,,,,,,,,,,,,,,,0,20,20,16,1,B,Y,N,o2_image,stimuli/out2.png,stimuli/out1.png,stimuli/correct_out2.png,,,,,,,,,,,,,,,,,,,,,,,,,,,,,,,,,,,,,,
,,612520bd6605794b27e6a0fd,36,male,2024-04-19_17h37.13.785,stockport_simplified,2022.2.4,Win32,59.88023952,661e456ee6de07e70aa9ef7b,66229d97e63d311ac0a28c58,,,,,,,,,,,,,,,,,,,,,,,,,,,,,,,,,,324.4781,327.4975,"[4,6,3,1,7,5,8,2]","[[-0.3,0.2],[0.3,0.2]]","[[0.125,-0.2],[-0.125,-0.2]]",0.11,-0.188333333,1,0,0,2.5021,o1_image,327.4979,1,327.9975,327.9975,329.9991,0,0,0,0,1,,,,,,,,,,,,,,,,,,,,,,,,,,,,,,,,,,,,,,,,,,,,,,,,,,
,,612520bd6605794b27e6a0fd,36,male,2024-04-19_17h37.13.785,stockport_simplified,2022.2.4,Win32,59.88023952,661e456ee6de07e70aa9ef7b,66229d97e63d311ac0a28c58,,,,,,,,,,,,,,,,,,,,,,,,,,,,,,,,,,,,,,,,,,,,,,,,,,,,,,,,0,21,21,33,1,A,X,N,o1_image,stimuli/out1.png,stimuli/correct_out1.png,stimuli/out2.png,,,,,,,,,,,,,,,,,,,,,,,,,,,,,,,,,,,,,,
,,612520bd6605794b27e6a0fd,36,male,2024-04-19_17h37.13.785,stockport_simplified,2022.2.4,Win32,59.88023952,661e456ee6de07e70aa9ef7b,66229d97e63d311ac0a28c58,,,,,,,,,,,,,,,,,,,,,,,,,,,,,,,,,,329.9995,332.2011,"[4,6,3,1,7,5,8,2]","[[0.3,0.2],[-0.3,0.2]]","[[-0.125,-0.2],[0.125,-0.2]]",0.116666667,-0.200833333,1,0,0,1.684,o2_image,332.2017,1,332.7013,332.7014,334.7032,0,0,0,0,1,,,,,,,,,,,,,,,,,,,,,,,,,,,,,,,,,,,,,,,,,,,,,,,,,,
,,612520bd6605794b27e6a0fd,36,male,2024-04-19_17h37.13.785,stockport_simplified,2022.2.4,Win32,59.88023952,661e456ee6de07e70aa9ef7b,66229d97e63d311ac0a28c58,,,,,,,,,,,,,,,,,,,,,,,,,,,,,,,,,,,,,,,,,,,,,,,,,,,,,,,,0,22,22,26,1,N,M,D,o2_image,stimuli/out2.png,stimuli/out1.png,stimuli/correct_out2.png,,,,,,,,,,,,,,,,,,,,,,,,,,,,,,,,,,,,,,
,,612520bd6605794b27e6a0fd,36,male,2024-04-19_17h37.13.785,stockport_simplified,2022.2.4,Win32,59.88023952,661e456ee6de07e70aa9ef7b,66229d97e63d311ac0a28c58,,,,,,,,,,,,,,,,,,,,,,,,,,,,,,,,,,334.7036,336.4046,"[4,6,3,1,7,5,8,2]","[[-0.3,0.2],[0.3,0.2]]","[[0.125,-0.2],[-0.125,-0.2]]",-0.105,-0.198333333,1,0,0,1.184,o2_image,336.4054,1,336.9051,336.9052,338.9068,0,0,0,0,1,,,,,,,,,,,,,,,,,,,,,,,,,,,,,,,,,,,,,,,,,,,,,,,,,,
,,612520bd6605794b27e6a0fd,36,male,2024-04-19_17h37.13.785,stockport_simplified,2022.2.4,Win32,59.88023952,661e456ee6de07e70aa9ef7b,66229d97e63d311ac0a28c58,,,,,,,,,,,,,,,,,,,,,,,,,,,,,,,,,,,,,,,,,,,,,,,,,,,,,,,,0,23,23,59,1,N,M,D,o2_image,stimuli/out2.png,stimuli/out1.png,stimuli/correct_out2.png,,,,,,,,,,,,,,,,,,,,,,,,,,,,,,,,,,,,,,
,,612520bd6605794b27e6a0fd,36,male,2024-04-19_17h37.13.785,stockport_simplified,2022.2.4,Win32,59.88023952,661e456ee6de07e70aa9ef7b,66229d97e63d311ac0a28c58,,,,,,,,,,,,,,,,,,,,,,,,,,,,,,,,,,338.9072,341.6925,"[4,6,3,1,7,5,8,2]","[[0.3,0.2],[-0.3,0.2]]","[[0.125,-0.2],[-0.125,-0.2]]",-0.124166667,-0.2,1,0,0,2.2844,o2_image,341.6934,1,342.193,342.193,344.1947,0,0,0,0,1,,,,,,,,,,,,,,,,,,,,,,,,,,,,,,,,,,,,,,,,,,,,,,,,,,
,,612520bd6605794b27e6a0fd,36,male,2024-04-19_17h37.13.785,stockport_simplified,2022.2.4,Win32,59.88023952,661e456ee6de07e70aa9ef7b,66229d97e63d311ac0a28c58,,,,,,,,,,,,,,,,,,,,,,,,,,,,,,,,,,,,,,,,,,,,,,,,,,,,,,,,0,24,24,12,1,B,X,N,o2_image,stimuli/out2.png,stimuli/out1.png,stimuli/correct_out2.png,,,,,,,,,,,,,,,,,,,,,,,,,,,,,,,,,,,,,,
,,612520bd6605794b27e6a0fd,36,male,2024-04-19_17h37.13.785,stockport_simplified,2022.2.4,Win32,59.88023952,661e456ee6de07e70aa9ef7b,66229d97e63d311ac0a28c58,,,,,,,,,,,,,,,,,,,,,,,,,,,,,,,,,,344.1951,346.9802,"[4,6,3,1,7,5,8,2]","[[0.3,0.2],[-0.3,0.2]]","[[-0.125,-0.2],[0.125,-0.2]]",0.065833333,-0.199166667,1,0,0,2.2684,o2_image,346.981,1,347.4807,347.4807,349.4825,0,0,0,0,1,,,,,,,,,,,,,,,,,,,,,,,,,,,,,,,,,,,,,,,,,,,,,,,,,,
,,612520bd6605794b27e6a0fd,36,male,2024-04-19_17h37.13.785,stockport_simplified,2022.2.4,Win32,59.88023952,661e456ee6de07e70aa9ef7b,66229d97e63d311ac0a28c58,,,,,,,,,,,,,,,,,,,,,,,,,,,,,,,,,,,,,,,,,,,,,,,,,,,,,,,,0,25,25,13,1,B,X,N,o2_image,stimuli/out2.png,stimuli/out1.png,stimuli/correct_out2.png,,,,,,,,,,,,,,,,,,,,,,,,,,,,,,,,,,,,,,
,,612520bd6605794b27e6a0fd,36,male,2024-04-19_17h37.13.785,stockport_simplified,2022.2.4,Win32,59.88023952,661e456ee6de07e70aa9ef7b,66229d97e63d311ac0a28c58,,,,,,,,,,,,,,,,,,,,,,,,,,,,,,,,,,349.4829,351.4509,"[4,6,3,1,7,5,8,2]","[[0.3,0.2],[-0.3,0.2]]","[[-0.125,-0.2],[0.125,-0.2]]",-0.104166667,-0.200833333,1,0,0,1.4674,o1_image,351.4516,0,351.9513,351.9514,353.9533,0,0,0,0,1,,,,,,,,,,,,,,,,,,,,,,,,,,,,,,,,,,,,,,,,,,,,,,,,,,
,,612520bd6605794b27e6a0fd,36,male,2024-04-19_17h37.13.785,stockport_simplified,2022.2.4,Win32,59.88023952,661e456ee6de07e70aa9ef7b,66229d97e63d311ac0a28c58,,,,,,,,,,,,,,,,,,,,,,,,,,,,,,,,,,,,,,,,,,,,,,,,,,,,,,,,0,26,26,28,1,N,M,D,o2_image,stimuli/out2.png,stimuli/out1.png,stimuli/correct_out2.png,,,,,,,,,,,,,,,,,,,,,,,,,,,,,,,,,,,,,,
,,612520bd6605794b27e6a0fd,36,male,2024-04-19_17h37.13.785,stockport_simplified,2022.2.4,Win32,59.88023952,661e456ee6de07e70aa9ef7b,66229d97e63d311ac0a28c58,,,,,,,,,,,,,,,,,,,,,,,,,,,,,,,,,,353.9538,356.1549,"[4,6,3,1,7,5,8,2]","[[-0.3,0.2],[0.3,0.2]]","[[0.125,-0.2],[-0.125,-0.2]]",0.113333333,-0.178333333,1,0,0,1.6844,o1_image,356.1558,1,356.6555,356.6555,358.6572,0,0,0,0,1,,,,,,,,,,,,,,,,,,,,,,,,,,,,,,,,,,,,,,,,,,,,,,,,,,
,,612520bd6605794b27e6a0fd,36,male,2024-04-19_17h37.13.785,stockport_simplified,2022.2.4,Win32,59.88023952,661e456ee6de07e70aa9ef7b,66229d97e63d311ac0a28c58,,,,,,,,,,,,,,,,,,,,,,,,,,,,,,,,,,,,,,,,,,,,,,,,,,,,,,,,0,27,27,53,1,N,M,C,o1_image,stimuli/out1.png,stimuli/correct_out1.png,stimuli/out2.png,,,,,,,,,,,,,,,,,,,,,,,,,,,,,,,,,,,,,,
,,612520bd6605794b27e6a0fd,36,male,2024-04-19_17h37.13.785,stockport_simplified,2022.2.4,Win32,59.88023952,661e456ee6de07e70aa9ef7b,66229d97e63d311ac0a28c58,,,,,,,,,,,,,,,,,,,,,,,,,,,,,,,,,,358.6577,360.2085,"[4,6,3,1,7,5,8,2]","[[-0.3,0.2],[0.3,0.2]]","[[-0.125,-0.2],[0.125,-0.2]]",-0.0975,-0.185,1,0,0,1.034,o1_image,360.2093,1,360.7089,360.7089,362.7106,0,0,0,0,1,,,,,,,,,,,,,,,,,,,,,,,,,,,,,,,,,,,,,,,,,,,,,,,,,,
,,612520bd6605794b27e6a0fd,36,male,2024-04-19_17h37.13.785,stockport_simplified,2022.2.4,Win32,59.88023952,661e456ee6de07e70aa9ef7b,66229d97e63d311ac0a28c58,,,,,,,,,,,,,,,,,,,,,,,,,,,,,,,,,,,,,,,,,,,,,,,,,,,,,,,,0,28,28,54,1,N,M,C,o1_image,stimuli/out1.png,stimuli/correct_out1.png,stimuli/out2.png,,,,,,,,,,,,,,,,,,,,,,,,,,,,,,,,,,,,,,
,,612520bd6605794b27e6a0fd,36,male,2024-04-19_17h37.13.785,stockport_simplified,2022.2.4,Win32,59.88023952,661e456ee6de07e70aa9ef7b,66229d97e63d311ac0a28c58,,,,,,,,,,,,,,,,,,,,,,,,,,,,,,,,,,362.7109,364.412,"[4,6,3,1,7,5,8,2]","[[0.3,0.2],[-0.3,0.2]]","[[0.125,-0.2],[-0.125,-0.2]]",0.138333333,-0.185,1,0,0,1.2008,o1_image,364.4129,1,364.9126,364.9126,366.9141,0,0,0,0,1,,,,,,,,,,,,,,,,,,,,,,,,,,,,,,,,,,,,,,,,,,,,,,,,,,
,,612520bd6605794b27e6a0fd,36,male,2024-04-19_17h37.13.785,stockport_simplified,2022.2.4,Win32,59.88023952,661e456ee6de07e70aa9ef7b,66229d97e63d311ac0a28c58,,,,,,,,,,,,,,,,,,,,,,,,,,,,,,,,,,,,,,,,,,,,,,,,,,,,,,,,0,29,29,50,1,N,M,C,o1_image,stimuli/out1.png,stimuli/correct_out1.png,stimuli/out2.png,,,,,,,,,,,,,,,,,,,,,,,,,,,,,,,,,,,,,,
,,612520bd6605794b27e6a0fd,36,male,2024-04-19_17h37.13.785,stockport_simplified,2022.2.4,Win32,59.88023952,661e456ee6de07e70aa9ef7b,66229d97e63d311ac0a28c58,,,,,,,,,,,,,,,,,,,,,,,,,,,,,,,,,,366.9144,368.4156,"[4,6,3,1,7,5,8,2]","[[0.3,0.2],[-0.3,0.2]]","[[-0.125,-0.2],[0.125,-0.2]]",0.129166667,-0.1875,1,0,0,1.0005,o2_image,368.4163,1,368.9158,368.9159,370.9177,0,0,0,0,1,,,,,,,,,,,,,,,,,,,,,,,,,,,,,,,,,,,,,,,,,,,,,,,,,,
,,612520bd6605794b27e6a0fd,36,male,2024-04-19_17h37.13.785,stockport_simplified,2022.2.4,Win32,59.88023952,661e456ee6de07e70aa9ef7b,66229d97e63d311ac0a28c58,,,,,,,,,,,,,,,,,,,,,,,,,,,,,,,,,,,,,,,,,,,,,,,,,,,,,,,,0,30,30,56,1,N,M,D,o2_image,stimuli/out2.png,stimuli/out1.png,stimuli/correct_out2.png,,,,,,,,,,,,,,,,,,,,,,,,,,,,,,,,,,,,,,
,,612520bd6605794b27e6a0fd,36,male,2024-04-19_17h37.13.785,stockport_simplified,2022.2.4,Win32,59.88023952,661e456ee6de07e70aa9ef7b,66229d97e63d311ac0a28c58,,,,,,,,,,,,,,,,,,,,,,,,,,,,,,,,,,370.9182,373.8535,"[4,6,3,1,7,5,8,2]","[[-0.3,0.2],[0.3,0.2]]","[[-0.125,-0.2],[0.125,-0.2]]",-0.110833333,-0.188333333,1,0,0,2.4178,o1_image,373.8542,0,374.3539,374.3539,376.3558,0,0,0,0,1,,,,,,,,,,,,,,,,,,,,,,,,,,,,,,,,,,,,,,,,,,,,,,,,,,
,,612520bd6605794b27e6a0fd,36,male,2024-04-19_17h37.13.785,stockport_simplified,2022.2.4,Win32,59.88023952,661e456ee6de07e70aa9ef7b,66229d97e63d311ac0a28c58,,,,,,,,,,,,,,,,,,,,,,,,,,,,,,,,,,,,,,,,,,,,,,,,,,,,,,,,0,31,31,18,1,B,Y,N,o2_image,stimuli/out2.png,stimuli/out1.png,stimuli/correct_out2.png,,,,,,,,,,,,,,,,,,,,,,,,,,,,,,,,,,,,,,
,,612520bd6605794b27e6a0fd,36,male,2024-04-19_17h37.13.785,stockport_simplified,2022.2.4,Win32,59.88023952,661e456ee6de07e70aa9ef7b,66229d97e63d311ac0a28c58,,,,,,,,,,,,,,,,,,,,,,,,,,,,,,,,,,376.3562,378.4075,"[4,6,3,1,7,5,8,2]","[[-0.3,0.2],[0.3,0.2]]","[[-0.125,-0.2],[0.125,-0.2]]",-0.126666667,-0.1925,1,0,0,1.5341,o1_image,378.4082,1,378.908,378.908,380.9096,0,0,0,0,1,,,,,,,,,,,,,,,,,,,,,,,,,,,,,,,,,,,,,,,,,,,,,,,,,,
,,612520bd6605794b27e6a0fd,36,male,2024-04-19_17h37.13.785,stockport_simplified,2022.2.4,Win32,59.88023952,661e456ee6de07e70aa9ef7b,66229d97e63d311ac0a28c58,,,,,,,,,,,,,,,,,,,,,,,,,,,,,,,,,,,,,,,,,,,,,,,,,,,,,,,,0,32,32,1,1,A,X,N,o1_image,stimuli/out1.png,stimuli/correct_out1.png,stimuli/out2.png,,,,,,,,,,,,,,,,,,,,,,,,,,,,,,,,,,,,,,
,,612520bd6605794b27e6a0fd,36,male,2024-04-19_17h37.13.785,stockport_simplified,2022.2.4,Win32,59.88023952,661e456ee6de07e70aa9ef7b,66229d97e63d311ac0a28c58,,,,,,,,,,,,,,,,,,,,,,,,,,,,,,,,,,380.9099,382.9281,"[4,6,3,1,7,5,8,2]","[[-0.3,0.2],[0.3,0.2]]","[[-0.125,-0.2],[0.125,-0.2]]",-0.120833333,-0.190833333,1,0,0,1.5175,o1_image,382.9287,1,383.4286,383.4286,385.4302,0,0,0,0,1,,,,,,,,,,,,,,,,,,,,,,,,,,,,,,,,,,,,,,,,,,,,,,,,,,
,,612520bd6605794b27e6a0fd,36,male,2024-04-19_17h37.13.785,stockport_simplified,2022.2.4,Win32,59.88023952,661e456ee6de07e70aa9ef7b,66229d97e63d311ac0a28c58,,,,,,,,,,,,,,,,,,,,,,,,,,,,,,,,,,,,,,,,,,,,,,,,,,,,,,,,0,33,33,8,1,A,Y,N,o1_image,stimuli/out1.png,stimuli/correct_out1.png,stimuli/out2.png,,,,,,,,,,,,,,,,,,,,,,,,,,,,,,,,,,,,,,
,,612520bd6605794b27e6a0fd,36,male,2024-04-19_17h37.13.785,stockport_simplified,2022.2.4,Win32,59.88023952,661e456ee6de07e70aa9ef7b,66229d97e63d311ac0a28c58,,,,,,,,,,,,,,,,,,,,,,,,,,,,,,,,,,385.4307,388.2491,"[4,6,3,1,7,5,8,2]","[[0.3,0.2],[-0.3,0.2]]","[[-0.125,-0.2],[0.125,-0.2]]",0.116666667,-0.18,1,0,0,2.3012,o2_image,388.258,1,388.7497,388.7498,390.7514,0,0,0,0,1,,,,,,,,,,,,,,,,,,,,,,,,,,,,,,,,,,,,,,,,,,,,,,,,,,
,,612520bd6605794b27e6a0fd,36,male,2024-04-19_17h37.13.785,stockport_simplified,2022.2.4,Win32,59.88023952,661e456ee6de07e70aa9ef7b,66229d97e63d311ac0a28c58,,,,,,,,,,,,,,,,,,,,,,,,,,,,,,,,,,,,,,,,,,,,,,,,,,,,,,,,0,34,34,25,1,N,M,D,o2_image,stimuli/out2.png,stimuli/out1.png,stimuli/correct_out2.png,,,,,,,,,,,,,,,,,,,,,,,,,,,,,,,,,,,,,,
,,612520bd6605794b27e6a0fd,36,male,2024-04-19_17h37.13.785,stockport_simplified,2022.2.4,Win32,59.88023952,661e456ee6de07e70aa9ef7b,66229d97e63d311ac0a28c58,,,,,,,,,,,,,,,,,,,,,,,,,,,,,,,,,,390.7519,392.1359,"[4,6,3,1,7,5,8,2]","[[-0.3,0.2],[0.3,0.2]]","[[0.125,-0.2],[-0.125,-0.2]]",-0.130833333,-0.211666667,1,0,0,0.8671,o2_image,392.1367,1,392.6365,392.6365,394.6382,0,0,0,0,1,,,,,,,,,,,,,,,,,,,,,,,,,,,,,,,,,,,,,,,,,,,,,,,,,,
,,612520bd6605794b27e6a0fd,36,male,2024-04-19_17h37.13.785,stockport_simplified,2022.2.4,Win32,59.88023952,661e456ee6de07e70aa9ef7b,66229d97e63d311ac0a28c58,,,,,,,,,,,,,,,,,,,,,,,,,,,,,,,,,,,,,,,,,,,,,,,,,,,,,,,,0,35,35,58,1,N,M,D,o2_image,stimuli/out2.png,stimuli/out1.png,stimuli/correct_out2.png,,,,,,,,,,,,,,,,,,,,,,,,,,,,,,,,,,,,,,
,,612520bd6605794b27e6a0fd,36,male,2024-04-19_17h37.13.785,stockport_simplified,2022.2.4,Win32,59.88023952,661e456ee6de07e70aa9ef7b,66229d97e63d311ac0a28c58,,,,,,,,,,,,,,,,,,,,,,,,,,,,,,,,,,394.6386,396.2562,"[4,6,3,1,7,5,8,2]","[[0.3,0.2],[-0.3,0.2]]","[[-0.125,-0.2],[0.125,-0.2]]",0.104166667,-0.18,1,0,0,1.1008,o2_image,396.2571,1,396.7566,396.7566,398.7585,0,0,0,0,1,,,,,,,,,,,,,,,,,,,,,,,,,,,,,,,,,,,,,,,,,,,,,,,,,,
,,612520bd6605794b27e6a0fd,36,male,2024-04-19_17h37.13.785,stockport_simplified,2022.2.4,Win32,59.88023952,661e456ee6de07e70aa9ef7b,66229d97e63d311ac0a28c58,,,,,,,,,,,,,,,,,,,,,,,,,,,,,,,,,,,,,,,,,,,,,,,,,,,,,,,,0,36,36,55,1,N,M,D,o2_image,stimuli/out2.png,stimuli/out1.png,stimuli/correct_out2.png,,,,,,,,,,,,,,,,,,,,,,,,,,,,,,,,,,,,,,
,,612520bd6605794b27e6a0fd,36,male,2024-04-19_17h37.13.785,stockport_simplified,2022.2.4,Win32,59.88023952,661e456ee6de07e70aa9ef7b,66229d97e63d311ac0a28c58,,,,,,,,,,,,,,,,,,,,,,,,,,,,,,,,,,398.7591,401.1103,"[4,6,3,1,7,5,8,2]","[[0.3,0.2],[-0.3,0.2]]","[[0.125,-0.2],[-0.125,-0.2]]",0.138333333,-0.185833333,1,0,0,1.8343,o1_image,401.1111,1,401.6108,401.6108,403.6126,0,0,0,0,1,,,,,,,,,,,,,,,,,,,,,,,,,,,,,,,,,,,,,,,,,,,,,,,,,,
,,612520bd6605794b27e6a0fd,36,male,2024-04-19_17h37.13.785,stockport_simplified,2022.2.4,Win32,59.88023952,661e456ee6de07e70aa9ef7b,66229d97e63d311ac0a28c58,,,,,,,,,,,,,,,,,,,,,,,,,,,,,,,,,,,,,,,,,,,,,,,,,,,,,,,,0,37,37,35,1,A,Y,N,o1_image,stimuli/out1.png,stimuli/correct_out1.png,stimuli/out2.png,,,,,,,,,,,,,,,,,,,,,,,,,,,,,,,,,,,,,,
,,612520bd6605794b27e6a0fd,36,male,2024-04-19_17h37.13.785,stockport_simplified,2022.2.4,Win32,59.88023952,661e456ee6de07e70aa9ef7b,66229d97e63d311ac0a28c58,,,,,,,,,,,,,,,,,,,,,,,,,,,,,,,,,,403.6129,405.4973,"[4,6,3,1,7,5,8,2]","[[0.3,0.2],[-0.3,0.2]]","[[-0.125,-0.2],[0.125,-0.2]]",-0.118333333,-0.183333333,1,0,0,1.3673,o1_image,405.4982,1,405.9978,405.998,407.9996,0,0,0,0,1,,,,,,,,,,,,,,,,,,,,,,,,,,,,,,,,,,,,,,,,,,,,,,,,,,
,,612520bd6605794b27e6a0fd,36,male,2024-04-19_17h37.13.785,stockport_simplified,2022.2.4,Win32,59.88023952,661e456ee6de07e70aa9ef7b,66229d97e63d311ac0a28c58,,,,,,,,,,,,,,,,,,,,,,,,,,,,,,,,,,,,,,,,,,,,,,,,,,,,,,,,0,38,38,51,1,N,M,C,o1_image,stimuli/out1.png,stimuli/correct_out1.png,stimuli/out2.png,,,,,,,,,,,,,,,,,,,,,,,,,,,,,,,,,,,,,,
,,612520bd6605794b27e6a0fd,36,male,2024-04-19_17h37.13.785,stockport_simplified,2022.2.4,Win32,59.88023952,661e456ee6de07e70aa9ef7b,66229d97e63d311ac0a28c58,,,,,,,,,,,,,,,,,,,,,,,,,,,,,,,,,,408,409.5842,"[4,6,3,1,7,5,8,2]","[[-0.3,0.2],[0.3,0.2]]","[[0.125,-0.2],[-0.125,-0.2]]",0.148333333,-0.189166667,1,0,0,1.0838,o1_image,409.585,1,410.0849,410.0849,412.0864,0,0,0,0,1,,,,,,,,,,,,,,,,,,,,,,,,,,,,,,,,,,,,,,,,,,,,,,,,,,
,,612520bd6605794b27e6a0fd,36,male,2024-04-19_17h37.13.785,stockport_simplified,2022.2.4,Win32,59.88023952,661e456ee6de07e70aa9ef7b,66229d97e63d311ac0a28c58,,,,,,,,,,,,,,,,,,,,,,,,,,,,,,,,,,,,,,,,,,,,,,,,,,,,,,,,0,39,39,23,1,N,M,C,o1_image,stimuli/out1.png,stimuli/correct_out1.png,stimuli/out2.png,,,,,,,,,,,,,,,,,,,,,,,,,,,,,,,,,,,,,,
,,612520bd6605794b27e6a0fd,36,male,2024-04-19_17h37.13.785,stockport_simplified,2022.2.4,Win32,59.88023952,661e456ee6de07e70aa9ef7b,66229d97e63d311ac0a28c58,,,,,,,,,,,,,,,,,,,,,,,,,,,,,,,,,,412.0868,415.2226,"[4,6,3,1,7,5,8,2]","[[-0.3,0.2],[0.3,0.2]]","[[-0.125,-0.2],[0.125,-0.2]]",-0.103333333,-0.184166667,1,0,0,2.6342,o1_image,415.2234,0,415.723,415.723,417.7248,0,0,0,0,1,,,,,,,,,,,,,,,,,,,,,,,,,,,,,,,,,,,,,,,,,,,,,,,,,,
,,612520bd6605794b27e6a0fd,36,male,2024-04-19_17h37.13.785,stockport_simplified,2022.2.4,Win32,59.88023952,661e456ee6de07e70aa9ef7b,66229d97e63d311ac0a28c58,,,,,,,,,,,,,,,,,,,,,,,,,,,,,,,,,,,,,,,,,,,,,,,,,,,,,,,,0,40,40,47,1,B,Y,N,o2_image,stimuli/out2.png,stimuli/out1.png,stimuli/correct_out2.png,,,,,,,,,,,,,,,,,,,,,,,,,,,,,,,,,,,,,,
,,612520bd6605794b27e6a0fd,36,male,2024-04-19_17h37.13.785,stockport_simplified,2022.2.4,Win32,59.88023952,661e456ee6de07e70aa9ef7b,66229d97e63d311ac0a28c58,,,,,,,,,,,,,,,,,,,,,,,,,,,,,,,,,,417.7252,419.6597,"[4,6,3,1,7,5,8,2]","[[-0.3,0.2],[0.3,0.2]]","[[0.125,-0.2],[-0.125,-0.2]]",0.119166667,-0.1875,1,0,0,1.4172,o1_image,419.6605,1,420.1601,420.1602,422.1618,0,0,0,0,1,,,,,,,,,,,,,,,,,,,,,,,,,,,,,,,,,,,,,,,,,,,,,,,,,,
,,612520bd6605794b27e6a0fd,36,male,2024-04-19_17h37.13.785,stockport_simplified,2022.2.4,Win32,59.88023952,661e456ee6de07e70aa9ef7b,66229d97e63d311ac0a28c58,,,,,,,,,,,,,,,,,,,,,,,,,,,,,,,,,,,,,,,,,,,,,,,,,,,,,,,,0,41,41,39,1,A,Y,N,o1_image,stimuli/out1.png,stimuli/correct_out1.png,stimuli/out2.png,,,,,,,,,,,,,,,,,,,,,,,,,,,,,,,,,,,,,,
,,612520bd6605794b27e6a0fd,36,male,2024-04-19_17h37.13.785,stockport_simplified,2022.2.4,Win32,59.88023952,661e456ee6de07e70aa9ef7b,66229d97e63d311ac0a28c58,,,,,,,,,,,,,,,,,,,,,,,,,,,,,,,,,,422.1622,424.5139,"[4,6,3,1,7,5,8,2]","[[-0.3,0.2],[0.3,0.2]]","[[-0.125,-0.2],[0.125,-0.2]]",-0.086666667,-0.200833333,1,0,0,1.8513,o1_image,424.5147,0,425.0143,425.0143,427.016,0,0,0,0,1,,,,,,,,,,,,,,,,,,,,,,,,,,,,,,,,,,,,,,,,,,,,,,,,,,
,,612520bd6605794b27e6a0fd,36,male,2024-04-19_17h37.13.785,stockport_simplified,2022.2.4,Win32,59.88023952,661e456ee6de07e70aa9ef7b,66229d97e63d311ac0a28c58,,,,,,,,,,,,,,,,,,,,,,,,,,,,,,,,,,,,,,,,,,,,,,,,,,,,,,,,0,42,42,17,1,B,Y,N,o2_image,stimuli/out2.png,stimuli/out1.png,stimuli/correct_out2.png,,,,,,,,,,,,,,,,,,,,,,,,,,,,,,,,,,,,,,
,,612520bd6605794b27e6a0fd,36,male,2024-04-19_17h37.13.785,stockport_simplified,2022.2.4,Win32,59.88023952,661e456ee6de07e70aa9ef7b,66229d97e63d311ac0a28c58,,,,,,,,,,,,,,,,,,,,,,,,,,,,,,,,,,427.0167,428.6006,"[4,6,3,1,7,5,8,2]","[[0.3,0.2],[-0.3,0.2]]","[[-0.125,-0.2],[0.125,-0.2]]",-0.125,-0.180833333,1,0,0,1.0669,o1_image,428.6013,1,429.1011,429.1012,431.103,0,0,0,0,1,,,,,,,,,,,,,,,,,,,,,,,,,,,,,,,,,,,,,,,,,,,,,,,,,,
,,612520bd6605794b27e6a0fd,36,male,2024-04-19_17h37.13.785,stockport_simplified,2022.2.4,Win32,59.88023952,661e456ee6de07e70aa9ef7b,66229d97e63d311ac0a28c58,,,,,,,,,,,,,,,,,,,,,,,,,,,,,,,,,,,,,,,,,,,,,,,,,,,,,,,,0,43,43,52,1,N,M,C,o1_image,stimuli/out1.png,stimuli/correct_out1.png,stimuli/out2.png,,,,,,,,,,,,,,,,,,,,,,,,,,,,,,,,,,,,,,
,,612520bd6605794b27e6a0fd,36,male,2024-04-19_17h37.13.785,stockport_simplified,2022.2.4,Win32,59.88023952,661e456ee6de07e70aa9ef7b,66229d97e63d311ac0a28c58,,,,,,,,,,,,,,,,,,,,,,,,,,,,,,,,,,431.1034,433.4549,"[4,6,3,1,7,5,8,2]","[[-0.3,0.2],[0.3,0.2]]","[[0.125,-0.2],[-0.125,-0.2]]",0.130833333,-0.194166667,1,0,0,1.8343,o1_image,433.4558,1,433.9554,433.9554,435.9571,0,0,0,0,1,,,,,,,,,,,,,,,,,,,,,,,,,,,,,,,,,,,,,,,,,,,,,,,,,,
,,612520bd6605794b27e6a0fd,36,male,2024-04-19_17h37.13.785,stockport_simplified,2022.2.4,Win32,59.88023952,661e456ee6de07e70aa9ef7b,66229d97e63d311ac0a28c58,,,,,,,,,,,,,,,,,,,,,,,,,,,,,,,,,,,,,,,,,,,,,,,,,,,,,,,,0,44,44,5,1,A,Y,N,o1_image,stimuli/out1.png,stimuli/correct_out1.png,stimuli/out2.png,,,,,,,,,,,,,,,,,,,,,,,,,,,,,,,,,,,,,,
,,612520bd6605794b27e6a0fd,36,male,2024-04-19_17h37.13.785,stockport_simplified,2022.2.4,Win32,59.88023952,661e456ee6de07e70aa9ef7b,66229d97e63d311ac0a28c58,,,,,,,,,,,,,,,,,,,,,,,,,,,,,,,,,,435.9574,437.9921,"[4,6,3,1,7,5,8,2]","[[0.3,0.2],[-0.3,0.2]]","[[-0.125,-0.2],[0.125,-0.2]]",0.115833333,-0.201666667,1,0,0,1.5177,o2_image,437.9929,1,438.4927,438.4928,440.4944,0,0,0,0,1,,,,,,,,,,,,,,,,,,,,,,,,,,,,,,,,,,,,,,,,,,,,,,,,,,
,,612520bd6605794b27e6a0fd,36,male,2024-04-19_17h37.13.785,stockport_simplified,2022.2.4,Win32,59.88023952,661e456ee6de07e70aa9ef7b,66229d97e63d311ac0a28c58,,,,,,,,,,,,,,,,,,,,,,,,,,,,,,,,,,,,,,,,,,,,,,,,,,,,,,,,0,45,45,49,1,B,Y,N,o2_image,stimuli/out2.png,stimuli/out1.png,stimuli/correct_out2.png,,,,,,,,,,,,,,,,,,,,,,,,,,,,,,,,,,,,,,
,,612520bd6605794b27e6a0fd,36,male,2024-04-19_17h37.13.785,stockport_simplified,2022.2.4,Win32,59.88023952,661e456ee6de07e70aa9ef7b,66229d97e63d311ac0a28c58,,,,,,,,,,,,,,,,,,,,,,,,,,,,,,,,,,440.4947,442.7629,"[4,6,3,1,7,5,8,2]","[[0.3,0.2],[-0.3,0.2]]","[[-0.125,-0.2],[0.125,-0.2]]",-0.115,-0.193333333,1,0,0,1.7678,o1_image,442.7638,1,443.2634,443.2634,445.2651,0,0,0,0,1,,,,,,,,,,,,,,,,,,,,,,,,,,,,,,,,,,,,,,,,,,,,,,,,,,
,,612520bd6605794b27e6a0fd,36,male,2024-04-19_17h37.13.785,stockport_simplified,2022.2.4,Win32,59.88023952,661e456ee6de07e70aa9ef7b,66229d97e63d311ac0a28c58,,,,,,,,,,,,,,,,,,,,,,,,,,,,,,,,,,,,,,,,,,,,,,,,,,,,,,,,0,46,46,6,1,A,Y,N,o1_image,stimuli/out1.png,stimuli/correct_out1.png,stimuli/out2.png,,,,,,,,,,,,,,,,,,,,,,,,,,,,,,,,,,,,,,
,,612520bd6605794b27e6a0fd,36,male,2024-04-19_17h37.13.785,stockport_simplified,2022.2.4,Win32,59.88023952,661e456ee6de07e70aa9ef7b,66229d97e63d311ac0a28c58,,,,,,,,,,,,,,,,,,,,,,,,,,,,,,,,,,445.2655,447.7506,"[4,6,3,1,7,5,8,2]","[[-0.3,0.2],[0.3,0.2]]","[[0.125,-0.2],[-0.125,-0.2]]",0.135,-0.18,1,0,0,1.9847,o1_image,447.7514,1,448.2511,448.2511,450.2528,0,0,0,0,1,,,,,,,,,,,,,,,,,,,,,,,,,,,,,,,,,,,,,,,,,,,,,,,,,,
,,612520bd6605794b27e6a0fd,36,male,2024-04-19_17h37.13.785,stockport_simplified,2022.2.4,Win32,59.88023952,661e456ee6de07e70aa9ef7b,66229d97e63d311ac0a28c58,,,,,,,,,,,,,,,,,,,,,,,,,,,,,,,,,,,,,,,,,,,,,,,,,,,,,,,,0,47,47,2,1,A,X,N,o1_image,stimuli/out1.png,stimuli/correct_out1.png,stimuli/out2.png,,,,,,,,,,,,,,,,,,,,,,,,,,,,,,,,,,,,,,
,,612520bd6605794b27e6a0fd,36,male,2024-04-19_17h37.13.785,stockport_simplified,2022.2.4,Win32,59.88023952,661e456ee6de07e70aa9ef7b,66229d97e63d311ac0a28c58,,,,,,,,,,,,,,,,,,,,,,,,,,,,,,,,,,450.2533,452.0546,"[4,6,3,1,7,5,8,2]","[[-0.3,0.2],[0.3,0.2]]","[[-0.125,-0.2],[0.125,-0.2]]",0.128333333,-0.191666667,1,0,0,1.2838,o2_image,452.0553,1,452.5549,452.555,454.5565,0,0,0,0,1,,,,,,,,,,,,,,,,,,,,,,,,,,,,,,,,,,,,,,,,,,,,,,,,,,
,,612520bd6605794b27e6a0fd,36,male,2024-04-19_17h37.13.785,stockport_simplified,2022.2.4,Win32,59.88023952,661e456ee6de07e70aa9ef7b,66229d97e63d311ac0a28c58,,,,,,,,,,,,,,,,,,,,,,,,,,,,,,,,,,,,,,,,,,,,,,,,,,,,,,,,0,48,48,27,1,N,M,D,o2_image,stimuli/out2.png,stimuli/out1.png,stimuli/correct_out2.png,,,,,,,,,,,,,,,,,,,,,,,,,,,,,,,,,,,,,,
,,612520bd6605794b27e6a0fd,36,male,2024-04-19_17h37.13.785,stockport_simplified,2022.2.4,Win32,59.88023952,661e456ee6de07e70aa9ef7b,66229d97e63d311ac0a28c58,,,,,,,,,,,,,,,,,,,,,,,,,,,,,,,,,,454.5569,456.041,"[4,6,3,1,7,5,8,2]","[[-0.3,0.2],[0.3,0.2]]","[[-0.125,-0.2],[0.125,-0.2]]",-0.1075,-0.1875,1,0,0,0.9671,o1_image,456.0417,1,456.5415,456.5416,458.5432,0,0,0,0,1,,,,,,,,,,,,,,,,,,,,,,,,,,,,,,,,,,,,,,,,,,,,,,,,,,
,,612520bd6605794b27e6a0fd,36,male,2024-04-19_17h37.13.785,stockport_simplified,2022.2.4,Win32,59.88023952,661e456ee6de07e70aa9ef7b,66229d97e63d311ac0a28c58,,,,,,,,,,,,,,,,,,,,,,,,,,,,,,,,,,,,,,,,,,,,,,,,,,,,,,,,0,49,49,24,1,N,M,C,o1_image,stimuli/out1.png,stimuli/correct_out1.png,stimuli/out2.png,,,,,,,,,,,,,,,,,,,,,,,,,,,,,,,,,,,,,,
,,612520bd6605794b27e6a0fd,36,male,2024-04-19_17h37.13.785,stockport_simplified,2022.2.4,Win32,59.88023952,661e456ee6de07e70aa9ef7b,66229d97e63d311ac0a28c58,,,,,,,,,,,,,,,,,,,,,,,,,,,,,,,,,,458.5437,460.962,"[4,6,3,1,7,5,8,2]","[[-0.3,0.2],[0.3,0.2]]","[[0.125,-0.2],[-0.125,-0.2]]",0.116666667,-0.179166667,1,0,0,1.9011,o1_image,460.9627,1,461.4624,461.4624,463.4643,0,0,0,0,1,,,,,,,,,,,,,,,,,,,,,,,,,,,,,,,,,,,,,,,,,,,,,,,,,,
,,612520bd6605794b27e6a0fd,36,male,2024-04-19_17h37.13.785,stockport_simplified,2022.2.4,Win32,59.88023952,661e456ee6de07e70aa9ef7b,66229d97e63d311ac0a28c58,,,,,,,,,,,,,,,,,,,,,,,,,,,,,,,,,,,,,,,,,,,,,,,,,,,,,,,,0,50,50,34,1,A,X,N,o1_image,stimuli/out1.png,stimuli/correct_out1.png,stimuli/out2.png,,,,,,,,,,,,,,,,,,,,,,,,,,,,,,,,,,,,,,
,,612520bd6605794b27e6a0fd,36,male,2024-04-19_17h37.13.785,stockport_simplified,2022.2.4,Win32,59.88023952,661e456ee6de07e70aa9ef7b,66229d97e63d311ac0a28c58,,,,,,,,,,,,,,,,,,,,,,,,,,,,,,,,,,463.4649,465.2322,"[4,6,3,1,7,5,8,2]","[[-0.3,0.2],[0.3,0.2]]","[[-0.125,-0.2],[0.125,-0.2]]",-0.16,-0.184166667,1,0,0,1.2506,o1_image,465.233,1,465.7328,465.7328,467.7345,0,0,0,0,1,,,,,,,,,,,,,,,,,,,,,,,,,,,,,,,,,,,,,,,,,,,,,,,,,,
,,612520bd6605794b27e6a0fd,36,male,2024-04-19_17h37.13.785,stockport_simplified,2022.2.4,Win32,59.88023952,661e456ee6de07e70aa9ef7b,66229d97e63d311ac0a28c58,,,,,,,,,,,,,,,,,,,,,,,,,,,,,,,,,,,,,,,,,,,,,,,,,,,,,,,,0,51,51,36,1,A,Y,N,o1_image,stimuli/out1.png,stimuli/correct_out1.png,stimuli/out2.png,,,,,,,,,,,,,,,,,,,,,,,,,,,,,,,,,,,,,,
,,612520bd6605794b27e6a0fd,36,male,2024-04-19_17h37.13.785,stockport_simplified,2022.2.4,Win32,59.88023952,661e456ee6de07e70aa9ef7b,66229d97e63d311ac0a28c58,,,,,,,,,,,,,,,,,,,,,,,,,,,,,,,,,,467.735,469.219,"[4,6,3,1,7,5,8,2]","[[-0.3,0.2],[0.3,0.2]]","[[-0.125,-0.2],[0.125,-0.2]]",-0.101666667,-0.180833333,1,0,0,0.9673,o1_image,469.2198,1,469.7196,469.7196,471.7213,0,0,0,0,1,,,,,,,,,,,,,,,,,,,,,,,,,,,,,,,,,,,,,,,,,,,,,,,,,,
,,612520bd6605794b27e6a0fd,36,male,2024-04-19_17h37.13.785,stockport_simplified,2022.2.4,Win32,59.88023952,661e456ee6de07e70aa9ef7b,66229d97e63d311ac0a28c58,,,,,,,,,,,,,,,,,,,,,,,,,,,,,,,,,,,,,,,,,,,,,,,,,,,,,,,,0,52,52,7,1,A,Y,N,o1_image,stimuli/out1.png,stimuli/correct_out1.png,stimuli/out2.png,,,,,,,,,,,,,,,,,,,,,,,,,,,,,,,,,,,,,,
,,612520bd6605794b27e6a0fd,36,male,2024-04-19_17h37.13.785,stockport_simplified,2022.2.4,Win32,59.88023952,661e456ee6de07e70aa9ef7b,66229d97e63d311ac0a28c58,,,,,,,,,,,,,,,,,,,,,,,,,,,,,,,,,,471.7216,473.5894,"[4,6,3,1,7,5,8,2]","[[0.3,0.2],[-0.3,0.2]]","[[-0.125,-0.2],[0.125,-0.2]]",0.105,-0.185833333,1,0,0,1.3675,o2_image,473.5902,1,474.09,474.0901,476.0917,0,0,0,0,1,,,,,,,,,,,,,,,,,,,,,,,,,,,,,,,,,,,,,,,,,,,,,,,,,,
,,612520bd6605794b27e6a0fd,36,male,2024-04-19_17h37.13.785,stockport_simplified,2022.2.4,Win32,59.88023952,661e456ee6de07e70aa9ef7b,66229d97e63d311ac0a28c58,,,,,,,,,,,,,,,,,,,,,,,,,,,,,,,,,,,,,,,,,,,,,,,,,,,,,,,,0,53,53,46,1,B,Y,N,o2_image,stimuli/out2.png,stimuli/out1.png,stimuli/correct_out2.png,,,,,,,,,,,,,,,,,,,,,,,,,,,,,,,,,,,,,,
,,612520bd6605794b27e6a0fd,36,male,2024-04-19_17h37.13.785,stockport_simplified,2022.2.4,Win32,59.88023952,661e456ee6de07e70aa9ef7b,66229d97e63d311ac0a28c58,,,,,,,,,,,,,,,,,,,,,,,,,,,,,,,,,,476.0921,478.2102,"[4,6,3,1,7,5,8,2]","[[-0.3,0.2],[0.3,0.2]]","[[-0.125,-0.2],[0.125,-0.2]]",0.136666667,-0.198333333,1,0,0,1.6173,o2_image,478.2109,1,478.7105,478.7106,480.7126,0,0,0,0,1,,,,,,,,,,,,,,,,,,,,,,,,,,,,,,,,,,,,,,,,,,,,,,,,,,
,,612520bd6605794b27e6a0fd,36,male,2024-04-19_17h37.13.785,stockport_simplified,2022.2.4,Win32,59.88023952,661e456ee6de07e70aa9ef7b,66229d97e63d311ac0a28c58,,,,,,,,,,,,,,,,,,,,,,,,,,,,,,,,,,,,,,,,,,,,,,,,,,,,,,,,0,54,54,10,1,B,X,N,o2_image,stimuli/out2.png,stimuli/out1.png,stimuli/correct_out2.png,,,,,,,,,,,,,,,,,,,,,,,,,,,,,,,,,,,,,,
,,612520bd6605794b27e6a0fd,36,male,2024-04-19_17h37.13.785,stockport_simplified,2022.2.4,Win32,59.88023952,661e456ee6de07e70aa9ef7b,66229d97e63d311ac0a28c58,,,,,,,,,,,,,,,,,,,,,,,,,,,,,,,,,,480.7131,482.7141,"[4,6,3,1,7,5,8,2]","[[0.3,0.2],[-0.3,0.2]]","[[-0.125,-0.2],[0.125,-0.2]]",-0.111666667,-0.190833333,1,0,0,1.4843,o1_image,482.7147,1,483.2146,483.2147,485.2166,0,0,0,0,1,,,,,,,,,,,,,,,,,,,,,,,,,,,,,,,,,,,,,,,,,,,,,,,,,,
,,612520bd6605794b27e6a0fd,36,male,2024-04-19_17h37.13.785,stockport_simplified,2022.2.4,Win32,59.88023952,661e456ee6de07e70aa9ef7b,66229d97e63d311ac0a28c58,,,,,,,,,,,,,,,,,,,,,,,,,,,,,,,,,,,,,,,,,,,,,,,,,,,,,,,,0,55,55,32,1,A,X,N,o1_image,stimuli/out1.png,stimuli/correct_out1.png,stimuli/out2.png,,,,,,,,,,,,,,,,,,,,,,,,,,,,,,,,,,,,,,
,,612520bd6605794b27e6a0fd,36,male,2024-04-19_17h37.13.785,stockport_simplified,2022.2.4,Win32,59.88023952,661e456ee6de07e70aa9ef7b,66229d97e63d311ac0a28c58,,,,,,,,,,,,,,,,,,,,,,,,,,,,,,,,,,485.2171,486.8676,"[4,6,3,1,7,5,8,2]","[[0.3,0.2],[-0.3,0.2]]","[[-0.125,-0.2],[0.125,-0.2]]",-0.1275,-0.191666667,1,0,0,1.1342,o1_image,486.8684,1,487.3682,487.3683,489.3698,0,0,0,0,1,,,,,,,,,,,,,,,,,,,,,,,,,,,,,,,,,,,,,,,,,,,,,,,,,,
,,612520bd6605794b27e6a0fd,36,male,2024-04-19_17h37.13.785,stockport_simplified,2022.2.4,Win32,59.88023952,661e456ee6de07e70aa9ef7b,66229d97e63d311ac0a28c58,,,,,,,,,,,,,,,,,,,,,,,,,,,,,,,,,,,,,,,,,,,,,,,,,,,,,,,,0,56,56,31,1,A,X,N,o1_image,stimuli/out1.png,stimuli/correct_out1.png,stimuli/out2.png,,,,,,,,,,,,,,,,,,,,,,,,,,,,,,,,,,,,,,
,,612520bd6605794b27e6a0fd,36,male,2024-04-19_17h37.13.785,stockport_simplified,2022.2.4,Win32,59.88023952,661e456ee6de07e70aa9ef7b,66229d97e63d311ac0a28c58,,,,,,,,,,,,,,,,,,,,,,,,,,,,,,,,,,489.3702,491.5718,"[4,6,3,1,7,5,8,2]","[[-0.3,0.2],[0.3,0.2]]","[[-0.125,-0.2],[0.125,-0.2]]",0.113333333,-0.180833333,1,0,0,1.6845,o2_image,491.5727,1,492.0722,492.0722,494.0738,0,0,0,0,1,,,,,,,,,,,,,,,,,,,,,,,,,,,,,,,,,,,,,,,,,,,,,,,,,,
,,612520bd6605794b27e6a0fd,36,male,2024-04-19_17h37.13.785,stockport_simplified,2022.2.4,Win32,59.88023952,661e456ee6de07e70aa9ef7b,66229d97e63d311ac0a28c58,,,,,,,,,,,,,,,,,,,,,,,,,,,,,,,,,,,,,,,,,,,,,,,,,,,,,,,,0,57,57,44,1,B,X,N,o2_image,stimuli/out2.png,stimuli/out1.png,stimuli/correct_out2.png,,,,,,,,,,,,,,,,,,,,,,,,,,,,,,,,,,,,,,
,,612520bd6605794b27e6a0fd,36,male,2024-04-19_17h37.13.785,stockport_simplified,2022.2.4,Win32,59.88023952,661e456ee6de07e70aa9ef7b,66229d97e63d311ac0a28c58,,,,,,,,,,,,,,,,,,,,,,,,,,,,,,,,,,494.0742,496.2925,"[4,6,3,1,7,5,8,2]","[[-0.3,0.2],[0.3,0.2]]","[[0.125,-0.2],[-0.125,-0.2]]",0.12,-0.186666667,1,0,0,1.7178,o1_image,496.2935,1,496.7931,496.7931,498.7946,0,0,0,0,1,,,,,,,,,,,,,,,,,,,,,,,,,,,,,,,,,,,,,,,,,,,,,,,,,,
,,612520bd6605794b27e6a0fd,36,male,2024-04-19_17h37.13.785,stockport_simplified,2022.2.4,Win32,59.88023952,661e456ee6de07e70aa9ef7b,66229d97e63d311ac0a28c58,,,,,,,,,,,,,,,,,,,,,,,,,,,,,,,,,,,,,,,,,,,,,,,,,,,,,,,,0,58,58,3,1,A,X,N,o1_image,stimuli/out1.png,stimuli/correct_out1.png,stimuli/out2.png,,,,,,,,,,,,,,,,,,,,,,,,,,,,,,,,,,,,,,
,,612520bd6605794b27e6a0fd,36,male,2024-04-19_17h37.13.785,stockport_simplified,2022.2.4,Win32,59.88023952,661e456ee6de07e70aa9ef7b,66229d97e63d311ac0a28c58,,,,,,,,,,,,,,,,,,,,,,,,,,,,,,,,,,498.7951,501.0633,"[4,6,3,1,7,5,8,2]","[[-0.3,0.2],[0.3,0.2]]","[[-0.125,-0.2],[0.125,-0.2]]",0.135833333,-0.19,1,0,0,1.7512,o2_image,501.0641,1,501.5636,501.5636,503.5655,0,0,0,0,1,,,,,,,,,,,,,,,,,,,,,,,,,,,,,,,,,,,,,,,,,,,,,,,,,,
,,612520bd6605794b27e6a0fd,36,male,2024-04-19_17h37.13.785,stockport_simplified,2022.2.4,Win32,59.88023952,661e456ee6de07e70aa9ef7b,66229d97e63d311ac0a28c58,,,,,,,,,,,,,,,,,,,,,,,,,,,,,,,,,,,,,,,,,,,,,,,,,,,,,,,,0,59,59,41,1,B,X,N,o2_image,stimuli/out2.png,stimuli/out1.png,stimuli/correct_out2.png,,,,,,,,,,,,,,,,,,,,,,,,,,,,,,,,,,,,,,
,,612520bd6605794b27e6a0fd,36,male,2024-04-19_17h37.13.785,stockport_simplified,2022.2.4,Win32,59.88023952,661e456ee6de07e70aa9ef7b,66229d97e63d311ac0a28c58,,,,,,,,,,,,,,,,,,,,,,,,,,,,,,,,,,503.5662,505.4169,"[4,6,3,1,7,5,8,2]","[[-0.3,0.2],[0.3,0.2]]","[[0.125,-0.2],[-0.125,-0.2]]",0.131666667,-0.1875,1,0,0,1.334,o1_image,505.4177,1,505.9174,505.9174,507.9192,0,0,0,0,1,,,,,,,,,,,,,,,,,,,,,,,,,,,,,,,,,,,,,,,,,,,,,,,,,,
,,612520bd6605794b27e6a0fd,36,male,2024-04-19_17h37.13.785,stockport_simplified,2022.2.4,Win32,59.88023952,661e456ee6de07e70aa9ef7b,66229d97e63d311ac0a28c58,,,,,,,,,,,,,,,,,,,,,,,,,,,,,,,,,,,,,,,,,,,,,,,,,,,,,,,,1,0,60,39,1,A,Y,N,o1_image,stimuli/out1.png,stimuli/correct_out1.png,stimuli/out2.png,,,,,,,,,,,,,,,,,,,,,,,,,,,,,,,,,,,,,,
,,612520bd6605794b27e6a0fd,36,male,2024-04-19_17h37.13.785,stockport_simplified,2022.2.4,Win32,59.88023952,661e456ee6de07e70aa9ef7b,66229d97e63d311ac0a28c58,,,,,,,,,,,,,,,,,,,,,,,,,,,,,,,,,,507.9196,510.0208,"[4,6,3,1,7,5,8,2]","[[-0.3,0.2],[0.3,0.2]]","[[-0.125,-0.2],[0.125,-0.2]]",-0.100833333,-0.185833333,1,0,0,1.5844,o1_image,510.0216,1,510.5214,510.5214,512.5233,0,0,0,0,1,,,,,,,,,,,,,,,,,,,,,,,,,,,,,,,,,,,,,,,,,,,,,,,,,,
,,612520bd6605794b27e6a0fd,36,male,2024-04-19_17h37.13.785,stockport_simplified,2022.2.4,Win32,59.88023952,661e456ee6de07e70aa9ef7b,66229d97e63d311ac0a28c58,,,,,,,,,,,,,,,,,,,,,,,,,,,,,,,,,,,,,,,,,,,,,,,,,,,,,,,,1,1,61,2,1,A,X,N,o1_image,stimuli/out1.png,stimuli/correct_out1.png,stimuli/out2.png,,,,,,,,,,,,,,,,,,,,,,,,,,,,,,,,,,,,,,
,,612520bd6605794b27e6a0fd,36,male,2024-04-19_17h37.13.785,stockport_simplified,2022.2.4,Win32,59.88023952,661e456ee6de07e70aa9ef7b,66229d97e63d311ac0a28c58,,,,,,,,,,,,,,,,,,,,,,,,,,,,,,,,,,512.524,514.1746,"[4,6,3,1,7,5,8,2]","[[0.3,0.2],[-0.3,0.2]]","[[-0.125,-0.2],[0.125,-0.2]]",-0.1125,-0.19,1,0,0,1.134,o1_image,514.1753,1,514.675,514.675,516.6767,0,0,0,0,1,,,,,,,,,,,,,,,,,,,,,,,,,,,,,,,,,,,,,,,,,,,,,,,,,,
,,612520bd6605794b27e6a0fd,36,male,2024-04-19_17h37.13.785,stockport_simplified,2022.2.4,Win32,59.88023952,661e456ee6de07e70aa9ef7b,66229d97e63d311ac0a28c58,,,,,,,,,,,,,,,,,,,,,,,,,,,,,,,,,,,,,,,,,,,,,,,,,,,,,,,,1,2,62,36,1,A,Y,N,o1_image,stimuli/out1.png,stimuli/correct_out1.png,stimuli/out2.png,,,,,,,,,,,,,,,,,,,,,,,,,,,,,,,,,,,,,,
,,612520bd6605794b27e6a0fd,36,male,2024-04-19_17h37.13.785,stockport_simplified,2022.2.4,Win32,59.88023952,661e456ee6de07e70aa9ef7b,66229d97e63d311ac0a28c58,,,,,,,,,,,,,,,,,,,,,,,,,,,,,,,,,,516.677,518.7118,"[4,6,3,1,7,5,8,2]","[[-0.3,0.2],[0.3,0.2]]","[[0.125,-0.2],[-0.125,-0.2]]",-0.128333333,-0.179166667,1,0,0,1.5343,o2_image,518.7126,1,519.2122,519.2122,521.2139,0,0,0,0,1,,,,,,,,,,,,,,,,,,,,,,,,,,,,,,,,,,,,,,,,,,,,,,,,,,
,,612520bd6605794b27e6a0fd,36,male,2024-04-19_17h37.13.785,stockport_simplified,2022.2.4,Win32,59.88023952,661e456ee6de07e70aa9ef7b,66229d97e63d311ac0a28c58,,,,,,,,,,,,,,,,,,,,,,,,,,,,,,,,,,,,,,,,,,,,,,,,,,,,,,,,1,3,63,48,1,B,Y,N,o2_image,stimuli/out2.png,stimuli/out1.png,stimuli/correct_out2.png,,,,,,,,,,,,,,,,,,,,,,,,,,,,,,,,,,,,,,
,,612520bd6605794b27e6a0fd,36,male,2024-04-19_17h37.13.785,stockport_simplified,2022.2.4,Win32,59.88023952,661e456ee6de07e70aa9ef7b,66229d97e63d311ac0a28c58,,,,,,,,,,,,,,,,,,,,,,,,,,,,,,,,,,521.2143,522.732,"[4,6,3,1,7,5,8,2]","[[-0.3,0.2],[0.3,0.2]]","[[0.125,-0.2],[-0.125,-0.2]]",-0.100833333,-0.180833333,1,0,0,1.0167,o2_image,522.7327,1,523.2324,523.2325,525.2341,0,0,0,0,1,,,,,,,,,,,,,,,,,,,,,,,,,,,,,,,,,,,,,,,,,,,,,,,,,,
,,612520bd6605794b27e6a0fd,36,male,2024-04-19_17h37.13.785,stockport_simplified,2022.2.4,Win32,59.88023952,661e456ee6de07e70aa9ef7b,66229d97e63d311ac0a28c58,,,,,,,,,,,,,,,,,,,,,,,,,,,,,,,,,,,,,,,,,,,,,,,,,,,,,,,,1,4,64,59,1,N,M,D,o2_image,stimuli/out2.png,stimuli/out1.png,stimuli/correct_out2.png,,,,,,,,,,,,,,,,,,,,,,,,,,,,,,,,,,,,,,
,,612520bd6605794b27e6a0fd,36,male,2024-04-19_17h37.13.785,stockport_simplified,2022.2.4,Win32,59.88023952,661e456ee6de07e70aa9ef7b,66229d97e63d311ac0a28c58,,,,,,,,,,,,,,,,,,,,,,,,,,,,,,,,,,525.2349,527.6196,"[4,6,3,1,7,5,8,2]","[[0.3,0.2],[-0.3,0.2]]","[[-0.125,-0.2],[0.125,-0.2]]",-0.103333333,-0.183333333,1,0,0,1.868,o1_image,527.6203,1,528.1199,528.12,530.1216,0,0,0,0,1,,,,,,,,,,,,,,,,,,,,,,,,,,,,,,,,,,,,,,,,,,,,,,,,,,
,,612520bd6605794b27e6a0fd,36,male,2024-04-19_17h37.13.785,stockport_simplified,2022.2.4,Win32,59.88023952,661e456ee6de07e70aa9ef7b,66229d97e63d311ac0a28c58,,,,,,,,,,,,,,,,,,,,,,,,,,,,,,,,,,,,,,,,,,,,,,,,,,,,,,,,1,5,65,37,1,A,Y,N,o1_image,stimuli/out1.png,stimuli/correct_out1.png,stimuli/out2.png,,,,,,,,,,,,,,,,,,,,,,,,,,,,,,,,,,,,,,
,,612520bd6605794b27e6a0fd,36,male,2024-04-19_17h37.13.785,stockport_simplified,2022.2.4,Win32,59.88023952,661e456ee6de07e70aa9ef7b,66229d97e63d311ac0a28c58,,,,,,,,,,,,,,,,,,,,,,,,,,,,,,,,,,530.122,532.4569,"[4,6,3,1,7,5,8,2]","[[-0.3,0.2],[0.3,0.2]]","[[-0.125,-0.2],[0.125,-0.2]]",0.0975,-0.179166667,1,0,0,1.8344,o2_image,532.4577,1,532.9574,532.9574,534.9592,0,0,0,0,1,,,,,,,,,,,,,,,,,,,,,,,,,,,,,,,,,,,,,,,,,,,,,,,,,,
,,612520bd6605794b27e6a0fd,36,male,2024-04-19_17h37.13.785,stockport_simplified,2022.2.4,Win32,59.88023952,661e456ee6de07e70aa9ef7b,66229d97e63d311ac0a28c58,,,,,,,,,,,,,,,,,,,,,,,,,,,,,,,,,,,,,,,,,,,,,,,,,,,,,,,,1,6,66,12,1,B,X,N,o2_image,stimuli/out2.png,stimuli/out1.png,stimuli/correct_out2.png,,,,,,,,,,,,,,,,,,,,,,,,,,,,,,,,,,,,,,
,,612520bd6605794b27e6a0fd,36,male,2024-04-19_17h37.13.785,stockport_simplified,2022.2.4,Win32,59.88023952,661e456ee6de07e70aa9ef7b,66229d97e63d311ac0a28c58,,,,,,,,,,,,,,,,,,,,,,,,,,,,,,,,,,534.9597,537.0777,"[4,6,3,1,7,5,8,2]","[[-0.3,0.2],[0.3,0.2]]","[[-0.125,-0.2],[0.125,-0.2]]",0.131666667,-0.186666667,1,0,0,1.601,o2_image,537.0784,1,537.5781,537.5781,539.5798,0,0,0,0,1,,,,,,,,,,,,,,,,,,,,,,,,,,,,,,,,,,,,,,,,,,,,,,,,,,
,,612520bd6605794b27e6a0fd,36,male,2024-04-19_17h37.13.785,stockport_simplified,2022.2.4,Win32,59.88023952,661e456ee6de07e70aa9ef7b,66229d97e63d311ac0a28c58,,,,,,,,,,,,,,,,,,,,,,,,,,,,,,,,,,,,,,,,,,,,,,,,,,,,,,,,1,7,67,18,1,B,Y,N,o2_image,stimuli/out2.png,stimuli/out1.png,stimuli/correct_out2.png,,,,,,,,,,,,,,,,,,,,,,,,,,,,,,,,,,,,,,
,,612520bd6605794b27e6a0fd,36,male,2024-04-19_17h37.13.785,stockport_simplified,2022.2.4,Win32,59.88023952,661e456ee6de07e70aa9ef7b,66229d97e63d311ac0a28c58,,,,,,,,,,,,,,,,,,,,,,,,,,,,,,,,,,539.5802,541.2978,"[4,6,3,1,7,5,8,2]","[[-0.3,0.2],[0.3,0.2]]","[[0.125,-0.2],[-0.125,-0.2]]",0.145,-0.195833333,1,0,0,1.2004,o1_image,541.2985,1,541.7983,541.7984,543.7999,0,0,0,0,1,,,,,,,,,,,,,,,,,,,,,,,,,,,,,,,,,,,,,,,,,,,,,,,,,,
,,612520bd6605794b27e6a0fd,36,male,2024-04-19_17h37.13.785,stockport_simplified,2022.2.4,Win32,59.88023952,661e456ee6de07e70aa9ef7b,66229d97e63d311ac0a28c58,,,,,,,,,,,,,,,,,,,,,,,,,,,,,,,,,,,,,,,,,,,,,,,,,,,,,,,,1,8,68,20,1,N,M,C,o1_image,stimuli/out1.png,stimuli/correct_out1.png,stimuli/out2.png,,,,,,,,,,,,,,,,,,,,,,,,,,,,,,,,,,,,,,
,,612520bd6605794b27e6a0fd,36,male,2024-04-19_17h37.13.785,stockport_simplified,2022.2.4,Win32,59.88023952,661e456ee6de07e70aa9ef7b,66229d97e63d311ac0a28c58,,,,,,,,,,,,,,,,,,,,,,,,,,,,,,,,,,543.8003,545.5349,"[4,6,3,1,7,5,8,2]","[[0.3,0.2],[-0.3,0.2]]","[[-0.125,-0.2],[0.125,-0.2]]",-0.1,-0.1825,1,0,0,1.2343,o1_image,545.5356,1,546.0354,546.0355,548.037,0,0,0,0,1,,,,,,,,,,,,,,,,,,,,,,,,,,,,,,,,,,,,,,,,,,,,,,,,,,
,,612520bd6605794b27e6a0fd,36,male,2024-04-19_17h37.13.785,stockport_simplified,2022.2.4,Win32,59.88023952,661e456ee6de07e70aa9ef7b,66229d97e63d311ac0a28c58,,,,,,,,,,,,,,,,,,,,,,,,,,,,,,,,,,,,,,,,,,,,,,,,,,,,,,,,1,9,69,51,1,N,M,C,o1_image,stimuli/out1.png,stimuli/correct_out1.png,stimuli/out2.png,,,,,,,,,,,,,,,,,,,,,,,,,,,,,,,,,,,,,,
,,612520bd6605794b27e6a0fd,36,male,2024-04-19_17h37.13.785,stockport_simplified,2022.2.4,Win32,59.88023952,661e456ee6de07e70aa9ef7b,66229d97e63d311ac0a28c58,,,,,,,,,,,,,,,,,,,,,,,,,,,,,,,,,,548.0375,550.2057,"[4,6,3,1,7,5,8,2]","[[-0.3,0.2],[0.3,0.2]]","[[0.125,-0.2],[-0.125,-0.2]]",0.138333333,-0.188333333,1,0,0,1.6675,o1_image,550.2145,1,550.7062,550.7063,552.7079,0,0,0,0,1,,,,,,,,,,,,,,,,,,,,,,,,,,,,,,,,,,,,,,,,,,,,,,,,,,
,,612520bd6605794b27e6a0fd,36,male,2024-04-19_17h37.13.785,stockport_simplified,2022.2.4,Win32,59.88023952,661e456ee6de07e70aa9ef7b,66229d97e63d311ac0a28c58,,,,,,,,,,,,,,,,,,,,,,,,,,,,,,,,,,,,,,,,,,,,,,,,,,,,,,,,1,10,70,38,1,A,Y,N,o1_image,stimuli/out1.png,stimuli/correct_out1.png,stimuli/out2.png,,,,,,,,,,,,,,,,,,,,,,,,,,,,,,,,,,,,,,
,,612520bd6605794b27e6a0fd,36,male,2024-04-19_17h37.13.785,stockport_simplified,2022.2.4,Win32,59.88023952,661e456ee6de07e70aa9ef7b,66229d97e63d311ac0a28c58,,,,,,,,,,,,,,,,,,,,,,,,,,,,,,,,,,552.7083,554.7763,"[4,6,3,1,7,5,8,2]","[[-0.3,0.2],[0.3,0.2]]","[[-0.125,-0.2],[0.125,-0.2]]",0.135833333,-0.191666667,1,0,0,1.5509,o2_image,554.7776,1,555.2767,555.2768,557.2783,0,0,0,0,1,,,,,,,,,,,,,,,,,,,,,,,,,,,,,,,,,,,,,,,,,,,,,,,,,,
,,612520bd6605794b27e6a0fd,36,male,2024-04-19_17h37.13.785,stockport_simplified,2022.2.4,Win32,59.88023952,661e456ee6de07e70aa9ef7b,66229d97e63d311ac0a28c58,,,,,,,,,,,,,,,,,,,,,,,,,,,,,,,,,,,,,,,,,,,,,,,,,,,,,,,,1,11,71,11,1,B,X,N,o2_image,stimuli/out2.png,stimuli/out1.png,stimuli/correct_out2.png,,,,,,,,,,,,,,,,,,,,,,,,,,,,,,,,,,,,,,
,,612520bd6605794b27e6a0fd,36,male,2024-04-19_17h37.13.785,stockport_simplified,2022.2.4,Win32,59.88023952,661e456ee6de07e70aa9ef7b,66229d97e63d311ac0a28c58,,,,,,,,,,,,,,,,,,,,,,,,,,,,,,,,,,557.2787,558.9631,"[4,6,3,1,7,5,8,2]","[[0.3,0.2],[-0.3,0.2]]","[[0.125,-0.2],[-0.125,-0.2]]",-0.100833333,-0.185833333,1,0,0,1.1834,o2_image,558.964,1,559.4636,559.4637,561.4654,0,0,0,0,1,,,,,,,,,,,,,,,,,,,,,,,,,,,,,,,,,,,,,,,,,,,,,,,,,,
,,612520bd6605794b27e6a0fd,36,male,2024-04-19_17h37.13.785,stockport_simplified,2022.2.4,Win32,59.88023952,661e456ee6de07e70aa9ef7b,66229d97e63d311ac0a28c58,,,,,,,,,,,,,,,,,,,,,,,,,,,,,,,,,,,,,,,,,,,,,,,,,,,,,,,,1,12,72,56,1,N,M,D,o2_image,stimuli/out2.png,stimuli/out1.png,stimuli/correct_out2.png,,,,,,,,,,,,,,,,,,,,,,,,,,,,,,,,,,,,,,
,,612520bd6605794b27e6a0fd,36,male,2024-04-19_17h37.13.785,stockport_simplified,2022.2.4,Win32,59.88023952,661e456ee6de07e70aa9ef7b,66229d97e63d311ac0a28c58,,,,,,,,,,,,,,,,,,,,,,,,,,,,,,,,,,561.4658,563.517,"[4,6,3,1,7,5,8,2]","[[0.3,0.2],[-0.3,0.2]]","[[-0.125,-0.2],[0.125,-0.2]]",0.088333333,-0.176666667,1,0,0,1.5337,o2_image,563.5176,1,564.0174,564.0174,566.0193,0,0,0,0,1,,,,,,,,,,,,,,,,,,,,,,,,,,,,,,,,,,,,,,,,,,,,,,,,,,
,,612520bd6605794b27e6a0fd,36,male,2024-04-19_17h37.13.785,stockport_simplified,2022.2.4,Win32,59.88023952,661e456ee6de07e70aa9ef7b,66229d97e63d311ac0a28c58,,,,,,,,,,,,,,,,,,,,,,,,,,,,,,,,,,,,,,,,,,,,,,,,,,,,,,,,1,13,73,15,1,B,Y,N,o2_image,stimuli/out2.png,stimuli/out1.png,stimuli/correct_out2.png,,,,,,,,,,,,,,,,,,,,,,,,,,,,,,,,,,,,,,
,,612520bd6605794b27e6a0fd,36,male,2024-04-19_17h37.13.785,stockport_simplified,2022.2.4,Win32,59.88023952,661e456ee6de07e70aa9ef7b,66229d97e63d311ac0a28c58,,,,,,,,,,,,,,,,,,,,,,,,,,,,,,,,,,566.0197,567.7041,"[4,6,3,1,7,5,8,2]","[[0.3,0.2],[-0.3,0.2]]","[[0.125,-0.2],[-0.125,-0.2]]",0.115,-0.19,1,0,0,1.1666,o1_image,567.7049,1,568.2045,568.2046,570.2062,0,0,0,0,1,,,,,,,,,,,,,,,,,,,,,,,,,,,,,,,,,,,,,,,,,,,,,,,,,,
,,612520bd6605794b27e6a0fd,36,male,2024-04-19_17h37.13.785,stockport_simplified,2022.2.4,Win32,59.88023952,661e456ee6de07e70aa9ef7b,66229d97e63d311ac0a28c58,,,,,,,,,,,,,,,,,,,,,,,,,,,,,,,,,,,,,,,,,,,,,,,,,,,,,,,,1,14,74,22,1,N,M,C,o1_image,stimuli/out1.png,stimuli/correct_out1.png,stimuli/out2.png,,,,,,,,,,,,,,,,,,,,,,,,,,,,,,,,,,,,,,
,,612520bd6605794b27e6a0fd,36,male,2024-04-19_17h37.13.785,stockport_simplified,2022.2.4,Win32,59.88023952,661e456ee6de07e70aa9ef7b,66229d97e63d311ac0a28c58,,,,,,,,,,,,,,,,,,,,,,,,,,,,,,,,,,570.2066,571.9911,"[4,6,3,1,7,5,8,2]","[[-0.3,0.2],[0.3,0.2]]","[[0.125,-0.2],[-0.125,-0.2]]",-0.1,-0.1775,1,0,0,1.2831,o2_image,571.992,1,572.4915,572.4916,574.4932,0,0,0,0,1,,,,,,,,,,,,,,,,,,,,,,,,,,,,,,,,,,,,,,,,,,,,,,,,,,
,,612520bd6605794b27e6a0fd,36,male,2024-04-19_17h37.13.785,stockport_simplified,2022.2.4,Win32,59.88023952,661e456ee6de07e70aa9ef7b,66229d97e63d311ac0a28c58,,,,,,,,,,,,,,,,,,,,,,,,,,,,,,,,,,,,,,,,,,,,,,,,,,,,,,,,1,15,75,47,1,B,Y,N,o2_image,stimuli/out2.png,stimuli/out1.png,stimuli/correct_out2.png,,,,,,,,,,,,,,,,,,,,,,,,,,,,,,,,,,,,,,
,,612520bd6605794b27e6a0fd,36,male,2024-04-19_17h37.13.785,stockport_simplified,2022.2.4,Win32,59.88023952,661e456ee6de07e70aa9ef7b,66229d97e63d311ac0a28c58,,,,,,,,,,,,,,,,,,,,,,,,,,,,,,,,,,574.4936,576.2448,"[4,6,3,1,7,5,8,2]","[[-0.3,0.2],[0.3,0.2]]","[[-0.125,-0.2],[0.125,-0.2]]",-0.115,-0.178333333,1,0,0,1.234,o1_image,576.2456,1,576.7454,576.7454,578.747,0,0,0,0,1,,,,,,,,,,,,,,,,,,,,,,,,,,,,,,,,,,,,,,,,,,,,,,,,,,
,,612520bd6605794b27e6a0fd,36,male,2024-04-19_17h37.13.785,stockport_simplified,2022.2.4,Win32,59.88023952,661e456ee6de07e70aa9ef7b,66229d97e63d311ac0a28c58,,,,,,,,,,,,,,,,,,,,,,,,,,,,,,,,,,,,,,,,,,,,,,,,,,,,,,,,1,16,76,54,1,N,M,C,o1_image,stimuli/out1.png,stimuli/correct_out1.png,stimuli/out2.png,,,,,,,,,,,,,,,,,,,,,,,,,,,,,,,,,,,,,,
,,612520bd6605794b27e6a0fd,36,male,2024-04-19_17h37.13.785,stockport_simplified,2022.2.4,Win32,59.88023952,661e456ee6de07e70aa9ef7b,66229d97e63d311ac0a28c58,,,,,,,,,,,,,,,,,,,,,,,,,,,,,,,,,,578.7474,580.7987,"[4,6,3,1,7,5,8,2]","[[-0.3,0.2],[0.3,0.2]]","[[-0.125,-0.2],[0.125,-0.2]]",-0.105833333,-0.176666667,1,0,0,1.5341,o1_image,580.7995,1,581.2992,581.2992,583.301,0,0,0,0,1,,,,,,,,,,,,,,,,,,,,,,,,,,,,,,,,,,,,,,,,,,,,,,,,,,
,,612520bd6605794b27e6a0fd,36,male,2024-04-19_17h37.13.785,stockport_simplified,2022.2.4,Win32,59.88023952,661e456ee6de07e70aa9ef7b,66229d97e63d311ac0a28c58,,,,,,,,,,,,,,,,,,,,,,,,,,,,,,,,,,,,,,,,,,,,,,,,,,,,,,,,1,17,77,4,1,A,X,N,o1_image,stimuli/out1.png,stimuli/correct_out1.png,stimuli/out2.png,,,,,,,,,,,,,,,,,,,,,,,,,,,,,,,,,,,,,,
,,612520bd6605794b27e6a0fd,36,male,2024-04-19_17h37.13.785,stockport_simplified,2022.2.4,Win32,59.88023952,661e456ee6de07e70aa9ef7b,66229d97e63d311ac0a28c58,,,,,,,,,,,,,,,,,,,,,,,,,,,,,,,,,,583.3017,584.6854,"[4,6,3,1,7,5,8,2]","[[-0.3,0.2],[0.3,0.2]]","[[-0.125,-0.2],[0.125,-0.2]]",-0.118333333,-0.175833333,1,0,0,0.8671,o1_image,584.6862,1,585.1858,585.1859,587.1875,0,0,0,0,1,,,,,,,,,,,,,,,,,,,,,,,,,,,,,,,,,,,,,,,,,,,,,,,,,,
,,612520bd6605794b27e6a0fd,36,male,2024-04-19_17h37.13.785,stockport_simplified,2022.2.4,Win32,59.88023952,661e456ee6de07e70aa9ef7b,66229d97e63d311ac0a28c58,,,,,,,,,,,,,,,,,,,,,,,,,,,,,,,,,,,,,,,,,,,,,,,,,,,,,,,,1,18,78,1,1,A,X,N,o1_image,stimuli/out1.png,stimuli/correct_out1.png,stimuli/out2.png,,,,,,,,,,,,,,,,,,,,,,,,,,,,,,,,,,,,,,
,,612520bd6605794b27e6a0fd,36,male,2024-04-19_17h37.13.785,stockport_simplified,2022.2.4,Win32,59.88023952,661e456ee6de07e70aa9ef7b,66229d97e63d311ac0a28c58,,,,,,,,,,,,,,,,,,,,,,,,,,,,,,,,,,587.1879,588.6223,"[4,6,3,1,7,5,8,2]","[[-0.3,0.2],[0.3,0.2]]","[[-0.125,-0.2],[0.125,-0.2]]",-0.125833333,-0.1725,1,0,0,0.9176,o1_image,588.6236,1,589.1226,589.1226,591.1242,0,0,0,0,1,,,,,,,,,,,,,,,,,,,,,,,,,,,,,,,,,,,,,,,,,,,,,,,,,,
,,612520bd6605794b27e6a0fd,36,male,2024-04-19_17h37.13.785,stockport_simplified,2022.2.4,Win32,59.88023952,661e456ee6de07e70aa9ef7b,66229d97e63d311ac0a28c58,,,,,,,,,,,,,,,,,,,,,,,,,,,,,,,,,,,,,,,,,,,,,,,,,,,,,,,,1,19,79,33,1,A,X,N,o1_image,stimuli/out1.png,stimuli/correct_out1.png,stimuli/out2.png,,,,,,,,,,,,,,,,,,,,,,,,,,,,,,,,,,,,,,
,,612520bd6605794b27e6a0fd,36,male,2024-04-19_17h37.13.785,stockport_simplified,2022.2.4,Win32,59.88023952,661e456ee6de07e70aa9ef7b,66229d97e63d311ac0a28c58,,,,,,,,,,,,,,,,,,,,,,,,,,,,,,,,,,591.1247,593.226,"[4,6,3,1,7,5,8,2]","[[-0.3,0.2],[0.3,0.2]]","[[0.125,-0.2],[-0.125,-0.2]]",-0.1625,-0.169166667,1,0,0,1.5843,o2_image,593.2267,1,593.7266,593.7266,595.7281,0,0,0,0,1,,,,,,,,,,,,,,,,,,,,,,,,,,,,,,,,,,,,,,,,,,,,,,,,,,
,,612520bd6605794b27e6a0fd,36,male,2024-04-19_17h37.13.785,stockport_simplified,2022.2.4,Win32,59.88023952,661e456ee6de07e70aa9ef7b,66229d97e63d311ac0a28c58,,,,,,,,,,,,,,,,,,,,,,,,,,,,,,,,,,,,,,,,,,,,,,,,,,,,,,,,1,20,80,41,1,B,X,N,o2_image,stimuli/out2.png,stimuli/out1.png,stimuli/correct_out2.png,,,,,,,,,,,,,,,,,,,,,,,,,,,,,,,,,,,,,,
,,612520bd6605794b27e6a0fd,36,male,2024-04-19_17h37.13.785,stockport_simplified,2022.2.4,Win32,59.88023952,661e456ee6de07e70aa9ef7b,66229d97e63d311ac0a28c58,,,,,,,,,,,,,,,,,,,,,,,,,,,,,,,,,,595.7286,597.213,"[4,6,3,1,7,5,8,2]","[[-0.3,0.2],[0.3,0.2]]","[[0.125,-0.2],[-0.125,-0.2]]",-0.1125,-0.168333333,1,0,0,0.9834,o2_image,597.2144,1,597.7133,597.7133,599.7151,0,0,0,0,1,,,,,,,,,,,,,,,,,,,,,,,,,,,,,,,,,,,,,,,,,,,,,,,,,,
,,612520bd6605794b27e6a0fd,36,male,2024-04-19_17h37.13.785,stockport_simplified,2022.2.4,Win32,59.88023952,661e456ee6de07e70aa9ef7b,66229d97e63d311ac0a28c58,,,,,,,,,,,,,,,,,,,,,,,,,,,,,,,,,,,,,,,,,,,,,,,,,,,,,,,,1,21,81,25,1,N,M,D,o2_image,stimuli/out2.png,stimuli/out1.png,stimuli/correct_out2.png,,,,,,,,,,,,,,,,,,,,,,,,,,,,,,,,,,,,,,
,,612520bd6605794b27e6a0fd,36,male,2024-04-19_17h37.13.785,stockport_simplified,2022.2.4,Win32,59.88023952,661e456ee6de07e70aa9ef7b,66229d97e63d311ac0a28c58,,,,,,,,,,,,,,,,,,,,,,,,,,,,,,,,,,599.7155,601.283,"[4,6,3,1,7,5,8,2]","[[0.3,0.2],[-0.3,0.2]]","[[-0.125,-0.2],[0.125,-0.2]]",0.1075,-0.176666667,1,0,0,1.0507,o2_image,601.2837,1,601.7834,601.7834,603.7853,0,0,0,0,1,,,,,,,,,,,,,,,,,,,,,,,,,,,,,,,,,,,,,,,,,,,,,,,,,,
,,612520bd6605794b27e6a0fd,36,male,2024-04-19_17h37.13.785,stockport_simplified,2022.2.4,Win32,59.88023952,661e456ee6de07e70aa9ef7b,66229d97e63d311ac0a28c58,,,,,,,,,,,,,,,,,,,,,,,,,,,,,,,,,,,,,,,,,,,,,,,,,,,,,,,,1,22,82,27,1,N,M,D,o2_image,stimuli/out2.png,stimuli/out1.png,stimuli/correct_out2.png,,,,,,,,,,,,,,,,,,,,,,,,,,,,,,,,,,,,,,
,,612520bd6605794b27e6a0fd,36,male,2024-04-19_17h37.13.785,stockport_simplified,2022.2.4,Win32,59.88023952,661e456ee6de07e70aa9ef7b,66229d97e63d311ac0a28c58,,,,,,,,,,,,,,,,,,,,,,,,,,,,,,,,,,603.7861,605.3699,"[4,6,3,1,7,5,8,2]","[[-0.3,0.2],[0.3,0.2]]","[[0.125,-0.2],[-0.125,-0.2]]",0.125,-0.175833333,1,0,0,1.0673,o1_image,605.371,1,605.8703,605.8704,607.8721,0,0,0,0,1,,,,,,,,,,,,,,,,,,,,,,,,,,,,,,,,,,,,,,,,,,,,,,,,,,
,,612520bd6605794b27e6a0fd,36,male,2024-04-19_17h37.13.785,stockport_simplified,2022.2.4,Win32,59.88023952,661e456ee6de07e70aa9ef7b,66229d97e63d311ac0a28c58,,,,,,,,,,,,,,,,,,,,,,,,,,,,,,,,,,,,,,,,,,,,,,,,,,,,,,,,1,23,83,52,1,N,M,C,o1_image,stimuli/out1.png,stimuli/correct_out1.png,stimuli/out2.png,,,,,,,,,,,,,,,,,,,,,,,,,,,,,,,,,,,,,,
,,612520bd6605794b27e6a0fd,36,male,2024-04-19_17h37.13.785,stockport_simplified,2022.2.4,Win32,59.88023952,661e456ee6de07e70aa9ef7b,66229d97e63d311ac0a28c58,,,,,,,,,,,,,,,,,,,,,,,,,,,,,,,,,,607.8725,610.1072,"[4,6,3,1,7,5,8,2]","[[-0.3,0.2],[0.3,0.2]]","[[0.125,-0.2],[-0.125,-0.2]]",0.143333333,-0.181666667,1,0,0,1.7177,o1_image,610.1081,1,610.6077,610.6078,612.6095,0,0,0,0,1,,,,,,,,,,,,,,,,,,,,,,,,,,,,,,,,,,,,,,,,,,,,,,,,,,
,,612520bd6605794b27e6a0fd,36,male,2024-04-19_17h37.13.785,stockport_simplified,2022.2.4,Win32,59.88023952,661e456ee6de07e70aa9ef7b,66229d97e63d311ac0a28c58,,,,,,,,,,,,,,,,,,,,,,,,,,,,,,,,,,,,,,,,,,,,,,,,,,,,,,,,1,24,84,31,1,A,X,N,o1_image,stimuli/out1.png,stimuli/correct_out1.png,stimuli/out2.png,,,,,,,,,,,,,,,,,,,,,,,,,,,,,,,,,,,,,,
,,612520bd6605794b27e6a0fd,36,male,2024-04-19_17h37.13.785,stockport_simplified,2022.2.4,Win32,59.88023952,661e456ee6de07e70aa9ef7b,66229d97e63d311ac0a28c58,,,,,,,,,,,,,,,,,,,,,,,,,,,,,,,,,,612.6098,614.4778,"[4,6,3,1,7,5,8,2]","[[-0.3,0.2],[0.3,0.2]]","[[0.125,-0.2],[-0.125,-0.2]]",-0.0875,-0.176666667,1,0,0,1.3674,o2_image,614.4786,1,614.9781,614.9782,616.98,0,0,0,0,1,,,,,,,,,,,,,,,,,,,,,,,,,,,,,,,,,,,,,,,,,,,,,,,,,,
,,612520bd6605794b27e6a0fd,36,male,2024-04-19_17h37.13.785,stockport_simplified,2022.2.4,Win32,59.88023952,661e456ee6de07e70aa9ef7b,66229d97e63d311ac0a28c58,,,,,,,,,,,,,,,,,,,,,,,,,,,,,,,,,,,,,,,,,,,,,,,,,,,,,,,,1,25,85,49,1,B,Y,N,o2_image,stimuli/out2.png,stimuli/out1.png,stimuli/correct_out2.png,,,,,,,,,,,,,,,,,,,,,,,,,,,,,,,,,,,,,,
,,612520bd6605794b27e6a0fd,36,male,2024-04-19_17h37.13.785,stockport_simplified,2022.2.4,Win32,59.88023952,661e456ee6de07e70aa9ef7b,66229d97e63d311ac0a28c58,,,,,,,,,,,,,,,,,,,,,,,,,,,,,,,,,,616.9807,618.598,"[4,6,3,1,7,5,8,2]","[[-0.3,0.2],[0.3,0.2]]","[[0.125,-0.2],[-0.125,-0.2]]",0.135833333,-0.175833333,1,0,0,1.1008,o1_image,618.5987,1,619.0983,619.0984,621.1001,0,0,0,0,1,,,,,,,,,,,,,,,,,,,,,,,,,,,,,,,,,,,,,,,,,,,,,,,,,,
,,612520bd6605794b27e6a0fd,36,male,2024-04-19_17h37.13.785,stockport_simplified,2022.2.4,Win32,59.88023952,661e456ee6de07e70aa9ef7b,66229d97e63d311ac0a28c58,,,,,,,,,,,,,,,,,,,,,,,,,,,,,,,,,,,,,,,,,,,,,,,,,,,,,,,,1,26,86,7,1,A,Y,N,o1_image,stimuli/out1.png,stimuli/correct_out1.png,stimuli/out2.png,,,,,,,,,,,,,,,,,,,,,,,,,,,,,,,,,,,,,,
,,612520bd6605794b27e6a0fd,36,male,2024-04-19_17h37.13.785,stockport_simplified,2022.2.4,Win32,59.88023952,661e456ee6de07e70aa9ef7b,66229d97e63d311ac0a28c58,,,,,,,,,,,,,,,,,,,,,,,,,,,,,,,,,,621.1006,623.3187,"[4,6,3,1,7,5,8,2]","[[0.3,0.2],[-0.3,0.2]]","[[0.125,-0.2],[-0.125,-0.2]]",-0.113333333,-0.191666667,1,0,0,1.7007,o2_image,623.3196,1,623.8192,623.8192,625.8207,0,0,0,0,1,,,,,,,,,,,,,,,,,,,,,,,,,,,,,,,,,,,,,,,,,,,,,,,,,,
,,612520bd6605794b27e6a0fd,36,male,2024-04-19_17h37.13.785,stockport_simplified,2022.2.4,Win32,59.88023952,661e456ee6de07e70aa9ef7b,66229d97e63d311ac0a28c58,,,,,,,,,,,,,,,,,,,,,,,,,,,,,,,,,,,,,,,,,,,,,,,,,,,,,,,,1,27,87,17,1,B,Y,N,o2_image,stimuli/out2.png,stimuli/out1.png,stimuli/correct_out2.png,,,,,,,,,,,,,,,,,,,,,,,,,,,,,,,,,,,,,,
,,612520bd6605794b27e6a0fd,36,male,2024-04-19_17h37.13.785,stockport_simplified,2022.2.4,Win32,59.88023952,661e456ee6de07e70aa9ef7b,66229d97e63d311ac0a28c58,,,,,,,,,,,,,,,,,,,,,,,,,,,,,,,,,,625.8212,627.9227,"[4,6,3,1,7,5,8,2]","[[0.3,0.2],[-0.3,0.2]]","[[0.125,-0.2],[-0.125,-0.2]]",0.104166667,-0.1875,1,0,0,1.6011,o1_image,627.9234,1,628.423,628.4231,630.4248,0,0,0,0,1,,,,,,,,,,,,,,,,,,,,,,,,,,,,,,,,,,,,,,,,,,,,,,,,,,
,,612520bd6605794b27e6a0fd,36,male,2024-04-19_17h37.13.785,stockport_simplified,2022.2.4,Win32,59.88023952,661e456ee6de07e70aa9ef7b,66229d97e63d311ac0a28c58,,,,,,,,,,,,,,,,,,,,,,,,,,,,,,,,,,,,,,,,,,,,,,,,,,,,,,,,1,28,88,5,1,A,Y,N,o1_image,stimuli/out1.png,stimuli/correct_out1.png,stimuli/out2.png,,,,,,,,,,,,,,,,,,,,,,,,,,,,,,,,,,,,,,
,,612520bd6605794b27e6a0fd,36,male,2024-04-19_17h37.13.785,stockport_simplified,2022.2.4,Win32,59.88023952,661e456ee6de07e70aa9ef7b,66229d97e63d311ac0a28c58,,,,,,,,,,,,,,,,,,,,,,,,,,,,,,,,,,630.4253,632.4933,"[4,6,3,1,7,5,8,2]","[[-0.3,0.2],[0.3,0.2]]","[[-0.125,-0.2],[0.125,-0.2]]",0.101666667,-0.190833333,1,0,0,1.5509,o2_image,632.4941,1,632.9936,632.9937,634.9954,0,0,0,0,1,,,,,,,,,,,,,,,,,,,,,,,,,,,,,,,,,,,,,,,,,,,,,,,,,,
,,612520bd6605794b27e6a0fd,36,male,2024-04-19_17h37.13.785,stockport_simplified,2022.2.4,Win32,59.88023952,661e456ee6de07e70aa9ef7b,66229d97e63d311ac0a28c58,,,,,,,,,,,,,,,,,,,,,,,,,,,,,,,,,,,,,,,,,,,,,,,,,,,,,,,,1,29,89,46,1,B,Y,N,o2_image,stimuli/out2.png,stimuli/out1.png,stimuli/correct_out2.png,,,,,,,,,,,,,,,,,,,,,,,,,,,,,,,,,,,,,,
,,612520bd6605794b27e6a0fd,36,male,2024-04-19_17h37.13.785,stockport_simplified,2022.2.4,Win32,59.88023952,661e456ee6de07e70aa9ef7b,66229d97e63d311ac0a28c58,,,,,,,,,,,,,,,,,,,,,,,,,,,,,,,,,,634.9957,636.6969,"[4,6,3,1,7,5,8,2]","[[-0.3,0.2],[0.3,0.2]]","[[-0.125,-0.2],[0.125,-0.2]]",-0.086666667,-0.179166667,1,0,0,1.2005,o1_image,636.6976,1,637.1975,637.1976,639.1991,0,0,0,0,1,,,,,,,,,,,,,,,,,,,,,,,,,,,,,,,,,,,,,,,,,,,,,,,,,,
,,612520bd6605794b27e6a0fd,36,male,2024-04-19_17h37.13.785,stockport_simplified,2022.2.4,Win32,59.88023952,661e456ee6de07e70aa9ef7b,66229d97e63d311ac0a28c58,,,,,,,,,,,,,,,,,,,,,,,,,,,,,,,,,,,,,,,,,,,,,,,,,,,,,,,,1,30,90,50,1,N,M,C,o1_image,stimuli/out1.png,stimuli/correct_out1.png,stimuli/out2.png,,,,,,,,,,,,,,,,,,,,,,,,,,,,,,,,,,,,,,
,,612520bd6605794b27e6a0fd,36,male,2024-04-19_17h37.13.785,stockport_simplified,2022.2.4,Win32,59.88023952,661e456ee6de07e70aa9ef7b,66229d97e63d311ac0a28c58,,,,,,,,,,,,,,,,,,,,,,,,,,,,,,,,,,639.1994,641.1507,"[4,6,3,1,7,5,8,2]","[[-0.3,0.2],[0.3,0.2]]","[[0.125,-0.2],[-0.125,-0.2]]",-0.12,-0.176666667,1,0,0,1.4508,o2_image,641.1516,1,641.6511,641.6512,643.6529,0,0,0,0,1,,,,,,,,,,,,,,,,,,,,,,,,,,,,,,,,,,,,,,,,,,,,,,,,,,
,,612520bd6605794b27e6a0fd,36,male,2024-04-19_17h37.13.785,stockport_simplified,2022.2.4,Win32,59.88023952,661e456ee6de07e70aa9ef7b,66229d97e63d311ac0a28c58,,,,,,,,,,,,,,,,,,,,,,,,,,,,,,,,,,,,,,,,,,,,,,,,,,,,,,,,1,31,91,40,1,B,X,N,o2_image,stimuli/out2.png,stimuli/out1.png,stimuli/correct_out2.png,,,,,,,,,,,,,,,,,,,,,,,,,,,,,,,,,,,,,,
,,612520bd6605794b27e6a0fd,36,male,2024-04-19_17h37.13.785,stockport_simplified,2022.2.4,Win32,59.88023952,661e456ee6de07e70aa9ef7b,66229d97e63d311ac0a28c58,,,,,,,,,,,,,,,,,,,,,,,,,,,,,,,,,,643.6534,645.1542,"[4,6,3,1,7,5,8,2]","[[-0.3,0.2],[0.3,0.2]]","[[0.125,-0.2],[-0.125,-0.2]]",-0.113333333,-0.176666667,1,0,0,0.9837,o2_image,645.155,1,645.6546,645.6546,647.6563,0,0,0,0,1,,,,,,,,,,,,,,,,,,,,,,,,,,,,,,,,,,,,,,,,,,,,,,,,,,
,,612520bd6605794b27e6a0fd,36,male,2024-04-19_17h37.13.785,stockport_simplified,2022.2.4,Win32,59.88023952,661e456ee6de07e70aa9ef7b,66229d97e63d311ac0a28c58,,,,,,,,,,,,,,,,,,,,,,,,,,,,,,,,,,,,,,,,,,,,,,,,,,,,,,,,1,32,92,28,1,N,M,D,o2_image,stimuli/out2.png,stimuli/out1.png,stimuli/correct_out2.png,,,,,,,,,,,,,,,,,,,,,,,,,,,,,,,,,,,,,,
,,612520bd6605794b27e6a0fd,36,male,2024-04-19_17h37.13.785,stockport_simplified,2022.2.4,Win32,59.88023952,661e456ee6de07e70aa9ef7b,66229d97e63d311ac0a28c58,,,,,,,,,,,,,,,,,,,,,,,,,,,,,,,,,,647.6568,649.9582,"[4,6,3,1,7,5,8,2]","[[-0.3,0.2],[0.3,0.2]]","[[-0.125,-0.2],[0.125,-0.2]]",0.101666667,-0.179166667,1,0,0,1.7842,o2_image,649.9589,1,650.4588,650.4588,652.4605,0,0,0,0,1,,,,,,,,,,,,,,,,,,,,,,,,,,,,,,,,,,,,,,,,,,,,,,,,,,
,,612520bd6605794b27e6a0fd,36,male,2024-04-19_17h37.13.785,stockport_simplified,2022.2.4,Win32,59.88023952,661e456ee6de07e70aa9ef7b,66229d97e63d311ac0a28c58,,,,,,,,,,,,,,,,,,,,,,,,,,,,,,,,,,,,,,,,,,,,,,,,,,,,,,,,1,33,93,44,1,B,X,N,o2_image,stimuli/out2.png,stimuli/out1.png,stimuli/correct_out2.png,,,,,,,,,,,,,,,,,,,,,,,,,,,,,,,,,,,,,,
,,612520bd6605794b27e6a0fd,36,male,2024-04-19_17h37.13.785,stockport_simplified,2022.2.4,Win32,59.88023952,661e456ee6de07e70aa9ef7b,66229d97e63d311ac0a28c58,,,,,,,,,,,,,,,,,,,,,,,,,,,,,,,,,,652.461,654.5622,"[4,6,3,1,7,5,8,2]","[[0.3,0.2],[-0.3,0.2]]","[[0.125,-0.2],[-0.125,-0.2]]",-0.1175,-0.1875,1,0,0,1.5845,o2_image,654.5629,1,655.0626,655.0626,657.0644,0,0,0,0,1,,,,,,,,,,,,,,,,,,,,,,,,,,,,,,,,,,,,,,,,,,,,,,,,,,
,,612520bd6605794b27e6a0fd,36,male,2024-04-19_17h37.13.785,stockport_simplified,2022.2.4,Win32,59.88023952,661e456ee6de07e70aa9ef7b,66229d97e63d311ac0a28c58,,,,,,,,,,,,,,,,,,,,,,,,,,,,,,,,,,,,,,,,,,,,,,,,,,,,,,,,1,34,94,13,1,B,X,N,o2_image,stimuli/out2.png,stimuli/out1.png,stimuli/correct_out2.png,,,,,,,,,,,,,,,,,,,,,,,,,,,,,,,,,,,,,,
,,612520bd6605794b27e6a0fd,36,male,2024-04-19_17h37.13.785,stockport_simplified,2022.2.4,Win32,59.88023952,661e456ee6de07e70aa9ef7b,66229d97e63d311ac0a28c58,,,,,,,,,,,,,,,,,,,,,,,,,,,,,,,,,,657.0648,658.6657,"[4,6,3,1,7,5,8,2]","[[-0.3,0.2],[0.3,0.2]]","[[-0.125,-0.2],[0.125,-0.2]]",-0.1075,-0.181666667,1,0,0,1.0836,o1_image,658.6666,1,659.1663,659.1664,661.1679,0,0,0,0,1,,,,,,,,,,,,,,,,,,,,,,,,,,,,,,,,,,,,,,,,,,,,,,,,,,
,,612520bd6605794b27e6a0fd,36,male,2024-04-19_17h37.13.785,stockport_simplified,2022.2.4,Win32,59.88023952,661e456ee6de07e70aa9ef7b,66229d97e63d311ac0a28c58,,,,,,,,,,,,,,,,,,,,,,,,,,,,,,,,,,,,,,,,,,,,,,,,,,,,,,,,1,35,95,21,1,N,M,C,o1_image,stimuli/out1.png,stimuli/correct_out1.png,stimuli/out2.png,,,,,,,,,,,,,,,,,,,,,,,,,,,,,,,,,,,,,,
,,612520bd6605794b27e6a0fd,36,male,2024-04-19_17h37.13.785,stockport_simplified,2022.2.4,Win32,59.88023952,661e456ee6de07e70aa9ef7b,66229d97e63d311ac0a28c58,,,,,,,,,,,,,,,,,,,,,,,,,,,,,,,,,,661.1683,662.5528,"[4,6,3,1,7,5,8,2]","[[0.3,0.2],[-0.3,0.2]]","[[-0.125,-0.2],[0.125,-0.2]]",-0.1075,-0.181666667,1,0,0,0.8675,o1_image,662.554,1,663.0531,663.0531,665.0547,0,0,0,0,1,,,,,,,,,,,,,,,,,,,,,,,,,,,,,,,,,,,,,,,,,,,,,,,,,,
,,612520bd6605794b27e6a0fd,36,male,2024-04-19_17h37.13.785,stockport_simplified,2022.2.4,Win32,59.88023952,661e456ee6de07e70aa9ef7b,66229d97e63d311ac0a28c58,,,,,,,,,,,,,,,,,,,,,,,,,,,,,,,,,,,,,,,,,,,,,,,,,,,,,,,,1,36,96,53,1,N,M,C,o1_image,stimuli/out1.png,stimuli/correct_out1.png,stimuli/out2.png,,,,,,,,,,,,,,,,,,,,,,,,,,,,,,,,,,,,,,
,,612520bd6605794b27e6a0fd,36,male,2024-04-19_17h37.13.785,stockport_simplified,2022.2.4,Win32,59.88023952,661e456ee6de07e70aa9ef7b,66229d97e63d311ac0a28c58,,,,,,,,,,,,,,,,,,,,,,,,,,,,,,,,,,665.055,667.1733,"[4,6,3,1,7,5,8,2]","[[-0.3,0.2],[0.3,0.2]]","[[-0.125,-0.2],[0.125,-0.2]]",0.135,-0.178333333,1,0,0,1.6177,o2_image,667.174,1,667.6736,667.6737,669.6753,0,0,0,0,1,,,,,,,,,,,,,,,,,,,,,,,,,,,,,,,,,,,,,,,,,,,,,,,,,,
,,612520bd6605794b27e6a0fd,36,male,2024-04-19_17h37.13.785,stockport_simplified,2022.2.4,Win32,59.88023952,661e456ee6de07e70aa9ef7b,66229d97e63d311ac0a28c58,,,,,,,,,,,,,,,,,,,,,,,,,,,,,,,,,,,,,,,,,,,,,,,,,,,,,,,,1,37,97,16,1,B,Y,N,o2_image,stimuli/out2.png,stimuli/out1.png,stimuli/correct_out2.png,,,,,,,,,,,,,,,,,,,,,,,,,,,,,,,,,,,,,,
,,612520bd6605794b27e6a0fd,36,male,2024-04-19_17h37.13.785,stockport_simplified,2022.2.4,Win32,59.88023952,661e456ee6de07e70aa9ef7b,66229d97e63d311ac0a28c58,,,,,,,,,,,,,,,,,,,,,,,,,,,,,,,,,,669.6756,671.1767,"[4,6,3,1,7,5,8,2]","[[-0.3,0.2],[0.3,0.2]]","[[0.125,-0.2],[-0.125,-0.2]]",-0.095,-0.1775,1,0,0,1.0005,o2_image,671.178,1,671.677,671.6771,673.6788,0,0,0,0,1,,,,,,,,,,,,,,,,,,,,,,,,,,,,,,,,,,,,,,,,,,,,,,,,,,
,,612520bd6605794b27e6a0fd,36,male,2024-04-19_17h37.13.785,stockport_simplified,2022.2.4,Win32,59.88023952,661e456ee6de07e70aa9ef7b,66229d97e63d311ac0a28c58,,,,,,,,,,,,,,,,,,,,,,,,,,,,,,,,,,,,,,,,,,,,,,,,,,,,,,,,1,38,98,26,1,N,M,D,o2_image,stimuli/out2.png,stimuli/out1.png,stimuli/correct_out2.png,,,,,,,,,,,,,,,,,,,,,,,,,,,,,,,,,,,,,,
,,612520bd6605794b27e6a0fd,36,male,2024-04-19_17h37.13.785,stockport_simplified,2022.2.4,Win32,59.88023952,661e456ee6de07e70aa9ef7b,66229d97e63d311ac0a28c58,,,,,,,,,,,,,,,,,,,,,,,,,,,,,,,,,,673.6791,674.8965,"[4,6,3,1,7,5,8,2]","[[0.3,0.2],[-0.3,0.2]]","[[0.125,-0.2],[-0.125,-0.2]]",-0.105,-0.174166667,1,0,0,0.7169,o2_image,674.8974,1,675.3968,675.3969,677.3989,0,0,0,0,1,,,,,,,,,,,,,,,,,,,,,,,,,,,,,,,,,,,,,,,,,,,,,,,,,,
,,612520bd6605794b27e6a0fd,36,male,2024-04-19_17h37.13.785,stockport_simplified,2022.2.4,Win32,59.88023952,661e456ee6de07e70aa9ef7b,66229d97e63d311ac0a28c58,,,,,,,,,,,,,,,,,,,,,,,,,,,,,,,,,,,,,,,,,,,,,,,,,,,,,,,,1,39,99,55,1,N,M,D,o2_image,stimuli/out2.png,stimuli/out1.png,stimuli/correct_out2.png,,,,,,,,,,,,,,,,,,,,,,,,,,,,,,,,,,,,,,
,,612520bd6605794b27e6a0fd,36,male,2024-04-19_17h37.13.785,stockport_simplified,2022.2.4,Win32,59.88023952,661e456ee6de07e70aa9ef7b,66229d97e63d311ac0a28c58,,,,,,,,,,,,,,,,,,,,,,,,,,,,,,,,,,677.3995,679.7006,"[4,6,3,1,7,5,8,2]","[[-0.3,0.2],[0.3,0.2]]","[[0.125,-0.2],[-0.125,-0.2]]",0.126666667,-0.18,1,0,0,1.784,o1_image,679.7014,1,680.201,680.201,682.2028,0,0,0,0,1,,,,,,,,,,,,,,,,,,,,,,,,,,,,,,,,,,,,,,,,,,,,,,,,,,
,,612520bd6605794b27e6a0fd,36,male,2024-04-19_17h37.13.785,stockport_simplified,2022.2.4,Win32,59.88023952,661e456ee6de07e70aa9ef7b,66229d97e63d311ac0a28c58,,,,,,,,,,,,,,,,,,,,,,,,,,,,,,,,,,,,,,,,,,,,,,,,,,,,,,,,1,40,100,34,1,A,X,N,o1_image,stimuli/out1.png,stimuli/correct_out1.png,stimuli/out2.png,,,,,,,,,,,,,,,,,,,,,,,,,,,,,,,,,,,,,,
,,612520bd6605794b27e6a0fd,36,male,2024-04-19_17h37.13.785,stockport_simplified,2022.2.4,Win32,59.88023952,661e456ee6de07e70aa9ef7b,66229d97e63d311ac0a28c58,,,,,,,,,,,,,,,,,,,,,,,,,,,,,,,,,,682.2033,683.8542,"[4,6,3,1,7,5,8,2]","[[-0.3,0.2],[0.3,0.2]]","[[-0.125,-0.2],[0.125,-0.2]]",-0.090833333,-0.179166667,1,0,0,1.1339,o1_image,683.855,1,684.3547,684.3548,686.3563,0,0,0,0,1,,,,,,,,,,,,,,,,,,,,,,,,,,,,,,,,,,,,,,,,,,,,,,,,,,
,,612520bd6605794b27e6a0fd,36,male,2024-04-19_17h37.13.785,stockport_simplified,2022.2.4,Win32,59.88023952,661e456ee6de07e70aa9ef7b,66229d97e63d311ac0a28c58,,,,,,,,,,,,,,,,,,,,,,,,,,,,,,,,,,,,,,,,,,,,,,,,,,,,,,,,1,41,101,6,1,A,Y,N,o1_image,stimuli/out1.png,stimuli/correct_out1.png,stimuli/out2.png,,,,,,,,,,,,,,,,,,,,,,,,,,,,,,,,,,,,,,
,,612520bd6605794b27e6a0fd,36,male,2024-04-19_17h37.13.785,stockport_simplified,2022.2.4,Win32,59.88023952,661e456ee6de07e70aa9ef7b,66229d97e63d311ac0a28c58,,,,,,,,,,,,,,,,,,,,,,,,,,,,,,,,,,686.3568,688.3412,"[4,6,3,1,7,5,8,2]","[[0.3,0.2],[-0.3,0.2]]","[[0.125,-0.2],[-0.125,-0.2]]",0.124166667,-0.173333333,1,0,0,1.4675,o1_image,688.342,1,688.8421,688.8422,690.8436,0,0,0,0,1,,,,,,,,,,,,,,,,,,,,,,,,,,,,,,,,,,,,,,,,,,,,,,,,,,
,,612520bd6605794b27e6a0fd,36,male,2024-04-19_17h37.13.785,stockport_simplified,2022.2.4,Win32,59.88023952,661e456ee6de07e70aa9ef7b,66229d97e63d311ac0a28c58,,,,,,,,,,,,,,,,,,,,,,,,,,,,,,,,,,,,,,,,,,,,,,,,,,,,,,,,1,42,102,9,1,A,Y,N,o1_image,stimuli/out1.png,stimuli/correct_out1.png,stimuli/out2.png,,,,,,,,,,,,,,,,,,,,,,,,,,,,,,,,,,,,,,
,,612520bd6605794b27e6a0fd,36,male,2024-04-19_17h37.13.785,stockport_simplified,2022.2.4,Win32,59.88023952,661e456ee6de07e70aa9ef7b,66229d97e63d311ac0a28c58,,,,,,,,,,,,,,,,,,,,,,,,,,,,,,,,,,690.844,692.3613,"[4,6,3,1,7,5,8,2]","[[-0.3,0.2],[0.3,0.2]]","[[0.125,-0.2],[-0.125,-0.2]]",-0.125833333,-0.173333333,1,0,0,1.0003,o2_image,692.3622,1,692.8621,692.8622,694.8637,0,0,0,0,1,,,,,,,,,,,,,,,,,,,,,,,,,,,,,,,,,,,,,,,,,,,,,,,,,,
,,612520bd6605794b27e6a0fd,36,male,2024-04-19_17h37.13.785,stockport_simplified,2022.2.4,Win32,59.88023952,661e456ee6de07e70aa9ef7b,66229d97e63d311ac0a28c58,,,,,,,,,,,,,,,,,,,,,,,,,,,,,,,,,,,,,,,,,,,,,,,,,,,,,,,,1,43,103,29,1,N,M,D,o2_image,stimuli/out2.png,stimuli/out1.png,stimuli/correct_out2.png,,,,,,,,,,,,,,,,,,,,,,,,,,,,,,,,,,,,,,
,,612520bd6605794b27e6a0fd,36,male,2024-04-19_17h37.13.785,stockport_simplified,2022.2.4,Win32,59.88023952,661e456ee6de07e70aa9ef7b,66229d97e63d311ac0a28c58,,,,,,,,,,,,,,,,,,,,,,,,,,,,,,,,,,694.8642,697.0489,"[4,6,3,1,7,5,8,2]","[[-0.3,0.2],[0.3,0.2]]","[[-0.125,-0.2],[0.125,-0.2]]",0.103333333,-0.171666667,1,0,0,1.6677,o2_image,697.0497,1,697.5492,697.5493,699.5511,0,0,0,0,1,,,,,,,,,,,,,,,,,,,,,,,,,,,,,,,,,,,,,,,,,,,,,,,,,,
,,612520bd6605794b27e6a0fd,36,male,2024-04-19_17h37.13.785,stockport_simplified,2022.2.4,Win32,59.88023952,661e456ee6de07e70aa9ef7b,66229d97e63d311ac0a28c58,,,,,,,,,,,,,,,,,,,,,,,,,,,,,,,,,,,,,,,,,,,,,,,,,,,,,,,,1,44,104,42,1,B,X,N,o2_image,stimuli/out2.png,stimuli/out1.png,stimuli/correct_out2.png,,,,,,,,,,,,,,,,,,,,,,,,,,,,,,,,,,,,,,
,,612520bd6605794b27e6a0fd,36,male,2024-04-19_17h37.13.785,stockport_simplified,2022.2.4,Win32,59.88023952,661e456ee6de07e70aa9ef7b,66229d97e63d311ac0a28c58,,,,,,,,,,,,,,,,,,,,,,,,,,,,,,,,,,699.5515,701.5695,"[4,6,3,1,7,5,8,2]","[[0.3,0.2],[-0.3,0.2]]","[[-0.125,-0.2],[0.125,-0.2]]",-0.1075,-0.183333333,1,0,0,1.5011,o1_image,701.5703,1,702.0699,702.0699,704.0716,0,0,0,0,1,,,,,,,,,,,,,,,,,,,,,,,,,,,,,,,,,,,,,,,,,,,,,,,,,,
,,612520bd6605794b27e6a0fd,36,male,2024-04-19_17h37.13.785,stockport_simplified,2022.2.4,Win32,59.88023952,661e456ee6de07e70aa9ef7b,66229d97e63d311ac0a28c58,,,,,,,,,,,,,,,,,,,,,,,,,,,,,,,,,,,,,,,,,,,,,,,,,,,,,,,,1,45,105,32,1,A,X,N,o1_image,stimuli/out1.png,stimuli/correct_out1.png,stimuli/out2.png,,,,,,,,,,,,,,,,,,,,,,,,,,,,,,,,,,,,,,
,,612520bd6605794b27e6a0fd,36,male,2024-04-19_17h37.13.785,stockport_simplified,2022.2.4,Win32,59.88023952,661e456ee6de07e70aa9ef7b,66229d97e63d311ac0a28c58,,,,,,,,,,,,,,,,,,,,,,,,,,,,,,,,,,704.0721,705.673,"[4,6,3,1,7,5,8,2]","[[-0.3,0.2],[0.3,0.2]]","[[0.125,-0.2],[-0.125,-0.2]]",0.103333333,-0.171666667,1,0,0,1.0838,o1_image,705.6739,1,706.1734,706.1735,708.1752,0,0,0,0,1,,,,,,,,,,,,,,,,,,,,,,,,,,,,,,,,,,,,,,,,,,,,,,,,,,
,,612520bd6605794b27e6a0fd,36,male,2024-04-19_17h37.13.785,stockport_simplified,2022.2.4,Win32,59.88023952,661e456ee6de07e70aa9ef7b,66229d97e63d311ac0a28c58,,,,,,,,,,,,,,,,,,,,,,,,,,,,,,,,,,,,,,,,,,,,,,,,,,,,,,,,1,46,106,24,1,N,M,C,o1_image,stimuli/out1.png,stimuli/correct_out1.png,stimuli/out2.png,,,,,,,,,,,,,,,,,,,,,,,,,,,,,,,,,,,,,,
,,612520bd6605794b27e6a0fd,36,male,2024-04-19_17h37.13.785,stockport_simplified,2022.2.4,Win32,59.88023952,661e456ee6de07e70aa9ef7b,66229d97e63d311ac0a28c58,,,,,,,,,,,,,,,,,,,,,,,,,,,,,,,,,,708.1755,710.0601,"[4,6,3,1,7,5,8,2]","[[0.3,0.2],[-0.3,0.2]]","[[0.125,-0.2],[-0.125,-0.2]]",0.1025,-0.180833333,1,0,0,1.3671,o1_image,710.0609,1,710.5605,710.5606,712.5622,0,0,0,0,1,,,,,,,,,,,,,,,,,,,,,,,,,,,,,,,,,,,,,,,,,,,,,,,,,,
,,612520bd6605794b27e6a0fd,36,male,2024-04-19_17h37.13.785,stockport_simplified,2022.2.4,Win32,59.88023952,661e456ee6de07e70aa9ef7b,66229d97e63d311ac0a28c58,,,,,,,,,,,,,,,,,,,,,,,,,,,,,,,,,,,,,,,,,,,,,,,,,,,,,,,,1,47,107,30,1,A,X,N,o1_image,stimuli/out1.png,stimuli/correct_out1.png,stimuli/out2.png,,,,,,,,,,,,,,,,,,,,,,,,,,,,,,,,,,,,,,
,,612520bd6605794b27e6a0fd,36,male,2024-04-19_17h37.13.785,stockport_simplified,2022.2.4,Win32,59.88023952,661e456ee6de07e70aa9ef7b,66229d97e63d311ac0a28c58,,,,,,,,,,,,,,,,,,,,,,,,,,,,,,,,,,712.5627,714.6139,"[4,6,3,1,7,5,8,2]","[[-0.3,0.2],[0.3,0.2]]","[[0.125,-0.2],[-0.125,-0.2]]",-0.085,-0.180833333,1,0,0,1.5341,o2_image,714.6147,1,715.1145,715.1145,717.1161,0,0,0,0,1,,,,,,,,,,,,,,,,,,,,,,,,,,,,,,,,,,,,,,,,,,,,,,,,,,
,,612520bd6605794b27e6a0fd,36,male,2024-04-19_17h37.13.785,stockport_simplified,2022.2.4,Win32,59.88023952,661e456ee6de07e70aa9ef7b,66229d97e63d311ac0a28c58,,,,,,,,,,,,,,,,,,,,,,,,,,,,,,,,,,,,,,,,,,,,,,,,,,,,,,,,1,48,108,45,1,B,Y,N,o2_image,stimuli/out2.png,stimuli/out1.png,stimuli/correct_out2.png,,,,,,,,,,,,,,,,,,,,,,,,,,,,,,,,,,,,,,
,,612520bd6605794b27e6a0fd,36,male,2024-04-19_17h37.13.785,stockport_simplified,2022.2.4,Win32,59.88023952,661e456ee6de07e70aa9ef7b,66229d97e63d311ac0a28c58,,,,,,,,,,,,,,,,,,,,,,,,,,,,,,,,,,717.1165,718.7009,"[4,6,3,1,7,5,8,2]","[[0.3,0.2],[-0.3,0.2]]","[[-0.125,-0.2],[0.125,-0.2]]",0.080833333,-0.171666667,1,0,0,1.0673,o2_image,718.7016,1,719.2014,719.2014,721.2032,0,0,0,0,1,,,,,,,,,,,,,,,,,,,,,,,,,,,,,,,,,,,,,,,,,,,,,,,,,,
,,612520bd6605794b27e6a0fd,36,male,2024-04-19_17h37.13.785,stockport_simplified,2022.2.4,Win32,59.88023952,661e456ee6de07e70aa9ef7b,66229d97e63d311ac0a28c58,,,,,,,,,,,,,,,,,,,,,,,,,,,,,,,,,,,,,,,,,,,,,,,,,,,,,,,,1,49,109,57,1,N,M,D,o2_image,stimuli/out2.png,stimuli/out1.png,stimuli/correct_out2.png,,,,,,,,,,,,,,,,,,,,,,,,,,,,,,,,,,,,,,
,,612520bd6605794b27e6a0fd,36,male,2024-04-19_17h37.13.785,stockport_simplified,2022.2.4,Win32,59.88023952,661e456ee6de07e70aa9ef7b,66229d97e63d311ac0a28c58,,,,,,,,,,,,,,,,,,,,,,,,,,,,,,,,,,721.2036,723.0212,"[4,6,3,1,7,5,8,2]","[[0.3,0.2],[-0.3,0.2]]","[[-0.125,-0.2],[0.125,-0.2]]",0.133333333,-0.1775,1,0,0,1.3005,o2_image,723.022,1,723.5217,723.5218,725.5235,0,0,0,0,1,,,,,,,,,,,,,,,,,,,,,,,,,,,,,,,,,,,,,,,,,,,,,,,,,,
,,612520bd6605794b27e6a0fd,36,male,2024-04-19_17h37.13.785,stockport_simplified,2022.2.4,Win32,59.88023952,661e456ee6de07e70aa9ef7b,66229d97e63d311ac0a28c58,,,,,,,,,,,,,,,,,,,,,,,,,,,,,,,,,,,,,,,,,,,,,,,,,,,,,,,,1,50,110,19,1,B,Y,N,o2_image,stimuli/out2.png,stimuli/out1.png,stimuli/correct_out2.png,,,,,,,,,,,,,,,,,,,,,,,,,,,,,,,,,,,,,,
,,612520bd6605794b27e6a0fd,36,male,2024-04-19_17h37.13.785,stockport_simplified,2022.2.4,Win32,59.88023952,661e456ee6de07e70aa9ef7b,66229d97e63d311ac0a28c58,,,,,,,,,,,,,,,,,,,,,,,,,,,,,,,,,,725.5239,727.425,"[4,6,3,1,7,5,8,2]","[[-0.3,0.2],[0.3,0.2]]","[[-0.125,-0.2],[0.125,-0.2]]",0.124166667,-0.183333333,1,0,0,1.3842,o2_image,727.4259,1,727.9255,727.9256,729.9272,0,0,0,0,1,,,,,,,,,,,,,,,,,,,,,,,,,,,,,,,,,,,,,,,,,,,,,,,,,,
,,612520bd6605794b27e6a0fd,36,male,2024-04-19_17h37.13.785,stockport_simplified,2022.2.4,Win32,59.88023952,661e456ee6de07e70aa9ef7b,66229d97e63d311ac0a28c58,,,,,,,,,,,,,,,,,,,,,,,,,,,,,,,,,,,,,,,,,,,,,,,,,,,,,,,,1,51,111,43,1,B,X,N,o2_image,stimuli/out2.png,stimuli/out1.png,stimuli/correct_out2.png,,,,,,,,,,,,,,,,,,,,,,,,,,,,,,,,,,,,,,
,,612520bd6605794b27e6a0fd,36,male,2024-04-19_17h37.13.785,stockport_simplified,2022.2.4,Win32,59.88023952,661e456ee6de07e70aa9ef7b,66229d97e63d311ac0a28c58,,,,,,,,,,,,,,,,,,,,,,,,,,,,,,,,,,729.9277,731.7454,"[4,6,3,1,7,5,8,2]","[[-0.3,0.2],[0.3,0.2]]","[[0.125,-0.2],[-0.125,-0.2]]",0.129166667,-0.184166667,1,0,0,1.3006,o1_image,731.7462,1,732.2459,732.246,734.2475,0,0,0,0,1,,,,,,,,,,,,,,,,,,,,,,,,,,,,,,,,,,,,,,,,,,,,,,,,,,
,,612520bd6605794b27e6a0fd,36,male,2024-04-19_17h37.13.785,stockport_simplified,2022.2.4,Win32,59.88023952,661e456ee6de07e70aa9ef7b,66229d97e63d311ac0a28c58,,,,,,,,,,,,,,,,,,,,,,,,,,,,,,,,,,,,,,,,,,,,,,,,,,,,,,,,1,52,112,0,1,A,X,N,o1_image,stimuli/out1.png,stimuli/correct_out1.png,stimuli/out2.png,,,,,,,,,,,,,,,,,,,,,,,,,,,,,,,,,,,,,,
,,612520bd6605794b27e6a0fd,36,male,2024-04-19_17h37.13.785,stockport_simplified,2022.2.4,Win32,59.88023952,661e456ee6de07e70aa9ef7b,66229d97e63d311ac0a28c58,,,,,,,,,,,,,,,,,,,,,,,,,,,,,,,,,,734.2479,736.2828,"[4,6,3,1,7,5,8,2]","[[0.3,0.2],[-0.3,0.2]]","[[-0.125,-0.2],[0.125,-0.2]]",-0.100833333,-0.185,1,0,0,1.5345,o1_image,736.2835,1,736.7831,736.7831,738.7848,0,0,0,0,1,,,,,,,,,,,,,,,,,,,,,,,,,,,,,,,,,,,,,,,,,,,,,,,,,,
,,612520bd6605794b27e6a0fd,36,male,2024-04-19_17h37.13.785,stockport_simplified,2022.2.4,Win32,59.88023952,661e456ee6de07e70aa9ef7b,66229d97e63d311ac0a28c58,,,,,,,,,,,,,,,,,,,,,,,,,,,,,,,,,,,,,,,,,,,,,,,,,,,,,,,,1,53,113,3,1,A,X,N,o1_image,stimuli/out1.png,stimuli/correct_out1.png,stimuli/out2.png,,,,,,,,,,,,,,,,,,,,,,,,,,,,,,,,,,,,,,
,,612520bd6605794b27e6a0fd,36,male,2024-04-19_17h37.13.785,stockport_simplified,2022.2.4,Win32,59.88023952,661e456ee6de07e70aa9ef7b,66229d97e63d311ac0a28c58,,,,,,,,,,,,,,,,,,,,,,,,,,,,,,,,,,738.7852,740.7866,"[4,6,3,1,7,5,8,2]","[[-0.3,0.2],[0.3,0.2]]","[[-0.125,-0.2],[0.125,-0.2]]",0.098333333,-0.184166667,1,0,0,1.4842,o2_image,740.7874,1,741.287,741.2871,743.2887,0,0,0,0,1,,,,,,,,,,,,,,,,,,,,,,,,,,,,,,,,,,,,,,,,,,,,,,,,,,
,,612520bd6605794b27e6a0fd,36,male,2024-04-19_17h37.13.785,stockport_simplified,2022.2.4,Win32,59.88023952,661e456ee6de07e70aa9ef7b,66229d97e63d311ac0a28c58,,,,,,,,,,,,,,,,,,,,,,,,,,,,,,,,,,,,,,,,,,,,,,,,,,,,,,,,1,54,114,10,1,B,X,N,o2_image,stimuli/out2.png,stimuli/out1.png,stimuli/correct_out2.png,,,,,,,,,,,,,,,,,,,,,,,,,,,,,,,,,,,,,,
,,612520bd6605794b27e6a0fd,36,male,2024-04-19_17h37.13.785,stockport_simplified,2022.2.4,Win32,59.88023952,661e456ee6de07e70aa9ef7b,66229d97e63d311ac0a28c58,,,,,,,,,,,,,,,,,,,,,,,,,,,,,,,,,,743.2891,744.8402,"[4,6,3,1,7,5,8,2]","[[-0.3,0.2],[0.3,0.2]]","[[-0.125,-0.2],[0.125,-0.2]]",0.095833333,-0.1825,1,0,0,1.0337,o2_image,744.841,1,745.3406,745.3406,747.3423,0,0,0,0,1,,,,,,,,,,,,,,,,,,,,,,,,,,,,,,,,,,,,,,,,,,,,,,,,,,
,,612520bd6605794b27e6a0fd,36,male,2024-04-19_17h37.13.785,stockport_simplified,2022.2.4,Win32,59.88023952,661e456ee6de07e70aa9ef7b,66229d97e63d311ac0a28c58,,,,,,,,,,,,,,,,,,,,,,,,,,,,,,,,,,,,,,,,,,,,,,,,,,,,,,,,1,55,115,58,1,N,M,D,o2_image,stimuli/out2.png,stimuli/out1.png,stimuli/correct_out2.png,,,,,,,,,,,,,,,,,,,,,,,,,,,,,,,,,,,,,,
,,612520bd6605794b27e6a0fd,36,male,2024-04-19_17h37.13.785,stockport_simplified,2022.2.4,Win32,59.88023952,661e456ee6de07e70aa9ef7b,66229d97e63d311ac0a28c58,,,,,,,,,,,,,,,,,,,,,,,,,,,,,,,,,,747.3426,749.194,"[4,6,3,1,7,5,8,2]","[[-0.3,0.2],[0.3,0.2]]","[[0.125,-0.2],[-0.125,-0.2]]",0.201666667,-0.185833333,1,0,0,1.3507,o1_image,749.1947,1,749.6945,749.6946,751.6959,0,0,0,0,1,,,,,,,,,,,,,,,,,,,,,,,,,,,,,,,,,,,,,,,,,,,,,,,,,,
,,612520bd6605794b27e6a0fd,36,male,2024-04-19_17h37.13.785,stockport_simplified,2022.2.4,Win32,59.88023952,661e456ee6de07e70aa9ef7b,66229d97e63d311ac0a28c58,,,,,,,,,,,,,,,,,,,,,,,,,,,,,,,,,,,,,,,,,,,,,,,,,,,,,,,,1,56,116,35,1,A,Y,N,o1_image,stimuli/out1.png,stimuli/correct_out1.png,stimuli/out2.png,,,,,,,,,,,,,,,,,,,,,,,,,,,,,,,,,,,,,,
,,612520bd6605794b27e6a0fd,36,male,2024-04-19_17h37.13.785,stockport_simplified,2022.2.4,Win32,59.88023952,661e456ee6de07e70aa9ef7b,66229d97e63d311ac0a28c58,,,,,,,,,,,,,,,,,,,,,,,,,,,,,,,,,,751.6964,753.3641,"[4,6,3,1,7,5,8,2]","[[-0.3,0.2],[0.3,0.2]]","[[-0.125,-0.2],[0.125,-0.2]]",-0.125833333,-0.1925,1,0,0,1.1505,o1_image,753.3648,1,753.8646,753.8646,755.8662,0,0,0,0,1,,,,,,,,,,,,,,,,,,,,,,,,,,,,,,,,,,,,,,,,,,,,,,,,,,
,,612520bd6605794b27e6a0fd,36,male,2024-04-19_17h37.13.785,stockport_simplified,2022.2.4,Win32,59.88023952,661e456ee6de07e70aa9ef7b,66229d97e63d311ac0a28c58,,,,,,,,,,,,,,,,,,,,,,,,,,,,,,,,,,,,,,,,,,,,,,,,,,,,,,,,1,57,117,23,1,N,M,C,o1_image,stimuli/out1.png,stimuli/correct_out1.png,stimuli/out2.png,,,,,,,,,,,,,,,,,,,,,,,,,,,,,,,,,,,,,,
,,612520bd6605794b27e6a0fd,36,male,2024-04-19_17h37.13.785,stockport_simplified,2022.2.4,Win32,59.88023952,661e456ee6de07e70aa9ef7b,66229d97e63d311ac0a28c58,,,,,,,,,,,,,,,,,,,,,,,,,,,,,,,,,,755.8666,757.7678,"[4,6,3,1,7,5,8,2]","[[0.3,0.2],[-0.3,0.2]]","[[-0.125,-0.2],[0.125,-0.2]]",0.090833333,-0.184166667,1,0,0,1.4002,o2_image,757.7686,1,758.2684,758.2684,760.2701,0,0,0,0,1,,,,,,,,,,,,,,,,,,,,,,,,,,,,,,,,,,,,,,,,,,,,,,,,,,
,,612520bd6605794b27e6a0fd,36,male,2024-04-19_17h37.13.785,stockport_simplified,2022.2.4,Win32,59.88023952,661e456ee6de07e70aa9ef7b,66229d97e63d311ac0a28c58,,,,,,,,,,,,,,,,,,,,,,,,,,,,,,,,,,,,,,,,,,,,,,,,,,,,,,,,1,58,118,14,1,B,X,N,o2_image,stimuli/out2.png,stimuli/out1.png,stimuli/correct_out2.png,,,,,,,,,,,,,,,,,,,,,,,,,,,,,,,,,,,,,,
,,612520bd6605794b27e6a0fd,36,male,2024-04-19_17h37.13.785,stockport_simplified,2022.2.4,Win32,59.88023952,661e456ee6de07e70aa9ef7b,66229d97e63d311ac0a28c58,,,,,,,,,,,,,,,,,,,,,,,,,,,,,,,,,,760.2703,762.422,"[4,6,3,1,7,5,8,2]","[[-0.3,0.2],[0.3,0.2]]","[[-0.125,-0.2],[0.125,-0.2]]",-0.101666667,-0.185833333,1,0,0,1.6509,o1_image,762.4309,1,762.9223,762.9223,764.9241,0,0,0,0,1,,,,,,,,,,,,,,,,,,,,,,,,,,,,,,,,,,,,,,,,,,,,,,,,,,
,,612520bd6605794b27e6a0fd,36,male,2024-04-19_17h37.13.785,stockport_simplified,2022.2.4,Win32,59.88023952,661e456ee6de07e70aa9ef7b,66229d97e63d311ac0a28c58,,,,,,,,,,,,,,,,,,,,,,,,,,,,,,,,,,,,,,,,,,,,,,,,,,,,,,,,1,59,119,8,1,A,Y,N,o1_image,stimuli/out1.png,stimuli/correct_out1.png,stimuli/out2.png,,,,,,,,,,,,,,,,,,,,,,,,,,,,,,,,,,,,,,
,,612520bd6605794b27e6a0fd,36,male,2024-04-19_17h37.13.785,stockport_simplified,2022.2.4,Win32,59.88023952,661e456ee6de07e70aa9ef7b,66229d97e63d311ac0a28c58,,,,,,,,,,,,,,,,,,,,,,,,,,,,,,,,,,764.938,766.8591,"[4,6,3,1,7,5,8,2]","[[0.3,0.2],[-0.3,0.2]]","[[0.125,-0.2],[-0.125,-0.2]]",-0.103333333,-0.175,1,0,0,1.4172,o2_image,766.86,1,767.3594,767.3595,769.3612,,,,,,,,,,,,,,,,,,0,0,0,0,1,,,,,,,,,,,,,,,,,,,,,,,,,,,,,,,,,
,,612520bd6605794b27e6a0fd,36,male,2024-04-19_17h37.13.785,stockport_simplified,2022.2.4,Win32,59.88023952,661e456ee6de07e70aa9ef7b,66229d97e63d311ac0a28c58,,,,,,,,,,,,,,,,,,,,,,,,,,,,,,,,,,,,,,,,,,,,,,,,,,,,,,,,,,,,,B,Y,N,o2_image,stimuli/out2.png,stimuli/out1.png,stimuli/correct_out2.png,,,,,,0,0,0,37,1,,,,,,,,,,,,,,,,,,,,,,,,,,,,
,,612520bd6605794b27e6a0fd,36,male,2024-04-19_17h37.13.785,stockport_simplified,2022.2.4,Win32,59.88023952,661e456ee6de07e70aa9ef7b,66229d97e63d311ac0a28c58,,,,,,,,,,,,,,,,,,,,,,,,,,,,,,,,,,769.362,771.463,"[4,6,3,1,7,5,8,2]","[[0.3,0.2],[-0.3,0.2]]","[[0.125,-0.2],[-0.125,-0.2]]",0.115833333,-0.175833333,1,0,0,1.5844,o1_image,771.4638,1,771.9634,771.9634,773.9652,,,,,,,,,,,,,,,,,,0,0,0,0,1,,,,,,,,,,,,,,,,,,,,,,,,,,,,,,,,,
,,612520bd6605794b27e6a0fd,36,male,2024-04-19_17h37.13.785,stockport_simplified,2022.2.4,Win32,59.88023952,661e456ee6de07e70aa9ef7b,66229d97e63d311ac0a28c58,,,,,,,,,,,,,,,,,,,,,,,,,,,,,,,,,,,,,,,,,,,,,,,,,,,,,,,,,,,,,A,X,N,o1_image,stimuli/out1.png,stimuli/correct_out1.png,stimuli/out2.png,,,,,,0,1,1,4,1,,,,,,,,,,,,,,,,,,,,,,,,,,,,
,,612520bd6605794b27e6a0fd,36,male,2024-04-19_17h37.13.785,stockport_simplified,2022.2.4,Win32,59.88023952,661e456ee6de07e70aa9ef7b,66229d97e63d311ac0a28c58,,,,,,,,,,,,,,,,,,,,,,,,,,,,,,,,,,773.9656,775.6833,"[4,6,3,1,7,5,8,2]","[[0.3,0.2],[-0.3,0.2]]","[[0.125,-0.2],[-0.125,-0.2]]",0.121666667,-0.173333333,1,0,0,1.217,o1_image,775.684,1,776.1838,776.1838,778.1857,,,,,,,,,,,,,,,,,,0,0,0,0,1,,,,,,,,,,,,,,,,,,,,,,,,,,,,,,,,,
,,612520bd6605794b27e6a0fd,36,male,2024-04-19_17h37.13.785,stockport_simplified,2022.2.4,Win32,59.88023952,661e456ee6de07e70aa9ef7b,66229d97e63d311ac0a28c58,,,,,,,,,,,,,,,,,,,,,,,,,,,,,,,,,,,,,,,,,,,,,,,,,,,,,,,,,,,,,A,Y,N,o1_image,stimuli/out1.png,stimuli/correct_out1.png,stimuli/out2.png,,,,,,0,2,2,12,1,,,,,,,,,,,,,,,,,,,,,,,,,,,,
,,612520bd6605794b27e6a0fd,36,male,2024-04-19_17h37.13.785,stockport_simplified,2022.2.4,Win32,59.88023952,661e456ee6de07e70aa9ef7b,66229d97e63d311ac0a28c58,,,,,,,,,,,,,,,,,,,,,,,,,,,,,,,,,,778.1862,779.6533,"[4,6,3,1,7,5,8,2]","[[-0.3,0.2],[0.3,0.2]]","[[0.125,-0.2],[-0.125,-0.2]]",0.0925,-0.175,1,0,0,0.9503,o1_image,779.654,1,780.1538,780.1539,782.1557,,,,,,,,,,,,,,,,,,0,0,0,0,1,,,,,,,,,,,,,,,,,,,,,,,,,,,,,,,,,
,,612520bd6605794b27e6a0fd,36,male,2024-04-19_17h37.13.785,stockport_simplified,2022.2.4,Win32,59.88023952,661e456ee6de07e70aa9ef7b,66229d97e63d311ac0a28c58,,,,,,,,,,,,,,,,,,,,,,,,,,,,,,,,,,,,,,,,,,,,,,,,,,,,,,,,,,,,,A,Y,N,o1_image,stimuli/out1.png,stimuli/correct_out1.png,stimuli/out2.png,,,,,,0,3,3,18,1,,,,,,,,,,,,,,,,,,,,,,,,,,,,
,,612520bd6605794b27e6a0fd,36,male,2024-04-19_17h37.13.785,stockport_simplified,2022.2.4,Win32,59.88023952,661e456ee6de07e70aa9ef7b,66229d97e63d311ac0a28c58,,,,,,,,,,,,,,,,,,,,,,,,,,,,,,,,,,782.1564,784.0239,"[4,6,3,1,7,5,8,2]","[[0.3,0.2],[-0.3,0.2]]","[[-0.125,-0.2],[0.125,-0.2]]",-0.073333333,-0.175833333,1,0,0,1.3507,o1_image,784.0247,1,784.5243,784.5244,786.5261,,,,,,,,,,,,,,,,,,0,0,0,0,1,,,,,,,,,,,,,,,,,,,,,,,,,,,,,,,,,
,,612520bd6605794b27e6a0fd,36,male,2024-04-19_17h37.13.785,stockport_simplified,2022.2.4,Win32,59.88023952,661e456ee6de07e70aa9ef7b,66229d97e63d311ac0a28c58,,,,,,,,,,,,,,,,,,,,,,,,,,,,,,,,,,,,,,,,,,,,,,,,,,,,,,,,,,,,,A,Y,N,o1_image,stimuli/out1.png,stimuli/correct_out1.png,stimuli/out2.png,,,,,,0,4,4,11,1,,,,,,,,,,,,,,,,,,,,,,,,,,,,
