counterbalance_2.started,counterbalance_2.stopped,participant,age,gender,date,expName,psychopyVersion,OS,frameRate,STUDY_ID,SESSION_ID,information_2.started,information_2.stopped,information_loop.thisRepN,information_loop.thisTrialN,information_loop.thisN,information_loop.thisIndex,information_loop.ran,information,consent_2.started,consent_2.stopped,slider_1.response,slider_2.response,slider_3.response,slider_4.response,slider_5.response,slider_6.response,instructions.started,instructions.stopped,task1_instr.thisRepN,task1_instr.thisTrialN,task1_instr.thisN,task1_instr.thisIndex,task1_instr.ran,task1,comprehension1_2.started,comprehension1_2.stopped,comp1_mouse.x,comp1_mouse.y,comp1_mouse.leftButton,comp1_mouse.midButton,comp1_mouse.rightButton,comp1_mouse.time,comp1_mouse.clicked_name,cue_o__trial_2.started,cue_o__trial_2.stopped,order,cue_order,out_order,cue_o_mouse.x,cue_o_mouse.y,cue_o_mouse.leftButton,cue_o_mouse.midButton,cue_o_mouse.rightButton,cue_o_mouse.time,cue_o_mouse.clicked_name,cue_selection_2.started,correct_answer,cue_selection_2.stopped,feedback_2.started,feedback_2.stopped,feedback_loop.thisRepN,feedback_loop.thisTrialN,feedback_loop.thisN,feedback_loop.thisIndex,feedback_loop.ran,stage1_trials.thisRepN,stage1_trials.thisTrialN,stage1_trials.thisN,stage1_trials.thisIndex,stage1_trials.ran,cue1,cue2,cue3,outcome,correct_out,o1_feedback,o2_feedback,stage2_feedback_loop.thisRepN,stage2_feedback_loop.thisTrialN,stage2_feedback_loop.thisN,stage2_feedback_loop.thisIndex,stage2_feedback_loop.ran,stage2_trials.thisRepN,stage2_trials.thisTrialN,stage2_trials.thisN,stage2_trials.thisIndex,stage2_trials.ran,stage3_feedback_loop.thisRepN,stage3_feedback_loop.thisTrialN,stage3_feedback_loop.thisN,stage3_feedback_loop.thisIndex,stage3_feedback_loop.ran,stage3_trials.thisRepN,stage3_trials.thisTrialN,stage3_trials.thisN,stage3_trials.thisIndex,stage3_trials.ran,debrief_2.started,debrief_2.stopped,debrief_loop.thisRepN,debrief_loop.thisTrialN,debrief_loop.thisN,debrief_loop.thisIndex,debrief_loop.ran,debrief_img,compr1_completed.thisRepN,compr1_completed.thisTrialN,compr1_completed.thisN,compr1_completed.thisIndex,compr1_completed.ran,consent_loop.thisRepN,consent_loop.thisTrialN,consent_loop.thisN,consent_loop.thisIndex,consent_loop.ran
0.0073,0.0078,66159ddb528ea605871b6e15,18,non-binary,2024-04-19_18h37.51.577,stockport_simplified,2022.2.4,Win32,60.24096386,661e456ee6de07e70aa9ef7b,66229da3094ac4f560514084,,,,,,,,,,,,,,,,,,,,,,,,,,,,,,,,,,,,,,,,,,,,,,,,,,,,,,,,,,,,,,,,,,,,,,,,,,,,,,,,,,,,,,,,,,,,,,,,,,,,,,,,,
,,66159ddb528ea605871b6e15,18,non-binary,2024-04-19_18h37.51.577,stockport_simplified,2022.2.4,Win32,60.24096386,661e456ee6de07e70aa9ef7b,66229da3094ac4f560514084,0.0365,34.9086,0,0,0,0,1,instructions/info1.png,,,,,,,,,,,,,,,,,,,,,,,,,,,,,,,,,,,,,,,,,,,,,,,,,,,,,,,,,,,,,,,,,,,,,,,,,,,,,,,,,,,,,,,,,,,,,,,,,
,,66159ddb528ea605871b6e15,18,non-binary,2024-04-19_18h37.51.577,stockport_simplified,2022.2.4,Win32,60.24096386,661e456ee6de07e70aa9ef7b,66229da3094ac4f560514084,34.9106,48.3617,0,1,1,1,1,instructions/info2.png,,,,,,,,,,,,,,,,,,,,,,,,,,,,,,,,,,,,,,,,,,,,,,,,,,,,,,,,,,,,,,,,,,,,,,,,,,,,,,,,,,,,,,,,,,,,,,,,,
,,66159ddb528ea605871b6e15,18,non-binary,2024-04-19_18h37.51.577,stockport_simplified,2022.2.4,Win32,60.24096386,661e456ee6de07e70aa9ef7b,66229da3094ac4f560514084,48.3631,78.2951,0,2,2,2,1,instructions/info3.png,,,,,,,,,,,,,,,,,,,,,,,,,,,,,,,,,,,,,,,,,,,,,,,,,,,,,,,,,,,,,,,,,,,,,,,,,,,,,,,,,,,,,,,,,,,,,,,,,
,,66159ddb528ea605871b6e15,18,non-binary,2024-04-19_18h37.51.577,stockport_simplified,2022.2.4,Win32,60.24096386,661e456ee6de07e70aa9ef7b,66229da3094ac4f560514084,,,,,,,,,78.3126,102.6626,1,1,1,1,1,1,,,,,,,,,,,,,,,,,,,,,,,,,,,,,,,,,,,,,,,,,,,,,,,,,,,,,,,,,,,,,,,,,,,,,,,,,,,,,,,,,,,,,,,,,
,,66159ddb528ea605871b6e15,18,non-binary,2024-04-19_18h37.51.577,stockport_simplified,2022.2.4,Win32,60.24096386,661e456ee6de07e70aa9ef7b,66229da3094ac4f560514084,,,,,,,,,,,,,,,,,102.6926,135.5966,0,0,0,0,1,instructions/task1_1.png,,,,,,,,,,,,,,,,,,,,,,,,,,,,,,,,,,,,,,,,,,,,,,,,,,,,,,,,,,,,,,,,,,,,,,,,,,,,,,,,,
,,66159ddb528ea605871b6e15,18,non-binary,2024-04-19_18h37.51.577,stockport_simplified,2022.2.4,Win32,60.24096386,661e456ee6de07e70aa9ef7b,66229da3094ac4f560514084,,,,,,,,,,,,,,,,,135.6142,151.0458,0,1,1,1,1,instructions/task1_2.png,,,,,,,,,,,,,,,,,,,,,,,,,,,,,,,,,,,,,,,,,,,,,,,,,,,,,,,,,,,,,,,,,,,,,,,,,,,,,,,,,
,,66159ddb528ea605871b6e15,18,non-binary,2024-04-19_18h37.51.577,stockport_simplified,2022.2.4,Win32,60.24096386,661e456ee6de07e70aa9ef7b,66229da3094ac4f560514084,,,,,,,,,,,,,,,,,151.0635,179.7127,0,2,2,2,1,instructions/task1_3.png,,,,,,,,,,,,,,,,,,,,,,,,,,,,,,,,,,,,,,,,,,,,,,,,,,,,,,,,,,,,,,,,,,,,,,,,,,,,,,,,,
,,66159ddb528ea605871b6e15,18,non-binary,2024-04-19_18h37.51.577,stockport_simplified,2022.2.4,Win32,60.24096386,661e456ee6de07e70aa9ef7b,66229da3094ac4f560514084,,,,,,,,,,,,,,,,,,,,,,,,,179.7146,214.6329,0.142592621,-0.330555556,1,0,0,34.9173,comp1_resp1,214.6765,224.0521,"[6,8,7,1,4,2,3,5]","[[0.3,0.2],[-0.3,0.2]]","[[0.125,-0.2],[-0.125,-0.2]]",0.137037065,-0.176851866,1,0,0,8.8708,o1_image,224.0706,1,224.5631,224.5634,226.5631,0,0,0,0,1,,,,,,,,,,,,,,,,,,,,,,,,,,,,,,,,,,,,,,,,,,,,,,,,,,
,,66159ddb528ea605871b6e15,18,non-binary,2024-04-19_18h37.51.577,stockport_simplified,2022.2.4,Win32,60.24096386,661e456ee6de07e70aa9ef7b,66229da3094ac4f560514084,,,,,,,,,,,,,,,,,,,,,,,,,,,,,,,,,,,,,,,,,,,,,,,,,,,,,,,,0,0,0,54,1,N,M,C,o1_image,stimuli/out1.png,stimuli/correct_out1.png,stimuli/out2.png,,,,,,,,,,,,,,,,,,,,,,,,,,,,,,,,,,,,,,
,,66159ddb528ea605871b6e15,18,non-binary,2024-04-19_18h37.51.577,stockport_simplified,2022.2.4,Win32,60.24096386,661e456ee6de07e70aa9ef7b,66229da3094ac4f560514084,,,,,,,,,,,,,,,,,,,,,,,,,,,,,,,,,,226.5639,238.0628,"[6,8,7,1,4,2,3,5]","[[0.3,0.2],[-0.3,0.2]]","[[0.125,-0.2],[-0.125,-0.2]]",,,,,,,,,,,,,,,,,,0,1,1,13,1,B,X,N,o2_image,stimuli/out2.png,stimuli/out1.png,stimuli/correct_out2.png,,,,,,,,,,,,,,,,,,,,,,,,,,,,,,,,,,,,,,
,,66159ddb528ea605871b6e15,18,non-binary,2024-04-19_18h37.51.577,stockport_simplified,2022.2.4,Win32,60.24096386,661e456ee6de07e70aa9ef7b,66229da3094ac4f560514084,,,,,,,,,,,,,,,,,,,,,,,,,,,,,,,,,,238.0802,243.7963,"[6,8,7,1,4,2,3,5]","[[0.3,0.2],[-0.3,0.2]]","[[-0.125,-0.2],[0.125,-0.2]]",-0.128703647,-0.201851866,1,0,0,5.1998,o1_image,243.812,0,244.3129,244.3129,246.313,0,0,0,0,1,,,,,,,,,,,,,,,,,,,,,,,,,,,,,,,,,,,,,,,,,,,,,,,,,,
,,66159ddb528ea605871b6e15,18,non-binary,2024-04-19_18h37.51.577,stockport_simplified,2022.2.4,Win32,60.24096386,661e456ee6de07e70aa9ef7b,66229da3094ac4f560514084,,,,,,,,,,,,,,,,,,,,,,,,,,,,,,,,,,,,,,,,,,,,,,,,,,,,,,,,0,2,2,41,1,B,X,N,o2_image,stimuli/out2.png,stimuli/out1.png,stimuli/correct_out2.png,,,,,,,,,,,,,,,,,,,,,,,,,,,,,,,,,,,,,,
,,66159ddb528ea605871b6e15,18,non-binary,2024-04-19_18h37.51.577,stockport_simplified,2022.2.4,Win32,60.24096386,661e456ee6de07e70aa9ef7b,66229da3094ac4f560514084,,,,,,,,,,,,,,,,,,,,,,,,,,,,,,,,,,246.3137,253.4388,"[6,8,7,1,4,2,3,5]","[[-0.3,0.2],[0.3,0.2]]","[[-0.125,-0.2],[0.125,-0.2]]",0.128703732,-0.180555556,1,0,0,6.608,o2_image,253.4551,0,253.9464,253.9465,255.9465,0,0,0,0,1,,,,,,,,,,,,,,,,,,,,,,,,,,,,,,,,,,,,,,,,,,,,,,,,,,
,,66159ddb528ea605871b6e15,18,non-binary,2024-04-19_18h37.51.577,stockport_simplified,2022.2.4,Win32,60.24096386,661e456ee6de07e70aa9ef7b,66229da3094ac4f560514084,,,,,,,,,,,,,,,,,,,,,,,,,,,,,,,,,,,,,,,,,,,,,,,,,,,,,,,,0,3,3,36,1,A,Y,N,o1_image,stimuli/out1.png,stimuli/correct_out1.png,stimuli/out2.png,,,,,,,,,,,,,,,,,,,,,,,,,,,,,,,,,,,,,,
,,66159ddb528ea605871b6e15,18,non-binary,2024-04-19_18h37.51.577,stockport_simplified,2022.2.4,Win32,60.24096386,661e456ee6de07e70aa9ef7b,66229da3094ac4f560514084,,,,,,,,,,,,,,,,,,,,,,,,,,,,,,,,,,255.9472,260.3465,"[6,8,7,1,4,2,3,5]","[[-0.3,0.2],[0.3,0.2]]","[[0.125,-0.2],[-0.125,-0.2]]",0.126851908,-0.185185199,1,0,0,3.8831,o1_image,260.3674,1,260.8631,260.8632,262.8632,0,0,0,0,1,,,,,,,,,,,,,,,,,,,,,,,,,,,,,,,,,,,,,,,,,,,,,,,,,,
,,66159ddb528ea605871b6e15,18,non-binary,2024-04-19_18h37.51.577,stockport_simplified,2022.2.4,Win32,60.24096386,661e456ee6de07e70aa9ef7b,66229da3094ac4f560514084,,,,,,,,,,,,,,,,,,,,,,,,,,,,,,,,,,,,,,,,,,,,,,,,,,,,,,,,0,4,4,7,1,A,Y,N,o1_image,stimuli/out1.png,stimuli/correct_out1.png,stimuli/out2.png,,,,,,,,,,,,,,,,,,,,,,,,,,,,,,,,,,,,,,
,,66159ddb528ea605871b6e15,18,non-binary,2024-04-19_18h37.51.577,stockport_simplified,2022.2.4,Win32,60.24096386,661e456ee6de07e70aa9ef7b,66229da3094ac4f560514084,,,,,,,,,,,,,,,,,,,,,,,,,,,,,,,,,,262.8637,270.1968,"[6,8,7,1,4,2,3,5]","[[0.3,0.2],[-0.3,0.2]]","[[0.125,-0.2],[-0.125,-0.2]]",-0.11851849,-0.182407422,1,0,0,6.816,o2_image,270.2141,1,270.7134,270.7135,272.7131,0,0,0,0,1,,,,,,,,,,,,,,,,,,,,,,,,,,,,,,,,,,,,,,,,,,,,,,,,,,
,,66159ddb528ea605871b6e15,18,non-binary,2024-04-19_18h37.51.577,stockport_simplified,2022.2.4,Win32,60.24096386,661e456ee6de07e70aa9ef7b,66229da3094ac4f560514084,,,,,,,,,,,,,,,,,,,,,,,,,,,,,,,,,,,,,,,,,,,,,,,,,,,,,,,,0,5,5,18,1,B,Y,N,o2_image,stimuli/out2.png,stimuli/out1.png,stimuli/correct_out2.png,,,,,,,,,,,,,,,,,,,,,,,,,,,,,,,,,,,,,,
,,66159ddb528ea605871b6e15,18,non-binary,2024-04-19_18h37.51.577,stockport_simplified,2022.2.4,Win32,60.24096386,661e456ee6de07e70aa9ef7b,66229da3094ac4f560514084,,,,,,,,,,,,,,,,,,,,,,,,,,,,,,,,,,272.7138,277.7299,"[6,8,7,1,4,2,3,5]","[[0.3,0.2],[-0.3,0.2]]","[[0.125,-0.2],[-0.125,-0.2]]",0.140740797,-0.195370399,1,0,0,4.4993,o1_image,277.7454,0,278.2464,278.2464,280.2465,0,0,0,0,1,,,,,,,,,,,,,,,,,,,,,,,,,,,,,,,,,,,,,,,,,,,,,,,,,,
,,66159ddb528ea605871b6e15,18,non-binary,2024-04-19_18h37.51.577,stockport_simplified,2022.2.4,Win32,60.24096386,661e456ee6de07e70aa9ef7b,66229da3094ac4f560514084,,,,,,,,,,,,,,,,,,,,,,,,,,,,,,,,,,,,,,,,,,,,,,,,,,,,,,,,0,6,6,57,1,N,M,D,o2_image,stimuli/out2.png,stimuli/out1.png,stimuli/correct_out2.png,,,,,,,,,,,,,,,,,,,,,,,,,,,,,,,,,,,,,,
,,66159ddb528ea605871b6e15,18,non-binary,2024-04-19_18h37.51.577,stockport_simplified,2022.2.4,Win32,60.24096386,661e456ee6de07e70aa9ef7b,66229da3094ac4f560514084,,,,,,,,,,,,,,,,,,,,,,,,,,,,,,,,,,280.247,286.0134,"[6,8,7,1,4,2,3,5]","[[-0.3,0.2],[0.3,0.2]]","[[0.125,-0.2],[-0.125,-0.2]]",-0.102777778,-0.158333333,1,0,0,5.2492,o2_image,286.029,1,286.5299,286.5299,288.5301,0,0,0,0,1,,,,,,,,,,,,,,,,,,,,,,,,,,,,,,,,,,,,,,,,,,,,,,,,,,
,,66159ddb528ea605871b6e15,18,non-binary,2024-04-19_18h37.51.577,stockport_simplified,2022.2.4,Win32,60.24096386,661e456ee6de07e70aa9ef7b,66229da3094ac4f560514084,,,,,,,,,,,,,,,,,,,,,,,,,,,,,,,,,,,,,,,,,,,,,,,,,,,,,,,,0,7,7,44,1,B,X,N,o2_image,stimuli/out2.png,stimuli/out1.png,stimuli/correct_out2.png,,,,,,,,,,,,,,,,,,,,,,,,,,,,,,,,,,,,,,
,,66159ddb528ea605871b6e15,18,non-binary,2024-04-19_18h37.51.577,stockport_simplified,2022.2.4,Win32,60.24096386,661e456ee6de07e70aa9ef7b,66229da3094ac4f560514084,,,,,,,,,,,,,,,,,,,,,,,,,,,,,,,,,,288.5306,295.0133,"[6,8,7,1,4,2,3,5]","[[0.3,0.2],[-0.3,0.2]]","[[-0.125,-0.2],[0.125,-0.2]]",0.137037065,-0.203703732,1,0,0,5.9664,o2_image,295.0289,1,295.53,295.53,297.53,0,0,0,0,1,,,,,,,,,,,,,,,,,,,,,,,,,,,,,,,,,,,,,,,,,,,,,,,,,,
,,66159ddb528ea605871b6e15,18,non-binary,2024-04-19_18h37.51.577,stockport_simplified,2022.2.4,Win32,60.24096386,661e456ee6de07e70aa9ef7b,66229da3094ac4f560514084,,,,,,,,,,,,,,,,,,,,,,,,,,,,,,,,,,,,,,,,,,,,,,,,,,,,,,,,0,8,8,10,1,B,X,N,o2_image,stimuli/out2.png,stimuli/out1.png,stimuli/correct_out2.png,,,,,,,,,,,,,,,,,,,,,,,,,,,,,,,,,,,,,,
,,66159ddb528ea605871b6e15,18,non-binary,2024-04-19_18h37.51.577,stockport_simplified,2022.2.4,Win32,60.24096386,661e456ee6de07e70aa9ef7b,66229da3094ac4f560514084,,,,,,,,,,,,,,,,,,,,,,,,,,,,,,,,,,297.5307,301.6472,"[6,8,7,1,4,2,3,5]","[[-0.3,0.2],[0.3,0.2]]","[[-0.125,-0.2],[0.125,-0.2]]",-0.119444444,-0.20648151,1,0,0,3.5994,o1_image,301.6631,0,302.1636,302.1636,304.1634,0,0,0,0,1,,,,,,,,,,,,,,,,,,,,,,,,,,,,,,,,,,,,,,,,,,,,,,,,,,
,,66159ddb528ea605871b6e15,18,non-binary,2024-04-19_18h37.51.577,stockport_simplified,2022.2.4,Win32,60.24096386,661e456ee6de07e70aa9ef7b,66229da3094ac4f560514084,,,,,,,,,,,,,,,,,,,,,,,,,,,,,,,,,,,,,,,,,,,,,,,,,,,,,,,,0,9,9,28,1,N,M,D,o2_image,stimuli/out2.png,stimuli/out1.png,stimuli/correct_out2.png,,,,,,,,,,,,,,,,,,,,,,,,,,,,,,,,,,,,,,
,,66159ddb528ea605871b6e15,18,non-binary,2024-04-19_18h37.51.577,stockport_simplified,2022.2.4,Win32,60.24096386,661e456ee6de07e70aa9ef7b,66229da3094ac4f560514084,,,,,,,,,,,,,,,,,,,,,,,,,,,,,,,,,,304.1639,311.3469,"[6,8,7,1,4,2,3,5]","[[0.3,0.2],[-0.3,0.2]]","[[-0.125,-0.2],[0.125,-0.2]]",-0.102777778,-0.178703732,1,0,0,6.6657,o1_image,311.3641,0,311.8635,311.8636,313.8635,0,0,0,0,1,,,,,,,,,,,,,,,,,,,,,,,,,,,,,,,,,,,,,,,,,,,,,,,,,,
,,66159ddb528ea605871b6e15,18,non-binary,2024-04-19_18h37.51.577,stockport_simplified,2022.2.4,Win32,60.24096386,661e456ee6de07e70aa9ef7b,66229da3094ac4f560514084,,,,,,,,,,,,,,,,,,,,,,,,,,,,,,,,,,,,,,,,,,,,,,,,,,,,,,,,0,10,10,16,1,B,Y,N,o2_image,stimuli/out2.png,stimuli/out1.png,stimuli/correct_out2.png,,,,,,,,,,,,,,,,,,,,,,,,,,,,,,,,,,,,,,
,,66159ddb528ea605871b6e15,18,non-binary,2024-04-19_18h37.51.577,stockport_simplified,2022.2.4,Win32,60.24096386,661e456ee6de07e70aa9ef7b,66229da3094ac4f560514084,,,,,,,,,,,,,,,,,,,,,,,,,,,,,,,,,,313.8644,317.9968,"[6,8,7,1,4,2,3,5]","[[-0.3,0.2],[0.3,0.2]]","[[-0.125,-0.2],[0.125,-0.2]]",0.126851908,-0.182407422,1,0,0,3.6157,o2_image,318.0127,1,318.5135,318.5135,320.5136,0,0,0,0,1,,,,,,,,,,,,,,,,,,,,,,,,,,,,,,,,,,,,,,,,,,,,,,,,,,
,,66159ddb528ea605871b6e15,18,non-binary,2024-04-19_18h37.51.577,stockport_simplified,2022.2.4,Win32,60.24096386,661e456ee6de07e70aa9ef7b,66229da3094ac4f560514084,,,,,,,,,,,,,,,,,,,,,,,,,,,,,,,,,,,,,,,,,,,,,,,,,,,,,,,,0,11,11,25,1,N,M,D,o2_image,stimuli/out2.png,stimuli/out1.png,stimuli/correct_out2.png,,,,,,,,,,,,,,,,,,,,,,,,,,,,,,,,,,,,,,
,,66159ddb528ea605871b6e15,18,non-binary,2024-04-19_18h37.51.577,stockport_simplified,2022.2.4,Win32,60.24096386,661e456ee6de07e70aa9ef7b,66229da3094ac4f560514084,,,,,,,,,,,,,,,,,,,,,,,,,,,,,,,,,,320.5142,330.589,"[6,8,7,1,4,2,3,5]","[[-0.3,0.2],[0.3,0.2]]","[[-0.125,-0.2],[0.125,-0.2]]",-0.130555556,-0.188888889,1,0,0,9.5581,o1_image,330.6059,0,331.0972,331.0973,333.097,0,0,0,0,1,,,,,,,,,,,,,,,,,,,,,,,,,,,,,,,,,,,,,,,,,,,,,,,,,,
,,66159ddb528ea605871b6e15,18,non-binary,2024-04-19_18h37.51.577,stockport_simplified,2022.2.4,Win32,60.24096386,661e456ee6de07e70aa9ef7b,66229da3094ac4f560514084,,,,,,,,,,,,,,,,,,,,,,,,,,,,,,,,,,,,,,,,,,,,,,,,,,,,,,,,0,12,12,40,1,B,X,N,o2_image,stimuli/out2.png,stimuli/out1.png,stimuli/correct_out2.png,,,,,,,,,,,,,,,,,,,,,,,,,,,,,,,,,,,,,,
,,66159ddb528ea605871b6e15,18,non-binary,2024-04-19_18h37.51.577,stockport_simplified,2022.2.4,Win32,60.24096386,661e456ee6de07e70aa9ef7b,66229da3094ac4f560514084,,,,,,,,,,,,,,,,,,,,,,,,,,,,,,,,,,333.0974,339.5638,"[6,8,7,1,4,2,3,5]","[[-0.3,0.2],[0.3,0.2]]","[[-0.125,-0.2],[0.125,-0.2]]",0.154629686,-0.179629644,1,0,0,5.9498,o2_image,339.5792,1,340.0802,340.0803,342.0804,0,0,0,0,1,,,,,,,,,,,,,,,,,,,,,,,,,,,,,,,,,,,,,,,,,,,,,,,,,,
,,66159ddb528ea605871b6e15,18,non-binary,2024-04-19_18h37.51.577,stockport_simplified,2022.2.4,Win32,60.24096386,661e456ee6de07e70aa9ef7b,66229da3094ac4f560514084,,,,,,,,,,,,,,,,,,,,,,,,,,,,,,,,,,,,,,,,,,,,,,,,,,,,,,,,0,13,13,19,1,B,Y,N,o2_image,stimuli/out2.png,stimuli/out1.png,stimuli/correct_out2.png,,,,,,,,,,,,,,,,,,,,,,,,,,,,,,,,,,,,,,
,,66159ddb528ea605871b6e15,18,non-binary,2024-04-19_18h37.51.577,stockport_simplified,2022.2.4,Win32,60.24096386,661e456ee6de07e70aa9ef7b,66229da3094ac4f560514084,,,,,,,,,,,,,,,,,,,,,,,,,,,,,,,,,,342.0809,347.5309,"[6,8,7,1,4,2,3,5]","[[0.3,0.2],[-0.3,0.2]]","[[0.125,-0.2],[-0.125,-0.2]]",0.130555556,-0.192592621,1,0,0,4.9336,o1_image,347.5465,0,348.047,348.0471,350.0473,0,0,0,0,1,,,,,,,,,,,,,,,,,,,,,,,,,,,,,,,,,,,,,,,,,,,,,,,,,,
,,66159ddb528ea605871b6e15,18,non-binary,2024-04-19_18h37.51.577,stockport_simplified,2022.2.4,Win32,60.24096386,661e456ee6de07e70aa9ef7b,66229da3094ac4f560514084,,,,,,,,,,,,,,,,,,,,,,,,,,,,,,,,,,,,,,,,,,,,,,,,,,,,,,,,0,14,14,47,1,B,Y,N,o2_image,stimuli/out2.png,stimuli/out1.png,stimuli/correct_out2.png,,,,,,,,,,,,,,,,,,,,,,,,,,,,,,,,,,,,,,
,,66159ddb528ea605871b6e15,18,non-binary,2024-04-19_18h37.51.577,stockport_simplified,2022.2.4,Win32,60.24096386,661e456ee6de07e70aa9ef7b,66229da3094ac4f560514084,,,,,,,,,,,,,,,,,,,,,,,,,,,,,,,,,,350.0479,356.1307,"[6,8,7,1,4,2,3,5]","[[0.3,0.2],[-0.3,0.2]]","[[0.125,-0.2],[-0.125,-0.2]]",0.120370399,-0.186111111,1,0,0,5.5661,o1_image,356.1479,1,356.6475,356.6475,358.6475,0,0,0,0,1,,,,,,,,,,,,,,,,,,,,,,,,,,,,,,,,,,,,,,,,,,,,,,,,,,
,,66159ddb528ea605871b6e15,18,non-binary,2024-04-19_18h37.51.577,stockport_simplified,2022.2.4,Win32,60.24096386,661e456ee6de07e70aa9ef7b,66229da3094ac4f560514084,,,,,,,,,,,,,,,,,,,,,,,,,,,,,,,,,,,,,,,,,,,,,,,,,,,,,,,,0,15,15,1,1,A,X,N,o1_image,stimuli/out1.png,stimuli/correct_out1.png,stimuli/out2.png,,,,,,,,,,,,,,,,,,,,,,,,,,,,,,,,,,,,,,
,,66159ddb528ea605871b6e15,18,non-binary,2024-04-19_18h37.51.577,stockport_simplified,2022.2.4,Win32,60.24096386,661e456ee6de07e70aa9ef7b,66229da3094ac4f560514084,,,,,,,,,,,,,,,,,,,,,,,,,,,,,,,,,,358.6481,363.8065,"[6,8,7,1,4,2,3,5]","[[-0.3,0.2],[0.3,0.2]]","[[0.125,-0.2],[-0.125,-0.2]]",0.091666667,-0.190740755,1,0,0,4.6415,o1_image,363.8227,1,364.3139,364.3139,366.3138,0,0,0,0,1,,,,,,,,,,,,,,,,,,,,,,,,,,,,,,,,,,,,,,,,,,,,,,,,,,
,,66159ddb528ea605871b6e15,18,non-binary,2024-04-19_18h37.51.577,stockport_simplified,2022.2.4,Win32,60.24096386,661e456ee6de07e70aa9ef7b,66229da3094ac4f560514084,,,,,,,,,,,,,,,,,,,,,,,,,,,,,,,,,,,,,,,,,,,,,,,,,,,,,,,,0,16,16,52,1,N,M,C,o1_image,stimuli/out1.png,stimuli/correct_out1.png,stimuli/out2.png,,,,,,,,,,,,,,,,,,,,,,,,,,,,,,,,,,,,,,
,,66159ddb528ea605871b6e15,18,non-binary,2024-04-19_18h37.51.577,stockport_simplified,2022.2.4,Win32,60.24096386,661e456ee6de07e70aa9ef7b,66229da3094ac4f560514084,,,,,,,,,,,,,,,,,,,,,,,,,,,,,,,,,,366.3143,373.3807,"[6,8,7,1,4,2,3,5]","[[0.3,0.2],[-0.3,0.2]]","[[-0.125,-0.2],[0.125,-0.2]]",0.112963019,-0.182407422,1,0,0,6.5491,o2_image,373.3974,0,373.8974,373.8974,375.8972,0,0,0,0,1,,,,,,,,,,,,,,,,,,,,,,,,,,,,,,,,,,,,,,,,,,,,,,,,,,
,,66159ddb528ea605871b6e15,18,non-binary,2024-04-19_18h37.51.577,stockport_simplified,2022.2.4,Win32,60.24096386,661e456ee6de07e70aa9ef7b,66229da3094ac4f560514084,,,,,,,,,,,,,,,,,,,,,,,,,,,,,,,,,,,,,,,,,,,,,,,,,,,,,,,,0,17,17,4,1,A,X,N,o1_image,stimuli/out1.png,stimuli/correct_out1.png,stimuli/out2.png,,,,,,,,,,,,,,,,,,,,,,,,,,,,,,,,,,,,,,
,,66159ddb528ea605871b6e15,18,non-binary,2024-04-19_18h37.51.577,stockport_simplified,2022.2.4,Win32,60.24096386,661e456ee6de07e70aa9ef7b,66229da3094ac4f560514084,,,,,,,,,,,,,,,,,,,,,,,,,,,,,,,,,,375.8978,380.3973,"[6,8,7,1,4,2,3,5]","[[-0.3,0.2],[0.3,0.2]]","[[0.125,-0.2],[-0.125,-0.2]]",-0.127777778,-0.190740755,1,0,0,3.9826,o2_image,380.4129,0,380.914,380.914,382.914,0,0,0,0,1,,,,,,,,,,,,,,,,,,,,,,,,,,,,,,,,,,,,,,,,,,,,,,,,,,
,,66159ddb528ea605871b6e15,18,non-binary,2024-04-19_18h37.51.577,stockport_simplified,2022.2.4,Win32,60.24096386,661e456ee6de07e70aa9ef7b,66229da3094ac4f560514084,,,,,,,,,,,,,,,,,,,,,,,,,,,,,,,,,,,,,,,,,,,,,,,,,,,,,,,,0,18,18,53,1,N,M,C,o1_image,stimuli/out1.png,stimuli/correct_out1.png,stimuli/out2.png,,,,,,,,,,,,,,,,,,,,,,,,,,,,,,,,,,,,,,
,,66159ddb528ea605871b6e15,18,non-binary,2024-04-19_18h37.51.577,stockport_simplified,2022.2.4,Win32,60.24096386,661e456ee6de07e70aa9ef7b,66229da3094ac4f560514084,,,,,,,,,,,,,,,,,,,,,,,,,,,,,,,,,,382.9144,385.3973,"[6,8,7,1,4,2,3,5]","[[-0.3,0.2],[0.3,0.2]]","[[0.125,-0.2],[-0.125,-0.2]]",-0.130555556,-0.189814843,1,0,0,1.9662,o2_image,385.3985,1,385.8973,385.8973,387.8974,0,0,0,0,1,,,,,,,,,,,,,,,,,,,,,,,,,,,,,,,,,,,,,,,,,,,,,,,,,,
,,66159ddb528ea605871b6e15,18,non-binary,2024-04-19_18h37.51.577,stockport_simplified,2022.2.4,Win32,60.24096386,661e456ee6de07e70aa9ef7b,66229da3094ac4f560514084,,,,,,,,,,,,,,,,,,,,,,,,,,,,,,,,,,,,,,,,,,,,,,,,,,,,,,,,0,19,19,27,1,N,M,D,o2_image,stimuli/out2.png,stimuli/out1.png,stimuli/correct_out2.png,,,,,,,,,,,,,,,,,,,,,,,,,,,,,,,,,,,,,,
,,66159ddb528ea605871b6e15,18,non-binary,2024-04-19_18h37.51.577,stockport_simplified,2022.2.4,Win32,60.24096386,661e456ee6de07e70aa9ef7b,66229da3094ac4f560514084,,,,,,,,,,,,,,,,,,,,,,,,,,,,,,,,,,387.8978,393.5312,"[6,8,7,1,4,2,3,5]","[[-0.3,0.2],[0.3,0.2]]","[[-0.125,-0.2],[0.125,-0.2]]",0.132407464,-0.203703732,1,0,0,5.1162,o2_image,393.5426,1,394.0311,394.0311,396.0307,0,0,0,0,1,,,,,,,,,,,,,,,,,,,,,,,,,,,,,,,,,,,,,,,,,,,,,,,,,,
,,66159ddb528ea605871b6e15,18,non-binary,2024-04-19_18h37.51.577,stockport_simplified,2022.2.4,Win32,60.24096386,661e456ee6de07e70aa9ef7b,66229da3094ac4f560514084,,,,,,,,,,,,,,,,,,,,,,,,,,,,,,,,,,,,,,,,,,,,,,,,,,,,,,,,0,20,20,45,1,B,Y,N,o2_image,stimuli/out2.png,stimuli/out1.png,stimuli/correct_out2.png,,,,,,,,,,,,,,,,,,,,,,,,,,,,,,,,,,,,,,
,,66159ddb528ea605871b6e15,18,non-binary,2024-04-19_18h37.51.577,stockport_simplified,2022.2.4,Win32,60.24096386,661e456ee6de07e70aa9ef7b,66229da3094ac4f560514084,,,,,,,,,,,,,,,,,,,,,,,,,,,,,,,,,,396.0312,398.6141,"[6,8,7,1,4,2,3,5]","[[-0.3,0.2],[0.3,0.2]]","[[-0.125,-0.2],[0.125,-0.2]]",0.130555556,-0.164814843,1,0,0,2.0665,o2_image,398.6152,1,399.1143,399.1143,401.1141,0,0,0,0,1,,,,,,,,,,,,,,,,,,,,,,,,,,,,,,,,,,,,,,,,,,,,,,,,,,
,,66159ddb528ea605871b6e15,18,non-binary,2024-04-19_18h37.51.577,stockport_simplified,2022.2.4,Win32,60.24096386,661e456ee6de07e70aa9ef7b,66229da3094ac4f560514084,,,,,,,,,,,,,,,,,,,,,,,,,,,,,,,,,,,,,,,,,,,,,,,,,,,,,,,,0,21,21,17,1,B,Y,N,o2_image,stimuli/out2.png,stimuli/out1.png,stimuli/correct_out2.png,,,,,,,,,,,,,,,,,,,,,,,,,,,,,,,,,,,,,,
,,66159ddb528ea605871b6e15,18,non-binary,2024-04-19_18h37.51.577,stockport_simplified,2022.2.4,Win32,60.24096386,661e456ee6de07e70aa9ef7b,66229da3094ac4f560514084,,,,,,,,,,,,,,,,,,,,,,,,,,,,,,,,,,401.1147,403.3475,"[6,8,7,1,4,2,3,5]","[[0.3,0.2],[-0.3,0.2]]","[[0.125,-0.2],[-0.125,-0.2]]",-0.133333333,-0.173148176,1,0,0,1.7159,o2_image,403.3485,0,403.8478,403.8478,405.8478,0,0,0,0,1,,,,,,,,,,,,,,,,,,,,,,,,,,,,,,,,,,,,,,,,,,,,,,,,,,
,,66159ddb528ea605871b6e15,18,non-binary,2024-04-19_18h37.51.577,stockport_simplified,2022.2.4,Win32,60.24096386,661e456ee6de07e70aa9ef7b,66229da3094ac4f560514084,,,,,,,,,,,,,,,,,,,,,,,,,,,,,,,,,,,,,,,,,,,,,,,,,,,,,,,,0,22,22,37,1,A,Y,N,o1_image,stimuli/out1.png,stimuli/correct_out1.png,stimuli/out2.png,,,,,,,,,,,,,,,,,,,,,,,,,,,,,,,,,,,,,,
,,66159ddb528ea605871b6e15,18,non-binary,2024-04-19_18h37.51.577,stockport_simplified,2022.2.4,Win32,60.24096386,661e456ee6de07e70aa9ef7b,66229da3094ac4f560514084,,,,,,,,,,,,,,,,,,,,,,,,,,,,,,,,,,405.8484,410.9478,"[6,8,7,1,4,2,3,5]","[[-0.3,0.2],[0.3,0.2]]","[[0.125,-0.2],[-0.125,-0.2]]",0.153703732,-0.183333333,1,0,0,4.5832,o1_image,410.9636,0,411.4642,411.4642,413.4645,0,0,0,0,1,,,,,,,,,,,,,,,,,,,,,,,,,,,,,,,,,,,,,,,,,,,,,,,,,,
,,66159ddb528ea605871b6e15,18,non-binary,2024-04-19_18h37.51.577,stockport_simplified,2022.2.4,Win32,60.24096386,661e456ee6de07e70aa9ef7b,66229da3094ac4f560514084,,,,,,,,,,,,,,,,,,,,,,,,,,,,,,,,,,,,,,,,,,,,,,,,,,,,,,,,0,23,23,46,1,B,Y,N,o2_image,stimuli/out2.png,stimuli/out1.png,stimuli/correct_out2.png,,,,,,,,,,,,,,,,,,,,,,,,,,,,,,,,,,,,,,
,,66159ddb528ea605871b6e15,18,non-binary,2024-04-19_18h37.51.577,stockport_simplified,2022.2.4,Win32,60.24096386,661e456ee6de07e70aa9ef7b,66229da3094ac4f560514084,,,,,,,,,,,,,,,,,,,,,,,,,,,,,,,,,,413.4651,417.09,"[6,8,7,1,4,2,3,5]","[[0.3,0.2],[-0.3,0.2]]","[[-0.125,-0.2],[0.125,-0.2]]",-0.131481425,-0.18148151,1,0,0,3.1085,o1_image,417.1063,1,417.5977,417.5978,419.5892,0,0,0,0,1,,,,,,,,,,,,,,,,,,,,,,,,,,,,,,,,,,,,,,,,,,,,,,,,,,
,,66159ddb528ea605871b6e15,18,non-binary,2024-04-19_18h37.51.577,stockport_simplified,2022.2.4,Win32,60.24096386,661e456ee6de07e70aa9ef7b,66229da3094ac4f560514084,,,,,,,,,,,,,,,,,,,,,,,,,,,,,,,,,,,,,,,,,,,,,,,,,,,,,,,,0,24,24,2,1,A,X,N,o1_image,stimuli/out1.png,stimuli/correct_out1.png,stimuli/out2.png,,,,,,,,,,,,,,,,,,,,,,,,,,,,,,,,,,,,,,
,,66159ddb528ea605871b6e15,18,non-binary,2024-04-19_18h37.51.577,stockport_simplified,2022.2.4,Win32,60.24096386,661e456ee6de07e70aa9ef7b,66229da3094ac4f560514084,,,,,,,,,,,,,,,,,,,,,,,,,,,,,,,,,,419.59,422.8643,"[6,8,7,1,4,2,3,5]","[[0.3,0.2],[-0.3,0.2]]","[[0.125,-0.2],[-0.125,-0.2]]",-0.109259203,-0.205555556,1,0,0,2.7659,o2_image,422.8653,1,423.3644,423.3645,425.3643,0,0,0,0,1,,,,,,,,,,,,,,,,,,,,,,,,,,,,,,,,,,,,,,,,,,,,,,,,,,
,,66159ddb528ea605871b6e15,18,non-binary,2024-04-19_18h37.51.577,stockport_simplified,2022.2.4,Win32,60.24096386,661e456ee6de07e70aa9ef7b,66229da3094ac4f560514084,,,,,,,,,,,,,,,,,,,,,,,,,,,,,,,,,,,,,,,,,,,,,,,,,,,,,,,,0,25,25,49,1,B,Y,N,o2_image,stimuli/out2.png,stimuli/out1.png,stimuli/correct_out2.png,,,,,,,,,,,,,,,,,,,,,,,,,,,,,,,,,,,,,,
,,66159ddb528ea605871b6e15,18,non-binary,2024-04-19_18h37.51.577,stockport_simplified,2022.2.4,Win32,60.24096386,661e456ee6de07e70aa9ef7b,66229da3094ac4f560514084,,,,,,,,,,,,,,,,,,,,,,,,,,,,,,,,,,425.3649,431.281,"[6,8,7,1,4,2,3,5]","[[-0.3,0.2],[0.3,0.2]]","[[0.125,-0.2],[-0.125,-0.2]]",0.125,-0.201851866,1,0,0,5.3996,o1_image,431.2965,1,431.798,431.798,433.7979,0,0,0,0,1,,,,,,,,,,,,,,,,,,,,,,,,,,,,,,,,,,,,,,,,,,,,,,,,,,
,,66159ddb528ea605871b6e15,18,non-binary,2024-04-19_18h37.51.577,stockport_simplified,2022.2.4,Win32,60.24096386,661e456ee6de07e70aa9ef7b,66229da3094ac4f560514084,,,,,,,,,,,,,,,,,,,,,,,,,,,,,,,,,,,,,,,,,,,,,,,,,,,,,,,,0,26,26,9,1,A,Y,N,o1_image,stimuli/out1.png,stimuli/correct_out1.png,stimuli/out2.png,,,,,,,,,,,,,,,,,,,,,,,,,,,,,,,,,,,,,,
,,66159ddb528ea605871b6e15,18,non-binary,2024-04-19_18h37.51.577,stockport_simplified,2022.2.4,Win32,60.24096386,661e456ee6de07e70aa9ef7b,66229da3094ac4f560514084,,,,,,,,,,,,,,,,,,,,,,,,,,,,,,,,,,433.7985,438.6899,"[6,8,7,1,4,2,3,5]","[[0.3,0.2],[-0.3,0.2]]","[[0.125,-0.2],[-0.125,-0.2]]",-0.123148092,-0.187037065,1,0,0,4.3744,o2_image,438.7062,0,439.1981,439.1982,441.1981,0,0,0,0,1,,,,,,,,,,,,,,,,,,,,,,,,,,,,,,,,,,,,,,,,,,,,,,,,,,
,,66159ddb528ea605871b6e15,18,non-binary,2024-04-19_18h37.51.577,stockport_simplified,2022.2.4,Win32,60.24096386,661e456ee6de07e70aa9ef7b,66229da3094ac4f560514084,,,,,,,,,,,,,,,,,,,,,,,,,,,,,,,,,,,,,,,,,,,,,,,,,,,,,,,,0,27,27,24,1,N,M,C,o1_image,stimuli/out1.png,stimuli/correct_out1.png,stimuli/out2.png,,,,,,,,,,,,,,,,,,,,,,,,,,,,,,,,,,,,,,
,,66159ddb528ea605871b6e15,18,non-binary,2024-04-19_18h37.51.577,stockport_simplified,2022.2.4,Win32,60.24096386,661e456ee6de07e70aa9ef7b,66229da3094ac4f560514084,,,,,,,,,,,,,,,,,,,,,,,,,,,,,,,,,,441.1988,446.081,"[6,8,7,1,4,2,3,5]","[[-0.3,0.2],[0.3,0.2]]","[[-0.125,-0.2],[0.125,-0.2]]",0.15,-0.2,1,0,0,4.374,o2_image,446.0967,1,446.5979,446.5979,448.5979,0,0,0,0,1,,,,,,,,,,,,,,,,,,,,,,,,,,,,,,,,,,,,,,,,,,,,,,,,,,
,,66159ddb528ea605871b6e15,18,non-binary,2024-04-19_18h37.51.577,stockport_simplified,2022.2.4,Win32,60.24096386,661e456ee6de07e70aa9ef7b,66229da3094ac4f560514084,,,,,,,,,,,,,,,,,,,,,,,,,,,,,,,,,,,,,,,,,,,,,,,,,,,,,,,,0,28,28,12,1,B,X,N,o2_image,stimuli/out2.png,stimuli/out1.png,stimuli/correct_out2.png,,,,,,,,,,,,,,,,,,,,,,,,,,,,,,,,,,,,,,
,,66159ddb528ea605871b6e15,18,non-binary,2024-04-19_18h37.51.577,stockport_simplified,2022.2.4,Win32,60.24096386,661e456ee6de07e70aa9ef7b,66229da3094ac4f560514084,,,,,,,,,,,,,,,,,,,,,,,,,,,,,,,,,,448.5984,450.9979,"[6,8,7,1,4,2,3,5]","[[-0.3,0.2],[0.3,0.2]]","[[0.125,-0.2],[-0.125,-0.2]]",0.151851908,-0.2,1,0,0,1.8987,o1_image,450.9987,1,451.4978,451.4979,453.4979,0,0,0,0,1,,,,,,,,,,,,,,,,,,,,,,,,,,,,,,,,,,,,,,,,,,,,,,,,,,
,,66159ddb528ea605871b6e15,18,non-binary,2024-04-19_18h37.51.577,stockport_simplified,2022.2.4,Win32,60.24096386,661e456ee6de07e70aa9ef7b,66229da3094ac4f560514084,,,,,,,,,,,,,,,,,,,,,,,,,,,,,,,,,,,,,,,,,,,,,,,,,,,,,,,,0,29,29,33,1,A,X,N,o1_image,stimuli/out1.png,stimuli/correct_out1.png,stimuli/out2.png,,,,,,,,,,,,,,,,,,,,,,,,,,,,,,,,,,,,,,
,,66159ddb528ea605871b6e15,18,non-binary,2024-04-19_18h37.51.577,stockport_simplified,2022.2.4,Win32,60.24096386,661e456ee6de07e70aa9ef7b,66229da3094ac4f560514084,,,,,,,,,,,,,,,,,,,,,,,,,,,,,,,,,,453.4984,458.9981,"[6,8,7,1,4,2,3,5]","[[0.3,0.2],[-0.3,0.2]]","[[0.125,-0.2],[-0.125,-0.2]]",-0.092592536,-0.175,1,0,0,4.9828,o2_image,459.0137,0,459.5145,459.5146,461.5164,0,0,0,0,1,,,,,,,,,,,,,,,,,,,,,,,,,,,,,,,,,,,,,,,,,,,,,,,,,,
,,66159ddb528ea605871b6e15,18,non-binary,2024-04-19_18h37.51.577,stockport_simplified,2022.2.4,Win32,60.24096386,661e456ee6de07e70aa9ef7b,66229da3094ac4f560514084,,,,,,,,,,,,,,,,,,,,,,,,,,,,,,,,,,,,,,,,,,,,,,,,,,,,,,,,0,30,30,50,1,N,M,C,o1_image,stimuli/out1.png,stimuli/correct_out1.png,stimuli/out2.png,,,,,,,,,,,,,,,,,,,,,,,,,,,,,,,,,,,,,,
,,66159ddb528ea605871b6e15,18,non-binary,2024-04-19_18h37.51.577,stockport_simplified,2022.2.4,Win32,60.24096386,661e456ee6de07e70aa9ef7b,66229da3094ac4f560514084,,,,,,,,,,,,,,,,,,,,,,,,,,,,,,,,,,461.5169,463.665,"[6,8,7,1,4,2,3,5]","[[-0.3,0.2],[0.3,0.2]]","[[0.125,-0.2],[-0.125,-0.2]]",0.110185242,-0.187037065,1,0,0,1.6335,o1_image,463.6658,1,464.1649,464.1649,466.1646,0,0,0,0,1,,,,,,,,,,,,,,,,,,,,,,,,,,,,,,,,,,,,,,,,,,,,,,,,,,
,,66159ddb528ea605871b6e15,18,non-binary,2024-04-19_18h37.51.577,stockport_simplified,2022.2.4,Win32,60.24096386,661e456ee6de07e70aa9ef7b,66229da3094ac4f560514084,,,,,,,,,,,,,,,,,,,,,,,,,,,,,,,,,,,,,,,,,,,,,,,,,,,,,,,,0,31,31,21,1,N,M,C,o1_image,stimuli/out1.png,stimuli/correct_out1.png,stimuli/out2.png,,,,,,,,,,,,,,,,,,,,,,,,,,,,,,,,,,,,,,
,,66159ddb528ea605871b6e15,18,non-binary,2024-04-19_18h37.51.577,stockport_simplified,2022.2.4,Win32,60.24096386,661e456ee6de07e70aa9ef7b,66229da3094ac4f560514084,,,,,,,,,,,,,,,,,,,,,,,,,,,,,,,,,,466.1652,468.598,"[6,8,7,1,4,2,3,5]","[[0.3,0.2],[-0.3,0.2]]","[[0.125,-0.2],[-0.125,-0.2]]",0.133333333,-0.186111111,1,0,0,1.9161,o1_image,468.5989,1,469.0981,469.0981,471.0981,0,0,0,0,1,,,,,,,,,,,,,,,,,,,,,,,,,,,,,,,,,,,,,,,,,,,,,,,,,,
,,66159ddb528ea605871b6e15,18,non-binary,2024-04-19_18h37.51.577,stockport_simplified,2022.2.4,Win32,60.24096386,661e456ee6de07e70aa9ef7b,66229da3094ac4f560514084,,,,,,,,,,,,,,,,,,,,,,,,,,,,,,,,,,,,,,,,,,,,,,,,,,,,,,,,0,32,32,8,1,A,Y,N,o1_image,stimuli/out1.png,stimuli/correct_out1.png,stimuli/out2.png,,,,,,,,,,,,,,,,,,,,,,,,,,,,,,,,,,,,,,
,,66159ddb528ea605871b6e15,18,non-binary,2024-04-19_18h37.51.577,stockport_simplified,2022.2.4,Win32,60.24096386,661e456ee6de07e70aa9ef7b,66229da3094ac4f560514084,,,,,,,,,,,,,,,,,,,,,,,,,,,,,,,,,,471.0986,473.6481,"[6,8,7,1,4,2,3,5]","[[0.3,0.2],[-0.3,0.2]]","[[0.125,-0.2],[-0.125,-0.2]]",0.121296353,-0.186111111,1,0,0,2.033,o1_image,473.6489,1,474.1481,474.1481,476.1482,0,0,0,0,1,,,,,,,,,,,,,,,,,,,,,,,,,,,,,,,,,,,,,,,,,,,,,,,,,,
,,66159ddb528ea605871b6e15,18,non-binary,2024-04-19_18h37.51.577,stockport_simplified,2022.2.4,Win32,60.24096386,661e456ee6de07e70aa9ef7b,66229da3094ac4f560514084,,,,,,,,,,,,,,,,,,,,,,,,,,,,,,,,,,,,,,,,,,,,,,,,,,,,,,,,0,33,33,0,1,A,X,N,o1_image,stimuli/out1.png,stimuli/correct_out1.png,stimuli/out2.png,,,,,,,,,,,,,,,,,,,,,,,,,,,,,,,,,,,,,,
,,66159ddb528ea605871b6e15,18,non-binary,2024-04-19_18h37.51.577,stockport_simplified,2022.2.4,Win32,60.24096386,661e456ee6de07e70aa9ef7b,66229da3094ac4f560514084,,,,,,,,,,,,,,,,,,,,,,,,,,,,,,,,,,476.1488,478.4647,"[6,8,7,1,4,2,3,5]","[[-0.3,0.2],[0.3,0.2]]","[[-0.125,-0.2],[0.125,-0.2]]",-0.11851849,-0.162962977,1,0,0,1.7992,o1_image,478.4656,1,478.9647,478.9647,480.9647,0,0,0,0,1,,,,,,,,,,,,,,,,,,,,,,,,,,,,,,,,,,,,,,,,,,,,,,,,,,
,,66159ddb528ea605871b6e15,18,non-binary,2024-04-19_18h37.51.577,stockport_simplified,2022.2.4,Win32,60.24096386,661e456ee6de07e70aa9ef7b,66229da3094ac4f560514084,,,,,,,,,,,,,,,,,,,,,,,,,,,,,,,,,,,,,,,,,,,,,,,,,,,,,,,,0,34,34,23,1,N,M,C,o1_image,stimuli/out1.png,stimuli/correct_out1.png,stimuli/out2.png,,,,,,,,,,,,,,,,,,,,,,,,,,,,,,,,,,,,,,
,,66159ddb528ea605871b6e15,18,non-binary,2024-04-19_18h37.51.577,stockport_simplified,2022.2.4,Win32,60.24096386,661e456ee6de07e70aa9ef7b,66229da3094ac4f560514084,,,,,,,,,,,,,,,,,,,,,,,,,,,,,,,,,,480.9653,483.6649,"[6,8,7,1,4,2,3,5]","[[0.3,0.2],[-0.3,0.2]]","[[0.125,-0.2],[-0.125,-0.2]]",-0.095370314,-0.188888889,1,0,0,2.1831,o2_image,483.6811,1,484.1814,484.1814,486.1817,0,0,0,0,1,,,,,,,,,,,,,,,,,,,,,,,,,,,,,,,,,,,,,,,,,,,,,,,,,,
,,66159ddb528ea605871b6e15,18,non-binary,2024-04-19_18h37.51.577,stockport_simplified,2022.2.4,Win32,60.24096386,661e456ee6de07e70aa9ef7b,66229da3094ac4f560514084,,,,,,,,,,,,,,,,,,,,,,,,,,,,,,,,,,,,,,,,,,,,,,,,,,,,,,,,0,35,35,58,1,N,M,D,o2_image,stimuli/out2.png,stimuli/out1.png,stimuli/correct_out2.png,,,,,,,,,,,,,,,,,,,,,,,,,,,,,,,,,,,,,,
,,66159ddb528ea605871b6e15,18,non-binary,2024-04-19_18h37.51.577,stockport_simplified,2022.2.4,Win32,60.24096386,661e456ee6de07e70aa9ef7b,66229da3094ac4f560514084,,,,,,,,,,,,,,,,,,,,,,,,,,,,,,,,,,486.1823,489.2815,"[6,8,7,1,4,2,3,5]","[[-0.3,0.2],[0.3,0.2]]","[[-0.125,-0.2],[0.125,-0.2]]",0.133333333,-0.202777778,1,0,0,2.5827,o2_image,489.2975,1,489.7983,489.7984,491.7984,0,0,0,0,1,,,,,,,,,,,,,,,,,,,,,,,,,,,,,,,,,,,,,,,,,,,,,,,,,,
,,66159ddb528ea605871b6e15,18,non-binary,2024-04-19_18h37.51.577,stockport_simplified,2022.2.4,Win32,60.24096386,661e456ee6de07e70aa9ef7b,66229da3094ac4f560514084,,,,,,,,,,,,,,,,,,,,,,,,,,,,,,,,,,,,,,,,,,,,,,,,,,,,,,,,0,36,36,43,1,B,X,N,o2_image,stimuli/out2.png,stimuli/out1.png,stimuli/correct_out2.png,,,,,,,,,,,,,,,,,,,,,,,,,,,,,,,,,,,,,,
,,66159ddb528ea605871b6e15,18,non-binary,2024-04-19_18h37.51.577,stockport_simplified,2022.2.4,Win32,60.24096386,661e456ee6de07e70aa9ef7b,66229da3094ac4f560514084,,,,,,,,,,,,,,,,,,,,,,,,,,,,,,,,,,491.799,494.6987,"[6,8,7,1,4,2,3,5]","[[0.3,0.2],[-0.3,0.2]]","[[0.125,-0.2],[-0.125,-0.2]]",-0.105555556,-0.185185199,1,0,0,2.3831,o2_image,494.6996,0,495.1983,495.1983,497.1984,0,0,0,0,1,,,,,,,,,,,,,,,,,,,,,,,,,,,,,,,,,,,,,,,,,,,,,,,,,,
,,66159ddb528ea605871b6e15,18,non-binary,2024-04-19_18h37.51.577,stockport_simplified,2022.2.4,Win32,60.24096386,661e456ee6de07e70aa9ef7b,66229da3094ac4f560514084,,,,,,,,,,,,,,,,,,,,,,,,,,,,,,,,,,,,,,,,,,,,,,,,,,,,,,,,0,37,37,20,1,N,M,C,o1_image,stimuli/out1.png,stimuli/correct_out1.png,stimuli/out2.png,,,,,,,,,,,,,,,,,,,,,,,,,,,,,,,,,,,,,,
,,66159ddb528ea605871b6e15,18,non-binary,2024-04-19_18h37.51.577,stockport_simplified,2022.2.4,Win32,60.24096386,661e456ee6de07e70aa9ef7b,66229da3094ac4f560514084,,,,,,,,,,,,,,,,,,,,,,,,,,,,,,,,,,497.199,500.8984,"[6,8,7,1,4,2,3,5]","[[0.3,0.2],[-0.3,0.2]]","[[-0.125,-0.2],[0.125,-0.2]]",0.083333333,-0.190740755,1,0,0,3.1827,o2_image,500.8993,1,501.3987,501.3988,503.3985,0,0,0,0,1,,,,,,,,,,,,,,,,,,,,,,,,,,,,,,,,,,,,,,,,,,,,,,,,,,
,,66159ddb528ea605871b6e15,18,non-binary,2024-04-19_18h37.51.577,stockport_simplified,2022.2.4,Win32,60.24096386,661e456ee6de07e70aa9ef7b,66229da3094ac4f560514084,,,,,,,,,,,,,,,,,,,,,,,,,,,,,,,,,,,,,,,,,,,,,,,,,,,,,,,,0,38,38,11,1,B,X,N,o2_image,stimuli/out2.png,stimuli/out1.png,stimuli/correct_out2.png,,,,,,,,,,,,,,,,,,,,,,,,,,,,,,,,,,,,,,
,,66159ddb528ea605871b6e15,18,non-binary,2024-04-19_18h37.51.577,stockport_simplified,2022.2.4,Win32,60.24096386,661e456ee6de07e70aa9ef7b,66229da3094ac4f560514084,,,,,,,,,,,,,,,,,,,,,,,,,,,,,,,,,,503.399,506.6649,"[6,8,7,1,4,2,3,5]","[[0.3,0.2],[-0.3,0.2]]","[[0.125,-0.2],[-0.125,-0.2]]",-0.112036981,-0.173148176,1,0,0,2.7493,o2_image,506.6658,0,507.1649,507.165,509.165,0,0,0,0,1,,,,,,,,,,,,,,,,,,,,,,,,,,,,,,,,,,,,,,,,,,,,,,,,,,
,,66159ddb528ea605871b6e15,18,non-binary,2024-04-19_18h37.51.577,stockport_simplified,2022.2.4,Win32,60.24096386,661e456ee6de07e70aa9ef7b,66229da3094ac4f560514084,,,,,,,,,,,,,,,,,,,,,,,,,,,,,,,,,,,,,,,,,,,,,,,,,,,,,,,,0,39,39,22,1,N,M,C,o1_image,stimuli/out1.png,stimuli/correct_out1.png,stimuli/out2.png,,,,,,,,,,,,,,,,,,,,,,,,,,,,,,,,,,,,,,
,,66159ddb528ea605871b6e15,18,non-binary,2024-04-19_18h37.51.577,stockport_simplified,2022.2.4,Win32,60.24096386,661e456ee6de07e70aa9ef7b,66229da3094ac4f560514084,,,,,,,,,,,,,,,,,,,,,,,,,,,,,,,,,,509.1656,511.0074,"[6,8,7,1,4,2,3,5]","[[-0.3,0.2],[0.3,0.2]]","[[0.125,-0.2],[-0.125,-0.2]]",0.137037065,-0.201851866,1,0,0,1.3255,o1_image,511.0084,1,511.5087,511.5088,513.4989,0,0,0,0,1,,,,,,,,,,,,,,,,,,,,,,,,,,,,,,,,,,,,,,,,,,,,,,,,,,
,,66159ddb528ea605871b6e15,18,non-binary,2024-04-19_18h37.51.577,stockport_simplified,2022.2.4,Win32,60.24096386,661e456ee6de07e70aa9ef7b,66229da3094ac4f560514084,,,,,,,,,,,,,,,,,,,,,,,,,,,,,,,,,,,,,,,,,,,,,,,,,,,,,,,,0,40,40,51,1,N,M,C,o1_image,stimuli/out1.png,stimuli/correct_out1.png,stimuli/out2.png,,,,,,,,,,,,,,,,,,,,,,,,,,,,,,,,,,,,,,
,,66159ddb528ea605871b6e15,18,non-binary,2024-04-19_18h37.51.577,stockport_simplified,2022.2.4,Win32,60.24096386,661e456ee6de07e70aa9ef7b,66229da3094ac4f560514084,,,,,,,,,,,,,,,,,,,,,,,,,,,,,,,,,,513.4994,515.615,"[6,8,7,1,4,2,3,5]","[[0.3,0.2],[-0.3,0.2]]","[[0.125,-0.2],[-0.125,-0.2]]",-0.135185157,-0.184259288,1,0,0,1.5995,o2_image,515.6159,1,516.115,516.115,518.1149,0,0,0,0,1,,,,,,,,,,,,,,,,,,,,,,,,,,,,,,,,,,,,,,,,,,,,,,,,,,
,,66159ddb528ea605871b6e15,18,non-binary,2024-04-19_18h37.51.577,stockport_simplified,2022.2.4,Win32,60.24096386,661e456ee6de07e70aa9ef7b,66229da3094ac4f560514084,,,,,,,,,,,,,,,,,,,,,,,,,,,,,,,,,,,,,,,,,,,,,,,,,,,,,,,,0,41,41,56,1,N,M,D,o2_image,stimuli/out2.png,stimuli/out1.png,stimuli/correct_out2.png,,,,,,,,,,,,,,,,,,,,,,,,,,,,,,,,,,,,,,
,,66159ddb528ea605871b6e15,18,non-binary,2024-04-19_18h37.51.577,stockport_simplified,2022.2.4,Win32,60.24096386,661e456ee6de07e70aa9ef7b,66229da3094ac4f560514084,,,,,,,,,,,,,,,,,,,,,,,,,,,,,,,,,,518.1154,520.9487,"[6,8,7,1,4,2,3,5]","[[-0.3,0.2],[0.3,0.2]]","[[-0.125,-0.2],[0.125,-0.2]]",0.087963019,-0.166666667,1,0,0,2.3167,o2_image,520.9496,1,521.4487,521.4487,523.4484,0,0,0,0,1,,,,,,,,,,,,,,,,,,,,,,,,,,,,,,,,,,,,,,,,,,,,,,,,,,
,,66159ddb528ea605871b6e15,18,non-binary,2024-04-19_18h37.51.577,stockport_simplified,2022.2.4,Win32,60.24096386,661e456ee6de07e70aa9ef7b,66229da3094ac4f560514084,,,,,,,,,,,,,,,,,,,,,,,,,,,,,,,,,,,,,,,,,,,,,,,,,,,,,,,,0,42,42,59,1,N,M,D,o2_image,stimuli/out2.png,stimuli/out1.png,stimuli/correct_out2.png,,,,,,,,,,,,,,,,,,,,,,,,,,,,,,,,,,,,,,
,,66159ddb528ea605871b6e15,18,non-binary,2024-04-19_18h37.51.577,stockport_simplified,2022.2.4,Win32,60.24096386,661e456ee6de07e70aa9ef7b,66229da3094ac4f560514084,,,,,,,,,,,,,,,,,,,,,,,,,,,,,,,,,,523.4489,525.4153,"[6,8,7,1,4,2,3,5]","[[0.3,0.2],[-0.3,0.2]]","[[-0.125,-0.2],[0.125,-0.2]]",-0.120370314,-0.187037065,1,0,0,1.4494,o1_image,525.4163,1,525.9153,525.9154,527.915,0,0,0,0,1,,,,,,,,,,,,,,,,,,,,,,,,,,,,,,,,,,,,,,,,,,,,,,,,,,
,,66159ddb528ea605871b6e15,18,non-binary,2024-04-19_18h37.51.577,stockport_simplified,2022.2.4,Win32,60.24096386,661e456ee6de07e70aa9ef7b,66229da3094ac4f560514084,,,,,,,,,,,,,,,,,,,,,,,,,,,,,,,,,,,,,,,,,,,,,,,,,,,,,,,,0,43,43,3,1,A,X,N,o1_image,stimuli/out1.png,stimuli/correct_out1.png,stimuli/out2.png,,,,,,,,,,,,,,,,,,,,,,,,,,,,,,,,,,,,,,
,,66159ddb528ea605871b6e15,18,non-binary,2024-04-19_18h37.51.577,stockport_simplified,2022.2.4,Win32,60.24096386,661e456ee6de07e70aa9ef7b,66229da3094ac4f560514084,,,,,,,,,,,,,,,,,,,,,,,,,,,,,,,,,,527.9155,530.9151,"[6,8,7,1,4,2,3,5]","[[-0.3,0.2],[0.3,0.2]]","[[-0.125,-0.2],[0.125,-0.2]]",0.102777778,-0.2,1,0,0,2.4829,o2_image,530.916,1,531.4151,531.4152,533.4153,0,0,0,0,1,,,,,,,,,,,,,,,,,,,,,,,,,,,,,,,,,,,,,,,,,,,,,,,,,,
,,66159ddb528ea605871b6e15,18,non-binary,2024-04-19_18h37.51.577,stockport_simplified,2022.2.4,Win32,60.24096386,661e456ee6de07e70aa9ef7b,66229da3094ac4f560514084,,,,,,,,,,,,,,,,,,,,,,,,,,,,,,,,,,,,,,,,,,,,,,,,,,,,,,,,0,44,44,48,1,B,Y,N,o2_image,stimuli/out2.png,stimuli/out1.png,stimuli/correct_out2.png,,,,,,,,,,,,,,,,,,,,,,,,,,,,,,,,,,,,,,
,,66159ddb528ea605871b6e15,18,non-binary,2024-04-19_18h37.51.577,stockport_simplified,2022.2.4,Win32,60.24096386,661e456ee6de07e70aa9ef7b,66229da3094ac4f560514084,,,,,,,,,,,,,,,,,,,,,,,,,,,,,,,,,,533.416,535.2485,"[6,8,7,1,4,2,3,5]","[[-0.3,0.2],[0.3,0.2]]","[[-0.125,-0.2],[0.125,-0.2]]",-0.084259203,-0.198148176,1,0,0,1.316,o1_image,535.2497,1,535.7488,535.7489,537.7485,0,0,0,0,1,,,,,,,,,,,,,,,,,,,,,,,,,,,,,,,,,,,,,,,,,,,,,,,,,,
,,66159ddb528ea605871b6e15,18,non-binary,2024-04-19_18h37.51.577,stockport_simplified,2022.2.4,Win32,60.24096386,661e456ee6de07e70aa9ef7b,66229da3094ac4f560514084,,,,,,,,,,,,,,,,,,,,,,,,,,,,,,,,,,,,,,,,,,,,,,,,,,,,,,,,0,45,45,31,1,A,X,N,o1_image,stimuli/out1.png,stimuli/correct_out1.png,stimuli/out2.png,,,,,,,,,,,,,,,,,,,,,,,,,,,,,,,,,,,,,,
,,66159ddb528ea605871b6e15,18,non-binary,2024-04-19_18h37.51.577,stockport_simplified,2022.2.4,Win32,60.24096386,661e456ee6de07e70aa9ef7b,66229da3094ac4f560514084,,,,,,,,,,,,,,,,,,,,,,,,,,,,,,,,,,537.749,541.0741,"[6,8,7,1,4,2,3,5]","[[0.3,0.2],[-0.3,0.2]]","[[-0.125,-0.2],[0.125,-0.2]]",0.103703732,-0.159259288,1,0,0,2.801,o2_image,541.0753,1,541.5651,541.5652,543.5652,0,0,0,0,1,,,,,,,,,,,,,,,,,,,,,,,,,,,,,,,,,,,,,,,,,,,,,,,,,,
,,66159ddb528ea605871b6e15,18,non-binary,2024-04-19_18h37.51.577,stockport_simplified,2022.2.4,Win32,60.24096386,661e456ee6de07e70aa9ef7b,66229da3094ac4f560514084,,,,,,,,,,,,,,,,,,,,,,,,,,,,,,,,,,,,,,,,,,,,,,,,,,,,,,,,0,46,46,42,1,B,X,N,o2_image,stimuli/out2.png,stimuli/out1.png,stimuli/correct_out2.png,,,,,,,,,,,,,,,,,,,,,,,,,,,,,,,,,,,,,,
,,66159ddb528ea605871b6e15,18,non-binary,2024-04-19_18h37.51.577,stockport_simplified,2022.2.4,Win32,60.24096386,661e456ee6de07e70aa9ef7b,66229da3094ac4f560514084,,,,,,,,,,,,,,,,,,,,,,,,,,,,,,,,,,543.5657,545.6485,"[6,8,7,1,4,2,3,5]","[[0.3,0.2],[-0.3,0.2]]","[[0.125,-0.2],[-0.125,-0.2]]",0.120370399,-0.187962977,1,0,0,1.5662,o1_image,545.6493,1,546.1415,546.1416,548.1319,0,0,0,0,1,,,,,,,,,,,,,,,,,,,,,,,,,,,,,,,,,,,,,,,,,,,,,,,,,,
,,66159ddb528ea605871b6e15,18,non-binary,2024-04-19_18h37.51.577,stockport_simplified,2022.2.4,Win32,60.24096386,661e456ee6de07e70aa9ef7b,66229da3094ac4f560514084,,,,,,,,,,,,,,,,,,,,,,,,,,,,,,,,,,,,,,,,,,,,,,,,,,,,,,,,0,47,47,34,1,A,X,N,o1_image,stimuli/out1.png,stimuli/correct_out1.png,stimuli/out2.png,,,,,,,,,,,,,,,,,,,,,,,,,,,,,,,,,,,,,,
,,66159ddb528ea605871b6e15,18,non-binary,2024-04-19_18h37.51.577,stockport_simplified,2022.2.4,Win32,60.24096386,661e456ee6de07e70aa9ef7b,66229da3094ac4f560514084,,,,,,,,,,,,,,,,,,,,,,,,,,,,,,,,,,548.1324,550.0153,"[6,8,7,1,4,2,3,5]","[[0.3,0.2],[-0.3,0.2]]","[[0.125,-0.2],[-0.125,-0.2]]",-0.116666667,-0.169444444,1,0,0,1.3659,o2_image,550.0162,1,550.5151,550.5153,552.5153,0,0,0,0,1,,,,,,,,,,,,,,,,,,,,,,,,,,,,,,,,,,,,,,,,,,,,,,,,,,
,,66159ddb528ea605871b6e15,18,non-binary,2024-04-19_18h37.51.577,stockport_simplified,2022.2.4,Win32,60.24096386,661e456ee6de07e70aa9ef7b,66229da3094ac4f560514084,,,,,,,,,,,,,,,,,,,,,,,,,,,,,,,,,,,,,,,,,,,,,,,,,,,,,,,,0,48,48,14,1,B,X,N,o2_image,stimuli/out2.png,stimuli/out1.png,stimuli/correct_out2.png,,,,,,,,,,,,,,,,,,,,,,,,,,,,,,,,,,,,,,
,,66159ddb528ea605871b6e15,18,non-binary,2024-04-19_18h37.51.577,stockport_simplified,2022.2.4,Win32,60.24096386,661e456ee6de07e70aa9ef7b,66229da3094ac4f560514084,,,,,,,,,,,,,,,,,,,,,,,,,,,,,,,,,,552.5157,557.332,"[6,8,7,1,4,2,3,5]","[[0.3,0.2],[-0.3,0.2]]","[[-0.125,-0.2],[0.125,-0.2]]",-0.141666667,-0.174074088,1,0,0,4.2997,o1_image,557.3476,0,557.8486,557.8487,559.8486,0,0,0,0,1,,,,,,,,,,,,,,,,,,,,,,,,,,,,,,,,,,,,,,,,,,,,,,,,,,
,,66159ddb528ea605871b6e15,18,non-binary,2024-04-19_18h37.51.577,stockport_simplified,2022.2.4,Win32,60.24096386,661e456ee6de07e70aa9ef7b,66229da3094ac4f560514084,,,,,,,,,,,,,,,,,,,,,,,,,,,,,,,,,,,,,,,,,,,,,,,,,,,,,,,,0,49,49,15,1,B,Y,N,o2_image,stimuli/out2.png,stimuli/out1.png,stimuli/correct_out2.png,,,,,,,,,,,,,,,,,,,,,,,,,,,,,,,,,,,,,,
,,66159ddb528ea605871b6e15,18,non-binary,2024-04-19_18h37.51.577,stockport_simplified,2022.2.4,Win32,60.24096386,661e456ee6de07e70aa9ef7b,66229da3094ac4f560514084,,,,,,,,,,,,,,,,,,,,,,,,,,,,,,,,,,559.8491,561.6319,"[6,8,7,1,4,2,3,5]","[[0.3,0.2],[-0.3,0.2]]","[[-0.125,-0.2],[0.125,-0.2]]",-0.06851849,-0.183333333,1,0,0,1.2664,o1_image,561.6328,1,562.1236,562.1237,564.1154,0,0,0,0,1,,,,,,,,,,,,,,,,,,,,,,,,,,,,,,,,,,,,,,,,,,,,,,,,,,
,,66159ddb528ea605871b6e15,18,non-binary,2024-04-19_18h37.51.577,stockport_simplified,2022.2.4,Win32,60.24096386,661e456ee6de07e70aa9ef7b,66229da3094ac4f560514084,,,,,,,,,,,,,,,,,,,,,,,,,,,,,,,,,,,,,,,,,,,,,,,,,,,,,,,,0,50,50,35,1,A,Y,N,o1_image,stimuli/out1.png,stimuli/correct_out1.png,stimuli/out2.png,,,,,,,,,,,,,,,,,,,,,,,,,,,,,,,,,,,,,,
,,66159ddb528ea605871b6e15,18,non-binary,2024-04-19_18h37.51.577,stockport_simplified,2022.2.4,Win32,60.24096386,661e456ee6de07e70aa9ef7b,66229da3094ac4f560514084,,,,,,,,,,,,,,,,,,,,,,,,,,,,,,,,,,564.116,567.349,"[6,8,7,1,4,2,3,5]","[[-0.3,0.2],[0.3,0.2]]","[[0.125,-0.2],[-0.125,-0.2]]",0.132407464,-0.200925954,1,0,0,2.7169,o1_image,567.3502,1,567.8487,567.8488,569.8487,0,0,0,0,1,,,,,,,,,,,,,,,,,,,,,,,,,,,,,,,,,,,,,,,,,,,,,,,,,,
,,66159ddb528ea605871b6e15,18,non-binary,2024-04-19_18h37.51.577,stockport_simplified,2022.2.4,Win32,60.24096386,661e456ee6de07e70aa9ef7b,66229da3094ac4f560514084,,,,,,,,,,,,,,,,,,,,,,,,,,,,,,,,,,,,,,,,,,,,,,,,,,,,,,,,0,51,51,39,1,A,Y,N,o1_image,stimuli/out1.png,stimuli/correct_out1.png,stimuli/out2.png,,,,,,,,,,,,,,,,,,,,,,,,,,,,,,,,,,,,,,
,,66159ddb528ea605871b6e15,18,non-binary,2024-04-19_18h37.51.577,stockport_simplified,2022.2.4,Win32,60.24096386,661e456ee6de07e70aa9ef7b,66229da3094ac4f560514084,,,,,,,,,,,,,,,,,,,,,,,,,,,,,,,,,,569.8493,572.0409,"[6,8,7,1,4,2,3,5]","[[0.3,0.2],[-0.3,0.2]]","[[0.125,-0.2],[-0.125,-0.2]]",0.129629686,-0.173148176,1,0,0,1.6754,o1_image,572.0419,1,572.5322,572.5322,574.532,0,0,0,0,1,,,,,,,,,,,,,,,,,,,,,,,,,,,,,,,,,,,,,,,,,,,,,,,,,,
,,66159ddb528ea605871b6e15,18,non-binary,2024-04-19_18h37.51.577,stockport_simplified,2022.2.4,Win32,60.24096386,661e456ee6de07e70aa9ef7b,66229da3094ac4f560514084,,,,,,,,,,,,,,,,,,,,,,,,,,,,,,,,,,,,,,,,,,,,,,,,,,,,,,,,0,52,52,6,1,A,Y,N,o1_image,stimuli/out1.png,stimuli/correct_out1.png,stimuli/out2.png,,,,,,,,,,,,,,,,,,,,,,,,,,,,,,,,,,,,,,
,,66159ddb528ea605871b6e15,18,non-binary,2024-04-19_18h37.51.577,stockport_simplified,2022.2.4,Win32,60.24096386,661e456ee6de07e70aa9ef7b,66229da3094ac4f560514084,,,,,,,,,,,,,,,,,,,,,,,,,,,,,,,,,,574.5325,576.3989,"[6,8,7,1,4,2,3,5]","[[0.3,0.2],[-0.3,0.2]]","[[-0.125,-0.2],[0.125,-0.2]]",-0.107407379,-0.188888889,1,0,0,1.3501,o1_image,576.3998,1,576.8989,576.8989,578.8988,0,0,0,0,1,,,,,,,,,,,,,,,,,,,,,,,,,,,,,,,,,,,,,,,,,,,,,,,,,,
,,66159ddb528ea605871b6e15,18,non-binary,2024-04-19_18h37.51.577,stockport_simplified,2022.2.4,Win32,60.24096386,661e456ee6de07e70aa9ef7b,66229da3094ac4f560514084,,,,,,,,,,,,,,,,,,,,,,,,,,,,,,,,,,,,,,,,,,,,,,,,,,,,,,,,0,53,53,5,1,A,Y,N,o1_image,stimuli/out1.png,stimuli/correct_out1.png,stimuli/out2.png,,,,,,,,,,,,,,,,,,,,,,,,,,,,,,,,,,,,,,
,,66159ddb528ea605871b6e15,18,non-binary,2024-04-19_18h37.51.577,stockport_simplified,2022.2.4,Win32,60.24096386,661e456ee6de07e70aa9ef7b,66229da3094ac4f560514084,,,,,,,,,,,,,,,,,,,,,,,,,,,,,,,,,,578.8993,581.4158,"[6,8,7,1,4,2,3,5]","[[-0.3,0.2],[0.3,0.2]]","[[0.125,-0.2],[-0.125,-0.2]]",-0.109259203,-0.13148151,1,0,0,1.9994,o2_image,581.4326,1,581.9321,581.9322,583.9323,0,0,0,0,1,,,,,,,,,,,,,,,,,,,,,,,,,,,,,,,,,,,,,,,,,,,,,,,,,,
,,66159ddb528ea605871b6e15,18,non-binary,2024-04-19_18h37.51.577,stockport_simplified,2022.2.4,Win32,60.24096386,661e456ee6de07e70aa9ef7b,66229da3094ac4f560514084,,,,,,,,,,,,,,,,,,,,,,,,,,,,,,,,,,,,,,,,,,,,,,,,,,,,,,,,0,54,54,26,1,N,M,D,o2_image,stimuli/out2.png,stimuli/out1.png,stimuli/correct_out2.png,,,,,,,,,,,,,,,,,,,,,,,,,,,,,,,,,,,,,,
,,66159ddb528ea605871b6e15,18,non-binary,2024-04-19_18h37.51.577,stockport_simplified,2022.2.4,Win32,60.24096386,661e456ee6de07e70aa9ef7b,66229da3094ac4f560514084,,,,,,,,,,,,,,,,,,,,,,,,,,,,,,,,,,583.933,585.4321,"[6,8,7,1,4,2,3,5]","[[0.3,0.2],[-0.3,0.2]]","[[0.125,-0.2],[-0.125,-0.2]]",-0.101851824,-0.174074088,1,0,0,0.9828,o2_image,585.4331,1,585.9321,585.9321,587.9322,0,0,0,0,1,,,,,,,,,,,,,,,,,,,,,,,,,,,,,,,,,,,,,,,,,,,,,,,,,,
,,66159ddb528ea605871b6e15,18,non-binary,2024-04-19_18h37.51.577,stockport_simplified,2022.2.4,Win32,60.24096386,661e456ee6de07e70aa9ef7b,66229da3094ac4f560514084,,,,,,,,,,,,,,,,,,,,,,,,,,,,,,,,,,,,,,,,,,,,,,,,,,,,,,,,0,55,55,55,1,N,M,D,o2_image,stimuli/out2.png,stimuli/out1.png,stimuli/correct_out2.png,,,,,,,,,,,,,,,,,,,,,,,,,,,,,,,,,,,,,,
,,66159ddb528ea605871b6e15,18,non-binary,2024-04-19_18h37.51.577,stockport_simplified,2022.2.4,Win32,60.24096386,661e456ee6de07e70aa9ef7b,66229da3094ac4f560514084,,,,,,,,,,,,,,,,,,,,,,,,,,,,,,,,,,587.9328,590.4822,"[6,8,7,1,4,2,3,5]","[[-0.3,0.2],[0.3,0.2]]","[[-0.125,-0.2],[0.125,-0.2]]",-0.124074046,-0.175,1,0,0,2.0329,o1_image,590.483,1,590.9823,590.9823,592.9822,0,0,0,0,1,,,,,,,,,,,,,,,,,,,,,,,,,,,,,,,,,,,,,,,,,,,,,,,,,,
,,66159ddb528ea605871b6e15,18,non-binary,2024-04-19_18h37.51.577,stockport_simplified,2022.2.4,Win32,60.24096386,661e456ee6de07e70aa9ef7b,66229da3094ac4f560514084,,,,,,,,,,,,,,,,,,,,,,,,,,,,,,,,,,,,,,,,,,,,,,,,,,,,,,,,0,56,56,30,1,A,X,N,o1_image,stimuli/out1.png,stimuli/correct_out1.png,stimuli/out2.png,,,,,,,,,,,,,,,,,,,,,,,,,,,,,,,,,,,,,,
,,66159ddb528ea605871b6e15,18,non-binary,2024-04-19_18h37.51.577,stockport_simplified,2022.2.4,Win32,60.24096386,661e456ee6de07e70aa9ef7b,66229da3094ac4f560514084,,,,,,,,,,,,,,,,,,,,,,,,,,,,,,,,,,592.9827,594.649,"[6,8,7,1,4,2,3,5]","[[-0.3,0.2],[0.3,0.2]]","[[0.125,-0.2],[-0.125,-0.2]]",-0.092592536,-0.153703732,1,0,0,1.1491,o2_image,594.6498,1,595.1491,595.1491,597.149,0,0,0,0,1,,,,,,,,,,,,,,,,,,,,,,,,,,,,,,,,,,,,,,,,,,,,,,,,,,
,,66159ddb528ea605871b6e15,18,non-binary,2024-04-19_18h37.51.577,stockport_simplified,2022.2.4,Win32,60.24096386,661e456ee6de07e70aa9ef7b,66229da3094ac4f560514084,,,,,,,,,,,,,,,,,,,,,,,,,,,,,,,,,,,,,,,,,,,,,,,,,,,,,,,,0,57,57,29,1,N,M,D,o2_image,stimuli/out2.png,stimuli/out1.png,stimuli/correct_out2.png,,,,,,,,,,,,,,,,,,,,,,,,,,,,,,,,,,,,,,
,,66159ddb528ea605871b6e15,18,non-binary,2024-04-19_18h37.51.577,stockport_simplified,2022.2.4,Win32,60.24096386,661e456ee6de07e70aa9ef7b,66229da3094ac4f560514084,,,,,,,,,,,,,,,,,,,,,,,,,,,,,,,,,,597.1494,599.0656,"[6,8,7,1,4,2,3,5]","[[-0.3,0.2],[0.3,0.2]]","[[-0.125,-0.2],[0.125,-0.2]]",-0.089814758,-0.179629644,1,0,0,1.3993,o1_image,599.0663,1,599.5657,599.5657,601.5657,0,0,0,0,1,,,,,,,,,,,,,,,,,,,,,,,,,,,,,,,,,,,,,,,,,,,,,,,,,,
,,66159ddb528ea605871b6e15,18,non-binary,2024-04-19_18h37.51.577,stockport_simplified,2022.2.4,Win32,60.24096386,661e456ee6de07e70aa9ef7b,66229da3094ac4f560514084,,,,,,,,,,,,,,,,,,,,,,,,,,,,,,,,,,,,,,,,,,,,,,,,,,,,,,,,0,58,58,32,1,A,X,N,o1_image,stimuli/out1.png,stimuli/correct_out1.png,stimuli/out2.png,,,,,,,,,,,,,,,,,,,,,,,,,,,,,,,,,,,,,,
,,66159ddb528ea605871b6e15,18,non-binary,2024-04-19_18h37.51.577,stockport_simplified,2022.2.4,Win32,60.24096386,661e456ee6de07e70aa9ef7b,66229da3094ac4f560514084,,,,,,,,,,,,,,,,,,,,,,,,,,,,,,,,,,601.5662,603.1245,"[6,8,7,1,4,2,3,5]","[[0.3,0.2],[-0.3,0.2]]","[[-0.125,-0.2],[0.125,-0.2]]",-0.128703647,-0.184259288,1,0,0,1.0337,o1_image,603.1255,1,603.6156,603.6158,605.6156,0,0,0,0,1,,,,,,,,,,,,,,,,,,,,,,,,,,,,,,,,,,,,,,,,,,,,,,,,,,
,,66159ddb528ea605871b6e15,18,non-binary,2024-04-19_18h37.51.577,stockport_simplified,2022.2.4,Win32,60.24096386,661e456ee6de07e70aa9ef7b,66229da3094ac4f560514084,,,,,,,,,,,,,,,,,,,,,,,,,,,,,,,,,,,,,,,,,,,,,,,,,,,,,,,,0,59,59,38,1,A,Y,N,o1_image,stimuli/out1.png,stimuli/correct_out1.png,stimuli/out2.png,,,,,,,,,,,,,,,,,,,,,,,,,,,,,,,,,,,,,,
,,66159ddb528ea605871b6e15,18,non-binary,2024-04-19_18h37.51.577,stockport_simplified,2022.2.4,Win32,60.24096386,661e456ee6de07e70aa9ef7b,66229da3094ac4f560514084,,,,,,,,,,,,,,,,,,,,,,,,,,,,,,,,,,605.6161,607.392,"[6,8,7,1,4,2,3,5]","[[-0.3,0.2],[0.3,0.2]]","[[0.125,-0.2],[-0.125,-0.2]]",0.121296353,-0.172222222,1,0,0,1.2594,o1_image,607.3931,1,607.8825,607.8825,609.8824,0,0,0,0,1,,,,,,,,,,,,,,,,,,,,,,,,,,,,,,,,,,,,,,,,,,,,,,,,,,
,,66159ddb528ea605871b6e15,18,non-binary,2024-04-19_18h37.51.577,stockport_simplified,2022.2.4,Win32,60.24096386,661e456ee6de07e70aa9ef7b,66229da3094ac4f560514084,,,,,,,,,,,,,,,,,,,,,,,,,,,,,,,,,,,,,,,,,,,,,,,,,,,,,,,,1,0,60,35,1,A,Y,N,o1_image,stimuli/out1.png,stimuli/correct_out1.png,stimuli/out2.png,,,,,,,,,,,,,,,,,,,,,,,,,,,,,,,,,,,,,,
,,66159ddb528ea605871b6e15,18,non-binary,2024-04-19_18h37.51.577,stockport_simplified,2022.2.4,Win32,60.24096386,661e456ee6de07e70aa9ef7b,66229da3094ac4f560514084,,,,,,,,,,,,,,,,,,,,,,,,,,,,,,,,,,609.8829,611.5752,"[6,8,7,1,4,2,3,5]","[[0.3,0.2],[-0.3,0.2]]","[[-0.125,-0.2],[0.125,-0.2]]",-0.117592536,-0.142592621,1,0,0,1.1756,o1_image,611.5762,1,612.0659,612.066,614.0658,0,0,0,0,1,,,,,,,,,,,,,,,,,,,,,,,,,,,,,,,,,,,,,,,,,,,,,,,,,,
,,66159ddb528ea605871b6e15,18,non-binary,2024-04-19_18h37.51.577,stockport_simplified,2022.2.4,Win32,60.24096386,661e456ee6de07e70aa9ef7b,66229da3094ac4f560514084,,,,,,,,,,,,,,,,,,,,,,,,,,,,,,,,,,,,,,,,,,,,,,,,,,,,,,,,1,1,61,3,1,A,X,N,o1_image,stimuli/out1.png,stimuli/correct_out1.png,stimuli/out2.png,,,,,,,,,,,,,,,,,,,,,,,,,,,,,,,,,,,,,,
,,66159ddb528ea605871b6e15,18,non-binary,2024-04-19_18h37.51.577,stockport_simplified,2022.2.4,Win32,60.24096386,661e456ee6de07e70aa9ef7b,66229da3094ac4f560514084,,,,,,,,,,,,,,,,,,,,,,,,,,,,,,,,,,614.0663,616.299,"[6,8,7,1,4,2,3,5]","[[-0.3,0.2],[0.3,0.2]]","[[0.125,-0.2],[-0.125,-0.2]]",-0.112036981,-0.17129631,1,0,0,1.716,o2_image,616.3,1,616.7991,616.7991,618.7996,0,0,0,0,1,,,,,,,,,,,,,,,,,,,,,,,,,,,,,,,,,,,,,,,,,,,,,,,,,,
,,66159ddb528ea605871b6e15,18,non-binary,2024-04-19_18h37.51.577,stockport_simplified,2022.2.4,Win32,60.24096386,661e456ee6de07e70aa9ef7b,66229da3094ac4f560514084,,,,,,,,,,,,,,,,,,,,,,,,,,,,,,,,,,,,,,,,,,,,,,,,,,,,,,,,1,2,62,17,1,B,Y,N,o2_image,stimuli/out2.png,stimuli/out1.png,stimuli/correct_out2.png,,,,,,,,,,,,,,,,,,,,,,,,,,,,,,,,,,,,,,
,,66159ddb528ea605871b6e15,18,non-binary,2024-04-19_18h37.51.577,stockport_simplified,2022.2.4,Win32,60.24096386,661e456ee6de07e70aa9ef7b,66229da3094ac4f560514084,,,,,,,,,,,,,,,,,,,,,,,,,,,,,,,,,,618.8001,620.5417,"[6,8,7,1,4,2,3,5]","[[0.3,0.2],[-0.3,0.2]]","[[0.125,-0.2],[-0.125,-0.2]]",0.144444444,-0.157407422,1,0,0,1.2253,o1_image,620.5431,1,621.0325,621.0326,623.0414,0,0,0,0,1,,,,,,,,,,,,,,,,,,,,,,,,,,,,,,,,,,,,,,,,,,,,,,,,,,
,,66159ddb528ea605871b6e15,18,non-binary,2024-04-19_18h37.51.577,stockport_simplified,2022.2.4,Win32,60.24096386,661e456ee6de07e70aa9ef7b,66229da3094ac4f560514084,,,,,,,,,,,,,,,,,,,,,,,,,,,,,,,,,,,,,,,,,,,,,,,,,,,,,,,,1,3,63,7,1,A,Y,N,o1_image,stimuli/out1.png,stimuli/correct_out1.png,stimuli/out2.png,,,,,,,,,,,,,,,,,,,,,,,,,,,,,,,,,,,,,,
,,66159ddb528ea605871b6e15,18,non-binary,2024-04-19_18h37.51.577,stockport_simplified,2022.2.4,Win32,60.24096386,661e456ee6de07e70aa9ef7b,66229da3094ac4f560514084,,,,,,,,,,,,,,,,,,,,,,,,,,,,,,,,,,623.042,624.6992,"[6,8,7,1,4,2,3,5]","[[0.3,0.2],[-0.3,0.2]]","[[-0.125,-0.2],[0.125,-0.2]]",-0.15,-0.198148176,1,0,0,1.1494,o1_image,624.7,1,625.1995,625.1996,627.1993,0,0,0,0,1,,,,,,,,,,,,,,,,,,,,,,,,,,,,,,,,,,,,,,,,,,,,,,,,,,
,,66159ddb528ea605871b6e15,18,non-binary,2024-04-19_18h37.51.577,stockport_simplified,2022.2.4,Win32,60.24096386,661e456ee6de07e70aa9ef7b,66229da3094ac4f560514084,,,,,,,,,,,,,,,,,,,,,,,,,,,,,,,,,,,,,,,,,,,,,,,,,,,,,,,,1,4,64,34,1,A,X,N,o1_image,stimuli/out1.png,stimuli/correct_out1.png,stimuli/out2.png,,,,,,,,,,,,,,,,,,,,,,,,,,,,,,,,,,,,,,
,,66159ddb528ea605871b6e15,18,non-binary,2024-04-19_18h37.51.577,stockport_simplified,2022.2.4,Win32,60.24096386,661e456ee6de07e70aa9ef7b,66229da3094ac4f560514084,,,,,,,,,,,,,,,,,,,,,,,,,,,,,,,,,,627.1999,629.3158,"[6,8,7,1,4,2,3,5]","[[-0.3,0.2],[0.3,0.2]]","[[-0.125,-0.2],[0.125,-0.2]]",0.180555556,-0.164814843,1,0,0,1.5997,o2_image,629.3167,1,629.8158,629.8159,631.8159,0,0,0,0,1,,,,,,,,,,,,,,,,,,,,,,,,,,,,,,,,,,,,,,,,,,,,,,,,,,
,,66159ddb528ea605871b6e15,18,non-binary,2024-04-19_18h37.51.577,stockport_simplified,2022.2.4,Win32,60.24096386,661e456ee6de07e70aa9ef7b,66229da3094ac4f560514084,,,,,,,,,,,,,,,,,,,,,,,,,,,,,,,,,,,,,,,,,,,,,,,,,,,,,,,,1,5,65,14,1,B,X,N,o2_image,stimuli/out2.png,stimuli/out1.png,stimuli/correct_out2.png,,,,,,,,,,,,,,,,,,,,,,,,,,,,,,,,,,,,,,
,,66159ddb528ea605871b6e15,18,non-binary,2024-04-19_18h37.51.577,stockport_simplified,2022.2.4,Win32,60.24096386,661e456ee6de07e70aa9ef7b,66229da3094ac4f560514084,,,,,,,,,,,,,,,,,,,,,,,,,,,,,,,,,,631.8164,633.5993,"[6,8,7,1,4,2,3,5]","[[-0.3,0.2],[0.3,0.2]]","[[0.125,-0.2],[-0.125,-0.2]]",0.126851908,-0.175925954,1,0,0,1.2663,o1_image,633.6006,1,634.0911,634.0912,636.0826,0,0,0,0,1,,,,,,,,,,,,,,,,,,,,,,,,,,,,,,,,,,,,,,,,,,,,,,,,,,
,,66159ddb528ea605871b6e15,18,non-binary,2024-04-19_18h37.51.577,stockport_simplified,2022.2.4,Win32,60.24096386,661e456ee6de07e70aa9ef7b,66229da3094ac4f560514084,,,,,,,,,,,,,,,,,,,,,,,,,,,,,,,,,,,,,,,,,,,,,,,,,,,,,,,,1,6,66,4,1,A,X,N,o1_image,stimuli/out1.png,stimuli/correct_out1.png,stimuli/out2.png,,,,,,,,,,,,,,,,,,,,,,,,,,,,,,,,,,,,,,
,,66159ddb528ea605871b6e15,18,non-binary,2024-04-19_18h37.51.577,stockport_simplified,2022.2.4,Win32,60.24096386,661e456ee6de07e70aa9ef7b,66229da3094ac4f560514084,,,,,,,,,,,,,,,,,,,,,,,,,,,,,,,,,,636.0832,637.8827,"[6,8,7,1,4,2,3,5]","[[0.3,0.2],[-0.3,0.2]]","[[0.125,-0.2],[-0.125,-0.2]]",0.137037065,-0.150925954,1,0,0,1.2832,o1_image,637.8835,1,638.383,638.383,640.3828,0,0,0,0,1,,,,,,,,,,,,,,,,,,,,,,,,,,,,,,,,,,,,,,,,,,,,,,,,,,
,,66159ddb528ea605871b6e15,18,non-binary,2024-04-19_18h37.51.577,stockport_simplified,2022.2.4,Win32,60.24096386,661e456ee6de07e70aa9ef7b,66229da3094ac4f560514084,,,,,,,,,,,,,,,,,,,,,,,,,,,,,,,,,,,,,,,,,,,,,,,,,,,,,,,,1,7,67,30,1,A,X,N,o1_image,stimuli/out1.png,stimuli/correct_out1.png,stimuli/out2.png,,,,,,,,,,,,,,,,,,,,,,,,,,,,,,,,,,,,,,
,,66159ddb528ea605871b6e15,18,non-binary,2024-04-19_18h37.51.577,stockport_simplified,2022.2.4,Win32,60.24096386,661e456ee6de07e70aa9ef7b,66229da3094ac4f560514084,,,,,,,,,,,,,,,,,,,,,,,,,,,,,,,,,,640.3834,641.9493,"[6,8,7,1,4,2,3,5]","[[0.3,0.2],[-0.3,0.2]]","[[-0.125,-0.2],[0.125,-0.2]]",0.118518575,-0.179629644,1,0,0,1.0495,o2_image,641.9502,1,642.4496,642.4496,644.4497,0,0,0,0,1,,,,,,,,,,,,,,,,,,,,,,,,,,,,,,,,,,,,,,,,,,,,,,,,,,
,,66159ddb528ea605871b6e15,18,non-binary,2024-04-19_18h37.51.577,stockport_simplified,2022.2.4,Win32,60.24096386,661e456ee6de07e70aa9ef7b,66229da3094ac4f560514084,,,,,,,,,,,,,,,,,,,,,,,,,,,,,,,,,,,,,,,,,,,,,,,,,,,,,,,,1,8,68,43,1,B,X,N,o2_image,stimuli/out2.png,stimuli/out1.png,stimuli/correct_out2.png,,,,,,,,,,,,,,,,,,,,,,,,,,,,,,,,,,,,,,
,,66159ddb528ea605871b6e15,18,non-binary,2024-04-19_18h37.51.577,stockport_simplified,2022.2.4,Win32,60.24096386,661e456ee6de07e70aa9ef7b,66229da3094ac4f560514084,,,,,,,,,,,,,,,,,,,,,,,,,,,,,,,,,,644.4502,646.0255,"[6,8,7,1,4,2,3,5]","[[0.3,0.2],[-0.3,0.2]]","[[0.125,-0.2],[-0.125,-0.2]]",0.132407464,-0.155555556,1,0,0,1.0673,o1_image,646.0265,1,646.516,646.516,648.516,0,0,0,0,1,,,,,,,,,,,,,,,,,,,,,,,,,,,,,,,,,,,,,,,,,,,,,,,,,,
,,66159ddb528ea605871b6e15,18,non-binary,2024-04-19_18h37.51.577,stockport_simplified,2022.2.4,Win32,60.24096386,661e456ee6de07e70aa9ef7b,66229da3094ac4f560514084,,,,,,,,,,,,,,,,,,,,,,,,,,,,,,,,,,,,,,,,,,,,,,,,,,,,,,,,1,9,69,39,1,A,Y,N,o1_image,stimuli/out1.png,stimuli/correct_out1.png,stimuli/out2.png,,,,,,,,,,,,,,,,,,,,,,,,,,,,,,,,,,,,,,
,,66159ddb528ea605871b6e15,18,non-binary,2024-04-19_18h37.51.577,stockport_simplified,2022.2.4,Win32,60.24096386,661e456ee6de07e70aa9ef7b,66229da3094ac4f560514084,,,,,,,,,,,,,,,,,,,,,,,,,,,,,,,,,,648.5165,650.3661,"[6,8,7,1,4,2,3,5]","[[-0.3,0.2],[0.3,0.2]]","[[0.125,-0.2],[-0.125,-0.2]]",-0.096296268,-0.166666667,1,0,0,1.3329,o2_image,650.3669,1,650.866,650.866,652.8664,0,0,0,0,1,,,,,,,,,,,,,,,,,,,,,,,,,,,,,,,,,,,,,,,,,,,,,,,,,,
,,66159ddb528ea605871b6e15,18,non-binary,2024-04-19_18h37.51.577,stockport_simplified,2022.2.4,Win32,60.24096386,661e456ee6de07e70aa9ef7b,66229da3094ac4f560514084,,,,,,,,,,,,,,,,,,,,,,,,,,,,,,,,,,,,,,,,,,,,,,,,,,,,,,,,1,10,70,26,1,N,M,D,o2_image,stimuli/out2.png,stimuli/out1.png,stimuli/correct_out2.png,,,,,,,,,,,,,,,,,,,,,,,,,,,,,,,,,,,,,,
,,66159ddb528ea605871b6e15,18,non-binary,2024-04-19_18h37.51.577,stockport_simplified,2022.2.4,Win32,60.24096386,661e456ee6de07e70aa9ef7b,66229da3094ac4f560514084,,,,,,,,,,,,,,,,,,,,,,,,,,,,,,,,,,652.8668,654.233,"[6,8,7,1,4,2,3,5]","[[0.3,0.2],[-0.3,0.2]]","[[0.125,-0.2],[-0.125,-0.2]]",-0.100925869,-0.159259288,1,0,0,0.8498,o2_image,654.2338,1,654.7327,654.7327,656.7326,0,0,0,0,1,,,,,,,,,,,,,,,,,,,,,,,,,,,,,,,,,,,,,,,,,,,,,,,,,,
,,66159ddb528ea605871b6e15,18,non-binary,2024-04-19_18h37.51.577,stockport_simplified,2022.2.4,Win32,60.24096386,661e456ee6de07e70aa9ef7b,66229da3094ac4f560514084,,,,,,,,,,,,,,,,,,,,,,,,,,,,,,,,,,,,,,,,,,,,,,,,,,,,,,,,1,11,71,55,1,N,M,D,o2_image,stimuli/out2.png,stimuli/out1.png,stimuli/correct_out2.png,,,,,,,,,,,,,,,,,,,,,,,,,,,,,,,,,,,,,,
,,66159ddb528ea605871b6e15,18,non-binary,2024-04-19_18h37.51.577,stockport_simplified,2022.2.4,Win32,60.24096386,661e456ee6de07e70aa9ef7b,66229da3094ac4f560514084,,,,,,,,,,,,,,,,,,,,,,,,,,,,,,,,,,656.7331,658.6166,"[6,8,7,1,4,2,3,5]","[[-0.3,0.2],[0.3,0.2]]","[[-0.125,-0.2],[0.125,-0.2]]",-0.104629601,-0.176851866,1,0,0,1.3667,o1_image,658.6175,1,659.1161,659.1161,661.1162,0,0,0,0,1,,,,,,,,,,,,,,,,,,,,,,,,,,,,,,,,,,,,,,,,,,,,,,,,,,
,,66159ddb528ea605871b6e15,18,non-binary,2024-04-19_18h37.51.577,stockport_simplified,2022.2.4,Win32,60.24096386,661e456ee6de07e70aa9ef7b,66229da3094ac4f560514084,,,,,,,,,,,,,,,,,,,,,,,,,,,,,,,,,,,,,,,,,,,,,,,,,,,,,,,,1,12,72,32,1,A,X,N,o1_image,stimuli/out1.png,stimuli/correct_out1.png,stimuli/out2.png,,,,,,,,,,,,,,,,,,,,,,,,,,,,,,,,,,,,,,
,,66159ddb528ea605871b6e15,18,non-binary,2024-04-19_18h37.51.577,stockport_simplified,2022.2.4,Win32,60.24096386,661e456ee6de07e70aa9ef7b,66229da3094ac4f560514084,,,,,,,,,,,,,,,,,,,,,,,,,,,,,,,,,,661.1165,662.9328,"[6,8,7,1,4,2,3,5]","[[0.3,0.2],[-0.3,0.2]]","[[0.125,-0.2],[-0.125,-0.2]]",-0.130555556,-0.2,1,0,0,1.2995,o2_image,662.9337,1,663.4328,663.4328,665.4328,0,0,0,0,1,,,,,,,,,,,,,,,,,,,,,,,,,,,,,,,,,,,,,,,,,,,,,,,,,,
,,66159ddb528ea605871b6e15,18,non-binary,2024-04-19_18h37.51.577,stockport_simplified,2022.2.4,Win32,60.24096386,661e456ee6de07e70aa9ef7b,66229da3094ac4f560514084,,,,,,,,,,,,,,,,,,,,,,,,,,,,,,,,,,,,,,,,,,,,,,,,,,,,,,,,1,13,73,27,1,N,M,D,o2_image,stimuli/out2.png,stimuli/out1.png,stimuli/correct_out2.png,,,,,,,,,,,,,,,,,,,,,,,,,,,,,,,,,,,,,,
,,66159ddb528ea605871b6e15,18,non-binary,2024-04-19_18h37.51.577,stockport_simplified,2022.2.4,Win32,60.24096386,661e456ee6de07e70aa9ef7b,66229da3094ac4f560514084,,,,,,,,,,,,,,,,,,,,,,,,,,,,,,,,,,665.4333,667.1169,"[6,8,7,1,4,2,3,5]","[[0.3,0.2],[-0.3,0.2]]","[[0.125,-0.2],[-0.125,-0.2]]",0.138888889,-0.17129631,1,0,0,1.1668,o1_image,667.1181,1,667.6164,667.6164,669.6162,0,0,0,0,1,,,,,,,,,,,,,,,,,,,,,,,,,,,,,,,,,,,,,,,,,,,,,,,,,,
,,66159ddb528ea605871b6e15,18,non-binary,2024-04-19_18h37.51.577,stockport_simplified,2022.2.4,Win32,60.24096386,661e456ee6de07e70aa9ef7b,66229da3094ac4f560514084,,,,,,,,,,,,,,,,,,,,,,,,,,,,,,,,,,,,,,,,,,,,,,,,,,,,,,,,1,14,74,37,1,A,Y,N,o1_image,stimuli/out1.png,stimuli/correct_out1.png,stimuli/out2.png,,,,,,,,,,,,,,,,,,,,,,,,,,,,,,,,,,,,,,
,,66159ddb528ea605871b6e15,18,non-binary,2024-04-19_18h37.51.577,stockport_simplified,2022.2.4,Win32,60.24096386,661e456ee6de07e70aa9ef7b,66229da3094ac4f560514084,,,,,,,,,,,,,,,,,,,,,,,,,,,,,,,,,,669.6167,671.2662,"[6,8,7,1,4,2,3,5]","[[-0.3,0.2],[0.3,0.2]]","[[-0.125,-0.2],[0.125,-0.2]]",-0.112962935,-0.176851866,1,0,0,1.1331,o1_image,671.2671,1,671.7661,671.7663,673.7662,0,0,0,0,1,,,,,,,,,,,,,,,,,,,,,,,,,,,,,,,,,,,,,,,,,,,,,,,,,,
,,66159ddb528ea605871b6e15,18,non-binary,2024-04-19_18h37.51.577,stockport_simplified,2022.2.4,Win32,60.24096386,661e456ee6de07e70aa9ef7b,66229da3094ac4f560514084,,,,,,,,,,,,,,,,,,,,,,,,,,,,,,,,,,,,,,,,,,,,,,,,,,,,,,,,1,15,75,9,1,A,Y,N,o1_image,stimuli/out1.png,stimuli/correct_out1.png,stimuli/out2.png,,,,,,,,,,,,,,,,,,,,,,,,,,,,,,,,,,,,,,
,,66159ddb528ea605871b6e15,18,non-binary,2024-04-19_18h37.51.577,stockport_simplified,2022.2.4,Win32,60.24096386,661e456ee6de07e70aa9ef7b,66229da3094ac4f560514084,,,,,,,,,,,,,,,,,,,,,,,,,,,,,,,,,,673.7667,675.8662,"[6,8,7,1,4,2,3,5]","[[-0.3,0.2],[0.3,0.2]]","[[0.125,-0.2],[-0.125,-0.2]]",-0.109259203,-0.175,1,0,0,1.5828,o2_image,675.867,0,676.3663,676.3663,678.3681,0,0,0,0,1,,,,,,,,,,,,,,,,,,,,,,,,,,,,,,,,,,,,,,,,,,,,,,,,,,
,,66159ddb528ea605871b6e15,18,non-binary,2024-04-19_18h37.51.577,stockport_simplified,2022.2.4,Win32,60.24096386,661e456ee6de07e70aa9ef7b,66229da3094ac4f560514084,,,,,,,,,,,,,,,,,,,,,,,,,,,,,,,,,,,,,,,,,,,,,,,,,,,,,,,,1,16,76,23,1,N,M,C,o1_image,stimuli/out1.png,stimuli/correct_out1.png,stimuli/out2.png,,,,,,,,,,,,,,,,,,,,,,,,,,,,,,,,,,,,,,
,,66159ddb528ea605871b6e15,18,non-binary,2024-04-19_18h37.51.577,stockport_simplified,2022.2.4,Win32,60.24096386,661e456ee6de07e70aa9ef7b,66229da3094ac4f560514084,,,,,,,,,,,,,,,,,,,,,,,,,,,,,,,,,,678.3688,680.0829,"[6,8,7,1,4,2,3,5]","[[-0.3,0.2],[0.3,0.2]]","[[-0.125,-0.2],[0.125,-0.2]]",0.103703732,-0.188888889,1,0,0,1.2073,o2_image,680.0839,1,680.5829,680.583,682.583,0,0,0,0,1,,,,,,,,,,,,,,,,,,,,,,,,,,,,,,,,,,,,,,,,,,,,,,,,,,
,,66159ddb528ea605871b6e15,18,non-binary,2024-04-19_18h37.51.577,stockport_simplified,2022.2.4,Win32,60.24096386,661e456ee6de07e70aa9ef7b,66229da3094ac4f560514084,,,,,,,,,,,,,,,,,,,,,,,,,,,,,,,,,,,,,,,,,,,,,,,,,,,,,,,,1,17,77,29,1,N,M,D,o2_image,stimuli/out2.png,stimuli/out1.png,stimuli/correct_out2.png,,,,,,,,,,,,,,,,,,,,,,,,,,,,,,,,,,,,,,
,,66159ddb528ea605871b6e15,18,non-binary,2024-04-19_18h37.51.577,stockport_simplified,2022.2.4,Win32,60.24096386,661e456ee6de07e70aa9ef7b,66229da3094ac4f560514084,,,,,,,,,,,,,,,,,,,,,,,,,,,,,,,,,,682.5835,684.5663,"[6,8,7,1,4,2,3,5]","[[-0.3,0.2],[0.3,0.2]]","[[0.125,-0.2],[-0.125,-0.2]]",-0.131481425,-0.185185199,1,0,0,1.4661,o2_image,684.5672,1,685.0663,685.0663,687.0665,0,0,0,0,1,,,,,,,,,,,,,,,,,,,,,,,,,,,,,,,,,,,,,,,,,,,,,,,,,,
,,66159ddb528ea605871b6e15,18,non-binary,2024-04-19_18h37.51.577,stockport_simplified,2022.2.4,Win32,60.24096386,661e456ee6de07e70aa9ef7b,66229da3094ac4f560514084,,,,,,,,,,,,,,,,,,,,,,,,,,,,,,,,,,,,,,,,,,,,,,,,,,,,,,,,1,18,78,19,1,B,Y,N,o2_image,stimuli/out2.png,stimuli/out1.png,stimuli/correct_out2.png,,,,,,,,,,,,,,,,,,,,,,,,,,,,,,,,,,,,,,
,,66159ddb528ea605871b6e15,18,non-binary,2024-04-19_18h37.51.577,stockport_simplified,2022.2.4,Win32,60.24096386,661e456ee6de07e70aa9ef7b,66229da3094ac4f560514084,,,,,,,,,,,,,,,,,,,,,,,,,,,,,,,,,,687.067,689.0252,"[6,8,7,1,4,2,3,5]","[[-0.3,0.2],[0.3,0.2]]","[[-0.125,-0.2],[0.125,-0.2]]",0.099074131,-0.161111111,1,0,0,1.4419,o2_image,689.0262,1,689.5244,689.5245,691.5163,0,0,0,0,1,,,,,,,,,,,,,,,,,,,,,,,,,,,,,,,,,,,,,,,,,,,,,,,,,,
,,66159ddb528ea605871b6e15,18,non-binary,2024-04-19_18h37.51.577,stockport_simplified,2022.2.4,Win32,60.24096386,661e456ee6de07e70aa9ef7b,66229da3094ac4f560514084,,,,,,,,,,,,,,,,,,,,,,,,,,,,,,,,,,,,,,,,,,,,,,,,,,,,,,,,1,19,79,44,1,B,X,N,o2_image,stimuli/out2.png,stimuli/out1.png,stimuli/correct_out2.png,,,,,,,,,,,,,,,,,,,,,,,,,,,,,,,,,,,,,,
,,66159ddb528ea605871b6e15,18,non-binary,2024-04-19_18h37.51.577,stockport_simplified,2022.2.4,Win32,60.24096386,661e456ee6de07e70aa9ef7b,66229da3094ac4f560514084,,,,,,,,,,,,,,,,,,,,,,,,,,,,,,,,,,691.5168,693.0586,"[6,8,7,1,4,2,3,5]","[[0.3,0.2],[-0.3,0.2]]","[[0.125,-0.2],[-0.125,-0.2]]",0.107407464,-0.191666667,1,0,0,1.0248,o1_image,693.0596,1,693.5502,693.5502,695.5499,0,0,0,0,1,,,,,,,,,,,,,,,,,,,,,,,,,,,,,,,,,,,,,,,,,,,,,,,,,,
,,66159ddb528ea605871b6e15,18,non-binary,2024-04-19_18h37.51.577,stockport_simplified,2022.2.4,Win32,60.24096386,661e456ee6de07e70aa9ef7b,66229da3094ac4f560514084,,,,,,,,,,,,,,,,,,,,,,,,,,,,,,,,,,,,,,,,,,,,,,,,,,,,,,,,1,20,80,22,1,N,M,C,o1_image,stimuli/out1.png,stimuli/correct_out1.png,stimuli/out2.png,,,,,,,,,,,,,,,,,,,,,,,,,,,,,,,,,,,,,,
,,66159ddb528ea605871b6e15,18,non-binary,2024-04-19_18h37.51.577,stockport_simplified,2022.2.4,Win32,60.24096386,661e456ee6de07e70aa9ef7b,66229da3094ac4f560514084,,,,,,,,,,,,,,,,,,,,,,,,,,,,,,,,,,695.5504,698.033,"[6,8,7,1,4,2,3,5]","[[-0.3,0.2],[0.3,0.2]]","[[0.125,-0.2],[-0.125,-0.2]]",-0.112036981,-0.169444444,1,0,0,1.966,o2_image,698.0486,1,698.5501,698.5502,700.5498,0,0,0,0,1,,,,,,,,,,,,,,,,,,,,,,,,,,,,,,,,,,,,,,,,,,,,,,,,,,
,,66159ddb528ea605871b6e15,18,non-binary,2024-04-19_18h37.51.577,stockport_simplified,2022.2.4,Win32,60.24096386,661e456ee6de07e70aa9ef7b,66229da3094ac4f560514084,,,,,,,,,,,,,,,,,,,,,,,,,,,,,,,,,,,,,,,,,,,,,,,,,,,,,,,,1,21,81,49,1,B,Y,N,o2_image,stimuli/out2.png,stimuli/out1.png,stimuli/correct_out2.png,,,,,,,,,,,,,,,,,,,,,,,,,,,,,,,,,,,,,,
,,66159ddb528ea605871b6e15,18,non-binary,2024-04-19_18h37.51.577,stockport_simplified,2022.2.4,Win32,60.24096386,661e456ee6de07e70aa9ef7b,66229da3094ac4f560514084,,,,,,,,,,,,,,,,,,,,,,,,,,,,,,,,,,700.5505,702.2,"[6,8,7,1,4,2,3,5]","[[0.3,0.2],[-0.3,0.2]]","[[0.125,-0.2],[-0.125,-0.2]]",0.10648151,-0.175925954,1,0,0,1.1331,o1_image,702.2007,1,702.6998,702.6998,704.6996,0,0,0,0,1,,,,,,,,,,,,,,,,,,,,,,,,,,,,,,,,,,,,,,,,,,,,,,,,,,
,,66159ddb528ea605871b6e15,18,non-binary,2024-04-19_18h37.51.577,stockport_simplified,2022.2.4,Win32,60.24096386,661e456ee6de07e70aa9ef7b,66229da3094ac4f560514084,,,,,,,,,,,,,,,,,,,,,,,,,,,,,,,,,,,,,,,,,,,,,,,,,,,,,,,,1,22,82,6,1,A,Y,N,o1_image,stimuli/out1.png,stimuli/correct_out1.png,stimuli/out2.png,,,,,,,,,,,,,,,,,,,,,,,,,,,,,,,,,,,,,,
,,66159ddb528ea605871b6e15,18,non-binary,2024-04-19_18h37.51.577,stockport_simplified,2022.2.4,Win32,60.24096386,661e456ee6de07e70aa9ef7b,66229da3094ac4f560514084,,,,,,,,,,,,,,,,,,,,,,,,,,,,,,,,,,704.7001,706.5169,"[6,8,7,1,4,2,3,5]","[[-0.3,0.2],[0.3,0.2]]","[[0.125,-0.2],[-0.125,-0.2]]",-0.103703647,-0.187037065,1,0,0,1.3,o2_image,706.5178,1,707.0165,707.0165,709.0165,0,0,0,0,1,,,,,,,,,,,,,,,,,,,,,,,,,,,,,,,,,,,,,,,,,,,,,,,,,,
,,66159ddb528ea605871b6e15,18,non-binary,2024-04-19_18h37.51.577,stockport_simplified,2022.2.4,Win32,60.24096386,661e456ee6de07e70aa9ef7b,66229da3094ac4f560514084,,,,,,,,,,,,,,,,,,,,,,,,,,,,,,,,,,,,,,,,,,,,,,,,,,,,,,,,1,23,83,13,1,B,X,N,o2_image,stimuli/out2.png,stimuli/out1.png,stimuli/correct_out2.png,,,,,,,,,,,,,,,,,,,,,,,,,,,,,,,,,,,,,,
,,66159ddb528ea605871b6e15,18,non-binary,2024-04-19_18h37.51.577,stockport_simplified,2022.2.4,Win32,60.24096386,661e456ee6de07e70aa9ef7b,66229da3094ac4f560514084,,,,,,,,,,,,,,,,,,,,,,,,,,,,,,,,,,709.017,710.7503,"[6,8,7,1,4,2,3,5]","[[0.3,0.2],[-0.3,0.2]]","[[-0.125,-0.2],[0.125,-0.2]]",-0.11851849,-0.190740755,1,0,0,1.2165,o1_image,710.7511,1,711.2498,711.2498,713.2498,0,0,0,0,1,,,,,,,,,,,,,,,,,,,,,,,,,,,,,,,,,,,,,,,,,,,,,,,,,,
,,66159ddb528ea605871b6e15,18,non-binary,2024-04-19_18h37.51.577,stockport_simplified,2022.2.4,Win32,60.24096386,661e456ee6de07e70aa9ef7b,66229da3094ac4f560514084,,,,,,,,,,,,,,,,,,,,,,,,,,,,,,,,,,,,,,,,,,,,,,,,,,,,,,,,1,24,84,21,1,N,M,C,o1_image,stimuli/out1.png,stimuli/correct_out1.png,stimuli/out2.png,,,,,,,,,,,,,,,,,,,,,,,,,,,,,,,,,,,,,,
,,66159ddb528ea605871b6e15,18,non-binary,2024-04-19_18h37.51.577,stockport_simplified,2022.2.4,Win32,60.24096386,661e456ee6de07e70aa9ef7b,66229da3094ac4f560514084,,,,,,,,,,,,,,,,,,,,,,,,,,,,,,,,,,713.2504,715.2006,"[6,8,7,1,4,2,3,5]","[[-0.3,0.2],[0.3,0.2]]","[[0.125,-0.2],[-0.125,-0.2]]",-0.105555556,-0.175925954,1,0,0,1.4337,o2_image,715.2015,1,715.7002,715.7002,717.7,0,0,0,0,1,,,,,,,,,,,,,,,,,,,,,,,,,,,,,,,,,,,,,,,,,,,,,,,,,,
,,66159ddb528ea605871b6e15,18,non-binary,2024-04-19_18h37.51.577,stockport_simplified,2022.2.4,Win32,60.24096386,661e456ee6de07e70aa9ef7b,66229da3094ac4f560514084,,,,,,,,,,,,,,,,,,,,,,,,,,,,,,,,,,,,,,,,,,,,,,,,,,,,,,,,1,25,85,57,1,N,M,D,o2_image,stimuli/out2.png,stimuli/out1.png,stimuli/correct_out2.png,,,,,,,,,,,,,,,,,,,,,,,,,,,,,,,,,,,,,,
,,66159ddb528ea605871b6e15,18,non-binary,2024-04-19_18h37.51.577,stockport_simplified,2022.2.4,Win32,60.24096386,661e456ee6de07e70aa9ef7b,66229da3094ac4f560514084,,,,,,,,,,,,,,,,,,,,,,,,,,,,,,,,,,717.7006,719.2832,"[6,8,7,1,4,2,3,5]","[[-0.3,0.2],[0.3,0.2]]","[[0.125,-0.2],[-0.125,-0.2]]",0.114814843,-0.177777778,1,0,0,1.0662,o1_image,719.2842,1,719.7832,719.7833,721.7832,0,0,0,0,1,,,,,,,,,,,,,,,,,,,,,,,,,,,,,,,,,,,,,,,,,,,,,,,,,,
,,66159ddb528ea605871b6e15,18,non-binary,2024-04-19_18h37.51.577,stockport_simplified,2022.2.4,Win32,60.24096386,661e456ee6de07e70aa9ef7b,66229da3094ac4f560514084,,,,,,,,,,,,,,,,,,,,,,,,,,,,,,,,,,,,,,,,,,,,,,,,,,,,,,,,1,26,86,38,1,A,Y,N,o1_image,stimuli/out1.png,stimuli/correct_out1.png,stimuli/out2.png,,,,,,,,,,,,,,,,,,,,,,,,,,,,,,,,,,,,,,
,,66159ddb528ea605871b6e15,18,non-binary,2024-04-19_18h37.51.577,stockport_simplified,2022.2.4,Win32,60.24096386,661e456ee6de07e70aa9ef7b,66229da3094ac4f560514084,,,,,,,,,,,,,,,,,,,,,,,,,,,,,,,,,,721.7837,723.9337,"[6,8,7,1,4,2,3,5]","[[-0.3,0.2],[0.3,0.2]]","[[-0.125,-0.2],[0.125,-0.2]]",0.15,-0.178703732,1,0,0,1.6333,o2_image,723.9346,1,724.4333,724.4334,726.4335,0,0,0,0,1,,,,,,,,,,,,,,,,,,,,,,,,,,,,,,,,,,,,,,,,,,,,,,,,,,
,,66159ddb528ea605871b6e15,18,non-binary,2024-04-19_18h37.51.577,stockport_simplified,2022.2.4,Win32,60.24096386,661e456ee6de07e70aa9ef7b,66229da3094ac4f560514084,,,,,,,,,,,,,,,,,,,,,,,,,,,,,,,,,,,,,,,,,,,,,,,,,,,,,,,,1,27,87,40,1,B,X,N,o2_image,stimuli/out2.png,stimuli/out1.png,stimuli/correct_out2.png,,,,,,,,,,,,,,,,,,,,,,,,,,,,,,,,,,,,,,
,,66159ddb528ea605871b6e15,18,non-binary,2024-04-19_18h37.51.577,stockport_simplified,2022.2.4,Win32,60.24096386,661e456ee6de07e70aa9ef7b,66229da3094ac4f560514084,,,,,,,,,,,,,,,,,,,,,,,,,,,,,,,,,,726.4341,728.9001,"[6,8,7,1,4,2,3,5]","[[-0.3,0.2],[0.3,0.2]]","[[0.125,-0.2],[-0.125,-0.2]]",-0.087036981,-0.193518533,1,0,0,1.9499,o2_image,728.9008,1,729.4001,729.4001,731.4,0,0,0,0,1,,,,,,,,,,,,,,,,,,,,,,,,,,,,,,,,,,,,,,,,,,,,,,,,,,
,,66159ddb528ea605871b6e15,18,non-binary,2024-04-19_18h37.51.577,stockport_simplified,2022.2.4,Win32,60.24096386,661e456ee6de07e70aa9ef7b,66229da3094ac4f560514084,,,,,,,,,,,,,,,,,,,,,,,,,,,,,,,,,,,,,,,,,,,,,,,,,,,,,,,,1,28,88,12,1,B,X,N,o2_image,stimuli/out2.png,stimuli/out1.png,stimuli/correct_out2.png,,,,,,,,,,,,,,,,,,,,,,,,,,,,,,,,,,,,,,
,,66159ddb528ea605871b6e15,18,non-binary,2024-04-19_18h37.51.577,stockport_simplified,2022.2.4,Win32,60.24096386,661e456ee6de07e70aa9ef7b,66229da3094ac4f560514084,,,,,,,,,,,,,,,,,,,,,,,,,,,,,,,,,,731.4006,733.5246,"[6,8,7,1,4,2,3,5]","[[-0.3,0.2],[0.3,0.2]]","[[0.125,-0.2],[-0.125,-0.2]]",-0.161111111,-0.17129631,1,0,0,1.5994,o2_image,733.5257,1,734.0166,734.0166,736.0167,0,0,0,0,1,,,,,,,,,,,,,,,,,,,,,,,,,,,,,,,,,,,,,,,,,,,,,,,,,,
,,66159ddb528ea605871b6e15,18,non-binary,2024-04-19_18h37.51.577,stockport_simplified,2022.2.4,Win32,60.24096386,661e456ee6de07e70aa9ef7b,66229da3094ac4f560514084,,,,,,,,,,,,,,,,,,,,,,,,,,,,,,,,,,,,,,,,,,,,,,,,,,,,,,,,1,29,89,16,1,B,Y,N,o2_image,stimuli/out2.png,stimuli/out1.png,stimuli/correct_out2.png,,,,,,,,,,,,,,,,,,,,,,,,,,,,,,,,,,,,,,
,,66159ddb528ea605871b6e15,18,non-binary,2024-04-19_18h37.51.577,stockport_simplified,2022.2.4,Win32,60.24096386,661e456ee6de07e70aa9ef7b,66229da3094ac4f560514084,,,,,,,,,,,,,,,,,,,,,,,,,,,,,,,,,,736.0172,738.6503,"[6,8,7,1,4,2,3,5]","[[-0.3,0.2],[0.3,0.2]]","[[-0.125,-0.2],[0.125,-0.2]]",0.140740797,-0.176851866,1,0,0,2.1165,o2_image,738.6512,1,739.1503,739.1503,741.15,0,0,0,0,1,,,,,,,,,,,,,,,,,,,,,,,,,,,,,,,,,,,,,,,,,,,,,,,,,,
,,66159ddb528ea605871b6e15,18,non-binary,2024-04-19_18h37.51.577,stockport_simplified,2022.2.4,Win32,60.24096386,661e456ee6de07e70aa9ef7b,66229da3094ac4f560514084,,,,,,,,,,,,,,,,,,,,,,,,,,,,,,,,,,,,,,,,,,,,,,,,,,,,,,,,1,30,90,59,1,N,M,D,o2_image,stimuli/out2.png,stimuli/out1.png,stimuli/correct_out2.png,,,,,,,,,,,,,,,,,,,,,,,,,,,,,,,,,,,,,,
,,66159ddb528ea605871b6e15,18,non-binary,2024-04-19_18h37.51.577,stockport_simplified,2022.2.4,Win32,60.24096386,661e456ee6de07e70aa9ef7b,66229da3094ac4f560514084,,,,,,,,,,,,,,,,,,,,,,,,,,,,,,,,,,741.1504,743.2501,"[6,8,7,1,4,2,3,5]","[[-0.3,0.2],[0.3,0.2]]","[[0.125,-0.2],[-0.125,-0.2]]",-0.125,-0.176851866,1,0,0,1.5828,o2_image,743.2509,1,743.7506,743.7506,745.7502,0,0,0,0,1,,,,,,,,,,,,,,,,,,,,,,,,,,,,,,,,,,,,,,,,,,,,,,,,,,
,,66159ddb528ea605871b6e15,18,non-binary,2024-04-19_18h37.51.577,stockport_simplified,2022.2.4,Win32,60.24096386,661e456ee6de07e70aa9ef7b,66229da3094ac4f560514084,,,,,,,,,,,,,,,,,,,,,,,,,,,,,,,,,,,,,,,,,,,,,,,,,,,,,,,,1,31,91,10,1,B,X,N,o2_image,stimuli/out2.png,stimuli/out1.png,stimuli/correct_out2.png,,,,,,,,,,,,,,,,,,,,,,,,,,,,,,,,,,,,,,
,,66159ddb528ea605871b6e15,18,non-binary,2024-04-19_18h37.51.577,stockport_simplified,2022.2.4,Win32,60.24096386,661e456ee6de07e70aa9ef7b,66229da3094ac4f560514084,,,,,,,,,,,,,,,,,,,,,,,,,,,,,,,,,,745.7507,748.5667,"[6,8,7,1,4,2,3,5]","[[-0.3,0.2],[0.3,0.2]]","[[-0.125,-0.2],[0.125,-0.2]]",0.115740797,-0.189814843,1,0,0,2.299,o2_image,748.5676,1,749.0671,749.0672,751.0669,0,0,0,0,1,,,,,,,,,,,,,,,,,,,,,,,,,,,,,,,,,,,,,,,,,,,,,,,,,,
,,66159ddb528ea605871b6e15,18,non-binary,2024-04-19_18h37.51.577,stockport_simplified,2022.2.4,Win32,60.24096386,661e456ee6de07e70aa9ef7b,66229da3094ac4f560514084,,,,,,,,,,,,,,,,,,,,,,,,,,,,,,,,,,,,,,,,,,,,,,,,,,,,,,,,1,32,92,28,1,N,M,D,o2_image,stimuli/out2.png,stimuli/out1.png,stimuli/correct_out2.png,,,,,,,,,,,,,,,,,,,,,,,,,,,,,,,,,,,,,,
,,66159ddb528ea605871b6e15,18,non-binary,2024-04-19_18h37.51.577,stockport_simplified,2022.2.4,Win32,60.24096386,661e456ee6de07e70aa9ef7b,66229da3094ac4f560514084,,,,,,,,,,,,,,,,,,,,,,,,,,,,,,,,,,751.0674,752.8503,"[6,8,7,1,4,2,3,5]","[[0.3,0.2],[-0.3,0.2]]","[[0.125,-0.2],[-0.125,-0.2]]",0.15,-0.212963019,1,0,0,1.2661,o1_image,752.8511,1,753.3507,753.3507,755.3503,0,0,0,0,1,,,,,,,,,,,,,,,,,,,,,,,,,,,,,,,,,,,,,,,,,,,,,,,,,,
,,66159ddb528ea605871b6e15,18,non-binary,2024-04-19_18h37.51.577,stockport_simplified,2022.2.4,Win32,60.24096386,661e456ee6de07e70aa9ef7b,66229da3094ac4f560514084,,,,,,,,,,,,,,,,,,,,,,,,,,,,,,,,,,,,,,,,,,,,,,,,,,,,,,,,1,33,93,2,1,A,X,N,o1_image,stimuli/out1.png,stimuli/correct_out1.png,stimuli/out2.png,,,,,,,,,,,,,,,,,,,,,,,,,,,,,,,,,,,,,,
,,66159ddb528ea605871b6e15,18,non-binary,2024-04-19_18h37.51.577,stockport_simplified,2022.2.4,Win32,60.24096386,661e456ee6de07e70aa9ef7b,66229da3094ac4f560514084,,,,,,,,,,,,,,,,,,,,,,,,,,,,,,,,,,755.3508,757.1504,"[6,8,7,1,4,2,3,5]","[[0.3,0.2],[-0.3,0.2]]","[[0.125,-0.2],[-0.125,-0.2]]",-0.128703647,-0.175925954,1,0,0,1.2829,o2_image,757.1512,1,757.6503,757.6503,759.6501,0,0,0,0,1,,,,,,,,,,,,,,,,,,,,,,,,,,,,,,,,,,,,,,,,,,,,,,,,,,
,,66159ddb528ea605871b6e15,18,non-binary,2024-04-19_18h37.51.577,stockport_simplified,2022.2.4,Win32,60.24096386,661e456ee6de07e70aa9ef7b,66229da3094ac4f560514084,,,,,,,,,,,,,,,,,,,,,,,,,,,,,,,,,,,,,,,,,,,,,,,,,,,,,,,,1,34,94,56,1,N,M,D,o2_image,stimuli/out2.png,stimuli/out1.png,stimuli/correct_out2.png,,,,,,,,,,,,,,,,,,,,,,,,,,,,,,,,,,,,,,
,,66159ddb528ea605871b6e15,18,non-binary,2024-04-19_18h37.51.577,stockport_simplified,2022.2.4,Win32,60.24096386,661e456ee6de07e70aa9ef7b,66229da3094ac4f560514084,,,,,,,,,,,,,,,,,,,,,,,,,,,,,,,,,,759.6507,761.5005,"[6,8,7,1,4,2,3,5]","[[0.3,0.2],[-0.3,0.2]]","[[0.125,-0.2],[-0.125,-0.2]]",-0.127777778,-0.172222222,1,0,0,1.3327,o2_image,761.5015,1,762.0007,762.0008,764.0002,0,0,0,0,1,,,,,,,,,,,,,,,,,,,,,,,,,,,,,,,,,,,,,,,,,,,,,,,,,,
,,66159ddb528ea605871b6e15,18,non-binary,2024-04-19_18h37.51.577,stockport_simplified,2022.2.4,Win32,60.24096386,661e456ee6de07e70aa9ef7b,66229da3094ac4f560514084,,,,,,,,,,,,,,,,,,,,,,,,,,,,,,,,,,,,,,,,,,,,,,,,,,,,,,,,1,35,95,18,1,B,Y,N,o2_image,stimuli/out2.png,stimuli/out1.png,stimuli/correct_out2.png,,,,,,,,,,,,,,,,,,,,,,,,,,,,,,,,,,,,,,
,,66159ddb528ea605871b6e15,18,non-binary,2024-04-19_18h37.51.577,stockport_simplified,2022.2.4,Win32,60.24096386,661e456ee6de07e70aa9ef7b,66229da3094ac4f560514084,,,,,,,,,,,,,,,,,,,,,,,,,,,,,,,,,,764.0006,765.7006,"[6,8,7,1,4,2,3,5]","[[0.3,0.2],[-0.3,0.2]]","[[0.125,-0.2],[-0.125,-0.2]]",-0.104629601,-0.187037065,1,0,0,1.1833,o2_image,765.7013,1,766.2084,766.2085,768.2002,0,0,0,0,1,,,,,,,,,,,,,,,,,,,,,,,,,,,,,,,,,,,,,,,,,,,,,,,,,,
,,66159ddb528ea605871b6e15,18,non-binary,2024-04-19_18h37.51.577,stockport_simplified,2022.2.4,Win32,60.24096386,661e456ee6de07e70aa9ef7b,66229da3094ac4f560514084,,,,,,,,,,,,,,,,,,,,,,,,,,,,,,,,,,,,,,,,,,,,,,,,,,,,,,,,1,36,96,41,1,B,X,N,o2_image,stimuli/out2.png,stimuli/out1.png,stimuli/correct_out2.png,,,,,,,,,,,,,,,,,,,,,,,,,,,,,,,,,,,,,,
,,66159ddb528ea605871b6e15,18,non-binary,2024-04-19_18h37.51.577,stockport_simplified,2022.2.4,Win32,60.24096386,661e456ee6de07e70aa9ef7b,66229da3094ac4f560514084,,,,,,,,,,,,,,,,,,,,,,,,,,,,,,,,,,768.2011,769.8261,"[6,8,7,1,4,2,3,5]","[[-0.3,0.2],[0.3,0.2]]","[[-0.125,-0.2],[0.125,-0.2]]",-0.107407379,-0.182407422,1,0,0,1.1082,o1_image,769.827,1,770.3169,770.3169,772.3169,0,0,0,0,1,,,,,,,,,,,,,,,,,,,,,,,,,,,,,,,,,,,,,,,,,,,,,,,,,,
,,66159ddb528ea605871b6e15,18,non-binary,2024-04-19_18h37.51.577,stockport_simplified,2022.2.4,Win32,60.24096386,661e456ee6de07e70aa9ef7b,66229da3094ac4f560514084,,,,,,,,,,,,,,,,,,,,,,,,,,,,,,,,,,,,,,,,,,,,,,,,,,,,,,,,1,37,97,53,1,N,M,C,o1_image,stimuli/out1.png,stimuli/correct_out1.png,stimuli/out2.png,,,,,,,,,,,,,,,,,,,,,,,,,,,,,,,,,,,,,,
,,66159ddb528ea605871b6e15,18,non-binary,2024-04-19_18h37.51.577,stockport_simplified,2022.2.4,Win32,60.24096386,661e456ee6de07e70aa9ef7b,66229da3094ac4f560514084,,,,,,,,,,,,,,,,,,,,,,,,,,,,,,,,,,772.3174,773.9839,"[6,8,7,1,4,2,3,5]","[[0.3,0.2],[-0.3,0.2]]","[[-0.125,-0.2],[0.125,-0.2]]",-0.111111111,-0.140740755,1,0,0,1.1498,o1_image,773.9847,1,774.4836,774.4836,776.4837,0,0,0,0,1,,,,,,,,,,,,,,,,,,,,,,,,,,,,,,,,,,,,,,,,,,,,,,,,,,
,,66159ddb528ea605871b6e15,18,non-binary,2024-04-19_18h37.51.577,stockport_simplified,2022.2.4,Win32,60.24096386,661e456ee6de07e70aa9ef7b,66229da3094ac4f560514084,,,,,,,,,,,,,,,,,,,,,,,,,,,,,,,,,,,,,,,,,,,,,,,,,,,,,,,,1,38,98,1,1,A,X,N,o1_image,stimuli/out1.png,stimuli/correct_out1.png,stimuli/out2.png,,,,,,,,,,,,,,,,,,,,,,,,,,,,,,,,,,,,,,
,,66159ddb528ea605871b6e15,18,non-binary,2024-04-19_18h37.51.577,stockport_simplified,2022.2.4,Win32,60.24096386,661e456ee6de07e70aa9ef7b,66229da3094ac4f560514084,,,,,,,,,,,,,,,,,,,,,,,,,,,,,,,,,,776.4843,778.1007,"[6,8,7,1,4,2,3,5]","[[-0.3,0.2],[0.3,0.2]]","[[0.125,-0.2],[-0.125,-0.2]]",0.091666667,-0.175925954,1,0,0,1.0922,o1_image,778.1018,1,778.6003,778.6004,780.6005,0,0,0,0,1,,,,,,,,,,,,,,,,,,,,,,,,,,,,,,,,,,,,,,,,,,,,,,,,,,
,,66159ddb528ea605871b6e15,18,non-binary,2024-04-19_18h37.51.577,stockport_simplified,2022.2.4,Win32,60.24096386,661e456ee6de07e70aa9ef7b,66229da3094ac4f560514084,,,,,,,,,,,,,,,,,,,,,,,,,,,,,,,,,,,,,,,,,,,,,,,,,,,,,,,,1,39,99,33,1,A,X,N,o1_image,stimuli/out1.png,stimuli/correct_out1.png,stimuli/out2.png,,,,,,,,,,,,,,,,,,,,,,,,,,,,,,,,,,,,,,
,,66159ddb528ea605871b6e15,18,non-binary,2024-04-19_18h37.51.577,stockport_simplified,2022.2.4,Win32,60.24096386,661e456ee6de07e70aa9ef7b,66229da3094ac4f560514084,,,,,,,,,,,,,,,,,,,,,,,,,,,,,,,,,,780.6011,782.2171,"[6,8,7,1,4,2,3,5]","[[0.3,0.2],[-0.3,0.2]]","[[-0.125,-0.2],[0.125,-0.2]]",-0.069444444,-0.188888889,1,0,0,1.0995,o1_image,782.218,1,782.7176,782.7176,784.7171,0,0,0,0,1,,,,,,,,,,,,,,,,,,,,,,,,,,,,,,,,,,,,,,,,,,,,,,,,,,
,,66159ddb528ea605871b6e15,18,non-binary,2024-04-19_18h37.51.577,stockport_simplified,2022.2.4,Win32,60.24096386,661e456ee6de07e70aa9ef7b,66229da3094ac4f560514084,,,,,,,,,,,,,,,,,,,,,,,,,,,,,,,,,,,,,,,,,,,,,,,,,,,,,,,,1,40,100,8,1,A,Y,N,o1_image,stimuli/out1.png,stimuli/correct_out1.png,stimuli/out2.png,,,,,,,,,,,,,,,,,,,,,,,,,,,,,,,,,,,,,,
,,66159ddb528ea605871b6e15,18,non-binary,2024-04-19_18h37.51.577,stockport_simplified,2022.2.4,Win32,60.24096386,661e456ee6de07e70aa9ef7b,66229da3094ac4f560514084,,,,,,,,,,,,,,,,,,,,,,,,,,,,,,,,,,784.7176,786.3259,"[6,8,7,1,4,2,3,5]","[[0.3,0.2],[-0.3,0.2]]","[[0.125,-0.2],[-0.125,-0.2]]",-0.099074046,-0.189814843,1,0,0,1.0916,o2_image,786.3268,1,786.8172,786.8172,788.8171,0,0,0,0,1,,,,,,,,,,,,,,,,,,,,,,,,,,,,,,,,,,,,,,,,,,,,,,,,,,
,,66159ddb528ea605871b6e15,18,non-binary,2024-04-19_18h37.51.577,stockport_simplified,2022.2.4,Win32,60.24096386,661e456ee6de07e70aa9ef7b,66229da3094ac4f560514084,,,,,,,,,,,,,,,,,,,,,,,,,,,,,,,,,,,,,,,,,,,,,,,,,,,,,,,,1,41,101,45,1,B,Y,N,o2_image,stimuli/out2.png,stimuli/out1.png,stimuli/correct_out2.png,,,,,,,,,,,,,,,,,,,,,,,,,,,,,,,,,,,,,,
,,66159ddb528ea605871b6e15,18,non-binary,2024-04-19_18h37.51.577,stockport_simplified,2022.2.4,Win32,60.24096386,661e456ee6de07e70aa9ef7b,66229da3094ac4f560514084,,,,,,,,,,,,,,,,,,,,,,,,,,,,,,,,,,788.8177,790.6505,"[6,8,7,1,4,2,3,5]","[[-0.3,0.2],[0.3,0.2]]","[[-0.125,-0.2],[0.125,-0.2]]",0.162963019,-0.17129631,1,0,0,1.3164,o2_image,790.6515,1,791.1504,791.1505,793.1507,0,0,0,0,1,,,,,,,,,,,,,,,,,,,,,,,,,,,,,,,,,,,,,,,,,,,,,,,,,,
,,66159ddb528ea605871b6e15,18,non-binary,2024-04-19_18h37.51.577,stockport_simplified,2022.2.4,Win32,60.24096386,661e456ee6de07e70aa9ef7b,66229da3094ac4f560514084,,,,,,,,,,,,,,,,,,,,,,,,,,,,,,,,,,,,,,,,,,,,,,,,,,,,,,,,1,42,102,46,1,B,Y,N,o2_image,stimuli/out2.png,stimuli/out1.png,stimuli/correct_out2.png,,,,,,,,,,,,,,,,,,,,,,,,,,,,,,,,,,,,,,
,,66159ddb528ea605871b6e15,18,non-binary,2024-04-19_18h37.51.577,stockport_simplified,2022.2.4,Win32,60.24096386,661e456ee6de07e70aa9ef7b,66229da3094ac4f560514084,,,,,,,,,,,,,,,,,,,,,,,,,,,,,,,,,,793.1512,795.0671,"[6,8,7,1,4,2,3,5]","[[0.3,0.2],[-0.3,0.2]]","[[0.125,-0.2],[-0.125,-0.2]]",0.097222222,-0.186111111,1,0,0,1.3996,o1_image,795.0678,1,795.5677,795.5677,797.5676,0,0,0,0,1,,,,,,,,,,,,,,,,,,,,,,,,,,,,,,,,,,,,,,,,,,,,,,,,,,
,,66159ddb528ea605871b6e15,18,non-binary,2024-04-19_18h37.51.577,stockport_simplified,2022.2.4,Win32,60.24096386,661e456ee6de07e70aa9ef7b,66229da3094ac4f560514084,,,,,,,,,,,,,,,,,,,,,,,,,,,,,,,,,,,,,,,,,,,,,,,,,,,,,,,,1,43,103,54,1,N,M,C,o1_image,stimuli/out1.png,stimuli/correct_out1.png,stimuli/out2.png,,,,,,,,,,,,,,,,,,,,,,,,,,,,,,,,,,,,,,
,,66159ddb528ea605871b6e15,18,non-binary,2024-04-19_18h37.51.577,stockport_simplified,2022.2.4,Win32,60.24096386,661e456ee6de07e70aa9ef7b,66229da3094ac4f560514084,,,,,,,,,,,,,,,,,,,,,,,,,,,,,,,,,,797.5681,799.0837,"[6,8,7,1,4,2,3,5]","[[-0.3,0.2],[0.3,0.2]]","[[-0.125,-0.2],[0.125,-0.2]]",-0.146296268,-0.17129631,1,0,0,0.998,o1_image,799.0846,1,799.5842,799.5842,801.5839,0,0,0,0,1,,,,,,,,,,,,,,,,,,,,,,,,,,,,,,,,,,,,,,,,,,,,,,,,,,
,,66159ddb528ea605871b6e15,18,non-binary,2024-04-19_18h37.51.577,stockport_simplified,2022.2.4,Win32,60.24096386,661e456ee6de07e70aa9ef7b,66229da3094ac4f560514084,,,,,,,,,,,,,,,,,,,,,,,,,,,,,,,,,,,,,,,,,,,,,,,,,,,,,,,,1,44,104,51,1,N,M,C,o1_image,stimuli/out1.png,stimuli/correct_out1.png,stimuli/out2.png,,,,,,,,,,,,,,,,,,,,,,,,,,,,,,,,,,,,,,
,,66159ddb528ea605871b6e15,18,non-binary,2024-04-19_18h37.51.577,stockport_simplified,2022.2.4,Win32,60.24096386,661e456ee6de07e70aa9ef7b,66229da3094ac4f560514084,,,,,,,,,,,,,,,,,,,,,,,,,,,,,,,,,,801.5844,803.1009,"[6,8,7,1,4,2,3,5]","[[-0.3,0.2],[0.3,0.2]]","[[-0.125,-0.2],[0.125,-0.2]]",0.119444444,-0.195370399,1,0,0,0.9995,o2_image,803.1019,1,803.5926,803.5927,805.5839,0,0,0,0,1,,,,,,,,,,,,,,,,,,,,,,,,,,,,,,,,,,,,,,,,,,,,,,,,,,
,,66159ddb528ea605871b6e15,18,non-binary,2024-04-19_18h37.51.577,stockport_simplified,2022.2.4,Win32,60.24096386,661e456ee6de07e70aa9ef7b,66229da3094ac4f560514084,,,,,,,,,,,,,,,,,,,,,,,,,,,,,,,,,,,,,,,,,,,,,,,,,,,,,,,,1,45,105,25,1,N,M,D,o2_image,stimuli/out2.png,stimuli/out1.png,stimuli/correct_out2.png,,,,,,,,,,,,,,,,,,,,,,,,,,,,,,,,,,,,,,
,,66159ddb528ea605871b6e15,18,non-binary,2024-04-19_18h37.51.577,stockport_simplified,2022.2.4,Win32,60.24096386,661e456ee6de07e70aa9ef7b,66229da3094ac4f560514084,,,,,,,,,,,,,,,,,,,,,,,,,,,,,,,,,,805.5844,807.1173,"[6,8,7,1,4,2,3,5]","[[0.3,0.2],[-0.3,0.2]]","[[-0.125,-0.2],[0.125,-0.2]]",-0.099074046,-0.191666667,1,0,0,1.0162,o1_image,807.1184,1,807.6173,807.6173,809.6175,0,0,0,0,1,,,,,,,,,,,,,,,,,,,,,,,,,,,,,,,,,,,,,,,,,,,,,,,,,,
,,66159ddb528ea605871b6e15,18,non-binary,2024-04-19_18h37.51.577,stockport_simplified,2022.2.4,Win32,60.24096386,661e456ee6de07e70aa9ef7b,66229da3094ac4f560514084,,,,,,,,,,,,,,,,,,,,,,,,,,,,,,,,,,,,,,,,,,,,,,,,,,,,,,,,1,46,106,24,1,N,M,C,o1_image,stimuli/out1.png,stimuli/correct_out1.png,stimuli/out2.png,,,,,,,,,,,,,,,,,,,,,,,,,,,,,,,,,,,,,,
,,66159ddb528ea605871b6e15,18,non-binary,2024-04-19_18h37.51.577,stockport_simplified,2022.2.4,Win32,60.24096386,661e456ee6de07e70aa9ef7b,66229da3094ac4f560514084,,,,,,,,,,,,,,,,,,,,,,,,,,,,,,,,,,809.6181,811.5675,"[6,8,7,1,4,2,3,5]","[[-0.3,0.2],[0.3,0.2]]","[[0.125,-0.2],[-0.125,-0.2]]",0.136111111,-0.175,1,0,0,1.4332,o1_image,811.5684,1,812.0672,812.0672,814.0673,0,0,0,0,1,,,,,,,,,,,,,,,,,,,,,,,,,,,,,,,,,,,,,,,,,,,,,,,,,,
,,66159ddb528ea605871b6e15,18,non-binary,2024-04-19_18h37.51.577,stockport_simplified,2022.2.4,Win32,60.24096386,661e456ee6de07e70aa9ef7b,66229da3094ac4f560514084,,,,,,,,,,,,,,,,,,,,,,,,,,,,,,,,,,,,,,,,,,,,,,,,,,,,,,,,1,47,107,0,1,A,X,N,o1_image,stimuli/out1.png,stimuli/correct_out1.png,stimuli/out2.png,,,,,,,,,,,,,,,,,,,,,,,,,,,,,,,,,,,,,,
,,66159ddb528ea605871b6e15,18,non-binary,2024-04-19_18h37.51.577,stockport_simplified,2022.2.4,Win32,60.24096386,661e456ee6de07e70aa9ef7b,66229da3094ac4f560514084,,,,,,,,,,,,,,,,,,,,,,,,,,,,,,,,,,814.0679,815.5008,"[6,8,7,1,4,2,3,5]","[[-0.3,0.2],[0.3,0.2]]","[[0.125,-0.2],[-0.125,-0.2]]",0.161111111,-0.169444444,1,0,0,0.9165,o1_image,815.5016,1,816.0012,816.0012,818.0007,0,0,0,0,1,,,,,,,,,,,,,,,,,,,,,,,,,,,,,,,,,,,,,,,,,,,,,,,,,,
,,66159ddb528ea605871b6e15,18,non-binary,2024-04-19_18h37.51.577,stockport_simplified,2022.2.4,Win32,60.24096386,661e456ee6de07e70aa9ef7b,66229da3094ac4f560514084,,,,,,,,,,,,,,,,,,,,,,,,,,,,,,,,,,,,,,,,,,,,,,,,,,,,,,,,1,48,108,50,1,N,M,C,o1_image,stimuli/out1.png,stimuli/correct_out1.png,stimuli/out2.png,,,,,,,,,,,,,,,,,,,,,,,,,,,,,,,,,,,,,,
,,66159ddb528ea605871b6e15,18,non-binary,2024-04-19_18h37.51.577,stockport_simplified,2022.2.4,Win32,60.24096386,661e456ee6de07e70aa9ef7b,66229da3094ac4f560514084,,,,,,,,,,,,,,,,,,,,,,,,,,,,,,,,,,818.0012,820.2096,"[6,8,7,1,4,2,3,5]","[[0.3,0.2],[-0.3,0.2]]","[[-0.125,-0.2],[0.125,-0.2]]",0.109259288,-0.176851866,1,0,0,1.6917,o2_image,820.2106,1,820.7008,820.7008,822.7005,0,0,0,0,1,,,,,,,,,,,,,,,,,,,,,,,,,,,,,,,,,,,,,,,,,,,,,,,,,,
,,66159ddb528ea605871b6e15,18,non-binary,2024-04-19_18h37.51.577,stockport_simplified,2022.2.4,Win32,60.24096386,661e456ee6de07e70aa9ef7b,66229da3094ac4f560514084,,,,,,,,,,,,,,,,,,,,,,,,,,,,,,,,,,,,,,,,,,,,,,,,,,,,,,,,1,49,109,11,1,B,X,N,o2_image,stimuli/out2.png,stimuli/out1.png,stimuli/correct_out2.png,,,,,,,,,,,,,,,,,,,,,,,,,,,,,,,,,,,,,,
,,66159ddb528ea605871b6e15,18,non-binary,2024-04-19_18h37.51.577,stockport_simplified,2022.2.4,Win32,60.24096386,661e456ee6de07e70aa9ef7b,66229da3094ac4f560514084,,,,,,,,,,,,,,,,,,,,,,,,,,,,,,,,,,822.7009,824.2341,"[6,8,7,1,4,2,3,5]","[[0.3,0.2],[-0.3,0.2]]","[[0.125,-0.2],[-0.125,-0.2]]",0.103703732,-0.205555556,1,0,0,1.0164,o1_image,824.2349,1,824.734,824.734,826.7341,0,0,0,0,1,,,,,,,,,,,,,,,,,,,,,,,,,,,,,,,,,,,,,,,,,,,,,,,,,,
,,66159ddb528ea605871b6e15,18,non-binary,2024-04-19_18h37.51.577,stockport_simplified,2022.2.4,Win32,60.24096386,661e456ee6de07e70aa9ef7b,66229da3094ac4f560514084,,,,,,,,,,,,,,,,,,,,,,,,,,,,,,,,,,,,,,,,,,,,,,,,,,,,,,,,1,50,110,31,1,A,X,N,o1_image,stimuli/out1.png,stimuli/correct_out1.png,stimuli/out2.png,,,,,,,,,,,,,,,,,,,,,,,,,,,,,,,,,,,,,,
,,66159ddb528ea605871b6e15,18,non-binary,2024-04-19_18h37.51.577,stockport_simplified,2022.2.4,Win32,60.24096386,661e456ee6de07e70aa9ef7b,66229da3094ac4f560514084,,,,,,,,,,,,,,,,,,,,,,,,,,,,,,,,,,826.7346,828.9842,"[6,8,7,1,4,2,3,5]","[[0.3,0.2],[-0.3,0.2]]","[[-0.125,-0.2],[0.125,-0.2]]",-0.104629601,-0.178703732,1,0,0,1.733,o1_image,828.9858,1,829.484,829.484,831.4842,0,0,0,0,1,,,,,,,,,,,,,,,,,,,,,,,,,,,,,,,,,,,,,,,,,,,,,,,,,,
,,66159ddb528ea605871b6e15,18,non-binary,2024-04-19_18h37.51.577,stockport_simplified,2022.2.4,Win32,60.24096386,661e456ee6de07e70aa9ef7b,66229da3094ac4f560514084,,,,,,,,,,,,,,,,,,,,,,,,,,,,,,,,,,,,,,,,,,,,,,,,,,,,,,,,1,51,111,36,1,A,Y,N,o1_image,stimuli/out1.png,stimuli/correct_out1.png,stimuli/out2.png,,,,,,,,,,,,,,,,,,,,,,,,,,,,,,,,,,,,,,
,,66159ddb528ea605871b6e15,18,non-binary,2024-04-19_18h37.51.577,stockport_simplified,2022.2.4,Win32,60.24096386,661e456ee6de07e70aa9ef7b,66229da3094ac4f560514084,,,,,,,,,,,,,,,,,,,,,,,,,,,,,,,,,,831.4848,832.9177,"[6,8,7,1,4,2,3,5]","[[0.3,0.2],[-0.3,0.2]]","[[-0.125,-0.2],[0.125,-0.2]]",-0.132407379,-0.158333333,1,0,0,0.9161,o1_image,832.9186,1,833.418,833.418,835.4178,0,0,0,0,1,,,,,,,,,,,,,,,,,,,,,,,,,,,,,,,,,,,,,,,,,,,,,,,,,,
,,66159ddb528ea605871b6e15,18,non-binary,2024-04-19_18h37.51.577,stockport_simplified,2022.2.4,Win32,60.24096386,661e456ee6de07e70aa9ef7b,66229da3094ac4f560514084,,,,,,,,,,,,,,,,,,,,,,,,,,,,,,,,,,,,,,,,,,,,,,,,,,,,,,,,1,52,112,52,1,N,M,C,o1_image,stimuli/out1.png,stimuli/correct_out1.png,stimuli/out2.png,,,,,,,,,,,,,,,,,,,,,,,,,,,,,,,,,,,,,,
,,66159ddb528ea605871b6e15,18,non-binary,2024-04-19_18h37.51.577,stockport_simplified,2022.2.4,Win32,60.24096386,661e456ee6de07e70aa9ef7b,66229da3094ac4f560514084,,,,,,,,,,,,,,,,,,,,,,,,,,,,,,,,,,835.4184,837.2842,"[6,8,7,1,4,2,3,5]","[[0.3,0.2],[-0.3,0.2]]","[[-0.125,-0.2],[0.125,-0.2]]",0.125,-0.191666667,1,0,0,1.3497,o2_image,837.2851,1,837.7843,837.7843,839.7842,0,0,0,0,1,,,,,,,,,,,,,,,,,,,,,,,,,,,,,,,,,,,,,,,,,,,,,,,,,,
,,66159ddb528ea605871b6e15,18,non-binary,2024-04-19_18h37.51.577,stockport_simplified,2022.2.4,Win32,60.24096386,661e456ee6de07e70aa9ef7b,66229da3094ac4f560514084,,,,,,,,,,,,,,,,,,,,,,,,,,,,,,,,,,,,,,,,,,,,,,,,,,,,,,,,1,53,113,47,1,B,Y,N,o2_image,stimuli/out2.png,stimuli/out1.png,stimuli/correct_out2.png,,,,,,,,,,,,,,,,,,,,,,,,,,,,,,,,,,,,,,
,,66159ddb528ea605871b6e15,18,non-binary,2024-04-19_18h37.51.577,stockport_simplified,2022.2.4,Win32,60.24096386,661e456ee6de07e70aa9ef7b,66229da3094ac4f560514084,,,,,,,,,,,,,,,,,,,,,,,,,,,,,,,,,,839.7847,842.1698,"[6,8,7,1,4,2,3,5]","[[-0.3,0.2],[0.3,0.2]]","[[-0.125,-0.2],[0.125,-0.2]]",0.044444444,-0.155555556,1,0,0,1.2996,o2_image,842.1854,1,842.6843,842.6844,844.6842,0,0,0,0,1,,,,,,,,,,,,,,,,,,,,,,,,,,,,,,,,,,,,,,,,,,,,,,,,,,
,,66159ddb528ea605871b6e15,18,non-binary,2024-04-19_18h37.51.577,stockport_simplified,2022.2.4,Win32,60.24096386,661e456ee6de07e70aa9ef7b,66229da3094ac4f560514084,,,,,,,,,,,,,,,,,,,,,,,,,,,,,,,,,,,,,,,,,,,,,,,,,,,,,,,,1,54,114,48,1,B,Y,N,o2_image,stimuli/out2.png,stimuli/out1.png,stimuli/correct_out2.png,,,,,,,,,,,,,,,,,,,,,,,,,,,,,,,,,,,,,,
,,66159ddb528ea605871b6e15,18,non-binary,2024-04-19_18h37.51.577,stockport_simplified,2022.2.4,Win32,60.24096386,661e456ee6de07e70aa9ef7b,66229da3094ac4f560514084,,,,,,,,,,,,,,,,,,,,,,,,,,,,,,,,,,844.6847,846.3344,"[6,8,7,1,4,2,3,5]","[[-0.3,0.2],[0.3,0.2]]","[[-0.125,-0.2],[0.125,-0.2]]",-0.111111111,-0.150925954,1,0,0,1.133,o1_image,846.3355,1,846.8343,846.8343,848.8342,0,0,0,0,1,,,,,,,,,,,,,,,,,,,,,,,,,,,,,,,,,,,,,,,,,,,,,,,,,,
,,66159ddb528ea605871b6e15,18,non-binary,2024-04-19_18h37.51.577,stockport_simplified,2022.2.4,Win32,60.24096386,661e456ee6de07e70aa9ef7b,66229da3094ac4f560514084,,,,,,,,,,,,,,,,,,,,,,,,,,,,,,,,,,,,,,,,,,,,,,,,,,,,,,,,1,55,115,5,1,A,Y,N,o1_image,stimuli/out1.png,stimuli/correct_out1.png,stimuli/out2.png,,,,,,,,,,,,,,,,,,,,,,,,,,,,,,,,,,,,,,
,,66159ddb528ea605871b6e15,18,non-binary,2024-04-19_18h37.51.577,stockport_simplified,2022.2.4,Win32,60.24096386,661e456ee6de07e70aa9ef7b,66229da3094ac4f560514084,,,,,,,,,,,,,,,,,,,,,,,,,,,,,,,,,,848.8347,850.9343,"[6,8,7,1,4,2,3,5]","[[0.3,0.2],[-0.3,0.2]]","[[-0.125,-0.2],[0.125,-0.2]]",0.114814843,-0.188888889,1,0,0,1.583,o2_image,850.9351,1,851.4341,851.4341,853.4343,0,0,0,0,1,,,,,,,,,,,,,,,,,,,,,,,,,,,,,,,,,,,,,,,,,,,,,,,,,,
,,66159ddb528ea605871b6e15,18,non-binary,2024-04-19_18h37.51.577,stockport_simplified,2022.2.4,Win32,60.24096386,661e456ee6de07e70aa9ef7b,66229da3094ac4f560514084,,,,,,,,,,,,,,,,,,,,,,,,,,,,,,,,,,,,,,,,,,,,,,,,,,,,,,,,1,56,116,58,1,N,M,D,o2_image,stimuli/out2.png,stimuli/out1.png,stimuli/correct_out2.png,,,,,,,,,,,,,,,,,,,,,,,,,,,,,,,,,,,,,,
,,66159ddb528ea605871b6e15,18,non-binary,2024-04-19_18h37.51.577,stockport_simplified,2022.2.4,Win32,60.24096386,661e456ee6de07e70aa9ef7b,66229da3094ac4f560514084,,,,,,,,,,,,,,,,,,,,,,,,,,,,,,,,,,853.4348,855.2009,"[6,8,7,1,4,2,3,5]","[[-0.3,0.2],[0.3,0.2]]","[[-0.125,-0.2],[0.125,-0.2]]",0.129629686,-0.170370399,1,0,0,1.2495,o2_image,855.2018,1,855.7009,855.7009,857.7008,0,0,0,0,1,,,,,,,,,,,,,,,,,,,,,,,,,,,,,,,,,,,,,,,,,,,,,,,,,,
,,66159ddb528ea605871b6e15,18,non-binary,2024-04-19_18h37.51.577,stockport_simplified,2022.2.4,Win32,60.24096386,661e456ee6de07e70aa9ef7b,66229da3094ac4f560514084,,,,,,,,,,,,,,,,,,,,,,,,,,,,,,,,,,,,,,,,,,,,,,,,,,,,,,,,1,57,117,42,1,B,X,N,o2_image,stimuli/out2.png,stimuli/out1.png,stimuli/correct_out2.png,,,,,,,,,,,,,,,,,,,,,,,,,,,,,,,,,,,,,,
,,66159ddb528ea605871b6e15,18,non-binary,2024-04-19_18h37.51.577,stockport_simplified,2022.2.4,Win32,60.24096386,661e456ee6de07e70aa9ef7b,66229da3094ac4f560514084,,,,,,,,,,,,,,,,,,,,,,,,,,,,,,,,,,857.7013,859.2177,"[6,8,7,1,4,2,3,5]","[[-0.3,0.2],[0.3,0.2]]","[[-0.125,-0.2],[0.125,-0.2]]",-0.111111111,-0.180555556,1,0,0,1.0087,o1_image,859.2185,1,859.7176,859.7176,861.7177,0,0,0,0,1,,,,,,,,,,,,,,,,,,,,,,,,,,,,,,,,,,,,,,,,,,,,,,,,,,
,,66159ddb528ea605871b6e15,18,non-binary,2024-04-19_18h37.51.577,stockport_simplified,2022.2.4,Win32,60.24096386,661e456ee6de07e70aa9ef7b,66229da3094ac4f560514084,,,,,,,,,,,,,,,,,,,,,,,,,,,,,,,,,,,,,,,,,,,,,,,,,,,,,,,,1,58,118,20,1,N,M,C,o1_image,stimuli/out1.png,stimuli/correct_out1.png,stimuli/out2.png,,,,,,,,,,,,,,,,,,,,,,,,,,,,,,,,,,,,,,
,,66159ddb528ea605871b6e15,18,non-binary,2024-04-19_18h37.51.577,stockport_simplified,2022.2.4,Win32,60.24096386,661e456ee6de07e70aa9ef7b,66229da3094ac4f560514084,,,,,,,,,,,,,,,,,,,,,,,,,,,,,,,,,,861.7182,863.6843,"[6,8,7,1,4,2,3,5]","[[0.3,0.2],[-0.3,0.2]]","[[0.125,-0.2],[-0.125,-0.2]]",-0.11851849,-0.184259288,1,0,0,1.4493,o2_image,863.6853,1,864.1846,864.1846,866.1844,0,0,0,0,1,,,,,,,,,,,,,,,,,,,,,,,,,,,,,,,,,,,,,,,,,,,,,,,,,,
,,66159ddb528ea605871b6e15,18,non-binary,2024-04-19_18h37.51.577,stockport_simplified,2022.2.4,Win32,60.24096386,661e456ee6de07e70aa9ef7b,66229da3094ac4f560514084,,,,,,,,,,,,,,,,,,,,,,,,,,,,,,,,,,,,,,,,,,,,,,,,,,,,,,,,1,59,119,15,1,B,Y,N,o2_image,stimuli/out2.png,stimuli/out1.png,stimuli/correct_out2.png,,,,,,,,,,,,,,,,,,,,,,,,,,,,,,,,,,,,,,
,,66159ddb528ea605871b6e15,18,non-binary,2024-04-19_18h37.51.577,stockport_simplified,2022.2.4,Win32,60.24096386,661e456ee6de07e70aa9ef7b,66229da3094ac4f560514084,,,,,,,,,,,,,,,,,,,,,,,,,,,,,,,,,,866.2111,868.6844,"[6,8,7,1,4,2,3,5]","[[-0.3,0.2],[0.3,0.2]]","[[-0.125,-0.2],[0.125,-0.2]]",0.13148151,-0.188888889,1,0,0,1.9663,o2_image,868.6857,0,869.1844,869.1844,871.1844,,,,,,,,,,,,,,,,,,0,0,0,0,1,,,,,,,,,,,,,,,,,,,,,,,,,,,,,,,,,
,,66159ddb528ea605871b6e15,18,non-binary,2024-04-19_18h37.51.577,stockport_simplified,2022.2.4,Win32,60.24096386,661e456ee6de07e70aa9ef7b,66229da3094ac4f560514084,,,,,,,,,,,,,,,,,,,,,,,,,,,,,,,,,,,,,,,,,,,,,,,,,,,,,,,,,,,,,B,X,N,o1_image,stimuli/out1.png,stimuli/correct_out1.png,stimuli/out2.png,,,,,,0,0,0,26,1,,,,,,,,,,,,,,,,,,,,,,,,,,,,
,,66159ddb528ea605871b6e15,18,non-binary,2024-04-19_18h37.51.577,stockport_simplified,2022.2.4,Win32,60.24096386,661e456ee6de07e70aa9ef7b,66229da3094ac4f560514084,,,,,,,,,,,,,,,,,,,,,,,,,,,,,,,,,,871.1852,874.0847,"[6,8,7,1,4,2,3,5]","[[0.3,0.2],[-0.3,0.2]]","[[0.125,-0.2],[-0.125,-0.2]]",0.127777778,-0.210185199,1,0,0,2.3834,o1_image,874.1011,1,874.601,874.6012,876.6012,,,,,,,,,,,,,,,,,,0,0,0,0,1,,,,,,,,,,,,,,,,,,,,,,,,,,,,,,,,,
,,66159ddb528ea605871b6e15,18,non-binary,2024-04-19_18h37.51.577,stockport_simplified,2022.2.4,Win32,60.24096386,661e456ee6de07e70aa9ef7b,66229da3094ac4f560514084,,,,,,,,,,,,,,,,,,,,,,,,,,,,,,,,,,,,,,,,,,,,,,,,,,,,,,,,,,,,,B,X,N,o1_image,stimuli/out1.png,stimuli/correct_out1.png,stimuli/out2.png,,,,,,0,1,1,25,1,,,,,,,,,,,,,,,,,,,,,,,,,,,,
,,66159ddb528ea605871b6e15,18,non-binary,2024-04-19_18h37.51.577,stockport_simplified,2022.2.4,Win32,60.24096386,661e456ee6de07e70aa9ef7b,66229da3094ac4f560514084,,,,,,,,,,,,,,,,,,,,,,,,,,,,,,,,,,876.6017,878.3514,"[6,8,7,1,4,2,3,5]","[[0.3,0.2],[-0.3,0.2]]","[[0.125,-0.2],[-0.125,-0.2]]",0.128703732,-0.207407422,1,0,0,1.2416,o1_image,878.3525,1,878.851,878.8511,880.851,,,,,,,,,,,,,,,,,,0,0,0,0,1,,,,,,,,,,,,,,,,,,,,,,,,,,,,,,,,,
,,66159ddb528ea605871b6e15,18,non-binary,2024-04-19_18h37.51.577,stockport_simplified,2022.2.4,Win32,60.24096386,661e456ee6de07e70aa9ef7b,66229da3094ac4f560514084,,,,,,,,,,,,,,,,,,,,,,,,,,,,,,,,,,,,,,,,,,,,,,,,,,,,,,,,,,,,,N,M,C,o1_image,stimuli/out1.png,stimuli/correct_out1.png,stimuli/out2.png,,,,,,0,2,2,42,1,,,,,,,,,,,,,,,,,,,,,,,,,,,,
