counterbalance_2.started,counterbalance_2.stopped,participant,age,gender,date,expName,psychopyVersion,OS,frameRate,STUDY_ID,SESSION_ID,information_2.started,information_2.stopped,information_loop.thisRepN,information_loop.thisTrialN,information_loop.thisN,information_loop.thisIndex,information_loop.ran,information,consent_2.started,consent_2.stopped,slider_1.response,slider_2.response,slider_3.response,slider_4.response,slider_5.response,slider_6.response,instructions.started,instructions.stopped,task1_instr.thisRepN,task1_instr.thisTrialN,task1_instr.thisN,task1_instr.thisIndex,task1_instr.ran,task1,comprehension1_2.started,comprehension1_2.stopped,comp1_mouse.x,comp1_mouse.y,comp1_mouse.leftButton,comp1_mouse.midButton,comp1_mouse.rightButton,comp1_mouse.time,comp1_mouse.clicked_name,cue_o__trial_2.started,cue_o__trial_2.stopped,order,cue_order,out_order,cue_o_mouse.x,cue_o_mouse.y,cue_o_mouse.leftButton,cue_o_mouse.midButton,cue_o_mouse.rightButton,cue_o_mouse.time,cue_o_mouse.clicked_name,cue_selection_2.started,correct_answer,cue_selection_2.stopped,feedback_2.started,feedback_2.stopped,feedback_loop.thisRepN,feedback_loop.thisTrialN,feedback_loop.thisN,feedback_loop.thisIndex,feedback_loop.ran,stage1_trials.thisRepN,stage1_trials.thisTrialN,stage1_trials.thisN,stage1_trials.thisIndex,stage1_trials.ran,cue1,cue2,cue3,outcome,correct_out,o1_feedback,o2_feedback,stage2_feedback_loop.thisRepN,stage2_feedback_loop.thisTrialN,stage2_feedback_loop.thisN,stage2_feedback_loop.thisIndex,stage2_feedback_loop.ran,stage2_trials.thisRepN,stage2_trials.thisTrialN,stage2_trials.thisN,stage2_trials.thisIndex,stage2_trials.ran,stage3_feedback_loop.thisRepN,stage3_feedback_loop.thisTrialN,stage3_feedback_loop.thisN,stage3_feedback_loop.thisIndex,stage3_feedback_loop.ran,stage3_trials.thisRepN,stage3_trials.thisTrialN,stage3_trials.thisN,stage3_trials.thisIndex,stage3_trials.ran,debrief_2.started,debrief_2.stopped,debrief_loop.thisRepN,debrief_loop.thisTrialN,debrief_loop.thisN,debrief_loop.thisIndex,debrief_loop.ran,debrief_img,compr1_completed.thisRepN,compr1_completed.thisTrialN,compr1_completed.thisN,compr1_completed.thisIndex,compr1_completed.ran,consent_loop.thisRepN,consent_loop.thisTrialN,consent_loop.thisN,consent_loop.thisIndex,consent_loop.ran
0.0005,0.001,612110456899ed64c754d95d,23,female,2024-04-19_18h37.22.395,stockport_simplified,2022.2.4,Win32,59.88023952,661e456ee6de07e70aa9ef7b,66229da43a378f03f883f03b,,,,,,,,,,,,,,,,,,,,,,,,,,,,,,,,,,,,,,,,,,,,,,,,,,,,,,,,,,,,,,,,,,,,,,,,,,,,,,,,,,,,,,,,,,,,,,,,,,,,,,,,,
,,612110456899ed64c754d95d,23,female,2024-04-19_18h37.22.395,stockport_simplified,2022.2.4,Win32,59.88023952,661e456ee6de07e70aa9ef7b,66229da43a378f03f883f03b,0.0335,3.9196,0,0,0,0,1,instructions/info1.png,,,,,,,,,,,,,,,,,,,,,,,,,,,,,,,,,,,,,,,,,,,,,,,,,,,,,,,,,,,,,,,,,,,,,,,,,,,,,,,,,,,,,,,,,,,,,,,,,
,,612110456899ed64c754d95d,23,female,2024-04-19_18h37.22.395,stockport_simplified,2022.2.4,Win32,59.88023952,661e456ee6de07e70aa9ef7b,66229da43a378f03f883f03b,3.9207,5.5291,0,1,1,1,1,instructions/info2.png,,,,,,,,,,,,,,,,,,,,,,,,,,,,,,,,,,,,,,,,,,,,,,,,,,,,,,,,,,,,,,,,,,,,,,,,,,,,,,,,,,,,,,,,,,,,,,,,,
,,612110456899ed64c754d95d,23,female,2024-04-19_18h37.22.395,stockport_simplified,2022.2.4,Win32,59.88023952,661e456ee6de07e70aa9ef7b,66229da43a378f03f883f03b,5.5297,7.4489,0,2,2,2,1,instructions/info3.png,,,,,,,,,,,,,,,,,,,,,,,,,,,,,,,,,,,,,,,,,,,,,,,,,,,,,,,,,,,,,,,,,,,,,,,,,,,,,,,,,,,,,,,,,,,,,,,,,
,,612110456899ed64c754d95d,23,female,2024-04-19_18h37.22.395,stockport_simplified,2022.2.4,Win32,59.88023952,661e456ee6de07e70aa9ef7b,66229da43a378f03f883f03b,,,,,,,,,7.4497,36.4433,1,1,1,1,1,1,,,,,,,,,,,,,,,,,,,,,,,,,,,,,,,,,,,,,,,,,,,,,,,,,,,,,,,,,,,,,,,,,,,,,,,,,,,,,,,,,,,,,,,,,
,,612110456899ed64c754d95d,23,female,2024-04-19_18h37.22.395,stockport_simplified,2022.2.4,Win32,59.88023952,661e456ee6de07e70aa9ef7b,66229da43a378f03f883f03b,,,,,,,,,,,,,,,,,36.4589,69.4924,0,0,0,0,1,instructions/task1_1.png,,,,,,,,,,,,,,,,,,,,,,,,,,,,,,,,,,,,,,,,,,,,,,,,,,,,,,,,,,,,,,,,,,,,,,,,,,,,,,,,,
,,612110456899ed64c754d95d,23,female,2024-04-19_18h37.22.395,stockport_simplified,2022.2.4,Win32,59.88023952,661e456ee6de07e70aa9ef7b,66229da43a378f03f883f03b,,,,,,,,,,,,,,,,,69.5076,111.9804,0,1,1,1,1,instructions/task1_2.png,,,,,,,,,,,,,,,,,,,,,,,,,,,,,,,,,,,,,,,,,,,,,,,,,,,,,,,,,,,,,,,,,,,,,,,,,,,,,,,,,
,,612110456899ed64c754d95d,23,female,2024-04-19_18h37.22.395,stockport_simplified,2022.2.4,Win32,59.88023952,661e456ee6de07e70aa9ef7b,66229da43a378f03f883f03b,,,,,,,,,,,,,,,,,111.9966,124.7339,0,2,2,2,1,instructions/task1_3.png,,,,,,,,,,,,,,,,,,,,,,,,,,,,,,,,,,,,,,,,,,,,,,,,,,,,,,,,,,,,,,,,,,,,,,,,,,,,,,,,,
,,612110456899ed64c754d95d,23,female,2024-04-19_18h37.22.395,stockport_simplified,2022.2.4,Win32,59.88023952,661e456ee6de07e70aa9ef7b,66229da43a378f03f883f03b,,,,,,,,,,,,,,,,,,,,,,,,,124.7609,148.2036,-0.009114583,-0.3125,1,0,0,23.4412,comp1_resp1,148.2468,150.9352,"[7,4,5,8,3,6,1,2]","[[-0.3,0.2],[0.3,0.2]]","[[-0.125,-0.2],[0.125,-0.2]]",-0.130208333,-0.1875,1,0,0,2.1813,o1_image,150.9373,0,151.4348,151.435,153.4268,0,0,0,0,1,,,,,,,,,,,,,,,,,,,,,,,,,,,,,,,,,,,,,,,,,,,,,,,,,,
,,612110456899ed64c754d95d,23,female,2024-04-19_18h37.22.395,stockport_simplified,2022.2.4,Win32,59.88023952,661e456ee6de07e70aa9ef7b,66229da43a378f03f883f03b,,,,,,,,,,,,,,,,,,,,,,,,,,,,,,,,,,,,,,,,,,,,,,,,,,,,,,,,0,0,0,16,1,B,Y,N,o2_image,stimuli/out2.png,stimuli/out1.png,stimuli/correct_out2.png,,,,,,,,,,,,,,,,,,,,,,,,,,,,,,,,,,,,,,
,,612110456899ed64c754d95d,23,female,2024-04-19_18h37.22.395,stockport_simplified,2022.2.4,Win32,59.88023952,661e456ee6de07e70aa9ef7b,66229da43a378f03f883f03b,,,,,,,,,,,,,,,,,,,,,,,,,,,,,,,,,,153.4283,154.9842,"[7,4,5,8,3,6,1,2]","[[-0.3,0.2],[0.3,0.2]]","[[-0.125,-0.2],[0.125,-0.2]]",0.174479167,-0.1875,1,0,0,1.051,o2_image,154.9855,0,155.4746,155.4748,157.4644,0,0,0,0,1,,,,,,,,,,,,,,,,,,,,,,,,,,,,,,,,,,,,,,,,,,,,,,,,,,
,,612110456899ed64c754d95d,23,female,2024-04-19_18h37.22.395,stockport_simplified,2022.2.4,Win32,59.88023952,661e456ee6de07e70aa9ef7b,66229da43a378f03f883f03b,,,,,,,,,,,,,,,,,,,,,,,,,,,,,,,,,,,,,,,,,,,,,,,,,,,,,,,,0,1,1,4,1,A,X,N,o1_image,stimuli/out1.png,stimuli/correct_out1.png,stimuli/out2.png,,,,,,,,,,,,,,,,,,,,,,,,,,,,,,,,,,,,,,
,,612110456899ed64c754d95d,23,female,2024-04-19_18h37.22.395,stockport_simplified,2022.2.4,Win32,59.88023952,661e456ee6de07e70aa9ef7b,66229da43a378f03f883f03b,,,,,,,,,,,,,,,,,,,,,,,,,,,,,,,,,,157.4675,158.9394,"[7,4,5,8,3,6,1,2]","[[-0.3,0.2],[0.3,0.2]]","[[0.125,-0.2],[-0.125,-0.2]]",-0.080729167,-0.209635417,1,0,0,0.9548,o2_image,158.9409,1,159.436,159.436,161.4374,0,0,0,0,1,,,,,,,,,,,,,,,,,,,,,,,,,,,,,,,,,,,,,,,,,,,,,,,,,,
,,612110456899ed64c754d95d,23,female,2024-04-19_18h37.22.395,stockport_simplified,2022.2.4,Win32,59.88023952,661e456ee6de07e70aa9ef7b,66229da43a378f03f883f03b,,,,,,,,,,,,,,,,,,,,,,,,,,,,,,,,,,,,,,,,,,,,,,,,,,,,,,,,0,2,2,43,1,B,X,N,o2_image,stimuli/out2.png,stimuli/out1.png,stimuli/correct_out2.png,,,,,,,,,,,,,,,,,,,,,,,,,,,,,,,,,,,,,,
,,612110456899ed64c754d95d,23,female,2024-04-19_18h37.22.395,stockport_simplified,2022.2.4,Win32,59.88023952,661e456ee6de07e70aa9ef7b,66229da43a378f03f883f03b,,,,,,,,,,,,,,,,,,,,,,,,,,,,,,,,,,161.438,163.9353,"[7,4,5,8,3,6,1,2]","[[-0.3,0.2],[0.3,0.2]]","[[-0.125,-0.2],[0.125,-0.2]]",0.139322917,-0.208333333,1,0,0,1.9884,o2_image,163.9371,0,164.4345,164.4346,166.4341,0,0,0,0,1,,,,,,,,,,,,,,,,,,,,,,,,,,,,,,,,,,,,,,,,,,,,,,,,,,
,,612110456899ed64c754d95d,23,female,2024-04-19_18h37.22.395,stockport_simplified,2022.2.4,Win32,59.88023952,661e456ee6de07e70aa9ef7b,66229da43a378f03f883f03b,,,,,,,,,,,,,,,,,,,,,,,,,,,,,,,,,,,,,,,,,,,,,,,,,,,,,,,,0,3,3,54,1,N,M,C,o1_image,stimuli/out1.png,stimuli/correct_out1.png,stimuli/out2.png,,,,,,,,,,,,,,,,,,,,,,,,,,,,,,,,,,,,,,
,,612110456899ed64c754d95d,23,female,2024-04-19_18h37.22.395,stockport_simplified,2022.2.4,Win32,59.88023952,661e456ee6de07e70aa9ef7b,66229da43a378f03f883f03b,,,,,,,,,,,,,,,,,,,,,,,,,,,,,,,,,,166.4355,167.9623,"[7,4,5,8,3,6,1,2]","[[-0.3,0.2],[0.3,0.2]]","[[0.125,-0.2],[-0.125,-0.2]]",-0.07421875,-0.227864583,1,0,0,1.0182,o2_image,167.964,0,168.4645,168.4646,170.4642,0,0,0,0,1,,,,,,,,,,,,,,,,,,,,,,,,,,,,,,,,,,,,,,,,,,,,,,,,,,
,,612110456899ed64c754d95d,23,female,2024-04-19_18h37.22.395,stockport_simplified,2022.2.4,Win32,59.88023952,661e456ee6de07e70aa9ef7b,66229da43a378f03f883f03b,,,,,,,,,,,,,,,,,,,,,,,,,,,,,,,,,,,,,,,,,,,,,,,,,,,,,,,,0,4,4,38,1,A,Y,N,o1_image,stimuli/out1.png,stimuli/correct_out1.png,stimuli/out2.png,,,,,,,,,,,,,,,,,,,,,,,,,,,,,,,,,,,,,,
,,612110456899ed64c754d95d,23,female,2024-04-19_18h37.22.395,stockport_simplified,2022.2.4,Win32,59.88023952,661e456ee6de07e70aa9ef7b,66229da43a378f03f883f03b,,,,,,,,,,,,,,,,,,,,,,,,,,,,,,,,,,170.4671,171.9523,"[7,4,5,8,3,6,1,2]","[[0.3,0.2],[-0.3,0.2]]","[[0.125,-0.2],[-0.125,-0.2]]",-0.162760417,-0.244791667,1,0,0,0.9717,o2_image,171.9538,0,172.45,172.4501,174.4453,0,0,0,0,1,,,,,,,,,,,,,,,,,,,,,,,,,,,,,,,,,,,,,,,,,,,,,,,,,,
,,612110456899ed64c754d95d,23,female,2024-04-19_18h37.22.395,stockport_simplified,2022.2.4,Win32,59.88023952,661e456ee6de07e70aa9ef7b,66229da43a378f03f883f03b,,,,,,,,,,,,,,,,,,,,,,,,,,,,,,,,,,,,,,,,,,,,,,,,,,,,,,,,0,5,5,53,1,N,M,C,o1_image,stimuli/out1.png,stimuli/correct_out1.png,stimuli/out2.png,,,,,,,,,,,,,,,,,,,,,,,,,,,,,,,,,,,,,,
,,612110456899ed64c754d95d,23,female,2024-04-19_18h37.22.395,stockport_simplified,2022.2.4,Win32,59.88023952,661e456ee6de07e70aa9ef7b,66229da43a378f03f883f03b,,,,,,,,,,,,,,,,,,,,,,,,,,,,,,,,,,174.4465,175.9809,"[7,4,5,8,3,6,1,2]","[[0.3,0.2],[-0.3,0.2]]","[[-0.125,-0.2],[0.125,-0.2]]",-0.1171875,-0.17578125,1,0,0,1.0174,o1_image,175.9843,0,176.4837,176.4838,178.4784,0,0,0,0,1,,,,,,,,,,,,,,,,,,,,,,,,,,,,,,,,,,,,,,,,,,,,,,,,,,
,,612110456899ed64c754d95d,23,female,2024-04-19_18h37.22.395,stockport_simplified,2022.2.4,Win32,59.88023952,661e456ee6de07e70aa9ef7b,66229da43a378f03f883f03b,,,,,,,,,,,,,,,,,,,,,,,,,,,,,,,,,,,,,,,,,,,,,,,,,,,,,,,,0,6,6,45,1,B,Y,N,o2_image,stimuli/out2.png,stimuli/out1.png,stimuli/correct_out2.png,,,,,,,,,,,,,,,,,,,,,,,,,,,,,,,,,,,,,,
,,612110456899ed64c754d95d,23,female,2024-04-19_18h37.22.395,stockport_simplified,2022.2.4,Win32,59.88023952,661e456ee6de07e70aa9ef7b,66229da43a378f03f883f03b,,,,,,,,,,,,,,,,,,,,,,,,,,,,,,,,,,178.4797,180.1845,"[7,4,5,8,3,6,1,2]","[[0.3,0.2],[-0.3,0.2]]","[[0.125,-0.2],[-0.125,-0.2]]",-0.200520833,-0.1953125,1,0,0,1.1887,o2_image,180.1862,1,180.6782,180.6784,182.6669,0,0,0,0,1,,,,,,,,,,,,,,,,,,,,,,,,,,,,,,,,,,,,,,,,,,,,,,,,,,
,,612110456899ed64c754d95d,23,female,2024-04-19_18h37.22.395,stockport_simplified,2022.2.4,Win32,59.88023952,661e456ee6de07e70aa9ef7b,66229da43a378f03f883f03b,,,,,,,,,,,,,,,,,,,,,,,,,,,,,,,,,,,,,,,,,,,,,,,,,,,,,,,,0,7,7,56,1,N,M,D,o2_image,stimuli/out2.png,stimuli/out1.png,stimuli/correct_out2.png,,,,,,,,,,,,,,,,,,,,,,,,,,,,,,,,,,,,,,
,,612110456899ed64c754d95d,23,female,2024-04-19_18h37.22.395,stockport_simplified,2022.2.4,Win32,59.88023952,661e456ee6de07e70aa9ef7b,66229da43a378f03f883f03b,,,,,,,,,,,,,,,,,,,,,,,,,,,,,,,,,,182.6683,184.8046,"[7,4,5,8,3,6,1,2]","[[0.3,0.2],[-0.3,0.2]]","[[-0.125,-0.2],[0.125,-0.2]]",0.078125,-0.23046875,1,0,0,1.6242,o2_image,184.8062,0,185.2966,185.2966,187.2991,0,0,0,0,1,,,,,,,,,,,,,,,,,,,,,,,,,,,,,,,,,,,,,,,,,,,,,,,,,,
,,612110456899ed64c754d95d,23,female,2024-04-19_18h37.22.395,stockport_simplified,2022.2.4,Win32,59.88023952,661e456ee6de07e70aa9ef7b,66229da43a378f03f883f03b,,,,,,,,,,,,,,,,,,,,,,,,,,,,,,,,,,,,,,,,,,,,,,,,,,,,,,,,0,8,8,36,1,A,Y,N,o1_image,stimuli/out1.png,stimuli/correct_out1.png,stimuli/out2.png,,,,,,,,,,,,,,,,,,,,,,,,,,,,,,,,,,,,,,
,,612110456899ed64c754d95d,23,female,2024-04-19_18h37.22.395,stockport_simplified,2022.2.4,Win32,59.88023952,661e456ee6de07e70aa9ef7b,66229da43a378f03f883f03b,,,,,,,,,,,,,,,,,,,,,,,,,,,,,,,,,,187.2996,188.5314,"[7,4,5,8,3,6,1,2]","[[-0.3,0.2],[0.3,0.2]]","[[-0.125,-0.2],[0.125,-0.2]]",-0.1328125,-0.180989583,1,0,0,0.7212,o1_image,188.5324,1,189.0272,189.0273,191.0281,0,0,0,0,1,,,,,,,,,,,,,,,,,,,,,,,,,,,,,,,,,,,,,,,,,,,,,,,,,,
,,612110456899ed64c754d95d,23,female,2024-04-19_18h37.22.395,stockport_simplified,2022.2.4,Win32,59.88023952,661e456ee6de07e70aa9ef7b,66229da43a378f03f883f03b,,,,,,,,,,,,,,,,,,,,,,,,,,,,,,,,,,,,,,,,,,,,,,,,,,,,,,,,0,9,9,31,1,A,X,N,o1_image,stimuli/out1.png,stimuli/correct_out1.png,stimuli/out2.png,,,,,,,,,,,,,,,,,,,,,,,,,,,,,,,,,,,,,,
,,612110456899ed64c754d95d,23,female,2024-04-19_18h37.22.395,stockport_simplified,2022.2.4,Win32,59.88023952,661e456ee6de07e70aa9ef7b,66229da43a378f03f883f03b,,,,,,,,,,,,,,,,,,,,,,,,,,,,,,,,,,191.0293,192.4159,"[7,4,5,8,3,6,1,2]","[[-0.3,0.2],[0.3,0.2]]","[[0.125,-0.2],[-0.125,-0.2]]",-0.1328125,-0.180989583,1,0,0,0.8712,o2_image,192.418,1,192.9165,192.9165,194.912,0,0,0,0,1,,,,,,,,,,,,,,,,,,,,,,,,,,,,,,,,,,,,,,,,,,,,,,,,,,
,,612110456899ed64c754d95d,23,female,2024-04-19_18h37.22.395,stockport_simplified,2022.2.4,Win32,59.88023952,661e456ee6de07e70aa9ef7b,66229da43a378f03f883f03b,,,,,,,,,,,,,,,,,,,,,,,,,,,,,,,,,,,,,,,,,,,,,,,,,,,,,,,,0,10,10,55,1,N,M,D,o2_image,stimuli/out2.png,stimuli/out1.png,stimuli/correct_out2.png,,,,,,,,,,,,,,,,,,,,,,,,,,,,,,,,,,,,,,
,,612110456899ed64c754d95d,23,female,2024-04-19_18h37.22.395,stockport_simplified,2022.2.4,Win32,59.88023952,661e456ee6de07e70aa9ef7b,66229da43a378f03f883f03b,,,,,,,,,,,,,,,,,,,,,,,,,,,,,,,,,,194.9149,195.9896,"[7,4,5,8,3,6,1,2]","[[-0.3,0.2],[0.3,0.2]]","[[0.125,-0.2],[-0.125,-0.2]]",-0.1328125,-0.180989583,1,0,0,0.5607,o2_image,195.9909,0,196.4859,196.4859,198.4761,0,0,0,0,1,,,,,,,,,,,,,,,,,,,,,,,,,,,,,,,,,,,,,,,,,,,,,,,,,,
,,612110456899ed64c754d95d,23,female,2024-04-19_18h37.22.395,stockport_simplified,2022.2.4,Win32,59.88023952,661e456ee6de07e70aa9ef7b,66229da43a378f03f883f03b,,,,,,,,,,,,,,,,,,,,,,,,,,,,,,,,,,,,,,,,,,,,,,,,,,,,,,,,0,11,11,0,1,A,X,N,o1_image,stimuli/out1.png,stimuli/correct_out1.png,stimuli/out2.png,,,,,,,,,,,,,,,,,,,,,,,,,,,,,,,,,,,,,,
,,612110456899ed64c754d95d,23,female,2024-04-19_18h37.22.395,stockport_simplified,2022.2.4,Win32,59.88023952,661e456ee6de07e70aa9ef7b,66229da43a378f03f883f03b,,,,,,,,,,,,,,,,,,,,,,,,,,,,,,,,,,198.4767,199.5178,"[7,4,5,8,3,6,1,2]","[[-0.3,0.2],[0.3,0.2]]","[[0.125,-0.2],[-0.125,-0.2]]",0.131510417,-0.20703125,1,0,0,0.5267,o1_image,199.5192,0,200.0117,200.0118,202.0156,0,0,0,0,1,,,,,,,,,,,,,,,,,,,,,,,,,,,,,,,,,,,,,,,,,,,,,,,,,,
,,612110456899ed64c754d95d,23,female,2024-04-19_18h37.22.395,stockport_simplified,2022.2.4,Win32,59.88023952,661e456ee6de07e70aa9ef7b,66229da43a378f03f883f03b,,,,,,,,,,,,,,,,,,,,,,,,,,,,,,,,,,,,,,,,,,,,,,,,,,,,,,,,0,12,12,41,1,B,X,N,o2_image,stimuli/out2.png,stimuli/out1.png,stimuli/correct_out2.png,,,,,,,,,,,,,,,,,,,,,,,,,,,,,,,,,,,,,,
,,612110456899ed64c754d95d,23,female,2024-04-19_18h37.22.395,stockport_simplified,2022.2.4,Win32,59.88023952,661e456ee6de07e70aa9ef7b,66229da43a378f03f883f03b,,,,,,,,,,,,,,,,,,,,,,,,,,,,,,,,,,202.0171,203.1369,"[7,4,5,8,3,6,1,2]","[[-0.3,0.2],[0.3,0.2]]","[[-0.125,-0.2],[0.125,-0.2]]",0.118489583,-0.209635417,1,0,0,0.6091,o2_image,203.1387,1,203.6319,203.6319,205.6498,0,0,0,0,1,,,,,,,,,,,,,,,,,,,,,,,,,,,,,,,,,,,,,,,,,,,,,,,,,,
,,612110456899ed64c754d95d,23,female,2024-04-19_18h37.22.395,stockport_simplified,2022.2.4,Win32,59.88023952,661e456ee6de07e70aa9ef7b,66229da43a378f03f883f03b,,,,,,,,,,,,,,,,,,,,,,,,,,,,,,,,,,,,,,,,,,,,,,,,,,,,,,,,0,13,13,44,1,B,X,N,o2_image,stimuli/out2.png,stimuli/out1.png,stimuli/correct_out2.png,,,,,,,,,,,,,,,,,,,,,,,,,,,,,,,,,,,,,,
,,612110456899ed64c754d95d,23,female,2024-04-19_18h37.22.395,stockport_simplified,2022.2.4,Win32,59.88023952,661e456ee6de07e70aa9ef7b,66229da43a378f03f883f03b,,,,,,,,,,,,,,,,,,,,,,,,,,,,,,,,,,205.6514,206.6647,"[7,4,5,8,3,6,1,2]","[[0.3,0.2],[-0.3,0.2]]","[[0.125,-0.2],[-0.125,-0.2]]",0.118489583,-0.209635417,1,0,0,0.5037,o1_image,206.6661,1,207.1652,207.1653,209.1784,0,0,0,0,1,,,,,,,,,,,,,,,,,,,,,,,,,,,,,,,,,,,,,,,,,,,,,,,,,,
,,612110456899ed64c754d95d,23,female,2024-04-19_18h37.22.395,stockport_simplified,2022.2.4,Win32,59.88023952,661e456ee6de07e70aa9ef7b,66229da43a378f03f883f03b,,,,,,,,,,,,,,,,,,,,,,,,,,,,,,,,,,,,,,,,,,,,,,,,,,,,,,,,0,14,14,7,1,A,Y,N,o1_image,stimuli/out1.png,stimuli/correct_out1.png,stimuli/out2.png,,,,,,,,,,,,,,,,,,,,,,,,,,,,,,,,,,,,,,
,,612110456899ed64c754d95d,23,female,2024-04-19_18h37.22.395,stockport_simplified,2022.2.4,Win32,59.88023952,661e456ee6de07e70aa9ef7b,66229da43a378f03f883f03b,,,,,,,,,,,,,,,,,,,,,,,,,,,,,,,,,,209.181,211.6105,"[7,4,5,8,3,6,1,2]","[[-0.3,0.2],[0.3,0.2]]","[[-0.125,-0.2],[0.125,-0.2]]",0.111979167,-0.217447917,1,0,0,1.9167,o2_image,211.612,0,212.1264,212.1264,214.1235,0,0,0,0,1,,,,,,,,,,,,,,,,,,,,,,,,,,,,,,,,,,,,,,,,,,,,,,,,,,
,,612110456899ed64c754d95d,23,female,2024-04-19_18h37.22.395,stockport_simplified,2022.2.4,Win32,59.88023952,661e456ee6de07e70aa9ef7b,66229da43a378f03f883f03b,,,,,,,,,,,,,,,,,,,,,,,,,,,,,,,,,,,,,,,,,,,,,,,,,,,,,,,,0,15,15,34,1,A,X,N,o1_image,stimuli/out1.png,stimuli/correct_out1.png,stimuli/out2.png,,,,,,,,,,,,,,,,,,,,,,,,,,,,,,,,,,,,,,
,,612110456899ed64c754d95d,23,female,2024-04-19_18h37.22.395,stockport_simplified,2022.2.4,Win32,59.88023952,661e456ee6de07e70aa9ef7b,66229da43a378f03f883f03b,,,,,,,,,,,,,,,,,,,,,,,,,,,,,,,,,,214.124,215.3513,"[7,4,5,8,3,6,1,2]","[[0.3,0.2],[-0.3,0.2]]","[[0.125,-0.2],[-0.125,-0.2]]",0.111979167,-0.217447917,1,0,0,0.7101,o1_image,215.3533,0,215.8431,215.8431,217.8433,0,0,0,0,1,,,,,,,,,,,,,,,,,,,,,,,,,,,,,,,,,,,,,,,,,,,,,,,,,,
,,612110456899ed64c754d95d,23,female,2024-04-19_18h37.22.395,stockport_simplified,2022.2.4,Win32,59.88023952,661e456ee6de07e70aa9ef7b,66229da43a378f03f883f03b,,,,,,,,,,,,,,,,,,,,,,,,,,,,,,,,,,,,,,,,,,,,,,,,,,,,,,,,0,16,16,15,1,B,Y,N,o2_image,stimuli/out2.png,stimuli/out1.png,stimuli/correct_out2.png,,,,,,,,,,,,,,,,,,,,,,,,,,,,,,,,,,,,,,
,,612110456899ed64c754d95d,23,female,2024-04-19_18h37.22.395,stockport_simplified,2022.2.4,Win32,59.88023952,661e456ee6de07e70aa9ef7b,66229da43a378f03f883f03b,,,,,,,,,,,,,,,,,,,,,,,,,,,,,,,,,,217.8445,219.6012,"[7,4,5,8,3,6,1,2]","[[-0.3,0.2],[0.3,0.2]]","[[-0.125,-0.2],[0.125,-0.2]]",-0.111979167,-0.17578125,1,0,0,1.241,o1_image,219.6025,0,220.0943,220.0944,222.0947,0,0,0,0,1,,,,,,,,,,,,,,,,,,,,,,,,,,,,,,,,,,,,,,,,,,,,,,,,,,
,,612110456899ed64c754d95d,23,female,2024-04-19_18h37.22.395,stockport_simplified,2022.2.4,Win32,59.88023952,661e456ee6de07e70aa9ef7b,66229da43a378f03f883f03b,,,,,,,,,,,,,,,,,,,,,,,,,,,,,,,,,,,,,,,,,,,,,,,,,,,,,,,,0,17,17,19,1,B,Y,N,o2_image,stimuli/out2.png,stimuli/out1.png,stimuli/correct_out2.png,,,,,,,,,,,,,,,,,,,,,,,,,,,,,,,,,,,,,,
,,612110456899ed64c754d95d,23,female,2024-04-19_18h37.22.395,stockport_simplified,2022.2.4,Win32,59.88023952,661e456ee6de07e70aa9ef7b,66229da43a378f03f883f03b,,,,,,,,,,,,,,,,,,,,,,,,,,,,,,,,,,222.0975,223.0475,"[7,4,5,8,3,6,1,2]","[[0.3,0.2],[-0.3,0.2]]","[[-0.125,-0.2],[0.125,-0.2]]",0.161458333,-0.178385417,1,0,0,0.4376,o2_image,223.0492,0,223.5432,223.5432,225.5467,0,0,0,0,1,,,,,,,,,,,,,,,,,,,,,,,,,,,,,,,,,,,,,,,,,,,,,,,,,,
,,612110456899ed64c754d95d,23,female,2024-04-19_18h37.22.395,stockport_simplified,2022.2.4,Win32,59.88023952,661e456ee6de07e70aa9ef7b,66229da43a378f03f883f03b,,,,,,,,,,,,,,,,,,,,,,,,,,,,,,,,,,,,,,,,,,,,,,,,,,,,,,,,0,18,18,5,1,A,Y,N,o1_image,stimuli/out1.png,stimuli/correct_out1.png,stimuli/out2.png,,,,,,,,,,,,,,,,,,,,,,,,,,,,,,,,,,,,,,
,,612110456899ed64c754d95d,23,female,2024-04-19_18h37.22.395,stockport_simplified,2022.2.4,Win32,59.88023952,661e456ee6de07e70aa9ef7b,66229da43a378f03f883f03b,,,,,,,,,,,,,,,,,,,,,,,,,,,,,,,,,,225.5476,226.6138,"[7,4,5,8,3,6,1,2]","[[0.3,0.2],[-0.3,0.2]]","[[0.125,-0.2],[-0.125,-0.2]]",-0.119791667,-0.170572917,1,0,0,0.5649,o2_image,226.6147,1,227.0973,227.0974,229.0914,0,0,0,0,1,,,,,,,,,,,,,,,,,,,,,,,,,,,,,,,,,,,,,,,,,,,,,,,,,,
,,612110456899ed64c754d95d,23,female,2024-04-19_18h37.22.395,stockport_simplified,2022.2.4,Win32,59.88023952,661e456ee6de07e70aa9ef7b,66229da43a378f03f883f03b,,,,,,,,,,,,,,,,,,,,,,,,,,,,,,,,,,,,,,,,,,,,,,,,,,,,,,,,0,19,19,40,1,B,X,N,o2_image,stimuli/out2.png,stimuli/out1.png,stimuli/correct_out2.png,,,,,,,,,,,,,,,,,,,,,,,,,,,,,,,,,,,,,,
,,612110456899ed64c754d95d,23,female,2024-04-19_18h37.22.395,stockport_simplified,2022.2.4,Win32,59.88023952,661e456ee6de07e70aa9ef7b,66229da43a378f03f883f03b,,,,,,,,,,,,,,,,,,,,,,,,,,,,,,,,,,229.0927,230.1493,"[7,4,5,8,3,6,1,2]","[[0.3,0.2],[-0.3,0.2]]","[[0.125,-0.2],[-0.125,-0.2]]",-0.119791667,-0.170572917,1,0,0,0.54,o2_image,230.1503,1,230.6424,230.6424,232.6466,0,0,0,0,1,,,,,,,,,,,,,,,,,,,,,,,,,,,,,,,,,,,,,,,,,,,,,,,,,,
,,612110456899ed64c754d95d,23,female,2024-04-19_18h37.22.395,stockport_simplified,2022.2.4,Win32,59.88023952,661e456ee6de07e70aa9ef7b,66229da43a378f03f883f03b,,,,,,,,,,,,,,,,,,,,,,,,,,,,,,,,,,,,,,,,,,,,,,,,,,,,,,,,0,20,20,17,1,B,Y,N,o2_image,stimuli/out2.png,stimuli/out1.png,stimuli/correct_out2.png,,,,,,,,,,,,,,,,,,,,,,,,,,,,,,,,,,,,,,
,,612110456899ed64c754d95d,23,female,2024-04-19_18h37.22.395,stockport_simplified,2022.2.4,Win32,59.88023952,661e456ee6de07e70aa9ef7b,66229da43a378f03f883f03b,,,,,,,,,,,,,,,,,,,,,,,,,,,,,,,,,,232.6478,233.7301,"[7,4,5,8,3,6,1,2]","[[0.3,0.2],[-0.3,0.2]]","[[-0.125,-0.2],[0.125,-0.2]]",-0.119791667,-0.170572917,1,0,0,0.5653,o1_image,233.7316,1,234.2415,234.2416,236.2317,0,0,0,0,1,,,,,,,,,,,,,,,,,,,,,,,,,,,,,,,,,,,,,,,,,,,,,,,,,,
,,612110456899ed64c754d95d,23,female,2024-04-19_18h37.22.395,stockport_simplified,2022.2.4,Win32,59.88023952,661e456ee6de07e70aa9ef7b,66229da43a378f03f883f03b,,,,,,,,,,,,,,,,,,,,,,,,,,,,,,,,,,,,,,,,,,,,,,,,,,,,,,,,0,21,21,24,1,N,M,C,o1_image,stimuli/out1.png,stimuli/correct_out1.png,stimuli/out2.png,,,,,,,,,,,,,,,,,,,,,,,,,,,,,,,,,,,,,,
,,612110456899ed64c754d95d,23,female,2024-04-19_18h37.22.395,stockport_simplified,2022.2.4,Win32,59.88023952,661e456ee6de07e70aa9ef7b,66229da43a378f03f883f03b,,,,,,,,,,,,,,,,,,,,,,,,,,,,,,,,,,236.233,237.54,"[7,4,5,8,3,6,1,2]","[[0.3,0.2],[-0.3,0.2]]","[[-0.125,-0.2],[0.125,-0.2]]",-0.0625,-0.1484375,1,0,0,0.7965,o1_image,237.5417,0,238.023,238.0231,240.0133,0,0,0,0,1,,,,,,,,,,,,,,,,,,,,,,,,,,,,,,,,,,,,,,,,,,,,,,,,,,
,,612110456899ed64c754d95d,23,female,2024-04-19_18h37.22.395,stockport_simplified,2022.2.4,Win32,59.88023952,661e456ee6de07e70aa9ef7b,66229da43a378f03f883f03b,,,,,,,,,,,,,,,,,,,,,,,,,,,,,,,,,,,,,,,,,,,,,,,,,,,,,,,,0,22,22,18,1,B,Y,N,o2_image,stimuli/out2.png,stimuli/out1.png,stimuli/correct_out2.png,,,,,,,,,,,,,,,,,,,,,,,,,,,,,,,,,,,,,,
,,612110456899ed64c754d95d,23,female,2024-04-19_18h37.22.395,stockport_simplified,2022.2.4,Win32,59.88023952,661e456ee6de07e70aa9ef7b,66229da43a378f03f883f03b,,,,,,,,,,,,,,,,,,,,,,,,,,,,,,,,,,240.0144,240.9889,"[7,4,5,8,3,6,1,2]","[[0.3,0.2],[-0.3,0.2]]","[[-0.125,-0.2],[0.125,-0.2]]",-0.0625,-0.1484375,1,0,0,0.4691,o1_image,240.9907,0,241.4703,241.4703,243.476,0,0,0,0,1,,,,,,,,,,,,,,,,,,,,,,,,,,,,,,,,,,,,,,,,,,,,,,,,,,
,,612110456899ed64c754d95d,23,female,2024-04-19_18h37.22.395,stockport_simplified,2022.2.4,Win32,59.88023952,661e456ee6de07e70aa9ef7b,66229da43a378f03f883f03b,,,,,,,,,,,,,,,,,,,,,,,,,,,,,,,,,,,,,,,,,,,,,,,,,,,,,,,,0,23,23,57,1,N,M,D,o2_image,stimuli/out2.png,stimuli/out1.png,stimuli/correct_out2.png,,,,,,,,,,,,,,,,,,,,,,,,,,,,,,,,,,,,,,
,,612110456899ed64c754d95d,23,female,2024-04-19_18h37.22.395,stockport_simplified,2022.2.4,Win32,59.88023952,661e456ee6de07e70aa9ef7b,66229da43a378f03f883f03b,,,,,,,,,,,,,,,,,,,,,,,,,,,,,,,,,,243.4771,245.1092,"[7,4,5,8,3,6,1,2]","[[-0.3,0.2],[0.3,0.2]]","[[-0.125,-0.2],[0.125,-0.2]]",-0.0625,-0.1484375,1,0,0,1.1165,o1_image,245.112,1,245.6166,245.6167,247.6124,0,0,0,0,1,,,,,,,,,,,,,,,,,,,,,,,,,,,,,,,,,,,,,,,,,,,,,,,,,,
,,612110456899ed64c754d95d,23,female,2024-04-19_18h37.22.395,stockport_simplified,2022.2.4,Win32,59.88023952,661e456ee6de07e70aa9ef7b,66229da43a378f03f883f03b,,,,,,,,,,,,,,,,,,,,,,,,,,,,,,,,,,,,,,,,,,,,,,,,,,,,,,,,0,24,24,8,1,A,Y,N,o1_image,stimuli/out1.png,stimuli/correct_out1.png,stimuli/out2.png,,,,,,,,,,,,,,,,,,,,,,,,,,,,,,,,,,,,,,
,,612110456899ed64c754d95d,23,female,2024-04-19_18h37.22.395,stockport_simplified,2022.2.4,Win32,59.88023952,661e456ee6de07e70aa9ef7b,66229da43a378f03f883f03b,,,,,,,,,,,,,,,,,,,,,,,,,,,,,,,,,,247.6129,249.4145,"[7,4,5,8,3,6,1,2]","[[-0.3,0.2],[0.3,0.2]]","[[0.125,-0.2],[-0.125,-0.2]]",0.1015625,-0.204427083,1,0,0,1.2911,o1_image,249.4162,1,249.913,249.9131,251.9086,0,0,0,0,1,,,,,,,,,,,,,,,,,,,,,,,,,,,,,,,,,,,,,,,,,,,,,,,,,,
,,612110456899ed64c754d95d,23,female,2024-04-19_18h37.22.395,stockport_simplified,2022.2.4,Win32,59.88023952,661e456ee6de07e70aa9ef7b,66229da43a378f03f883f03b,,,,,,,,,,,,,,,,,,,,,,,,,,,,,,,,,,,,,,,,,,,,,,,,,,,,,,,,0,25,25,50,1,N,M,C,o1_image,stimuli/out1.png,stimuli/correct_out1.png,stimuli/out2.png,,,,,,,,,,,,,,,,,,,,,,,,,,,,,,,,,,,,,,
,,612110456899ed64c754d95d,23,female,2024-04-19_18h37.22.395,stockport_simplified,2022.2.4,Win32,59.88023952,661e456ee6de07e70aa9ef7b,66229da43a378f03f883f03b,,,,,,,,,,,,,,,,,,,,,,,,,,,,,,,,,,251.9098,253.1095,"[7,4,5,8,3,6,1,2]","[[0.3,0.2],[-0.3,0.2]]","[[0.125,-0.2],[-0.125,-0.2]]",0.102864583,-0.204427083,1,0,0,0.6847,o1_image,253.1123,1,253.615,253.6151,255.6157,0,0,0,0,1,,,,,,,,,,,,,,,,,,,,,,,,,,,,,,,,,,,,,,,,,,,,,,,,,,
,,612110456899ed64c754d95d,23,female,2024-04-19_18h37.22.395,stockport_simplified,2022.2.4,Win32,59.88023952,661e456ee6de07e70aa9ef7b,66229da43a378f03f883f03b,,,,,,,,,,,,,,,,,,,,,,,,,,,,,,,,,,,,,,,,,,,,,,,,,,,,,,,,0,26,26,6,1,A,Y,N,o1_image,stimuli/out1.png,stimuli/correct_out1.png,stimuli/out2.png,,,,,,,,,,,,,,,,,,,,,,,,,,,,,,,,,,,,,,
,,612110456899ed64c754d95d,23,female,2024-04-19_18h37.22.395,stockport_simplified,2022.2.4,Win32,59.88023952,661e456ee6de07e70aa9ef7b,66229da43a378f03f883f03b,,,,,,,,,,,,,,,,,,,,,,,,,,,,,,,,,,255.6168,256.8094,"[7,4,5,8,3,6,1,2]","[[-0.3,0.2],[0.3,0.2]]","[[-0.125,-0.2],[0.125,-0.2]]",-0.11328125,-0.227864583,1,0,0,0.6838,o1_image,256.8127,0,257.3013,257.3014,259.3093,0,0,0,0,1,,,,,,,,,,,,,,,,,,,,,,,,,,,,,,,,,,,,,,,,,,,,,,,,,,
,,612110456899ed64c754d95d,23,female,2024-04-19_18h37.22.395,stockport_simplified,2022.2.4,Win32,59.88023952,661e456ee6de07e70aa9ef7b,66229da43a378f03f883f03b,,,,,,,,,,,,,,,,,,,,,,,,,,,,,,,,,,,,,,,,,,,,,,,,,,,,,,,,0,27,27,59,1,N,M,D,o2_image,stimuli/out2.png,stimuli/out1.png,stimuli/correct_out2.png,,,,,,,,,,,,,,,,,,,,,,,,,,,,,,,,,,,,,,
,,612110456899ed64c754d95d,23,female,2024-04-19_18h37.22.395,stockport_simplified,2022.2.4,Win32,59.88023952,661e456ee6de07e70aa9ef7b,66229da43a378f03f883f03b,,,,,,,,,,,,,,,,,,,,,,,,,,,,,,,,,,259.3121,261.3286,"[7,4,5,8,3,6,1,2]","[[0.3,0.2],[-0.3,0.2]]","[[-0.125,-0.2],[0.125,-0.2]]",0.174479167,-0.145833333,1,0,0,1.5035,o2_image,261.3306,0,261.8254,261.8254,263.8295,0,0,0,0,1,,,,,,,,,,,,,,,,,,,,,,,,,,,,,,,,,,,,,,,,,,,,,,,,,,
,,612110456899ed64c754d95d,23,female,2024-04-19_18h37.22.395,stockport_simplified,2022.2.4,Win32,59.88023952,661e456ee6de07e70aa9ef7b,66229da43a378f03f883f03b,,,,,,,,,,,,,,,,,,,,,,,,,,,,,,,,,,,,,,,,,,,,,,,,,,,,,,,,0,28,28,23,1,N,M,C,o1_image,stimuli/out1.png,stimuli/correct_out1.png,stimuli/out2.png,,,,,,,,,,,,,,,,,,,,,,,,,,,,,,,,,,,,,,
,,612110456899ed64c754d95d,23,female,2024-04-19_18h37.22.395,stockport_simplified,2022.2.4,Win32,59.88023952,661e456ee6de07e70aa9ef7b,66229da43a378f03f883f03b,,,,,,,,,,,,,,,,,,,,,,,,,,,,,,,,,,263.8304,264.4126,"[7,4,5,8,3,6,1,2]","[[0.3,0.2],[-0.3,0.2]]","[[0.125,-0.2],[-0.125,-0.2]]",0.08203125,-0.204427083,1,0,0,0.0719,o1_image,264.4144,1,264.9079,264.9079,266.9089,0,0,0,0,1,,,,,,,,,,,,,,,,,,,,,,,,,,,,,,,,,,,,,,,,,,,,,,,,,,
,,612110456899ed64c754d95d,23,female,2024-04-19_18h37.22.395,stockport_simplified,2022.2.4,Win32,59.88023952,661e456ee6de07e70aa9ef7b,66229da43a378f03f883f03b,,,,,,,,,,,,,,,,,,,,,,,,,,,,,,,,,,,,,,,,,,,,,,,,,,,,,,,,0,29,29,21,1,N,M,C,o1_image,stimuli/out1.png,stimuli/correct_out1.png,stimuli/out2.png,,,,,,,,,,,,,,,,,,,,,,,,,,,,,,,,,,,,,,
,,612110456899ed64c754d95d,23,female,2024-04-19_18h37.22.395,stockport_simplified,2022.2.4,Win32,59.88023952,661e456ee6de07e70aa9ef7b,66229da43a378f03f883f03b,,,,,,,,,,,,,,,,,,,,,,,,,,,,,,,,,,266.9115,269.1125,"[7,4,5,8,3,6,1,2]","[[0.3,0.2],[-0.3,0.2]]","[[-0.125,-0.2],[0.125,-0.2]]",-0.072916667,-0.18359375,1,0,0,1.6833,o1_image,269.1139,1,269.6081,269.6081,271.6119,0,0,0,0,1,,,,,,,,,,,,,,,,,,,,,,,,,,,,,,,,,,,,,,,,,,,,,,,,,,
,,612110456899ed64c754d95d,23,female,2024-04-19_18h37.22.395,stockport_simplified,2022.2.4,Win32,59.88023952,661e456ee6de07e70aa9ef7b,66229da43a378f03f883f03b,,,,,,,,,,,,,,,,,,,,,,,,,,,,,,,,,,,,,,,,,,,,,,,,,,,,,,,,0,30,30,32,1,A,X,N,o1_image,stimuli/out1.png,stimuli/correct_out1.png,stimuli/out2.png,,,,,,,,,,,,,,,,,,,,,,,,,,,,,,,,,,,,,,
,,612110456899ed64c754d95d,23,female,2024-04-19_18h37.22.395,stockport_simplified,2022.2.4,Win32,59.88023952,661e456ee6de07e70aa9ef7b,66229da43a378f03f883f03b,,,,,,,,,,,,,,,,,,,,,,,,,,,,,,,,,,271.6132,272.4954,"[7,4,5,8,3,6,1,2]","[[0.3,0.2],[-0.3,0.2]]","[[-0.125,-0.2],[0.125,-0.2]]",0.126302083,-0.200520833,1,0,0,0.3747,o2_image,272.4967,1,272.9915,272.9916,274.9818,0,0,0,0,1,,,,,,,,,,,,,,,,,,,,,,,,,,,,,,,,,,,,,,,,,,,,,,,,,,
,,612110456899ed64c754d95d,23,female,2024-04-19_18h37.22.395,stockport_simplified,2022.2.4,Win32,59.88023952,661e456ee6de07e70aa9ef7b,66229da43a378f03f883f03b,,,,,,,,,,,,,,,,,,,,,,,,,,,,,,,,,,,,,,,,,,,,,,,,,,,,,,,,0,31,31,13,1,B,X,N,o2_image,stimuli/out2.png,stimuli/out1.png,stimuli/correct_out2.png,,,,,,,,,,,,,,,,,,,,,,,,,,,,,,,,,,,,,,
,,612110456899ed64c754d95d,23,female,2024-04-19_18h37.22.395,stockport_simplified,2022.2.4,Win32,59.88023952,661e456ee6de07e70aa9ef7b,66229da43a378f03f883f03b,,,,,,,,,,,,,,,,,,,,,,,,,,,,,,,,,,274.983,275.8584,"[7,4,5,8,3,6,1,2]","[[0.3,0.2],[-0.3,0.2]]","[[-0.125,-0.2],[0.125,-0.2]]",0.065104167,-0.15625,1,0,0,0.3693,o2_image,275.8611,1,276.3746,276.3747,278.3561,0,0,0,0,1,,,,,,,,,,,,,,,,,,,,,,,,,,,,,,,,,,,,,,,,,,,,,,,,,,
,,612110456899ed64c754d95d,23,female,2024-04-19_18h37.22.395,stockport_simplified,2022.2.4,Win32,59.88023952,661e456ee6de07e70aa9ef7b,66229da43a378f03f883f03b,,,,,,,,,,,,,,,,,,,,,,,,,,,,,,,,,,,,,,,,,,,,,,,,,,,,,,,,0,32,32,11,1,B,X,N,o2_image,stimuli/out2.png,stimuli/out1.png,stimuli/correct_out2.png,,,,,,,,,,,,,,,,,,,,,,,,,,,,,,,,,,,,,,
,,612110456899ed64c754d95d,23,female,2024-04-19_18h37.22.395,stockport_simplified,2022.2.4,Win32,59.88023952,661e456ee6de07e70aa9ef7b,66229da43a378f03f883f03b,,,,,,,,,,,,,,,,,,,,,,,,,,,,,,,,,,278.3572,279.6119,"[7,4,5,8,3,6,1,2]","[[0.3,0.2],[-0.3,0.2]]","[[-0.125,-0.2],[0.125,-0.2]]",-0.143229167,-0.223958333,1,0,0,0.7495,o1_image,279.6135,1,280.1079,280.1079,282.1071,0,0,0,0,1,,,,,,,,,,,,,,,,,,,,,,,,,,,,,,,,,,,,,,,,,,,,,,,,,,
,,612110456899ed64c754d95d,23,female,2024-04-19_18h37.22.395,stockport_simplified,2022.2.4,Win32,59.88023952,661e456ee6de07e70aa9ef7b,66229da43a378f03f883f03b,,,,,,,,,,,,,,,,,,,,,,,,,,,,,,,,,,,,,,,,,,,,,,,,,,,,,,,,0,33,33,1,1,A,X,N,o1_image,stimuli/out1.png,stimuli/correct_out1.png,stimuli/out2.png,,,,,,,,,,,,,,,,,,,,,,,,,,,,,,,,,,,,,,
,,612110456899ed64c754d95d,23,female,2024-04-19_18h37.22.395,stockport_simplified,2022.2.4,Win32,59.88023952,661e456ee6de07e70aa9ef7b,66229da43a378f03f883f03b,,,,,,,,,,,,,,,,,,,,,,,,,,,,,,,,,,282.1082,282.8554,"[7,4,5,8,3,6,1,2]","[[0.3,0.2],[-0.3,0.2]]","[[0.125,-0.2],[-0.125,-0.2]]",-0.143229167,-0.223958333,1,0,0,0.2265,o2_image,282.8571,0,283.3606,283.3606,285.3446,0,0,0,0,1,,,,,,,,,,,,,,,,,,,,,,,,,,,,,,,,,,,,,,,,,,,,,,,,,,
,,612110456899ed64c754d95d,23,female,2024-04-19_18h37.22.395,stockport_simplified,2022.2.4,Win32,59.88023952,661e456ee6de07e70aa9ef7b,66229da43a378f03f883f03b,,,,,,,,,,,,,,,,,,,,,,,,,,,,,,,,,,,,,,,,,,,,,,,,,,,,,,,,0,34,34,20,1,N,M,C,o1_image,stimuli/out1.png,stimuli/correct_out1.png,stimuli/out2.png,,,,,,,,,,,,,,,,,,,,,,,,,,,,,,,,,,,,,,
,,612110456899ed64c754d95d,23,female,2024-04-19_18h37.22.395,stockport_simplified,2022.2.4,Win32,59.88023952,661e456ee6de07e70aa9ef7b,66229da43a378f03f883f03b,,,,,,,,,,,,,,,,,,,,,,,,,,,,,,,,,,285.3457,286.5936,"[7,4,5,8,3,6,1,2]","[[-0.3,0.2],[0.3,0.2]]","[[0.125,-0.2],[-0.125,-0.2]]",-0.1171875,-0.1875,1,0,0,0.734,o2_image,286.5955,0,287.0942,287.0942,289.0976,0,0,0,0,1,,,,,,,,,,,,,,,,,,,,,,,,,,,,,,,,,,,,,,,,,,,,,,,,,,
,,612110456899ed64c754d95d,23,female,2024-04-19_18h37.22.395,stockport_simplified,2022.2.4,Win32,59.88023952,661e456ee6de07e70aa9ef7b,66229da43a378f03f883f03b,,,,,,,,,,,,,,,,,,,,,,,,,,,,,,,,,,,,,,,,,,,,,,,,,,,,,,,,0,35,35,3,1,A,X,N,o1_image,stimuli/out1.png,stimuli/correct_out1.png,stimuli/out2.png,,,,,,,,,,,,,,,,,,,,,,,,,,,,,,,,,,,,,,
,,612110456899ed64c754d95d,23,female,2024-04-19_18h37.22.395,stockport_simplified,2022.2.4,Win32,59.88023952,661e456ee6de07e70aa9ef7b,66229da43a378f03f883f03b,,,,,,,,,,,,,,,,,,,,,,,,,,,,,,,,,,289.0989,290.3438,"[7,4,5,8,3,6,1,2]","[[0.3,0.2],[-0.3,0.2]]","[[-0.125,-0.2],[0.125,-0.2]]",-0.13671875,-0.1796875,1,0,0,0.7319,o1_image,290.3447,1,290.8383,290.8384,292.8274,0,0,0,0,1,,,,,,,,,,,,,,,,,,,,,,,,,,,,,,,,,,,,,,,,,,,,,,,,,,
,,612110456899ed64c754d95d,23,female,2024-04-19_18h37.22.395,stockport_simplified,2022.2.4,Win32,59.88023952,661e456ee6de07e70aa9ef7b,66229da43a378f03f883f03b,,,,,,,,,,,,,,,,,,,,,,,,,,,,,,,,,,,,,,,,,,,,,,,,,,,,,,,,0,36,36,39,1,A,Y,N,o1_image,stimuli/out1.png,stimuli/correct_out1.png,stimuli/out2.png,,,,,,,,,,,,,,,,,,,,,,,,,,,,,,,,,,,,,,
,,612110456899ed64c754d95d,23,female,2024-04-19_18h37.22.395,stockport_simplified,2022.2.4,Win32,59.88023952,661e456ee6de07e70aa9ef7b,66229da43a378f03f883f03b,,,,,,,,,,,,,,,,,,,,,,,,,,,,,,,,,,292.8278,293.8427,"[7,4,5,8,3,6,1,2]","[[-0.3,0.2],[0.3,0.2]]","[[-0.125,-0.2],[0.125,-0.2]]",0.0859375,-0.235677083,1,0,0,0.4972,o2_image,293.8445,1,294.3366,294.3367,296.3391,0,0,0,0,1,,,,,,,,,,,,,,,,,,,,,,,,,,,,,,,,,,,,,,,,,,,,,,,,,,
,,612110456899ed64c754d95d,23,female,2024-04-19_18h37.22.395,stockport_simplified,2022.2.4,Win32,59.88023952,661e456ee6de07e70aa9ef7b,66229da43a378f03f883f03b,,,,,,,,,,,,,,,,,,,,,,,,,,,,,,,,,,,,,,,,,,,,,,,,,,,,,,,,0,37,37,26,1,N,M,D,o2_image,stimuli/out2.png,stimuli/out1.png,stimuli/correct_out2.png,,,,,,,,,,,,,,,,,,,,,,,,,,,,,,,,,,,,,,
,,612110456899ed64c754d95d,23,female,2024-04-19_18h37.22.395,stockport_simplified,2022.2.4,Win32,59.88023952,661e456ee6de07e70aa9ef7b,66229da43a378f03f883f03b,,,,,,,,,,,,,,,,,,,,,,,,,,,,,,,,,,296.3403,297.2877,"[7,4,5,8,3,6,1,2]","[[0.3,0.2],[-0.3,0.2]]","[[0.125,-0.2],[-0.125,-0.2]]",-0.14453125,-0.282552083,1,0,0,0.4322,o2_image,297.2893,1,297.7934,297.7934,299.7892,0,0,0,0,1,,,,,,,,,,,,,,,,,,,,,,,,,,,,,,,,,,,,,,,,,,,,,,,,,,
,,612110456899ed64c754d95d,23,female,2024-04-19_18h37.22.395,stockport_simplified,2022.2.4,Win32,59.88023952,661e456ee6de07e70aa9ef7b,66229da43a378f03f883f03b,,,,,,,,,,,,,,,,,,,,,,,,,,,,,,,,,,,,,,,,,,,,,,,,,,,,,,,,0,38,38,42,1,B,X,N,o2_image,stimuli/out2.png,stimuli/out1.png,stimuli/correct_out2.png,,,,,,,,,,,,,,,,,,,,,,,,,,,,,,,,,,,,,,
,,612110456899ed64c754d95d,23,female,2024-04-19_18h37.22.395,stockport_simplified,2022.2.4,Win32,59.88023952,661e456ee6de07e70aa9ef7b,66229da43a378f03f883f03b,,,,,,,,,,,,,,,,,,,,,,,,,,,,,,,,,,299.7905,300.6953,"[7,4,5,8,3,6,1,2]","[[0.3,0.2],[-0.3,0.2]]","[[-0.125,-0.2],[0.125,-0.2]]",0.079427083,-0.270833333,1,0,0,0.3895,o2_image,300.697,1,301.1867,301.1868,303.1723,0,0,0,0,1,,,,,,,,,,,,,,,,,,,,,,,,,,,,,,,,,,,,,,,,,,,,,,,,,,
,,612110456899ed64c754d95d,23,female,2024-04-19_18h37.22.395,stockport_simplified,2022.2.4,Win32,59.88023952,661e456ee6de07e70aa9ef7b,66229da43a378f03f883f03b,,,,,,,,,,,,,,,,,,,,,,,,,,,,,,,,,,,,,,,,,,,,,,,,,,,,,,,,0,39,39,48,1,B,Y,N,o2_image,stimuli/out2.png,stimuli/out1.png,stimuli/correct_out2.png,,,,,,,,,,,,,,,,,,,,,,,,,,,,,,,,,,,,,,
,,612110456899ed64c754d95d,23,female,2024-04-19_18h37.22.395,stockport_simplified,2022.2.4,Win32,59.88023952,661e456ee6de07e70aa9ef7b,66229da43a378f03f883f03b,,,,,,,,,,,,,,,,,,,,,,,,,,,,,,,,,,303.1751,304.3723,"[7,4,5,8,3,6,1,2]","[[0.3,0.2],[-0.3,0.2]]","[[-0.125,-0.2],[0.125,-0.2]]",-0.076822917,-0.208333333,1,0,0,0.6794,o1_image,304.3748,0,304.8684,304.8684,306.8581,0,0,0,0,1,,,,,,,,,,,,,,,,,,,,,,,,,,,,,,,,,,,,,,,,,,,,,,,,,,
,,612110456899ed64c754d95d,23,female,2024-04-19_18h37.22.395,stockport_simplified,2022.2.4,Win32,59.88023952,661e456ee6de07e70aa9ef7b,66229da43a378f03f883f03b,,,,,,,,,,,,,,,,,,,,,,,,,,,,,,,,,,,,,,,,,,,,,,,,,,,,,,,,0,40,40,29,1,N,M,D,o2_image,stimuli/out2.png,stimuli/out1.png,stimuli/correct_out2.png,,,,,,,,,,,,,,,,,,,,,,,,,,,,,,,,,,,,,,
,,612110456899ed64c754d95d,23,female,2024-04-19_18h37.22.395,stockport_simplified,2022.2.4,Win32,59.88023952,661e456ee6de07e70aa9ef7b,66229da43a378f03f883f03b,,,,,,,,,,,,,,,,,,,,,,,,,,,,,,,,,,306.8589,308.1767,"[7,4,5,8,3,6,1,2]","[[0.3,0.2],[-0.3,0.2]]","[[-0.125,-0.2],[0.125,-0.2]]",-0.08984375,-0.197916667,1,0,0,0.8109,o1_image,308.1783,0,308.6692,308.6693,310.6753,0,0,0,0,1,,,,,,,,,,,,,,,,,,,,,,,,,,,,,,,,,,,,,,,,,,,,,,,,,,
,,612110456899ed64c754d95d,23,female,2024-04-19_18h37.22.395,stockport_simplified,2022.2.4,Win32,59.88023952,661e456ee6de07e70aa9ef7b,66229da43a378f03f883f03b,,,,,,,,,,,,,,,,,,,,,,,,,,,,,,,,,,,,,,,,,,,,,,,,,,,,,,,,0,41,41,49,1,B,Y,N,o2_image,stimuli/out2.png,stimuli/out1.png,stimuli/correct_out2.png,,,,,,,,,,,,,,,,,,,,,,,,,,,,,,,,,,,,,,
,,612110456899ed64c754d95d,23,female,2024-04-19_18h37.22.395,stockport_simplified,2022.2.4,Win32,59.88023952,661e456ee6de07e70aa9ef7b,66229da43a378f03f883f03b,,,,,,,,,,,,,,,,,,,,,,,,,,,,,,,,,,310.6764,312.1945,"[7,4,5,8,3,6,1,2]","[[0.3,0.2],[-0.3,0.2]]","[[0.125,-0.2],[-0.125,-0.2]]",-0.125,-0.19140625,1,0,0,1.0088,o2_image,312.1962,1,312.692,312.6921,314.6886,0,0,0,0,1,,,,,,,,,,,,,,,,,,,,,,,,,,,,,,,,,,,,,,,,,,,,,,,,,,
,,612110456899ed64c754d95d,23,female,2024-04-19_18h37.22.395,stockport_simplified,2022.2.4,Win32,59.88023952,661e456ee6de07e70aa9ef7b,66229da43a378f03f883f03b,,,,,,,,,,,,,,,,,,,,,,,,,,,,,,,,,,,,,,,,,,,,,,,,,,,,,,,,0,42,42,25,1,N,M,D,o2_image,stimuli/out2.png,stimuli/out1.png,stimuli/correct_out2.png,,,,,,,,,,,,,,,,,,,,,,,,,,,,,,,,,,,,,,
,,612110456899ed64c754d95d,23,female,2024-04-19_18h37.22.395,stockport_simplified,2022.2.4,Win32,59.88023952,661e456ee6de07e70aa9ef7b,66229da43a378f03f883f03b,,,,,,,,,,,,,,,,,,,,,,,,,,,,,,,,,,314.6895,315.6753,"[7,4,5,8,3,6,1,2]","[[-0.3,0.2],[0.3,0.2]]","[[0.125,-0.2],[-0.125,-0.2]]",0.1484375,-0.278645833,1,0,0,0.4734,o1_image,315.6765,0,316.1791,316.1791,318.1776,0,0,0,0,1,,,,,,,,,,,,,,,,,,,,,,,,,,,,,,,,,,,,,,,,,,,,,,,,,,
,,612110456899ed64c754d95d,23,female,2024-04-19_18h37.22.395,stockport_simplified,2022.2.4,Win32,59.88023952,661e456ee6de07e70aa9ef7b,66229da43a378f03f883f03b,,,,,,,,,,,,,,,,,,,,,,,,,,,,,,,,,,,,,,,,,,,,,,,,,,,,,,,,0,43,43,47,1,B,Y,N,o2_image,stimuli/out2.png,stimuli/out1.png,stimuli/correct_out2.png,,,,,,,,,,,,,,,,,,,,,,,,,,,,,,,,,,,,,,
,,612110456899ed64c754d95d,23,female,2024-04-19_18h37.22.395,stockport_simplified,2022.2.4,Win32,59.88023952,661e456ee6de07e70aa9ef7b,66229da43a378f03f883f03b,,,,,,,,,,,,,,,,,,,,,,,,,,,,,,,,,,318.1791,318.7251,"[7,4,5,8,3,6,1,2]","[[0.3,0.2],[-0.3,0.2]]","[[0.125,-0.2],[-0.125,-0.2]]",0.118489583,-0.2734375,1,0,0,0.0374,o1_image,318.7267,0,319.2216,319.2217,321.2217,0,0,0,0,1,,,,,,,,,,,,,,,,,,,,,,,,,,,,,,,,,,,,,,,,,,,,,,,,,,
,,612110456899ed64c754d95d,23,female,2024-04-19_18h37.22.395,stockport_simplified,2022.2.4,Win32,59.88023952,661e456ee6de07e70aa9ef7b,66229da43a378f03f883f03b,,,,,,,,,,,,,,,,,,,,,,,,,,,,,,,,,,,,,,,,,,,,,,,,,,,,,,,,0,44,44,46,1,B,Y,N,o2_image,stimuli/out2.png,stimuli/out1.png,stimuli/correct_out2.png,,,,,,,,,,,,,,,,,,,,,,,,,,,,,,,,,,,,,,
,,612110456899ed64c754d95d,23,female,2024-04-19_18h37.22.395,stockport_simplified,2022.2.4,Win32,59.88023952,661e456ee6de07e70aa9ef7b,66229da43a378f03f883f03b,,,,,,,,,,,,,,,,,,,,,,,,,,,,,,,,,,321.2224,324.266,"[7,4,5,8,3,6,1,2]","[[0.3,0.2],[-0.3,0.2]]","[[0.125,-0.2],[-0.125,-0.2]]",0.118489583,-0.2734375,1,0,0,2.5407,o1_image,324.2813,0,324.7776,324.7778,326.7697,0,0,0,0,1,,,,,,,,,,,,,,,,,,,,,,,,,,,,,,,,,,,,,,,,,,,,,,,,,,
,,612110456899ed64c754d95d,23,female,2024-04-19_18h37.22.395,stockport_simplified,2022.2.4,Win32,59.88023952,661e456ee6de07e70aa9ef7b,66229da43a378f03f883f03b,,,,,,,,,,,,,,,,,,,,,,,,,,,,,,,,,,,,,,,,,,,,,,,,,,,,,,,,0,45,45,12,1,B,X,N,o2_image,stimuli/out2.png,stimuli/out1.png,stimuli/correct_out2.png,,,,,,,,,,,,,,,,,,,,,,,,,,,,,,,,,,,,,,
,,612110456899ed64c754d95d,23,female,2024-04-19_18h37.22.395,stockport_simplified,2022.2.4,Win32,59.88023952,661e456ee6de07e70aa9ef7b,66229da43a378f03f883f03b,,,,,,,,,,,,,,,,,,,,,,,,,,,,,,,,,,326.7708,327.9745,"[7,4,5,8,3,6,1,2]","[[0.3,0.2],[-0.3,0.2]]","[[0.125,-0.2],[-0.125,-0.2]]",-0.151041667,-0.21484375,1,0,0,0.6867,o2_image,327.9762,0,328.4709,328.471,330.4744,0,0,0,0,1,,,,,,,,,,,,,,,,,,,,,,,,,,,,,,,,,,,,,,,,,,,,,,,,,,
,,612110456899ed64c754d95d,23,female,2024-04-19_18h37.22.395,stockport_simplified,2022.2.4,Win32,59.88023952,661e456ee6de07e70aa9ef7b,66229da43a378f03f883f03b,,,,,,,,,,,,,,,,,,,,,,,,,,,,,,,,,,,,,,,,,,,,,,,,,,,,,,,,0,46,46,51,1,N,M,C,o1_image,stimuli/out1.png,stimuli/correct_out1.png,stimuli/out2.png,,,,,,,,,,,,,,,,,,,,,,,,,,,,,,,,,,,,,,
,,612110456899ed64c754d95d,23,female,2024-04-19_18h37.22.395,stockport_simplified,2022.2.4,Win32,59.88023952,661e456ee6de07e70aa9ef7b,66229da43a378f03f883f03b,,,,,,,,,,,,,,,,,,,,,,,,,,,,,,,,,,330.4754,332.705,"[7,4,5,8,3,6,1,2]","[[0.3,0.2],[-0.3,0.2]]","[[-0.125,-0.2],[0.125,-0.2]]",-0.119791667,-0.153645833,1,0,0,1.7134,o1_image,332.7084,0,333.2031,333.2032,335.2047,0,0,0,0,1,,,,,,,,,,,,,,,,,,,,,,,,,,,,,,,,,,,,,,,,,,,,,,,,,,
,,612110456899ed64c754d95d,23,female,2024-04-19_18h37.22.395,stockport_simplified,2022.2.4,Win32,59.88023952,661e456ee6de07e70aa9ef7b,66229da43a378f03f883f03b,,,,,,,,,,,,,,,,,,,,,,,,,,,,,,,,,,,,,,,,,,,,,,,,,,,,,,,,0,47,47,28,1,N,M,D,o2_image,stimuli/out2.png,stimuli/out1.png,stimuli/correct_out2.png,,,,,,,,,,,,,,,,,,,,,,,,,,,,,,,,,,,,,,
,,612110456899ed64c754d95d,23,female,2024-04-19_18h37.22.395,stockport_simplified,2022.2.4,Win32,59.88023952,661e456ee6de07e70aa9ef7b,66229da43a378f03f883f03b,,,,,,,,,,,,,,,,,,,,,,,,,,,,,,,,,,335.2083,336.3919,"[7,4,5,8,3,6,1,2]","[[-0.3,0.2],[0.3,0.2]]","[[-0.125,-0.2],[0.125,-0.2]]",-0.102864583,-0.243489583,1,0,0,0.6681,o1_image,336.3936,1,336.8864,336.8864,338.8852,0,0,0,0,1,,,,,,,,,,,,,,,,,,,,,,,,,,,,,,,,,,,,,,,,,,,,,,,,,,
,,612110456899ed64c754d95d,23,female,2024-04-19_18h37.22.395,stockport_simplified,2022.2.4,Win32,59.88023952,661e456ee6de07e70aa9ef7b,66229da43a378f03f883f03b,,,,,,,,,,,,,,,,,,,,,,,,,,,,,,,,,,,,,,,,,,,,,,,,,,,,,,,,0,48,48,35,1,A,Y,N,o1_image,stimuli/out1.png,stimuli/correct_out1.png,stimuli/out2.png,,,,,,,,,,,,,,,,,,,,,,,,,,,,,,,,,,,,,,
,,612110456899ed64c754d95d,23,female,2024-04-19_18h37.22.395,stockport_simplified,2022.2.4,Win32,59.88023952,661e456ee6de07e70aa9ef7b,66229da43a378f03f883f03b,,,,,,,,,,,,,,,,,,,,,,,,,,,,,,,,,,338.8864,339.9235,"[7,4,5,8,3,6,1,2]","[[0.3,0.2],[-0.3,0.2]]","[[-0.125,-0.2],[0.125,-0.2]]",-0.102864583,-0.243489583,1,0,0,0.5232,o1_image,339.9252,1,340.4171,340.4172,342.423,0,0,0,0,1,,,,,,,,,,,,,,,,,,,,,,,,,,,,,,,,,,,,,,,,,,,,,,,,,,
,,612110456899ed64c754d95d,23,female,2024-04-19_18h37.22.395,stockport_simplified,2022.2.4,Win32,59.88023952,661e456ee6de07e70aa9ef7b,66229da43a378f03f883f03b,,,,,,,,,,,,,,,,,,,,,,,,,,,,,,,,,,,,,,,,,,,,,,,,,,,,,,,,0,49,49,30,1,A,X,N,o1_image,stimuli/out1.png,stimuli/correct_out1.png,stimuli/out2.png,,,,,,,,,,,,,,,,,,,,,,,,,,,,,,,,,,,,,,
,,612110456899ed64c754d95d,23,female,2024-04-19_18h37.22.395,stockport_simplified,2022.2.4,Win32,59.88023952,661e456ee6de07e70aa9ef7b,66229da43a378f03f883f03b,,,,,,,,,,,,,,,,,,,,,,,,,,,,,,,,,,342.4239,343.8532,"[7,4,5,8,3,6,1,2]","[[-0.3,0.2],[0.3,0.2]]","[[0.125,-0.2],[-0.125,-0.2]]",0.169270833,-0.28125,1,0,0,0.928,o1_image,343.856,1,344.3519,344.352,346.3527,0,0,0,0,1,,,,,,,,,,,,,,,,,,,,,,,,,,,,,,,,,,,,,,,,,,,,,,,,,,
,,612110456899ed64c754d95d,23,female,2024-04-19_18h37.22.395,stockport_simplified,2022.2.4,Win32,59.88023952,661e456ee6de07e70aa9ef7b,66229da43a378f03f883f03b,,,,,,,,,,,,,,,,,,,,,,,,,,,,,,,,,,,,,,,,,,,,,,,,,,,,,,,,0,50,50,52,1,N,M,C,o1_image,stimuli/out1.png,stimuli/correct_out1.png,stimuli/out2.png,,,,,,,,,,,,,,,,,,,,,,,,,,,,,,,,,,,,,,
,,612110456899ed64c754d95d,23,female,2024-04-19_18h37.22.395,stockport_simplified,2022.2.4,Win32,59.88023952,661e456ee6de07e70aa9ef7b,66229da43a378f03f883f03b,,,,,,,,,,,,,,,,,,,,,,,,,,,,,,,,,,346.3539,347.5103,"[7,4,5,8,3,6,1,2]","[[0.3,0.2],[-0.3,0.2]]","[[0.125,-0.2],[-0.125,-0.2]]",-0.1328125,-0.270833333,1,0,0,0.6492,o2_image,347.5122,0,348.0029,348.003,350.003,0,0,0,0,1,,,,,,,,,,,,,,,,,,,,,,,,,,,,,,,,,,,,,,,,,,,,,,,,,,
,,612110456899ed64c754d95d,23,female,2024-04-19_18h37.22.395,stockport_simplified,2022.2.4,Win32,59.88023952,661e456ee6de07e70aa9ef7b,66229da43a378f03f883f03b,,,,,,,,,,,,,,,,,,,,,,,,,,,,,,,,,,,,,,,,,,,,,,,,,,,,,,,,0,51,51,33,1,A,X,N,o1_image,stimuli/out1.png,stimuli/correct_out1.png,stimuli/out2.png,,,,,,,,,,,,,,,,,,,,,,,,,,,,,,,,,,,,,,
,,612110456899ed64c754d95d,23,female,2024-04-19_18h37.22.395,stockport_simplified,2022.2.4,Win32,59.88023952,661e456ee6de07e70aa9ef7b,66229da43a378f03f883f03b,,,,,,,,,,,,,,,,,,,,,,,,,,,,,,,,,,350.0043,351.3762,"[7,4,5,8,3,6,1,2]","[[0.3,0.2],[-0.3,0.2]]","[[0.125,-0.2],[-0.125,-0.2]]",0.127604167,-0.2421875,1,0,0,0.8568,o1_image,351.377,0,351.8729,351.8729,353.8799,0,0,0,0,1,,,,,,,,,,,,,,,,,,,,,,,,,,,,,,,,,,,,,,,,,,,,,,,,,,
,,612110456899ed64c754d95d,23,female,2024-04-19_18h37.22.395,stockport_simplified,2022.2.4,Win32,59.88023952,661e456ee6de07e70aa9ef7b,66229da43a378f03f883f03b,,,,,,,,,,,,,,,,,,,,,,,,,,,,,,,,,,,,,,,,,,,,,,,,,,,,,,,,0,52,52,58,1,N,M,D,o2_image,stimuli/out2.png,stimuli/out1.png,stimuli/correct_out2.png,,,,,,,,,,,,,,,,,,,,,,,,,,,,,,,,,,,,,,
,,612110456899ed64c754d95d,23,female,2024-04-19_18h37.22.395,stockport_simplified,2022.2.4,Win32,59.88023952,661e456ee6de07e70aa9ef7b,66229da43a378f03f883f03b,,,,,,,,,,,,,,,,,,,,,,,,,,,,,,,,,,353.8807,355.0243,"[7,4,5,8,3,6,1,2]","[[0.3,0.2],[-0.3,0.2]]","[[-0.125,-0.2],[0.125,-0.2]]",-0.161458333,-0.255208333,1,0,0,0.6336,o1_image,355.0266,1,355.5193,355.5194,357.5198,0,0,0,0,1,,,,,,,,,,,,,,,,,,,,,,,,,,,,,,,,,,,,,,,,,,,,,,,,,,
,,612110456899ed64c754d95d,23,female,2024-04-19_18h37.22.395,stockport_simplified,2022.2.4,Win32,59.88023952,661e456ee6de07e70aa9ef7b,66229da43a378f03f883f03b,,,,,,,,,,,,,,,,,,,,,,,,,,,,,,,,,,,,,,,,,,,,,,,,,,,,,,,,0,53,53,22,1,N,M,C,o1_image,stimuli/out1.png,stimuli/correct_out1.png,stimuli/out2.png,,,,,,,,,,,,,,,,,,,,,,,,,,,,,,,,,,,,,,
,,612110456899ed64c754d95d,23,female,2024-04-19_18h37.22.395,stockport_simplified,2022.2.4,Win32,59.88023952,661e456ee6de07e70aa9ef7b,66229da43a378f03f883f03b,,,,,,,,,,,,,,,,,,,,,,,,,,,,,,,,,,357.5204,358.6404,"[7,4,5,8,3,6,1,2]","[[-0.3,0.2],[0.3,0.2]]","[[-0.125,-0.2],[0.125,-0.2]]",-0.157552083,-0.255208333,1,0,0,0.604,o1_image,358.642,1,359.1527,359.1528,361.1346,0,0,0,0,1,,,,,,,,,,,,,,,,,,,,,,,,,,,,,,,,,,,,,,,,,,,,,,,,,,
,,612110456899ed64c754d95d,23,female,2024-04-19_18h37.22.395,stockport_simplified,2022.2.4,Win32,59.88023952,661e456ee6de07e70aa9ef7b,66229da43a378f03f883f03b,,,,,,,,,,,,,,,,,,,,,,,,,,,,,,,,,,,,,,,,,,,,,,,,,,,,,,,,0,54,54,2,1,A,X,N,o1_image,stimuli/out1.png,stimuli/correct_out1.png,stimuli/out2.png,,,,,,,,,,,,,,,,,,,,,,,,,,,,,,,,,,,,,,
,,612110456899ed64c754d95d,23,female,2024-04-19_18h37.22.395,stockport_simplified,2022.2.4,Win32,59.88023952,661e456ee6de07e70aa9ef7b,66229da43a378f03f883f03b,,,,,,,,,,,,,,,,,,,,,,,,,,,,,,,,,,361.1357,362.1259,"[7,4,5,8,3,6,1,2]","[[-0.3,0.2],[0.3,0.2]]","[[-0.125,-0.2],[0.125,-0.2]]",-0.157552083,-0.255208333,1,0,0,0.4744,o1_image,362.1272,0,362.6193,362.6193,364.6228,0,0,0,0,1,,,,,,,,,,,,,,,,,,,,,,,,,,,,,,,,,,,,,,,,,,,,,,,,,,
,,612110456899ed64c754d95d,23,female,2024-04-19_18h37.22.395,stockport_simplified,2022.2.4,Win32,59.88023952,661e456ee6de07e70aa9ef7b,66229da43a378f03f883f03b,,,,,,,,,,,,,,,,,,,,,,,,,,,,,,,,,,,,,,,,,,,,,,,,,,,,,,,,0,55,55,27,1,N,M,D,o2_image,stimuli/out2.png,stimuli/out1.png,stimuli/correct_out2.png,,,,,,,,,,,,,,,,,,,,,,,,,,,,,,,,,,,,,,
,,612110456899ed64c754d95d,23,female,2024-04-19_18h37.22.395,stockport_simplified,2022.2.4,Win32,59.88023952,661e456ee6de07e70aa9ef7b,66229da43a378f03f883f03b,,,,,,,,,,,,,,,,,,,,,,,,,,,,,,,,,,364.6236,366.0229,"[7,4,5,8,3,6,1,2]","[[-0.3,0.2],[0.3,0.2]]","[[-0.125,-0.2],[0.125,-0.2]]",0.104166667,-0.235677083,1,0,0,0.8878,o2_image,366.0243,0,366.5156,366.5157,368.5187,0,0,0,0,1,,,,,,,,,,,,,,,,,,,,,,,,,,,,,,,,,,,,,,,,,,,,,,,,,,
,,612110456899ed64c754d95d,23,female,2024-04-19_18h37.22.395,stockport_simplified,2022.2.4,Win32,59.88023952,661e456ee6de07e70aa9ef7b,66229da43a378f03f883f03b,,,,,,,,,,,,,,,,,,,,,,,,,,,,,,,,,,,,,,,,,,,,,,,,,,,,,,,,0,56,56,9,1,A,Y,N,o1_image,stimuli/out1.png,stimuli/correct_out1.png,stimuli/out2.png,,,,,,,,,,,,,,,,,,,,,,,,,,,,,,,,,,,,,,
,,612110456899ed64c754d95d,23,female,2024-04-19_18h37.22.395,stockport_simplified,2022.2.4,Win32,59.88023952,661e456ee6de07e70aa9ef7b,66229da43a378f03f883f03b,,,,,,,,,,,,,,,,,,,,,,,,,,,,,,,,,,368.5216,369.8246,"[7,4,5,8,3,6,1,2]","[[-0.3,0.2],[0.3,0.2]]","[[-0.125,-0.2],[0.125,-0.2]]",-0.161458333,-0.162760417,1,0,0,0.7984,o1_image,369.8256,0,370.3157,370.3158,372.3058,0,0,0,0,1,,,,,,,,,,,,,,,,,,,,,,,,,,,,,,,,,,,,,,,,,,,,,,,,,,
,,612110456899ed64c754d95d,23,female,2024-04-19_18h37.22.395,stockport_simplified,2022.2.4,Win32,59.88023952,661e456ee6de07e70aa9ef7b,66229da43a378f03f883f03b,,,,,,,,,,,,,,,,,,,,,,,,,,,,,,,,,,,,,,,,,,,,,,,,,,,,,,,,0,57,57,14,1,B,X,N,o2_image,stimuli/out2.png,stimuli/out1.png,stimuli/correct_out2.png,,,,,,,,,,,,,,,,,,,,,,,,,,,,,,,,,,,,,,
,,612110456899ed64c754d95d,23,female,2024-04-19_18h37.22.395,stockport_simplified,2022.2.4,Win32,59.88023952,661e456ee6de07e70aa9ef7b,66229da43a378f03f883f03b,,,,,,,,,,,,,,,,,,,,,,,,,,,,,,,,,,372.307,373.3474,"[7,4,5,8,3,6,1,2]","[[-0.3,0.2],[0.3,0.2]]","[[-0.125,-0.2],[0.125,-0.2]]",0.110677083,-0.188802083,1,0,0,0.53,o2_image,373.3483,0,373.851,373.851,375.8512,0,0,0,0,1,,,,,,,,,,,,,,,,,,,,,,,,,,,,,,,,,,,,,,,,,,,,,,,,,,
,,612110456899ed64c754d95d,23,female,2024-04-19_18h37.22.395,stockport_simplified,2022.2.4,Win32,59.88023952,661e456ee6de07e70aa9ef7b,66229da43a378f03f883f03b,,,,,,,,,,,,,,,,,,,,,,,,,,,,,,,,,,,,,,,,,,,,,,,,,,,,,,,,0,58,58,37,1,A,Y,N,o1_image,stimuli/out1.png,stimuli/correct_out1.png,stimuli/out2.png,,,,,,,,,,,,,,,,,,,,,,,,,,,,,,,,,,,,,,
,,612110456899ed64c754d95d,23,female,2024-04-19_18h37.22.395,stockport_simplified,2022.2.4,Win32,59.88023952,661e456ee6de07e70aa9ef7b,66229da43a378f03f883f03b,,,,,,,,,,,,,,,,,,,,,,,,,,,,,,,,,,375.8524,377.4559,"[7,4,5,8,3,6,1,2]","[[-0.3,0.2],[0.3,0.2]]","[[0.125,-0.2],[-0.125,-0.2]]",0.106770833,-0.190104167,1,0,0,1.0885,o1_image,377.4569,0,377.9554,377.9554,379.9559,0,0,0,0,1,,,,,,,,,,,,,,,,,,,,,,,,,,,,,,,,,,,,,,,,,,,,,,,,,,
,,612110456899ed64c754d95d,23,female,2024-04-19_18h37.22.395,stockport_simplified,2022.2.4,Win32,59.88023952,661e456ee6de07e70aa9ef7b,66229da43a378f03f883f03b,,,,,,,,,,,,,,,,,,,,,,,,,,,,,,,,,,,,,,,,,,,,,,,,,,,,,,,,0,59,59,10,1,B,X,N,o2_image,stimuli/out2.png,stimuli/out1.png,stimuli/correct_out2.png,,,,,,,,,,,,,,,,,,,,,,,,,,,,,,,,,,,,,,
,,612110456899ed64c754d95d,23,female,2024-04-19_18h37.22.395,stockport_simplified,2022.2.4,Win32,59.88023952,661e456ee6de07e70aa9ef7b,66229da43a378f03f883f03b,,,,,,,,,,,,,,,,,,,,,,,,,,,,,,,,,,379.9566,381.0583,"[7,4,5,8,3,6,1,2]","[[-0.3,0.2],[0.3,0.2]]","[[-0.125,-0.2],[0.125,-0.2]]",-0.135416667,-0.184895833,1,0,0,0.5909,o1_image,381.06,0,381.551,381.5511,383.5559,0,0,0,0,1,,,,,,,,,,,,,,,,,,,,,,,,,,,,,,,,,,,,,,,,,,,,,,,,,,
,,612110456899ed64c754d95d,23,female,2024-04-19_18h37.22.395,stockport_simplified,2022.2.4,Win32,59.88023952,661e456ee6de07e70aa9ef7b,66229da43a378f03f883f03b,,,,,,,,,,,,,,,,,,,,,,,,,,,,,,,,,,,,,,,,,,,,,,,,,,,,,,,,1,0,60,10,1,B,X,N,o2_image,stimuli/out2.png,stimuli/out1.png,stimuli/correct_out2.png,,,,,,,,,,,,,,,,,,,,,,,,,,,,,,,,,,,,,,
,,612110456899ed64c754d95d,23,female,2024-04-19_18h37.22.395,stockport_simplified,2022.2.4,Win32,59.88023952,661e456ee6de07e70aa9ef7b,66229da43a378f03f883f03b,,,,,,,,,,,,,,,,,,,,,,,,,,,,,,,,,,383.557,385.4241,"[7,4,5,8,3,6,1,2]","[[-0.3,0.2],[0.3,0.2]]","[[-0.125,-0.2],[0.125,-0.2]]",0.076822917,-0.1953125,1,0,0,1.3573,o2_image,385.4251,0,385.9173,385.9173,387.9145,0,0,0,0,1,,,,,,,,,,,,,,,,,,,,,,,,,,,,,,,,,,,,,,,,,,,,,,,,,,
,,612110456899ed64c754d95d,23,female,2024-04-19_18h37.22.395,stockport_simplified,2022.2.4,Win32,59.88023952,661e456ee6de07e70aa9ef7b,66229da43a378f03f883f03b,,,,,,,,,,,,,,,,,,,,,,,,,,,,,,,,,,,,,,,,,,,,,,,,,,,,,,,,1,1,61,34,1,A,X,N,o1_image,stimuli/out1.png,stimuli/correct_out1.png,stimuli/out2.png,,,,,,,,,,,,,,,,,,,,,,,,,,,,,,,,,,,,,,
,,612110456899ed64c754d95d,23,female,2024-04-19_18h37.22.395,stockport_simplified,2022.2.4,Win32,59.88023952,661e456ee6de07e70aa9ef7b,66229da43a378f03f883f03b,,,,,,,,,,,,,,,,,,,,,,,,,,,,,,,,,,387.915,389.0907,"[7,4,5,8,3,6,1,2]","[[-0.3,0.2],[0.3,0.2]]","[[0.125,-0.2],[-0.125,-0.2]]",0.115885417,-0.23046875,1,0,0,0.6736,o1_image,389.0921,0,389.5883,389.5884,391.5736,0,0,0,0,1,,,,,,,,,,,,,,,,,,,,,,,,,,,,,,,,,,,,,,,,,,,,,,,,,,
,,612110456899ed64c754d95d,23,female,2024-04-19_18h37.22.395,stockport_simplified,2022.2.4,Win32,59.88023952,661e456ee6de07e70aa9ef7b,66229da43a378f03f883f03b,,,,,,,,,,,,,,,,,,,,,,,,,,,,,,,,,,,,,,,,,,,,,,,,,,,,,,,,1,2,62,40,1,B,X,N,o2_image,stimuli/out2.png,stimuli/out1.png,stimuli/correct_out2.png,,,,,,,,,,,,,,,,,,,,,,,,,,,,,,,,,,,,,,
,,612110456899ed64c754d95d,23,female,2024-04-19_18h37.22.395,stockport_simplified,2022.2.4,Win32,59.88023952,661e456ee6de07e70aa9ef7b,66229da43a378f03f883f03b,,,,,,,,,,,,,,,,,,,,,,,,,,,,,,,,,,391.5748,392.972,"[7,4,5,8,3,6,1,2]","[[-0.3,0.2],[0.3,0.2]]","[[-0.125,-0.2],[0.125,-0.2]]",-0.119791667,-0.252604167,1,0,0,0.8887,o1_image,392.9739,0,393.4708,393.4708,395.4717,0,0,0,0,1,,,,,,,,,,,,,,,,,,,,,,,,,,,,,,,,,,,,,,,,,,,,,,,,,,
,,612110456899ed64c754d95d,23,female,2024-04-19_18h37.22.395,stockport_simplified,2022.2.4,Win32,59.88023952,661e456ee6de07e70aa9ef7b,66229da43a378f03f883f03b,,,,,,,,,,,,,,,,,,,,,,,,,,,,,,,,,,,,,,,,,,,,,,,,,,,,,,,,1,3,63,19,1,B,Y,N,o2_image,stimuli/out2.png,stimuli/out1.png,stimuli/correct_out2.png,,,,,,,,,,,,,,,,,,,,,,,,,,,,,,,,,,,,,,
,,612110456899ed64c754d95d,23,female,2024-04-19_18h37.22.395,stockport_simplified,2022.2.4,Win32,59.88023952,661e456ee6de07e70aa9ef7b,66229da43a378f03f883f03b,,,,,,,,,,,,,,,,,,,,,,,,,,,,,,,,,,395.4728,397.6146,"[7,4,5,8,3,6,1,2]","[[0.3,0.2],[-0.3,0.2]]","[[0.125,-0.2],[-0.125,-0.2]]",-0.13671875,-0.139322917,1,0,0,1.6161,o2_image,397.6162,1,398.1212,398.1212,400.1097,0,0,0,0,1,,,,,,,,,,,,,,,,,,,,,,,,,,,,,,,,,,,,,,,,,,,,,,,,,,
,,612110456899ed64c754d95d,23,female,2024-04-19_18h37.22.395,stockport_simplified,2022.2.4,Win32,59.88023952,661e456ee6de07e70aa9ef7b,66229da43a378f03f883f03b,,,,,,,,,,,,,,,,,,,,,,,,,,,,,,,,,,,,,,,,,,,,,,,,,,,,,,,,1,4,64,49,1,B,Y,N,o2_image,stimuli/out2.png,stimuli/out1.png,stimuli/correct_out2.png,,,,,,,,,,,,,,,,,,,,,,,,,,,,,,,,,,,,,,
,,612110456899ed64c754d95d,23,female,2024-04-19_18h37.22.395,stockport_simplified,2022.2.4,Win32,59.88023952,661e456ee6de07e70aa9ef7b,66229da43a378f03f883f03b,,,,,,,,,,,,,,,,,,,,,,,,,,,,,,,,,,400.1112,401.7845,"[7,4,5,8,3,6,1,2]","[[-0.3,0.2],[0.3,0.2]]","[[-0.125,-0.2],[0.125,-0.2]]",0.084635417,-0.235677083,1,0,0,1.1594,o2_image,401.7873,1,402.2836,402.2836,404.2728,0,0,0,0,1,,,,,,,,,,,,,,,,,,,,,,,,,,,,,,,,,,,,,,,,,,,,,,,,,,
,,612110456899ed64c754d95d,23,female,2024-04-19_18h37.22.395,stockport_simplified,2022.2.4,Win32,59.88023952,661e456ee6de07e70aa9ef7b,66229da43a378f03f883f03b,,,,,,,,,,,,,,,,,,,,,,,,,,,,,,,,,,,,,,,,,,,,,,,,,,,,,,,,1,5,65,41,1,B,X,N,o2_image,stimuli/out2.png,stimuli/out1.png,stimuli/correct_out2.png,,,,,,,,,,,,,,,,,,,,,,,,,,,,,,,,,,,,,,
,,612110456899ed64c754d95d,23,female,2024-04-19_18h37.22.395,stockport_simplified,2022.2.4,Win32,59.88023952,661e456ee6de07e70aa9ef7b,66229da43a378f03f883f03b,,,,,,,,,,,,,,,,,,,,,,,,,,,,,,,,,,404.2741,407.1997,"[7,4,5,8,3,6,1,2]","[[-0.3,0.2],[0.3,0.2]]","[[0.125,-0.2],[-0.125,-0.2]]",0.084635417,-0.235677083,1,0,0,2.4124,o1_image,407.2149,1,407.717,407.717,409.7156,0,0,0,0,1,,,,,,,,,,,,,,,,,,,,,,,,,,,,,,,,,,,,,,,,,,,,,,,,,,
,,612110456899ed64c754d95d,23,female,2024-04-19_18h37.22.395,stockport_simplified,2022.2.4,Win32,59.88023952,661e456ee6de07e70aa9ef7b,66229da43a378f03f883f03b,,,,,,,,,,,,,,,,,,,,,,,,,,,,,,,,,,,,,,,,,,,,,,,,,,,,,,,,1,6,66,38,1,A,Y,N,o1_image,stimuli/out1.png,stimuli/correct_out1.png,stimuli/out2.png,,,,,,,,,,,,,,,,,,,,,,,,,,,,,,,,,,,,,,
,,612110456899ed64c754d95d,23,female,2024-04-19_18h37.22.395,stockport_simplified,2022.2.4,Win32,59.88023952,661e456ee6de07e70aa9ef7b,66229da43a378f03f883f03b,,,,,,,,,,,,,,,,,,,,,,,,,,,,,,,,,,409.7167,411.0672,"[7,4,5,8,3,6,1,2]","[[-0.3,0.2],[0.3,0.2]]","[[-0.125,-0.2],[0.125,-0.2]]",0.06640625,-0.213541667,1,0,0,0.8422,o2_image,411.0705,0,411.5734,411.5736,413.5812,0,0,0,0,1,,,,,,,,,,,,,,,,,,,,,,,,,,,,,,,,,,,,,,,,,,,,,,,,,,
,,612110456899ed64c754d95d,23,female,2024-04-19_18h37.22.395,stockport_simplified,2022.2.4,Win32,59.88023952,661e456ee6de07e70aa9ef7b,66229da43a378f03f883f03b,,,,,,,,,,,,,,,,,,,,,,,,,,,,,,,,,,,,,,,,,,,,,,,,,,,,,,,,1,7,67,21,1,N,M,C,o1_image,stimuli/out1.png,stimuli/correct_out1.png,stimuli/out2.png,,,,,,,,,,,,,,,,,,,,,,,,,,,,,,,,,,,,,,
,,612110456899ed64c754d95d,23,female,2024-04-19_18h37.22.395,stockport_simplified,2022.2.4,Win32,59.88023952,661e456ee6de07e70aa9ef7b,66229da43a378f03f883f03b,,,,,,,,,,,,,,,,,,,,,,,,,,,,,,,,,,413.5824,414.8706,"[7,4,5,8,3,6,1,2]","[[0.3,0.2],[-0.3,0.2]]","[[-0.125,-0.2],[0.125,-0.2]]",-0.140625,-0.184895833,1,0,0,0.7698,o1_image,414.8721,0,415.3658,415.3658,417.3547,0,0,0,0,1,,,,,,,,,,,,,,,,,,,,,,,,,,,,,,,,,,,,,,,,,,,,,,,,,,
,,612110456899ed64c754d95d,23,female,2024-04-19_18h37.22.395,stockport_simplified,2022.2.4,Win32,59.88023952,661e456ee6de07e70aa9ef7b,66229da43a378f03f883f03b,,,,,,,,,,,,,,,,,,,,,,,,,,,,,,,,,,,,,,,,,,,,,,,,,,,,,,,,1,8,68,28,1,N,M,D,o2_image,stimuli/out2.png,stimuli/out1.png,stimuli/correct_out2.png,,,,,,,,,,,,,,,,,,,,,,,,,,,,,,,,,,,,,,
,,612110456899ed64c754d95d,23,female,2024-04-19_18h37.22.395,stockport_simplified,2022.2.4,Win32,59.88023952,661e456ee6de07e70aa9ef7b,66229da43a378f03f883f03b,,,,,,,,,,,,,,,,,,,,,,,,,,,,,,,,,,417.3559,418.6909,"[7,4,5,8,3,6,1,2]","[[-0.3,0.2],[0.3,0.2]]","[[-0.125,-0.2],[0.125,-0.2]]",0.143229167,-0.234375,1,0,0,0.8203,o2_image,418.6921,1,419.1861,419.1861,421.1822,0,0,0,0,1,,,,,,,,,,,,,,,,,,,,,,,,,,,,,,,,,,,,,,,,,,,,,,,,,,
,,612110456899ed64c754d95d,23,female,2024-04-19_18h37.22.395,stockport_simplified,2022.2.4,Win32,59.88023952,661e456ee6de07e70aa9ef7b,66229da43a378f03f883f03b,,,,,,,,,,,,,,,,,,,,,,,,,,,,,,,,,,,,,,,,,,,,,,,,,,,,,,,,1,9,69,29,1,N,M,D,o2_image,stimuli/out2.png,stimuli/out1.png,stimuli/correct_out2.png,,,,,,,,,,,,,,,,,,,,,,,,,,,,,,,,,,,,,,
,,612110456899ed64c754d95d,23,female,2024-04-19_18h37.22.395,stockport_simplified,2022.2.4,Win32,59.88023952,661e456ee6de07e70aa9ef7b,66229da43a378f03f883f03b,,,,,,,,,,,,,,,,,,,,,,,,,,,,,,,,,,421.1835,422.3319,"[7,4,5,8,3,6,1,2]","[[-0.3,0.2],[0.3,0.2]]","[[-0.125,-0.2],[0.125,-0.2]]",0.125,-0.21875,1,0,0,0.6321,o2_image,422.3331,1,422.8321,422.8321,424.8325,0,0,0,0,1,,,,,,,,,,,,,,,,,,,,,,,,,,,,,,,,,,,,,,,,,,,,,,,,,,
,,612110456899ed64c754d95d,23,female,2024-04-19_18h37.22.395,stockport_simplified,2022.2.4,Win32,59.88023952,661e456ee6de07e70aa9ef7b,66229da43a378f03f883f03b,,,,,,,,,,,,,,,,,,,,,,,,,,,,,,,,,,,,,,,,,,,,,,,,,,,,,,,,1,10,70,15,1,B,Y,N,o2_image,stimuli/out2.png,stimuli/out1.png,stimuli/correct_out2.png,,,,,,,,,,,,,,,,,,,,,,,,,,,,,,,,,,,,,,
,,612110456899ed64c754d95d,23,female,2024-04-19_18h37.22.395,stockport_simplified,2022.2.4,Win32,59.88023952,661e456ee6de07e70aa9ef7b,66229da43a378f03f883f03b,,,,,,,,,,,,,,,,,,,,,,,,,,,,,,,,,,424.8353,425.585,"[7,4,5,8,3,6,1,2]","[[0.3,0.2],[-0.3,0.2]]","[[-0.125,-0.2],[0.125,-0.2]]",0.053385417,-0.178385417,1,0,0,0.2364,o2_image,425.586,1,426.0827,426.0828,428.086,0,0,0,0,1,,,,,,,,,,,,,,,,,,,,,,,,,,,,,,,,,,,,,,,,,,,,,,,,,,
,,612110456899ed64c754d95d,23,female,2024-04-19_18h37.22.395,stockport_simplified,2022.2.4,Win32,59.88023952,661e456ee6de07e70aa9ef7b,66229da43a378f03f883f03b,,,,,,,,,,,,,,,,,,,,,,,,,,,,,,,,,,,,,,,,,,,,,,,,,,,,,,,,1,11,71,42,1,B,X,N,o2_image,stimuli/out2.png,stimuli/out1.png,stimuli/correct_out2.png,,,,,,,,,,,,,,,,,,,,,,,,,,,,,,,,,,,,,,
,,612110456899ed64c754d95d,23,female,2024-04-19_18h37.22.395,stockport_simplified,2022.2.4,Win32,59.88023952,661e456ee6de07e70aa9ef7b,66229da43a378f03f883f03b,,,,,,,,,,,,,,,,,,,,,,,,,,,,,,,,,,428.0873,429.2983,"[7,4,5,8,3,6,1,2]","[[-0.3,0.2],[0.3,0.2]]","[[-0.125,-0.2],[0.125,-0.2]]",0.053385417,-0.178385417,1,0,0,0.6996,o2_image,429.3014,1,429.7956,429.7956,431.7966,0,0,0,0,1,,,,,,,,,,,,,,,,,,,,,,,,,,,,,,,,,,,,,,,,,,,,,,,,,,
,,612110456899ed64c754d95d,23,female,2024-04-19_18h37.22.395,stockport_simplified,2022.2.4,Win32,59.88023952,661e456ee6de07e70aa9ef7b,66229da43a378f03f883f03b,,,,,,,,,,,,,,,,,,,,,,,,,,,,,,,,,,,,,,,,,,,,,,,,,,,,,,,,1,12,72,57,1,N,M,D,o2_image,stimuli/out2.png,stimuli/out1.png,stimuli/correct_out2.png,,,,,,,,,,,,,,,,,,,,,,,,,,,,,,,,,,,,,,
,,612110456899ed64c754d95d,23,female,2024-04-19_18h37.22.395,stockport_simplified,2022.2.4,Win32,59.88023952,661e456ee6de07e70aa9ef7b,66229da43a378f03f883f03b,,,,,,,,,,,,,,,,,,,,,,,,,,,,,,,,,,431.7978,432.7365,"[7,4,5,8,3,6,1,2]","[[0.3,0.2],[-0.3,0.2]]","[[-0.125,-0.2],[0.125,-0.2]]",0.053385417,-0.178385417,1,0,0,0.4214,o2_image,432.7381,1,433.2659,433.2659,435.2646,0,0,0,0,1,,,,,,,,,,,,,,,,,,,,,,,,,,,,,,,,,,,,,,,,,,,,,,,,,,
,,612110456899ed64c754d95d,23,female,2024-04-19_18h37.22.395,stockport_simplified,2022.2.4,Win32,59.88023952,661e456ee6de07e70aa9ef7b,66229da43a378f03f883f03b,,,,,,,,,,,,,,,,,,,,,,,,,,,,,,,,,,,,,,,,,,,,,,,,,,,,,,,,1,13,73,17,1,B,Y,N,o2_image,stimuli/out2.png,stimuli/out1.png,stimuli/correct_out2.png,,,,,,,,,,,,,,,,,,,,,,,,,,,,,,,,,,,,,,
,,612110456899ed64c754d95d,23,female,2024-04-19_18h37.22.395,stockport_simplified,2022.2.4,Win32,59.88023952,661e456ee6de07e70aa9ef7b,66229da43a378f03f883f03b,,,,,,,,,,,,,,,,,,,,,,,,,,,,,,,,,,435.2658,436.1681,"[7,4,5,8,3,6,1,2]","[[0.3,0.2],[-0.3,0.2]]","[[0.125,-0.2],[-0.125,-0.2]]",0.053385417,-0.178385417,1,0,0,0.3989,o1_image,436.169,0,436.6691,436.6691,438.6814,0,0,0,0,1,,,,,,,,,,,,,,,,,,,,,,,,,,,,,,,,,,,,,,,,,,,,,,,,,,
,,612110456899ed64c754d95d,23,female,2024-04-19_18h37.22.395,stockport_simplified,2022.2.4,Win32,59.88023952,661e456ee6de07e70aa9ef7b,66229da43a378f03f883f03b,,,,,,,,,,,,,,,,,,,,,,,,,,,,,,,,,,,,,,,,,,,,,,,,,,,,,,,,1,14,74,12,1,B,X,N,o2_image,stimuli/out2.png,stimuli/out1.png,stimuli/correct_out2.png,,,,,,,,,,,,,,,,,,,,,,,,,,,,,,,,,,,,,,
,,612110456899ed64c754d95d,23,female,2024-04-19_18h37.22.395,stockport_simplified,2022.2.4,Win32,59.88023952,661e456ee6de07e70aa9ef7b,66229da43a378f03f883f03b,,,,,,,,,,,,,,,,,,,,,,,,,,,,,,,,,,438.6844,439.6858,"[7,4,5,8,3,6,1,2]","[[-0.3,0.2],[0.3,0.2]]","[[-0.125,-0.2],[0.125,-0.2]]",0.1171875,-0.19921875,1,0,0,0.4967,o2_image,439.6877,1,440.1781,440.1782,442.1683,0,0,0,0,1,,,,,,,,,,,,,,,,,,,,,,,,,,,,,,,,,,,,,,,,,,,,,,,,,,
,,612110456899ed64c754d95d,23,female,2024-04-19_18h37.22.395,stockport_simplified,2022.2.4,Win32,59.88023952,661e456ee6de07e70aa9ef7b,66229da43a378f03f883f03b,,,,,,,,,,,,,,,,,,,,,,,,,,,,,,,,,,,,,,,,,,,,,,,,,,,,,,,,1,15,75,55,1,N,M,D,o2_image,stimuli/out2.png,stimuli/out1.png,stimuli/correct_out2.png,,,,,,,,,,,,,,,,,,,,,,,,,,,,,,,,,,,,,,
,,612110456899ed64c754d95d,23,female,2024-04-19_18h37.22.395,stockport_simplified,2022.2.4,Win32,59.88023952,661e456ee6de07e70aa9ef7b,66229da43a378f03f883f03b,,,,,,,,,,,,,,,,,,,,,,,,,,,,,,,,,,442.1695,443.4849,"[7,4,5,8,3,6,1,2]","[[-0.3,0.2],[0.3,0.2]]","[[0.125,-0.2],[-0.125,-0.2]]",0.1171875,-0.19921875,1,0,0,0.8072,o1_image,443.4865,1,443.9781,443.9781,445.9777,0,0,0,0,1,,,,,,,,,,,,,,,,,,,,,,,,,,,,,,,,,,,,,,,,,,,,,,,,,,
,,612110456899ed64c754d95d,23,female,2024-04-19_18h37.22.395,stockport_simplified,2022.2.4,Win32,59.88023952,661e456ee6de07e70aa9ef7b,66229da43a378f03f883f03b,,,,,,,,,,,,,,,,,,,,,,,,,,,,,,,,,,,,,,,,,,,,,,,,,,,,,,,,1,16,76,39,1,A,Y,N,o1_image,stimuli/out1.png,stimuli/correct_out1.png,stimuli/out2.png,,,,,,,,,,,,,,,,,,,,,,,,,,,,,,,,,,,,,,
,,612110456899ed64c754d95d,23,female,2024-04-19_18h37.22.395,stockport_simplified,2022.2.4,Win32,59.88023952,661e456ee6de07e70aa9ef7b,66229da43a378f03f883f03b,,,,,,,,,,,,,,,,,,,,,,,,,,,,,,,,,,445.9788,449.384,"[7,4,5,8,3,6,1,2]","[[-0.3,0.2],[0.3,0.2]]","[[0.125,-0.2],[-0.125,-0.2]]",0.1171875,-0.19921875,1,0,0,2.8905,o1_image,449.3852,1,449.878,449.8781,451.8837,0,0,0,0,1,,,,,,,,,,,,,,,,,,,,,,,,,,,,,,,,,,,,,,,,,,,,,,,,,,
,,612110456899ed64c754d95d,23,female,2024-04-19_18h37.22.395,stockport_simplified,2022.2.4,Win32,59.88023952,661e456ee6de07e70aa9ef7b,66229da43a378f03f883f03b,,,,,,,,,,,,,,,,,,,,,,,,,,,,,,,,,,,,,,,,,,,,,,,,,,,,,,,,1,17,77,53,1,N,M,C,o1_image,stimuli/out1.png,stimuli/correct_out1.png,stimuli/out2.png,,,,,,,,,,,,,,,,,,,,,,,,,,,,,,,,,,,,,,
,,612110456899ed64c754d95d,23,female,2024-04-19_18h37.22.395,stockport_simplified,2022.2.4,Win32,59.88023952,661e456ee6de07e70aa9ef7b,66229da43a378f03f883f03b,,,,,,,,,,,,,,,,,,,,,,,,,,,,,,,,,,451.8842,453.0517,"[7,4,5,8,3,6,1,2]","[[0.3,0.2],[-0.3,0.2]]","[[0.125,-0.2],[-0.125,-0.2]]",0.1171875,-0.19921875,1,0,0,0.6553,o1_image,453.0532,0,453.546,453.5461,455.5494,0,0,0,0,1,,,,,,,,,,,,,,,,,,,,,,,,,,,,,,,,,,,,,,,,,,,,,,,,,,
,,612110456899ed64c754d95d,23,female,2024-04-19_18h37.22.395,stockport_simplified,2022.2.4,Win32,59.88023952,661e456ee6de07e70aa9ef7b,66229da43a378f03f883f03b,,,,,,,,,,,,,,,,,,,,,,,,,,,,,,,,,,,,,,,,,,,,,,,,,,,,,,,,1,18,78,25,1,N,M,D,o2_image,stimuli/out2.png,stimuli/out1.png,stimuli/correct_out2.png,,,,,,,,,,,,,,,,,,,,,,,,,,,,,,,,,,,,,,
,,612110456899ed64c754d95d,23,female,2024-04-19_18h37.22.395,stockport_simplified,2022.2.4,Win32,59.88023952,661e456ee6de07e70aa9ef7b,66229da43a378f03f883f03b,,,,,,,,,,,,,,,,,,,,,,,,,,,,,,,,,,455.5503,457.0581,"[7,4,5,8,3,6,1,2]","[[0.3,0.2],[-0.3,0.2]]","[[0.125,-0.2],[-0.125,-0.2]]",0.1171875,-0.19921875,1,0,0,0.9945,o1_image,457.0591,1,457.5365,457.5365,459.5341,0,0,0,0,1,,,,,,,,,,,,,,,,,,,,,,,,,,,,,,,,,,,,,,,,,,,,,,,,,,
,,612110456899ed64c754d95d,23,female,2024-04-19_18h37.22.395,stockport_simplified,2022.2.4,Win32,59.88023952,661e456ee6de07e70aa9ef7b,66229da43a378f03f883f03b,,,,,,,,,,,,,,,,,,,,,,,,,,,,,,,,,,,,,,,,,,,,,,,,,,,,,,,,1,19,79,6,1,A,Y,N,o1_image,stimuli/out1.png,stimuli/correct_out1.png,stimuli/out2.png,,,,,,,,,,,,,,,,,,,,,,,,,,,,,,,,,,,,,,
,,612110456899ed64c754d95d,23,female,2024-04-19_18h37.22.395,stockport_simplified,2022.2.4,Win32,59.88023952,661e456ee6de07e70aa9ef7b,66229da43a378f03f883f03b,,,,,,,,,,,,,,,,,,,,,,,,,,,,,,,,,,459.5348,460.7537,"[7,4,5,8,3,6,1,2]","[[-0.3,0.2],[0.3,0.2]]","[[0.125,-0.2],[-0.125,-0.2]]",0.135416667,-0.1953125,1,0,0,0.7064,o1_image,460.755,0,461.2342,461.2343,463.2299,0,0,0,0,1,,,,,,,,,,,,,,,,,,,,,,,,,,,,,,,,,,,,,,,,,,,,,,,,,,
,,612110456899ed64c754d95d,23,female,2024-04-19_18h37.22.395,stockport_simplified,2022.2.4,Win32,59.88023952,661e456ee6de07e70aa9ef7b,66229da43a378f03f883f03b,,,,,,,,,,,,,,,,,,,,,,,,,,,,,,,,,,,,,,,,,,,,,,,,,,,,,,,,1,20,80,18,1,B,Y,N,o2_image,stimuli/out2.png,stimuli/out1.png,stimuli/correct_out2.png,,,,,,,,,,,,,,,,,,,,,,,,,,,,,,,,,,,,,,
,,612110456899ed64c754d95d,23,female,2024-04-19_18h37.22.395,stockport_simplified,2022.2.4,Win32,59.88023952,661e456ee6de07e70aa9ef7b,66229da43a378f03f883f03b,,,,,,,,,,,,,,,,,,,,,,,,,,,,,,,,,,463.231,464.4969,"[7,4,5,8,3,6,1,2]","[[-0.3,0.2],[0.3,0.2]]","[[-0.125,-0.2],[0.125,-0.2]]",0.154947917,-0.178385417,1,0,0,0.7585,o2_image,464.4997,1,464.9995,464.9995,466.9942,0,0,0,0,1,,,,,,,,,,,,,,,,,,,,,,,,,,,,,,,,,,,,,,,,,,,,,,,,,,
,,612110456899ed64c754d95d,23,female,2024-04-19_18h37.22.395,stockport_simplified,2022.2.4,Win32,59.88023952,661e456ee6de07e70aa9ef7b,66229da43a378f03f883f03b,,,,,,,,,,,,,,,,,,,,,,,,,,,,,,,,,,,,,,,,,,,,,,,,,,,,,,,,1,21,81,56,1,N,M,D,o2_image,stimuli/out2.png,stimuli/out1.png,stimuli/correct_out2.png,,,,,,,,,,,,,,,,,,,,,,,,,,,,,,,,,,,,,,
,,612110456899ed64c754d95d,23,female,2024-04-19_18h37.22.395,stockport_simplified,2022.2.4,Win32,59.88023952,661e456ee6de07e70aa9ef7b,66229da43a378f03f883f03b,,,,,,,,,,,,,,,,,,,,,,,,,,,,,,,,,,466.9955,468.463,"[7,4,5,8,3,6,1,2]","[[0.3,0.2],[-0.3,0.2]]","[[-0.125,-0.2],[0.125,-0.2]]",0.154947917,-0.178385417,1,0,0,0.9531,o2_image,468.4657,0,468.9624,468.9625,470.9501,0,0,0,0,1,,,,,,,,,,,,,,,,,,,,,,,,,,,,,,,,,,,,,,,,,,,,,,,,,,
,,612110456899ed64c754d95d,23,female,2024-04-19_18h37.22.395,stockport_simplified,2022.2.4,Win32,59.88023952,661e456ee6de07e70aa9ef7b,66229da43a378f03f883f03b,,,,,,,,,,,,,,,,,,,,,,,,,,,,,,,,,,,,,,,,,,,,,,,,,,,,,,,,1,22,82,5,1,A,Y,N,o1_image,stimuli/out1.png,stimuli/correct_out1.png,stimuli/out2.png,,,,,,,,,,,,,,,,,,,,,,,,,,,,,,,,,,,,,,
,,612110456899ed64c754d95d,23,female,2024-04-19_18h37.22.395,stockport_simplified,2022.2.4,Win32,59.88023952,661e456ee6de07e70aa9ef7b,66229da43a378f03f883f03b,,,,,,,,,,,,,,,,,,,,,,,,,,,,,,,,,,470.9514,471.8946,"[7,4,5,8,3,6,1,2]","[[-0.3,0.2],[0.3,0.2]]","[[-0.125,-0.2],[0.125,-0.2]]",-0.084635417,-0.227864583,1,0,0,0.4356,o1_image,471.8956,1,472.3955,472.3956,474.3867,0,0,0,0,1,,,,,,,,,,,,,,,,,,,,,,,,,,,,,,,,,,,,,,,,,,,,,,,,,,
,,612110456899ed64c754d95d,23,female,2024-04-19_18h37.22.395,stockport_simplified,2022.2.4,Win32,59.88023952,661e456ee6de07e70aa9ef7b,66229da43a378f03f883f03b,,,,,,,,,,,,,,,,,,,,,,,,,,,,,,,,,,,,,,,,,,,,,,,,,,,,,,,,1,23,83,8,1,A,Y,N,o1_image,stimuli/out1.png,stimuli/correct_out1.png,stimuli/out2.png,,,,,,,,,,,,,,,,,,,,,,,,,,,,,,,,,,,,,,
,,612110456899ed64c754d95d,23,female,2024-04-19_18h37.22.395,stockport_simplified,2022.2.4,Win32,59.88023952,661e456ee6de07e70aa9ef7b,66229da43a378f03f883f03b,,,,,,,,,,,,,,,,,,,,,,,,,,,,,,,,,,474.3879,475.2166,"[7,4,5,8,3,6,1,2]","[[0.3,0.2],[-0.3,0.2]]","[[0.125,-0.2],[-0.125,-0.2]]",-0.084635417,-0.227864583,1,0,0,0.3242,o2_image,475.218,0,475.7185,475.7185,477.7114,0,0,0,0,1,,,,,,,,,,,,,,,,,,,,,,,,,,,,,,,,,,,,,,,,,,,,,,,,,,
,,612110456899ed64c754d95d,23,female,2024-04-19_18h37.22.395,stockport_simplified,2022.2.4,Win32,59.88023952,661e456ee6de07e70aa9ef7b,66229da43a378f03f883f03b,,,,,,,,,,,,,,,,,,,,,,,,,,,,,,,,,,,,,,,,,,,,,,,,,,,,,,,,1,24,84,4,1,A,X,N,o1_image,stimuli/out1.png,stimuli/correct_out1.png,stimuli/out2.png,,,,,,,,,,,,,,,,,,,,,,,,,,,,,,,,,,,,,,
,,612110456899ed64c754d95d,23,female,2024-04-19_18h37.22.395,stockport_simplified,2022.2.4,Win32,59.88023952,661e456ee6de07e70aa9ef7b,66229da43a378f03f883f03b,,,,,,,,,,,,,,,,,,,,,,,,,,,,,,,,,,477.7124,478.8672,"[7,4,5,8,3,6,1,2]","[[0.3,0.2],[-0.3,0.2]]","[[0.125,-0.2],[-0.125,-0.2]]",0.138020833,-0.2109375,1,0,0,0.6512,o1_image,478.8685,0,479.3593,479.3595,481.3485,0,0,0,0,1,,,,,,,,,,,,,,,,,,,,,,,,,,,,,,,,,,,,,,,,,,,,,,,,,,
,,612110456899ed64c754d95d,23,female,2024-04-19_18h37.22.395,stockport_simplified,2022.2.4,Win32,59.88023952,661e456ee6de07e70aa9ef7b,66229da43a378f03f883f03b,,,,,,,,,,,,,,,,,,,,,,,,,,,,,,,,,,,,,,,,,,,,,,,,,,,,,,,,1,25,85,47,1,B,Y,N,o2_image,stimuli/out2.png,stimuli/out1.png,stimuli/correct_out2.png,,,,,,,,,,,,,,,,,,,,,,,,,,,,,,,,,,,,,,
,,612110456899ed64c754d95d,23,female,2024-04-19_18h37.22.395,stockport_simplified,2022.2.4,Win32,59.88023952,661e456ee6de07e70aa9ef7b,66229da43a378f03f883f03b,,,,,,,,,,,,,,,,,,,,,,,,,,,,,,,,,,481.3496,482.1342,"[7,4,5,8,3,6,1,2]","[[0.3,0.2],[-0.3,0.2]]","[[-0.125,-0.2],[0.125,-0.2]]",0.141927083,-0.200520833,1,0,0,0.2751,o2_image,482.1355,0,482.6272,482.6273,484.624,0,0,0,0,1,,,,,,,,,,,,,,,,,,,,,,,,,,,,,,,,,,,,,,,,,,,,,,,,,,
,,612110456899ed64c754d95d,23,female,2024-04-19_18h37.22.395,stockport_simplified,2022.2.4,Win32,59.88023952,661e456ee6de07e70aa9ef7b,66229da43a378f03f883f03b,,,,,,,,,,,,,,,,,,,,,,,,,,,,,,,,,,,,,,,,,,,,,,,,,,,,,,,,1,26,86,37,1,A,Y,N,o1_image,stimuli/out1.png,stimuli/correct_out1.png,stimuli/out2.png,,,,,,,,,,,,,,,,,,,,,,,,,,,,,,,,,,,,,,
,,612110456899ed64c754d95d,23,female,2024-04-19_18h37.22.395,stockport_simplified,2022.2.4,Win32,59.88023952,661e456ee6de07e70aa9ef7b,66229da43a378f03f883f03b,,,,,,,,,,,,,,,,,,,,,,,,,,,,,,,,,,484.6246,485.5703,"[7,4,5,8,3,6,1,2]","[[0.3,0.2],[-0.3,0.2]]","[[0.125,-0.2],[-0.125,-0.2]]",0.141927083,-0.200520833,1,0,0,0.442,o1_image,485.5715,1,486.0715,486.0715,488.0675,0,0,0,0,1,,,,,,,,,,,,,,,,,,,,,,,,,,,,,,,,,,,,,,,,,,,,,,,,,,
,,612110456899ed64c754d95d,23,female,2024-04-19_18h37.22.395,stockport_simplified,2022.2.4,Win32,59.88023952,661e456ee6de07e70aa9ef7b,66229da43a378f03f883f03b,,,,,,,,,,,,,,,,,,,,,,,,,,,,,,,,,,,,,,,,,,,,,,,,,,,,,,,,1,27,87,2,1,A,X,N,o1_image,stimuli/out1.png,stimuli/correct_out1.png,stimuli/out2.png,,,,,,,,,,,,,,,,,,,,,,,,,,,,,,,,,,,,,,
,,612110456899ed64c754d95d,23,female,2024-04-19_18h37.22.395,stockport_simplified,2022.2.4,Win32,59.88023952,661e456ee6de07e70aa9ef7b,66229da43a378f03f883f03b,,,,,,,,,,,,,,,,,,,,,,,,,,,,,,,,,,488.0686,489.0807,"[7,4,5,8,3,6,1,2]","[[-0.3,0.2],[0.3,0.2]]","[[-0.125,-0.2],[0.125,-0.2]]",0.12109375,-0.203125,1,0,0,0.5005,o2_image,489.0828,0,489.5787,489.5787,491.5844,0,0,0,0,1,,,,,,,,,,,,,,,,,,,,,,,,,,,,,,,,,,,,,,,,,,,,,,,,,,
,,612110456899ed64c754d95d,23,female,2024-04-19_18h37.22.395,stockport_simplified,2022.2.4,Win32,59.88023952,661e456ee6de07e70aa9ef7b,66229da43a378f03f883f03b,,,,,,,,,,,,,,,,,,,,,,,,,,,,,,,,,,,,,,,,,,,,,,,,,,,,,,,,1,28,88,54,1,N,M,C,o1_image,stimuli/out1.png,stimuli/correct_out1.png,stimuli/out2.png,,,,,,,,,,,,,,,,,,,,,,,,,,,,,,,,,,,,,,
,,612110456899ed64c754d95d,23,female,2024-04-19_18h37.22.395,stockport_simplified,2022.2.4,Win32,59.88023952,661e456ee6de07e70aa9ef7b,66229da43a378f03f883f03b,,,,,,,,,,,,,,,,,,,,,,,,,,,,,,,,,,491.5857,492.3761,"[7,4,5,8,3,6,1,2]","[[0.3,0.2],[-0.3,0.2]]","[[-0.125,-0.2],[0.125,-0.2]]",-0.098958333,-0.27734375,1,0,0,0.282,o1_image,492.3772,0,492.879,492.8791,494.8904,0,0,0,0,1,,,,,,,,,,,,,,,,,,,,,,,,,,,,,,,,,,,,,,,,,,,,,,,,,,
,,612110456899ed64c754d95d,23,female,2024-04-19_18h37.22.395,stockport_simplified,2022.2.4,Win32,59.88023952,661e456ee6de07e70aa9ef7b,66229da43a378f03f883f03b,,,,,,,,,,,,,,,,,,,,,,,,,,,,,,,,,,,,,,,,,,,,,,,,,,,,,,,,1,29,89,14,1,B,X,N,o2_image,stimuli/out2.png,stimuli/out1.png,stimuli/correct_out2.png,,,,,,,,,,,,,,,,,,,,,,,,,,,,,,,,,,,,,,
,,612110456899ed64c754d95d,23,female,2024-04-19_18h37.22.395,stockport_simplified,2022.2.4,Win32,59.88023952,661e456ee6de07e70aa9ef7b,66229da43a378f03f883f03b,,,,,,,,,,,,,,,,,,,,,,,,,,,,,,,,,,494.8915,496.1201,"[7,4,5,8,3,6,1,2]","[[0.3,0.2],[-0.3,0.2]]","[[0.125,-0.2],[-0.125,-0.2]]",0.100260417,-0.162760417,1,0,0,0.7267,o1_image,496.1215,1,496.6151,496.6152,498.6106,0,0,0,0,1,,,,,,,,,,,,,,,,,,,,,,,,,,,,,,,,,,,,,,,,,,,,,,,,,,
,,612110456899ed64c754d95d,23,female,2024-04-19_18h37.22.395,stockport_simplified,2022.2.4,Win32,59.88023952,661e456ee6de07e70aa9ef7b,66229da43a378f03f883f03b,,,,,,,,,,,,,,,,,,,,,,,,,,,,,,,,,,,,,,,,,,,,,,,,,,,,,,,,1,30,90,52,1,N,M,C,o1_image,stimuli/out1.png,stimuli/correct_out1.png,stimuli/out2.png,,,,,,,,,,,,,,,,,,,,,,,,,,,,,,,,,,,,,,
,,612110456899ed64c754d95d,23,female,2024-04-19_18h37.22.395,stockport_simplified,2022.2.4,Win32,59.88023952,661e456ee6de07e70aa9ef7b,66229da43a378f03f883f03b,,,,,,,,,,,,,,,,,,,,,,,,,,,,,,,,,,498.6116,500.0765,"[7,4,5,8,3,6,1,2]","[[0.3,0.2],[-0.3,0.2]]","[[0.125,-0.2],[-0.125,-0.2]]",0.100260417,-0.1640625,1,0,0,0.9505,o1_image,500.0778,0,500.5663,500.5663,502.5617,0,0,0,0,1,,,,,,,,,,,,,,,,,,,,,,,,,,,,,,,,,,,,,,,,,,,,,,,,,,
,,612110456899ed64c754d95d,23,female,2024-04-19_18h37.22.395,stockport_simplified,2022.2.4,Win32,59.88023952,661e456ee6de07e70aa9ef7b,66229da43a378f03f883f03b,,,,,,,,,,,,,,,,,,,,,,,,,,,,,,,,,,,,,,,,,,,,,,,,,,,,,,,,1,31,91,58,1,N,M,D,o2_image,stimuli/out2.png,stimuli/out1.png,stimuli/correct_out2.png,,,,,,,,,,,,,,,,,,,,,,,,,,,,,,,,,,,,,,
,,612110456899ed64c754d95d,23,female,2024-04-19_18h37.22.395,stockport_simplified,2022.2.4,Win32,59.88023952,661e456ee6de07e70aa9ef7b,66229da43a378f03f883f03b,,,,,,,,,,,,,,,,,,,,,,,,,,,,,,,,,,502.5644,503.3504,"[7,4,5,8,3,6,1,2]","[[0.3,0.2],[-0.3,0.2]]","[[0.125,-0.2],[-0.125,-0.2]]",0.122395833,-0.17578125,1,0,0,0.2691,o1_image,503.3512,0,503.8426,503.8426,505.845,0,0,0,0,1,,,,,,,,,,,,,,,,,,,,,,,,,,,,,,,,,,,,,,,,,,,,,,,,,,
,,612110456899ed64c754d95d,23,female,2024-04-19_18h37.22.395,stockport_simplified,2022.2.4,Win32,59.88023952,661e456ee6de07e70aa9ef7b,66229da43a378f03f883f03b,,,,,,,,,,,,,,,,,,,,,,,,,,,,,,,,,,,,,,,,,,,,,,,,,,,,,,,,1,32,92,44,1,B,X,N,o2_image,stimuli/out2.png,stimuli/out1.png,stimuli/correct_out2.png,,,,,,,,,,,,,,,,,,,,,,,,,,,,,,,,,,,,,,
,,612110456899ed64c754d95d,23,female,2024-04-19_18h37.22.395,stockport_simplified,2022.2.4,Win32,59.88023952,661e456ee6de07e70aa9ef7b,66229da43a378f03f883f03b,,,,,,,,,,,,,,,,,,,,,,,,,,,,,,,,,,505.8475,506.6136,"[7,4,5,8,3,6,1,2]","[[-0.3,0.2],[0.3,0.2]]","[[0.125,-0.2],[-0.125,-0.2]]",-0.087239583,-0.180989583,1,0,0,0.2538,o2_image,506.6153,1,507.1143,507.1144,509.1108,0,0,0,0,1,,,,,,,,,,,,,,,,,,,,,,,,,,,,,,,,,,,,,,,,,,,,,,,,,,
,,612110456899ed64c754d95d,23,female,2024-04-19_18h37.22.395,stockport_simplified,2022.2.4,Win32,59.88023952,661e456ee6de07e70aa9ef7b,66229da43a378f03f883f03b,,,,,,,,,,,,,,,,,,,,,,,,,,,,,,,,,,,,,,,,,,,,,,,,,,,,,,,,1,33,93,46,1,B,Y,N,o2_image,stimuli/out2.png,stimuli/out1.png,stimuli/correct_out2.png,,,,,,,,,,,,,,,,,,,,,,,,,,,,,,,,,,,,,,
,,612110456899ed64c754d95d,23,female,2024-04-19_18h37.22.395,stockport_simplified,2022.2.4,Win32,59.88023952,661e456ee6de07e70aa9ef7b,66229da43a378f03f883f03b,,,,,,,,,,,,,,,,,,,,,,,,,,,,,,,,,,509.1135,512.2992,"[7,4,5,8,3,6,1,2]","[[-0.3,0.2],[0.3,0.2]]","[[-0.125,-0.2],[0.125,-0.2]]",0.147135417,-0.2109375,1,0,0,2.672,o2_image,512.3,0,512.791,512.7912,514.7936,0,0,0,0,1,,,,,,,,,,,,,,,,,,,,,,,,,,,,,,,,,,,,,,,,,,,,,,,,,,
,,612110456899ed64c754d95d,23,female,2024-04-19_18h37.22.395,stockport_simplified,2022.2.4,Win32,59.88023952,661e456ee6de07e70aa9ef7b,66229da43a378f03f883f03b,,,,,,,,,,,,,,,,,,,,,,,,,,,,,,,,,,,,,,,,,,,,,,,,,,,,,,,,1,34,94,20,1,N,M,C,o1_image,stimuli/out1.png,stimuli/correct_out1.png,stimuli/out2.png,,,,,,,,,,,,,,,,,,,,,,,,,,,,,,,,,,,,,,
,,612110456899ed64c754d95d,23,female,2024-04-19_18h37.22.395,stockport_simplified,2022.2.4,Win32,59.88023952,661e456ee6de07e70aa9ef7b,66229da43a378f03f883f03b,,,,,,,,,,,,,,,,,,,,,,,,,,,,,,,,,,514.7971,515.8005,"[7,4,5,8,3,6,1,2]","[[0.3,0.2],[-0.3,0.2]]","[[-0.125,-0.2],[0.125,-0.2]]",0.147135417,-0.2109375,1,0,0,0.4938,o2_image,515.8013,1,516.2915,516.2915,518.2914,0,0,0,0,1,,,,,,,,,,,,,,,,,,,,,,,,,,,,,,,,,,,,,,,,,,,,,,,,,,
,,612110456899ed64c754d95d,23,female,2024-04-19_18h37.22.395,stockport_simplified,2022.2.4,Win32,59.88023952,661e456ee6de07e70aa9ef7b,66229da43a378f03f883f03b,,,,,,,,,,,,,,,,,,,,,,,,,,,,,,,,,,,,,,,,,,,,,,,,,,,,,,,,1,35,95,48,1,B,Y,N,o2_image,stimuli/out2.png,stimuli/out1.png,stimuli/correct_out2.png,,,,,,,,,,,,,,,,,,,,,,,,,,,,,,,,,,,,,,
,,612110456899ed64c754d95d,23,female,2024-04-19_18h37.22.395,stockport_simplified,2022.2.4,Win32,59.88023952,661e456ee6de07e70aa9ef7b,66229da43a378f03f883f03b,,,,,,,,,,,,,,,,,,,,,,,,,,,,,,,,,,518.2926,519.4323,"[7,4,5,8,3,6,1,2]","[[0.3,0.2],[-0.3,0.2]]","[[0.125,-0.2],[-0.125,-0.2]]",0.118489583,-0.21875,1,0,0,0.6292,o1_image,519.4332,1,519.929,519.9291,521.9306,0,0,0,0,1,,,,,,,,,,,,,,,,,,,,,,,,,,,,,,,,,,,,,,,,,,,,,,,,,,
,,612110456899ed64c754d95d,23,female,2024-04-19_18h37.22.395,stockport_simplified,2022.2.4,Win32,59.88023952,661e456ee6de07e70aa9ef7b,66229da43a378f03f883f03b,,,,,,,,,,,,,,,,,,,,,,,,,,,,,,,,,,,,,,,,,,,,,,,,,,,,,,,,1,36,96,30,1,A,X,N,o1_image,stimuli/out1.png,stimuli/correct_out1.png,stimuli/out2.png,,,,,,,,,,,,,,,,,,,,,,,,,,,,,,,,,,,,,,
,,612110456899ed64c754d95d,23,female,2024-04-19_18h37.22.395,stockport_simplified,2022.2.4,Win32,59.88023952,661e456ee6de07e70aa9ef7b,66229da43a378f03f883f03b,,,,,,,,,,,,,,,,,,,,,,,,,,,,,,,,,,521.932,524.2144,"[7,4,5,8,3,6,1,2]","[[-0.3,0.2],[0.3,0.2]]","[[0.125,-0.2],[-0.125,-0.2]]",-0.151041667,-0.231770833,1,0,0,1.7709,o2_image,524.216,0,524.7091,524.7091,526.7084,0,0,0,0,1,,,,,,,,,,,,,,,,,,,,,,,,,,,,,,,,,,,,,,,,,,,,,,,,,,
,,612110456899ed64c754d95d,23,female,2024-04-19_18h37.22.395,stockport_simplified,2022.2.4,Win32,59.88023952,661e456ee6de07e70aa9ef7b,66229da43a378f03f883f03b,,,,,,,,,,,,,,,,,,,,,,,,,,,,,,,,,,,,,,,,,,,,,,,,,,,,,,,,1,37,97,35,1,A,Y,N,o1_image,stimuli/out1.png,stimuli/correct_out1.png,stimuli/out2.png,,,,,,,,,,,,,,,,,,,,,,,,,,,,,,,,,,,,,,
,,612110456899ed64c754d95d,23,female,2024-04-19_18h37.22.395,stockport_simplified,2022.2.4,Win32,59.88023952,661e456ee6de07e70aa9ef7b,66229da43a378f03f883f03b,,,,,,,,,,,,,,,,,,,,,,,,,,,,,,,,,,526.7095,527.6239,"[7,4,5,8,3,6,1,2]","[[-0.3,0.2],[0.3,0.2]]","[[-0.125,-0.2],[0.125,-0.2]]",0.135416667,-0.209635417,1,0,0,0.3979,o2_image,527.6256,0,528.1234,528.1234,530.1126,0,0,0,0,1,,,,,,,,,,,,,,,,,,,,,,,,,,,,,,,,,,,,,,,,,,,,,,,,,,
,,612110456899ed64c754d95d,23,female,2024-04-19_18h37.22.395,stockport_simplified,2022.2.4,Win32,59.88023952,661e456ee6de07e70aa9ef7b,66229da43a378f03f883f03b,,,,,,,,,,,,,,,,,,,,,,,,,,,,,,,,,,,,,,,,,,,,,,,,,,,,,,,,1,38,98,33,1,A,X,N,o1_image,stimuli/out1.png,stimuli/correct_out1.png,stimuli/out2.png,,,,,,,,,,,,,,,,,,,,,,,,,,,,,,,,,,,,,,
,,612110456899ed64c754d95d,23,female,2024-04-19_18h37.22.395,stockport_simplified,2022.2.4,Win32,59.88023952,661e456ee6de07e70aa9ef7b,66229da43a378f03f883f03b,,,,,,,,,,,,,,,,,,,,,,,,,,,,,,,,,,530.1137,530.9622,"[7,4,5,8,3,6,1,2]","[[-0.3,0.2],[0.3,0.2]]","[[-0.125,-0.2],[0.125,-0.2]]",0.063802083,-0.201822917,1,0,0,0.3384,o2_image,530.9652,0,531.4633,531.4633,533.4566,0,0,0,0,1,,,,,,,,,,,,,,,,,,,,,,,,,,,,,,,,,,,,,,,,,,,,,,,,,,
,,612110456899ed64c754d95d,23,female,2024-04-19_18h37.22.395,stockport_simplified,2022.2.4,Win32,59.88023952,661e456ee6de07e70aa9ef7b,66229da43a378f03f883f03b,,,,,,,,,,,,,,,,,,,,,,,,,,,,,,,,,,,,,,,,,,,,,,,,,,,,,,,,1,39,99,36,1,A,Y,N,o1_image,stimuli/out1.png,stimuli/correct_out1.png,stimuli/out2.png,,,,,,,,,,,,,,,,,,,,,,,,,,,,,,,,,,,,,,
,,612110456899ed64c754d95d,23,female,2024-04-19_18h37.22.395,stockport_simplified,2022.2.4,Win32,59.88023952,661e456ee6de07e70aa9ef7b,66229da43a378f03f883f03b,,,,,,,,,,,,,,,,,,,,,,,,,,,,,,,,,,533.4577,534.2495,"[7,4,5,8,3,6,1,2]","[[-0.3,0.2],[0.3,0.2]]","[[0.125,-0.2],[-0.125,-0.2]]",0.063802083,-0.201822917,1,0,0,0.2769,o1_image,534.2504,1,534.7457,534.7457,536.7464,0,0,0,0,1,,,,,,,,,,,,,,,,,,,,,,,,,,,,,,,,,,,,,,,,,,,,,,,,,,
,,612110456899ed64c754d95d,23,female,2024-04-19_18h37.22.395,stockport_simplified,2022.2.4,Win32,59.88023952,661e456ee6de07e70aa9ef7b,66229da43a378f03f883f03b,,,,,,,,,,,,,,,,,,,,,,,,,,,,,,,,,,,,,,,,,,,,,,,,,,,,,,,,1,40,100,51,1,N,M,C,o1_image,stimuli/out1.png,stimuli/correct_out1.png,stimuli/out2.png,,,,,,,,,,,,,,,,,,,,,,,,,,,,,,,,,,,,,,
,,612110456899ed64c754d95d,23,female,2024-04-19_18h37.22.395,stockport_simplified,2022.2.4,Win32,59.88023952,661e456ee6de07e70aa9ef7b,66229da43a378f03f883f03b,,,,,,,,,,,,,,,,,,,,,,,,,,,,,,,,,,536.7469,537.7345,"[7,4,5,8,3,6,1,2]","[[-0.3,0.2],[0.3,0.2]]","[[-0.125,-0.2],[0.125,-0.2]]",0.063802083,-0.201822917,1,0,0,0.4867,o2_image,537.7362,0,538.2412,538.2413,540.2347,0,0,0,0,1,,,,,,,,,,,,,,,,,,,,,,,,,,,,,,,,,,,,,,,,,,,,,,,,,,
,,612110456899ed64c754d95d,23,female,2024-04-19_18h37.22.395,stockport_simplified,2022.2.4,Win32,59.88023952,661e456ee6de07e70aa9ef7b,66229da43a378f03f883f03b,,,,,,,,,,,,,,,,,,,,,,,,,,,,,,,,,,,,,,,,,,,,,,,,,,,,,,,,1,41,101,50,1,N,M,C,o1_image,stimuli/out1.png,stimuli/correct_out1.png,stimuli/out2.png,,,,,,,,,,,,,,,,,,,,,,,,,,,,,,,,,,,,,,
,,612110456899ed64c754d95d,23,female,2024-04-19_18h37.22.395,stockport_simplified,2022.2.4,Win32,59.88023952,661e456ee6de07e70aa9ef7b,66229da43a378f03f883f03b,,,,,,,,,,,,,,,,,,,,,,,,,,,,,,,,,,540.2365,541.0511,"[7,4,5,8,3,6,1,2]","[[0.3,0.2],[-0.3,0.2]]","[[0.125,-0.2],[-0.125,-0.2]]",-0.088541667,-0.192708333,1,0,0,0.3046,o2_image,541.052,1,541.553,541.5531,543.5555,0,0,0,0,1,,,,,,,,,,,,,,,,,,,,,,,,,,,,,,,,,,,,,,,,,,,,,,,,,,
,,612110456899ed64c754d95d,23,female,2024-04-19_18h37.22.395,stockport_simplified,2022.2.4,Win32,59.88023952,661e456ee6de07e70aa9ef7b,66229da43a378f03f883f03b,,,,,,,,,,,,,,,,,,,,,,,,,,,,,,,,,,,,,,,,,,,,,,,,,,,,,,,,1,42,102,26,1,N,M,D,o2_image,stimuli/out2.png,stimuli/out1.png,stimuli/correct_out2.png,,,,,,,,,,,,,,,,,,,,,,,,,,,,,,,,,,,,,,
,,612110456899ed64c754d95d,23,female,2024-04-19_18h37.22.395,stockport_simplified,2022.2.4,Win32,59.88023952,661e456ee6de07e70aa9ef7b,66229da43a378f03f883f03b,,,,,,,,,,,,,,,,,,,,,,,,,,,,,,,,,,543.5568,544.4991,"[7,4,5,8,3,6,1,2]","[[0.3,0.2],[-0.3,0.2]]","[[0.125,-0.2],[-0.125,-0.2]]",0.095052083,-0.166666667,1,0,0,0.4341,o1_image,544.5009,0,544.979,544.9791,546.9748,0,0,0,0,1,,,,,,,,,,,,,,,,,,,,,,,,,,,,,,,,,,,,,,,,,,,,,,,,,,
,,612110456899ed64c754d95d,23,female,2024-04-19_18h37.22.395,stockport_simplified,2022.2.4,Win32,59.88023952,661e456ee6de07e70aa9ef7b,66229da43a378f03f883f03b,,,,,,,,,,,,,,,,,,,,,,,,,,,,,,,,,,,,,,,,,,,,,,,,,,,,,,,,1,43,103,45,1,B,Y,N,o2_image,stimuli/out2.png,stimuli/out1.png,stimuli/correct_out2.png,,,,,,,,,,,,,,,,,,,,,,,,,,,,,,,,,,,,,,
,,612110456899ed64c754d95d,23,female,2024-04-19_18h37.22.395,stockport_simplified,2022.2.4,Win32,59.88023952,661e456ee6de07e70aa9ef7b,66229da43a378f03f883f03b,,,,,,,,,,,,,,,,,,,,,,,,,,,,,,,,,,546.976,547.7992,"[7,4,5,8,3,6,1,2]","[[0.3,0.2],[-0.3,0.2]]","[[-0.125,-0.2],[0.125,-0.2]]",0.091145833,-0.192708333,1,0,0,0.3085,o2_image,547.8007,1,548.2916,548.2916,550.2754,0,0,0,0,1,,,,,,,,,,,,,,,,,,,,,,,,,,,,,,,,,,,,,,,,,,,,,,,,,,
,,612110456899ed64c754d95d,23,female,2024-04-19_18h37.22.395,stockport_simplified,2022.2.4,Win32,59.88023952,661e456ee6de07e70aa9ef7b,66229da43a378f03f883f03b,,,,,,,,,,,,,,,,,,,,,,,,,,,,,,,,,,,,,,,,,,,,,,,,,,,,,,,,1,44,104,16,1,B,Y,N,o2_image,stimuli/out2.png,stimuli/out1.png,stimuli/correct_out2.png,,,,,,,,,,,,,,,,,,,,,,,,,,,,,,,,,,,,,,
,,612110456899ed64c754d95d,23,female,2024-04-19_18h37.22.395,stockport_simplified,2022.2.4,Win32,59.88023952,661e456ee6de07e70aa9ef7b,66229da43a378f03f883f03b,,,,,,,,,,,,,,,,,,,,,,,,,,,,,,,,,,550.2784,551.263,"[7,4,5,8,3,6,1,2]","[[-0.3,0.2],[0.3,0.2]]","[[0.125,-0.2],[-0.125,-0.2]]",-0.190104167,-0.208333333,1,0,0,0.4707,o2_image,551.2643,1,551.7575,551.7575,553.7453,0,0,0,0,1,,,,,,,,,,,,,,,,,,,,,,,,,,,,,,,,,,,,,,,,,,,,,,,,,,
,,612110456899ed64c754d95d,23,female,2024-04-19_18h37.22.395,stockport_simplified,2022.2.4,Win32,59.88023952,661e456ee6de07e70aa9ef7b,66229da43a378f03f883f03b,,,,,,,,,,,,,,,,,,,,,,,,,,,,,,,,,,,,,,,,,,,,,,,,,,,,,,,,1,45,105,43,1,B,X,N,o2_image,stimuli/out2.png,stimuli/out1.png,stimuli/correct_out2.png,,,,,,,,,,,,,,,,,,,,,,,,,,,,,,,,,,,,,,
,,612110456899ed64c754d95d,23,female,2024-04-19_18h37.22.395,stockport_simplified,2022.2.4,Win32,59.88023952,661e456ee6de07e70aa9ef7b,66229da43a378f03f883f03b,,,,,,,,,,,,,,,,,,,,,,,,,,,,,,,,,,553.7465,555.9281,"[7,4,5,8,3,6,1,2]","[[-0.3,0.2],[0.3,0.2]]","[[-0.125,-0.2],[0.125,-0.2]]",0.111979167,-0.158854167,1,0,0,1.6798,o2_image,555.9301,1,556.4248,556.4248,558.4234,0,0,0,0,1,,,,,,,,,,,,,,,,,,,,,,,,,,,,,,,,,,,,,,,,,,,,,,,,,,
,,612110456899ed64c754d95d,23,female,2024-04-19_18h37.22.395,stockport_simplified,2022.2.4,Win32,59.88023952,661e456ee6de07e70aa9ef7b,66229da43a378f03f883f03b,,,,,,,,,,,,,,,,,,,,,,,,,,,,,,,,,,,,,,,,,,,,,,,,,,,,,,,,1,46,106,13,1,B,X,N,o2_image,stimuli/out2.png,stimuli/out1.png,stimuli/correct_out2.png,,,,,,,,,,,,,,,,,,,,,,,,,,,,,,,,,,,,,,
,,612110456899ed64c754d95d,23,female,2024-04-19_18h37.22.395,stockport_simplified,2022.2.4,Win32,59.88023952,661e456ee6de07e70aa9ef7b,66229da43a378f03f883f03b,,,,,,,,,,,,,,,,,,,,,,,,,,,,,,,,,,558.4246,559.4635,"[7,4,5,8,3,6,1,2]","[[0.3,0.2],[-0.3,0.2]]","[[0.125,-0.2],[-0.125,-0.2]]",0.111979167,-0.158854167,1,0,0,0.5231,o1_image,559.4649,1,559.958,559.958,561.9488,0,0,0,0,1,,,,,,,,,,,,,,,,,,,,,,,,,,,,,,,,,,,,,,,,,,,,,,,,,,
,,612110456899ed64c754d95d,23,female,2024-04-19_18h37.22.395,stockport_simplified,2022.2.4,Win32,59.88023952,661e456ee6de07e70aa9ef7b,66229da43a378f03f883f03b,,,,,,,,,,,,,,,,,,,,,,,,,,,,,,,,,,,,,,,,,,,,,,,,,,,,,,,,1,47,107,32,1,A,X,N,o1_image,stimuli/out1.png,stimuli/correct_out1.png,stimuli/out2.png,,,,,,,,,,,,,,,,,,,,,,,,,,,,,,,,,,,,,,
,,612110456899ed64c754d95d,23,female,2024-04-19_18h37.22.395,stockport_simplified,2022.2.4,Win32,59.88023952,661e456ee6de07e70aa9ef7b,66229da43a378f03f883f03b,,,,,,,,,,,,,,,,,,,,,,,,,,,,,,,,,,561.9503,562.7606,"[7,4,5,8,3,6,1,2]","[[-0.3,0.2],[0.3,0.2]]","[[-0.125,-0.2],[0.125,-0.2]]",0.111979167,-0.158854167,1,0,0,0.3021,o2_image,562.7617,0,563.2576,563.2576,565.2625,0,0,0,0,1,,,,,,,,,,,,,,,,,,,,,,,,,,,,,,,,,,,,,,,,,,,,,,,,,,
,,612110456899ed64c754d95d,23,female,2024-04-19_18h37.22.395,stockport_simplified,2022.2.4,Win32,59.88023952,661e456ee6de07e70aa9ef7b,66229da43a378f03f883f03b,,,,,,,,,,,,,,,,,,,,,,,,,,,,,,,,,,,,,,,,,,,,,,,,,,,,,,,,1,48,108,7,1,A,Y,N,o1_image,stimuli/out1.png,stimuli/correct_out1.png,stimuli/out2.png,,,,,,,,,,,,,,,,,,,,,,,,,,,,,,,,,,,,,,
,,612110456899ed64c754d95d,23,female,2024-04-19_18h37.22.395,stockport_simplified,2022.2.4,Win32,59.88023952,661e456ee6de07e70aa9ef7b,66229da43a378f03f883f03b,,,,,,,,,,,,,,,,,,,,,,,,,,,,,,,,,,565.2637,566.1612,"[7,4,5,8,3,6,1,2]","[[-0.3,0.2],[0.3,0.2]]","[[0.125,-0.2],[-0.125,-0.2]]",-0.069010417,-0.235677083,1,0,0,0.388,o2_image,566.162,1,566.6614,566.6614,568.6409,0,0,0,0,1,,,,,,,,,,,,,,,,,,,,,,,,,,,,,,,,,,,,,,,,,,,,,,,,,,
,,612110456899ed64c754d95d,23,female,2024-04-19_18h37.22.395,stockport_simplified,2022.2.4,Win32,59.88023952,661e456ee6de07e70aa9ef7b,66229da43a378f03f883f03b,,,,,,,,,,,,,,,,,,,,,,,,,,,,,,,,,,,,,,,,,,,,,,,,,,,,,,,,1,49,109,11,1,B,X,N,o2_image,stimuli/out2.png,stimuli/out1.png,stimuli/correct_out2.png,,,,,,,,,,,,,,,,,,,,,,,,,,,,,,,,,,,,,,
,,612110456899ed64c754d95d,23,female,2024-04-19_18h37.22.395,stockport_simplified,2022.2.4,Win32,59.88023952,661e456ee6de07e70aa9ef7b,66229da43a378f03f883f03b,,,,,,,,,,,,,,,,,,,,,,,,,,,,,,,,,,568.6434,570.0414,"[7,4,5,8,3,6,1,2]","[[0.3,0.2],[-0.3,0.2]]","[[-0.125,-0.2],[0.125,-0.2]]",0.076822917,-0.141927083,1,0,0,0.8809,o2_image,570.0447,0,570.5384,570.5384,572.5367,0,0,0,0,1,,,,,,,,,,,,,,,,,,,,,,,,,,,,,,,,,,,,,,,,,,,,,,,,,,
,,612110456899ed64c754d95d,23,female,2024-04-19_18h37.22.395,stockport_simplified,2022.2.4,Win32,59.88023952,661e456ee6de07e70aa9ef7b,66229da43a378f03f883f03b,,,,,,,,,,,,,,,,,,,,,,,,,,,,,,,,,,,,,,,,,,,,,,,,,,,,,,,,1,50,110,23,1,N,M,C,o1_image,stimuli/out1.png,stimuli/correct_out1.png,stimuli/out2.png,,,,,,,,,,,,,,,,,,,,,,,,,,,,,,,,,,,,,,
,,612110456899ed64c754d95d,23,female,2024-04-19_18h37.22.395,stockport_simplified,2022.2.4,Win32,59.88023952,661e456ee6de07e70aa9ef7b,66229da43a378f03f883f03b,,,,,,,,,,,,,,,,,,,,,,,,,,,,,,,,,,572.5377,573.4438,"[7,4,5,8,3,6,1,2]","[[0.3,0.2],[-0.3,0.2]]","[[0.125,-0.2],[-0.125,-0.2]]",-0.109375,-0.197916667,1,0,0,0.3908,o2_image,573.4453,1,573.9381,573.9382,575.9381,0,0,0,0,1,,,,,,,,,,,,,,,,,,,,,,,,,,,,,,,,,,,,,,,,,,,,,,,,,,
,,612110456899ed64c754d95d,23,female,2024-04-19_18h37.22.395,stockport_simplified,2022.2.4,Win32,59.88023952,661e456ee6de07e70aa9ef7b,66229da43a378f03f883f03b,,,,,,,,,,,,,,,,,,,,,,,,,,,,,,,,,,,,,,,,,,,,,,,,,,,,,,,,1,51,111,59,1,N,M,D,o2_image,stimuli/out2.png,stimuli/out1.png,stimuli/correct_out2.png,,,,,,,,,,,,,,,,,,,,,,,,,,,,,,,,,,,,,,
,,612110456899ed64c754d95d,23,female,2024-04-19_18h37.22.395,stockport_simplified,2022.2.4,Win32,59.88023952,661e456ee6de07e70aa9ef7b,66229da43a378f03f883f03b,,,,,,,,,,,,,,,,,,,,,,,,,,,,,,,,,,575.9393,577.3448,"[7,4,5,8,3,6,1,2]","[[0.3,0.2],[-0.3,0.2]]","[[-0.125,-0.2],[0.125,-0.2]]",-0.109375,-0.197916667,1,0,0,0.8918,o1_image,577.3457,1,577.8338,577.8338,579.8273,0,0,0,0,1,,,,,,,,,,,,,,,,,,,,,,,,,,,,,,,,,,,,,,,,,,,,,,,,,,
,,612110456899ed64c754d95d,23,female,2024-04-19_18h37.22.395,stockport_simplified,2022.2.4,Win32,59.88023952,661e456ee6de07e70aa9ef7b,66229da43a378f03f883f03b,,,,,,,,,,,,,,,,,,,,,,,,,,,,,,,,,,,,,,,,,,,,,,,,,,,,,,,,1,52,112,3,1,A,X,N,o1_image,stimuli/out1.png,stimuli/correct_out1.png,stimuli/out2.png,,,,,,,,,,,,,,,,,,,,,,,,,,,,,,,,,,,,,,
,,612110456899ed64c754d95d,23,female,2024-04-19_18h37.22.395,stockport_simplified,2022.2.4,Win32,59.88023952,661e456ee6de07e70aa9ef7b,66229da43a378f03f883f03b,,,,,,,,,,,,,,,,,,,,,,,,,,,,,,,,,,579.8282,580.6048,"[7,4,5,8,3,6,1,2]","[[0.3,0.2],[-0.3,0.2]]","[[0.125,-0.2],[-0.125,-0.2]]",-0.109375,-0.197916667,1,0,0,0.2604,o2_image,580.6063,1,581.1031,581.1031,583.1043,0,0,0,0,1,,,,,,,,,,,,,,,,,,,,,,,,,,,,,,,,,,,,,,,,,,,,,,,,,,
,,612110456899ed64c754d95d,23,female,2024-04-19_18h37.22.395,stockport_simplified,2022.2.4,Win32,59.88023952,661e456ee6de07e70aa9ef7b,66229da43a378f03f883f03b,,,,,,,,,,,,,,,,,,,,,,,,,,,,,,,,,,,,,,,,,,,,,,,,,,,,,,,,1,53,113,27,1,N,M,D,o2_image,stimuli/out2.png,stimuli/out1.png,stimuli/correct_out2.png,,,,,,,,,,,,,,,,,,,,,,,,,,,,,,,,,,,,,,
,,612110456899ed64c754d95d,23,female,2024-04-19_18h37.22.395,stockport_simplified,2022.2.4,Win32,59.88023952,661e456ee6de07e70aa9ef7b,66229da43a378f03f883f03b,,,,,,,,,,,,,,,,,,,,,,,,,,,,,,,,,,583.1054,583.9432,"[7,4,5,8,3,6,1,2]","[[-0.3,0.2],[0.3,0.2]]","[[-0.125,-0.2],[0.125,-0.2]]",-0.109375,-0.197916667,1,0,0,0.323,o1_image,583.9448,1,584.4367,584.4368,586.4407,0,0,0,0,1,,,,,,,,,,,,,,,,,,,,,,,,,,,,,,,,,,,,,,,,,,,,,,,,,,
,,612110456899ed64c754d95d,23,female,2024-04-19_18h37.22.395,stockport_simplified,2022.2.4,Win32,59.88023952,661e456ee6de07e70aa9ef7b,66229da43a378f03f883f03b,,,,,,,,,,,,,,,,,,,,,,,,,,,,,,,,,,,,,,,,,,,,,,,,,,,,,,,,1,54,114,24,1,N,M,C,o1_image,stimuli/out1.png,stimuli/correct_out1.png,stimuli/out2.png,,,,,,,,,,,,,,,,,,,,,,,,,,,,,,,,,,,,,,
,,612110456899ed64c754d95d,23,female,2024-04-19_18h37.22.395,stockport_simplified,2022.2.4,Win32,59.88023952,661e456ee6de07e70aa9ef7b,66229da43a378f03f883f03b,,,,,,,,,,,,,,,,,,,,,,,,,,,,,,,,,,586.4436,587.1263,"[7,4,5,8,3,6,1,2]","[[-0.3,0.2],[0.3,0.2]]","[[-0.125,-0.2],[0.125,-0.2]]",0.1328125,-0.169270833,1,0,0,0.166,o2_image,587.128,0,587.6267,587.6267,589.6264,0,0,0,0,1,,,,,,,,,,,,,,,,,,,,,,,,,,,,,,,,,,,,,,,,,,,,,,,,,,
,,612110456899ed64c754d95d,23,female,2024-04-19_18h37.22.395,stockport_simplified,2022.2.4,Win32,59.88023952,661e456ee6de07e70aa9ef7b,66229da43a378f03f883f03b,,,,,,,,,,,,,,,,,,,,,,,,,,,,,,,,,,,,,,,,,,,,,,,,,,,,,,,,1,55,115,9,1,A,Y,N,o1_image,stimuli/out1.png,stimuli/correct_out1.png,stimuli/out2.png,,,,,,,,,,,,,,,,,,,,,,,,,,,,,,,,,,,,,,
,,612110456899ed64c754d95d,23,female,2024-04-19_18h37.22.395,stockport_simplified,2022.2.4,Win32,59.88023952,661e456ee6de07e70aa9ef7b,66229da43a378f03f883f03b,,,,,,,,,,,,,,,,,,,,,,,,,,,,,,,,,,589.6273,590.544,"[7,4,5,8,3,6,1,2]","[[-0.3,0.2],[0.3,0.2]]","[[0.125,-0.2],[-0.125,-0.2]]",0.1328125,-0.169270833,1,0,0,0.4058,o1_image,590.5457,1,591.0474,591.0475,593.0267,0,0,0,0,1,,,,,,,,,,,,,,,,,,,,,,,,,,,,,,,,,,,,,,,,,,,,,,,,,,
,,612110456899ed64c754d95d,23,female,2024-04-19_18h37.22.395,stockport_simplified,2022.2.4,Win32,59.88023952,661e456ee6de07e70aa9ef7b,66229da43a378f03f883f03b,,,,,,,,,,,,,,,,,,,,,,,,,,,,,,,,,,,,,,,,,,,,,,,,,,,,,,,,1,56,116,31,1,A,X,N,o1_image,stimuli/out1.png,stimuli/correct_out1.png,stimuli/out2.png,,,,,,,,,,,,,,,,,,,,,,,,,,,,,,,,,,,,,,
,,612110456899ed64c754d95d,23,female,2024-04-19_18h37.22.395,stockport_simplified,2022.2.4,Win32,59.88023952,661e456ee6de07e70aa9ef7b,66229da43a378f03f883f03b,,,,,,,,,,,,,,,,,,,,,,,,,,,,,,,,,,593.0279,594.5599,"[7,4,5,8,3,6,1,2]","[[-0.3,0.2],[0.3,0.2]]","[[-0.125,-0.2],[0.125,-0.2]]",-0.14453125,-0.166666667,1,0,0,1.0215,o1_image,594.5617,1,595.0553,595.0553,597.0598,0,0,0,0,1,,,,,,,,,,,,,,,,,,,,,,,,,,,,,,,,,,,,,,,,,,,,,,,,,,
,,612110456899ed64c754d95d,23,female,2024-04-19_18h37.22.395,stockport_simplified,2022.2.4,Win32,59.88023952,661e456ee6de07e70aa9ef7b,66229da43a378f03f883f03b,,,,,,,,,,,,,,,,,,,,,,,,,,,,,,,,,,,,,,,,,,,,,,,,,,,,,,,,1,57,117,22,1,N,M,C,o1_image,stimuli/out1.png,stimuli/correct_out1.png,stimuli/out2.png,,,,,,,,,,,,,,,,,,,,,,,,,,,,,,,,,,,,,,
,,612110456899ed64c754d95d,23,female,2024-04-19_18h37.22.395,stockport_simplified,2022.2.4,Win32,59.88023952,661e456ee6de07e70aa9ef7b,66229da43a378f03f883f03b,,,,,,,,,,,,,,,,,,,,,,,,,,,,,,,,,,597.061,599.2936,"[7,4,5,8,3,6,1,2]","[[0.3,0.2],[-0.3,0.2]]","[[0.125,-0.2],[-0.125,-0.2]]",0.385416667,-0.290364583,1,0,0,0.5992,o1_image,599.2948,1,599.7895,599.7895,601.7816,0,0,0,0,1,,,,,,,,,,,,,,,,,,,,,,,,,,,,,,,,,,,,,,,,,,,,,,,,,,
,,612110456899ed64c754d95d,23,female,2024-04-19_18h37.22.395,stockport_simplified,2022.2.4,Win32,59.88023952,661e456ee6de07e70aa9ef7b,66229da43a378f03f883f03b,,,,,,,,,,,,,,,,,,,,,,,,,,,,,,,,,,,,,,,,,,,,,,,,,,,,,,,,1,58,118,0,1,A,X,N,o1_image,stimuli/out1.png,stimuli/correct_out1.png,stimuli/out2.png,,,,,,,,,,,,,,,,,,,,,,,,,,,,,,,,,,,,,,
,,612110456899ed64c754d95d,23,female,2024-04-19_18h37.22.395,stockport_simplified,2022.2.4,Win32,59.88023952,661e456ee6de07e70aa9ef7b,66229da43a378f03f883f03b,,,,,,,,,,,,,,,,,,,,,,,,,,,,,,,,,,601.7829,602.8894,"[7,4,5,8,3,6,1,2]","[[-0.3,0.2],[0.3,0.2]]","[[-0.125,-0.2],[0.125,-0.2]]",-0.0546875,-0.209635417,1,0,0,0.6017,o1_image,602.8925,1,603.4039,603.404,605.392,0,0,0,0,1,,,,,,,,,,,,,,,,,,,,,,,,,,,,,,,,,,,,,,,,,,,,,,,,,,
,,612110456899ed64c754d95d,23,female,2024-04-19_18h37.22.395,stockport_simplified,2022.2.4,Win32,59.88023952,661e456ee6de07e70aa9ef7b,66229da43a378f03f883f03b,,,,,,,,,,,,,,,,,,,,,,,,,,,,,,,,,,,,,,,,,,,,,,,,,,,,,,,,1,59,119,1,1,A,X,N,o1_image,stimuli/out1.png,stimuli/correct_out1.png,stimuli/out2.png,,,,,,,,,,,,,,,,,,,,,,,,,,,,,,,,,,,,,,
,,612110456899ed64c754d95d,23,female,2024-04-19_18h37.22.395,stockport_simplified,2022.2.4,Win32,59.88023952,661e456ee6de07e70aa9ef7b,66229da43a378f03f883f03b,,,,,,,,,,,,,,,,,,,,,,,,,,,,,,,,,,605.4227,606.0082,"[7,4,5,8,3,6,1,2]","[[0.3,0.2],[-0.3,0.2]]","[[0.125,-0.2],[-0.125,-0.2]]",-0.0546875,-0.209635417,1,0,0,0.0744,o2_image,606.0099,1,606.5015,606.5015,608.4966,,,,,,,,,,,,,,,,,,0,0,0,0,1,,,,,,,,,,,,,,,,,,,,,,,,,,,,,,,,,
,,612110456899ed64c754d95d,23,female,2024-04-19_18h37.22.395,stockport_simplified,2022.2.4,Win32,59.88023952,661e456ee6de07e70aa9ef7b,66229da43a378f03f883f03b,,,,,,,,,,,,,,,,,,,,,,,,,,,,,,,,,,,,,,,,,,,,,,,,,,,,,,,,,,,,,B,Y,N,o2_image,stimuli/out2.png,stimuli/out1.png,stimuli/correct_out2.png,,,,,,0,0,0,34,1,,,,,,,,,,,,,,,,,,,,,,,,,,,,
,,612110456899ed64c754d95d,23,female,2024-04-19_18h37.22.395,stockport_simplified,2022.2.4,Win32,59.88023952,661e456ee6de07e70aa9ef7b,66229da43a378f03f883f03b,,,,,,,,,,,,,,,,,,,,,,,,,,,,,,,,,,608.4981,609.8259,"[7,4,5,8,3,6,1,2]","[[-0.3,0.2],[0.3,0.2]]","[[-0.125,-0.2],[0.125,-0.2]]",0.194010417,-0.264322917,1,0,0,0.8211,o2_image,609.8275,0,610.3211,610.3211,612.3092,,,,,,,,,,,,,,,,,,0,0,0,0,1,,,,,,,,,,,,,,,,,,,,,,,,,,,,,,,,,
,,612110456899ed64c754d95d,23,female,2024-04-19_18h37.22.395,stockport_simplified,2022.2.4,Win32,59.88023952,661e456ee6de07e70aa9ef7b,66229da43a378f03f883f03b,,,,,,,,,,,,,,,,,,,,,,,,,,,,,,,,,,,,,,,,,,,,,,,,,,,,,,,,,,,,,A,Y,N,o1_image,stimuli/out1.png,stimuli/correct_out1.png,stimuli/out2.png,,,,,,0,1,1,12,1,,,,,,,,,,,,,,,,,,,,,,,,,,,,
,,612110456899ed64c754d95d,23,female,2024-04-19_18h37.22.395,stockport_simplified,2022.2.4,Win32,59.88023952,661e456ee6de07e70aa9ef7b,66229da43a378f03f883f03b,,,,,,,,,,,,,,,,,,,,,,,,,,,,,,,,,,612.3102,613.1054,"[7,4,5,8,3,6,1,2]","[[0.3,0.2],[-0.3,0.2]]","[[0.125,-0.2],[-0.125,-0.2]]",0.153645833,-0.243489583,1,0,0,0.291,o1_image,613.1081,1,613.605,613.605,615.605,,,,,,,,,,,,,,,,,,0,0,0,0,1,,,,,,,,,,,,,,,,,,,,,,,,,,,,,,,,,
,,612110456899ed64c754d95d,23,female,2024-04-19_18h37.22.395,stockport_simplified,2022.2.4,Win32,59.88023952,661e456ee6de07e70aa9ef7b,66229da43a378f03f883f03b,,,,,,,,,,,,,,,,,,,,,,,,,,,,,,,,,,,,,,,,,,,,,,,,,,,,,,,,,,,,,A,Y,N,o1_image,stimuli/out1.png,stimuli/correct_out1.png,stimuli/out2.png,,,,,,0,2,2,17,1,,,,,,,,,,,,,,,,,,,,,,,,,,,,
,,612110456899ed64c754d95d,23,female,2024-04-19_18h37.22.395,stockport_simplified,2022.2.4,Win32,59.88023952,661e456ee6de07e70aa9ef7b,66229da43a378f03f883f03b,,,,,,,,,,,,,,,,,,,,,,,,,,,,,,,,,,615.6077,616.7756,"[7,4,5,8,3,6,1,2]","[[0.3,0.2],[-0.3,0.2]]","[[0.125,-0.2],[-0.125,-0.2]]",-0.084635417,-0.247395833,1,0,0,0.6664,o2_image,616.7773,0,617.2712,617.2713,619.2597,,,,,,,,,,,,,,,,,,0,0,0,0,1,,,,,,,,,,,,,,,,,,,,,,,,,,,,,,,,,
,,612110456899ed64c754d95d,23,female,2024-04-19_18h37.22.395,stockport_simplified,2022.2.4,Win32,59.88023952,661e456ee6de07e70aa9ef7b,66229da43a378f03f883f03b,,,,,,,,,,,,,,,,,,,,,,,,,,,,,,,,,,,,,,,,,,,,,,,,,,,,,,,,,,,,,N,M,C,o1_image,stimuli/out1.png,stimuli/correct_out1.png,stimuli/out2.png,,,,,,0,3,3,46,1,,,,,,,,,,,,,,,,,,,,,,,,,,,,
