counterbalance_2.started,counterbalance_2.stopped,participant,age,gender,date,expName,psychopyVersion,OS,frameRate,STUDY_ID,SESSION_ID,information_2.started,information_2.stopped,information_loop.thisRepN,information_loop.thisTrialN,information_loop.thisN,information_loop.thisIndex,information_loop.ran,information,consent_2.started,consent_2.stopped,slider_1.response,slider_2.response,slider_3.response,slider_4.response,slider_5.response,slider_6.response,instructions.started,instructions.stopped,task1_instr.thisRepN,task1_instr.thisTrialN,task1_instr.thisN,task1_instr.thisIndex,task1_instr.ran,task1,comprehension1_2.started,comprehension1_2.stopped,comp1_mouse.x,comp1_mouse.y,comp1_mouse.leftButton,comp1_mouse.midButton,comp1_mouse.rightButton,comp1_mouse.time,comp1_mouse.clicked_name,cue_o__trial_2.started,cue_o__trial_2.stopped,order,cue_order,out_order,cue_o_mouse.x,cue_o_mouse.y,cue_o_mouse.leftButton,cue_o_mouse.midButton,cue_o_mouse.rightButton,cue_o_mouse.time,cue_o_mouse.clicked_name,cue_selection_2.started,correct_answer,cue_selection_2.stopped,feedback_2.started,feedback_2.stopped,feedback_loop.thisRepN,feedback_loop.thisTrialN,feedback_loop.thisN,feedback_loop.thisIndex,feedback_loop.ran,stage1_trials.thisRepN,stage1_trials.thisTrialN,stage1_trials.thisN,stage1_trials.thisIndex,stage1_trials.ran,cue1,cue2,cue3,outcome,correct_out,o1_feedback,o2_feedback,stage2_feedback_loop.thisRepN,stage2_feedback_loop.thisTrialN,stage2_feedback_loop.thisN,stage2_feedback_loop.thisIndex,stage2_feedback_loop.ran,stage2_trials.thisRepN,stage2_trials.thisTrialN,stage2_trials.thisN,stage2_trials.thisIndex,stage2_trials.ran,stage3_feedback_loop.thisRepN,stage3_feedback_loop.thisTrialN,stage3_feedback_loop.thisN,stage3_feedback_loop.thisIndex,stage3_feedback_loop.ran,stage3_trials.thisRepN,stage3_trials.thisTrialN,stage3_trials.thisN,stage3_trials.thisIndex,stage3_trials.ran,debrief_2.started,debrief_2.stopped,debrief_loop.thisRepN,debrief_loop.thisTrialN,debrief_loop.thisN,debrief_loop.thisIndex,debrief_loop.ran,debrief_img,compr1_completed.thisRepN,compr1_completed.thisTrialN,compr1_completed.thisN,compr1_completed.thisIndex,compr1_completed.ran,consent_loop.thisRepN,consent_loop.thisTrialN,consent_loop.thisN,consent_loop.thisIndex,consent_loop.ran
0.0006,0.001,5b9d57e5737d030001ad2cbf,56,male,2024-04-24_11h31.45.723,stockport_simplified,2022.2.4,Win32,59.88023952,661e456ee6de07e70aa9ef7b,6628df8b76fef1ba689272bc,,,,,,,,,,,,,,,,,,,,,,,,,,,,,,,,,,,,,,,,,,,,,,,,,,,,,,,,,,,,,,,,,,,,,,,,,,,,,,,,,,,,,,,,,,,,,,,,,,,,,,,,,
,,5b9d57e5737d030001ad2cbf,56,male,2024-04-24_11h31.45.723,stockport_simplified,2022.2.4,Win32,59.88023952,661e456ee6de07e70aa9ef7b,6628df8b76fef1ba689272bc,0.0209,10.9804,0,0,0,0,1,instructions/info1.png,,,,,,,,,,,,,,,,,,,,,,,,,,,,,,,,,,,,,,,,,,,,,,,,,,,,,,,,,,,,,,,,,,,,,,,,,,,,,,,,,,,,,,,,,,,,,,,,,
,,5b9d57e5737d030001ad2cbf,56,male,2024-04-24_11h31.45.723,stockport_simplified,2022.2.4,Win32,59.88023952,661e456ee6de07e70aa9ef7b,6628df8b76fef1ba689272bc,10.9808,16.0968,0,1,1,1,1,instructions/info2.png,,,,,,,,,,,,,,,,,,,,,,,,,,,,,,,,,,,,,,,,,,,,,,,,,,,,,,,,,,,,,,,,,,,,,,,,,,,,,,,,,,,,,,,,,,,,,,,,,
,,5b9d57e5737d030001ad2cbf,56,male,2024-04-24_11h31.45.723,stockport_simplified,2022.2.4,Win32,59.88023952,661e456ee6de07e70aa9ef7b,6628df8b76fef1ba689272bc,16.0972,77.533,0,2,2,2,1,instructions/info3.png,,,,,,,,,,,,,,,,,,,,,,,,,,,,,,,,,,,,,,,,,,,,,,,,,,,,,,,,,,,,,,,,,,,,,,,,,,,,,,,,,,,,,,,,,,,,,,,,,
,,5b9d57e5737d030001ad2cbf,56,male,2024-04-24_11h31.45.723,stockport_simplified,2022.2.4,Win32,59.88023952,661e456ee6de07e70aa9ef7b,6628df8b76fef1ba689272bc,,,,,,,,,77.5408,87.1376,1,1,1,1,1,1,,,,,,,,,,,,,,,,,,,,,,,,,,,,,,,,,,,,,,,,,,,,,,,,,,,,,,,,,,,,,,,,,,,,,,,,,,,,,,,,,,,,,,,,,
,,5b9d57e5737d030001ad2cbf,56,male,2024-04-24_11h31.45.723,stockport_simplified,2022.2.4,Win32,59.88023952,661e456ee6de07e70aa9ef7b,6628df8b76fef1ba689272bc,,,,,,,,,,,,,,,,,87.1443,100.1317,0,0,0,0,1,instructions/task1_1.png,,,,,,,,,,,,,,,,,,,,,,,,,,,,,,,,,,,,,,,,,,,,,,,,,,,,,,,,,,,,,,,,,,,,,,,,,,,,,,,,,
,,5b9d57e5737d030001ad2cbf,56,male,2024-04-24_11h31.45.723,stockport_simplified,2022.2.4,Win32,59.88023952,661e456ee6de07e70aa9ef7b,6628df8b76fef1ba689272bc,,,,,,,,,,,,,,,,,100.1396,118.1789,0,1,1,1,1,instructions/task1_2.png,,,,,,,,,,,,,,,,,,,,,,,,,,,,,,,,,,,,,,,,,,,,,,,,,,,,,,,,,,,,,,,,,,,,,,,,,,,,,,,,,
,,5b9d57e5737d030001ad2cbf,56,male,2024-04-24_11h31.45.723,stockport_simplified,2022.2.4,Win32,59.88023952,661e456ee6de07e70aa9ef7b,6628df8b76fef1ba689272bc,,,,,,,,,,,,,,,,,118.1872,133.0241,0,2,2,2,1,instructions/task1_3.png,,,,,,,,,,,,,,,,,,,,,,,,,,,,,,,,,,,,,,,,,,,,,,,,,,,,,,,,,,,,,,,,,,,,,,,,,,,,,,,,,
,,5b9d57e5737d030001ad2cbf,56,male,2024-04-24_11h31.45.723,stockport_simplified,2022.2.4,Win32,59.88023952,661e456ee6de07e70aa9ef7b,6628df8b76fef1ba689272bc,,,,,,,,,,,,,,,,,,,,,,,,,133.0246,145.7689,0.026666705,-0.327500025,1,0,0,12.7434,comp1_resp1,145.7864,149.2541,"[2,4,3,6,1,8,7,5]","[[-0.3,0.2],[0.3,0.2]]","[[-0.125,-0.2],[0.125,-0.2]]",-0.121666654,-0.193333371,1,0,0,2.9519,o1_image,149.2551,0,149.7544,149.7547,151.7562,0,0,0,0,1,,,,,,,,,,,,,,,,,,,,,,,,,,,,,,,,,,,,,,,,,,,,,,,,,,
,,5b9d57e5737d030001ad2cbf,56,male,2024-04-24_11h31.45.723,stockport_simplified,2022.2.4,Win32,59.88023952,661e456ee6de07e70aa9ef7b,6628df8b76fef1ba689272bc,,,,,,,,,,,,,,,,,,,,,,,,,,,,,,,,,,,,,,,,,,,,,,,,,,,,,,,,0,0,0,15,1,B,Y,N,o2_image,stimuli/out2.png,stimuli/out1.png,stimuli/correct_out2.png,,,,,,,,,,,,,,,,,,,,,,,,,,,,,,,,,,,,,,
,,5b9d57e5737d030001ad2cbf,56,male,2024-04-24_11h31.45.723,stockport_simplified,2022.2.4,Win32,59.88023952,661e456ee6de07e70aa9ef7b,6628df8b76fef1ba689272bc,,,,,,,,,,,,,,,,,,,,,,,,,,,,,,,,,,151.7568,153.8409,"[2,4,3,6,1,8,7,5]","[[0.3,0.2],[-0.3,0.2]]","[[0.125,-0.2],[-0.125,-0.2]]",-0.120833333,-0.191666667,1,0,0,1.5677,o2_image,153.8485,1,154.3414,154.3415,156.3429,0,0,0,0,1,,,,,,,,,,,,,,,,,,,,,,,,,,,,,,,,,,,,,,,,,,,,,,,,,,
,,5b9d57e5737d030001ad2cbf,56,male,2024-04-24_11h31.45.723,stockport_simplified,2022.2.4,Win32,59.88023952,661e456ee6de07e70aa9ef7b,6628df8b76fef1ba689272bc,,,,,,,,,,,,,,,,,,,,,,,,,,,,,,,,,,,,,,,,,,,,,,,,,,,,,,,,0,1,1,43,1,B,X,N,o2_image,stimuli/out2.png,stimuli/out1.png,stimuli/correct_out2.png,,,,,,,,,,,,,,,,,,,,,,,,,,,,,,,,,,,,,,
,,5b9d57e5737d030001ad2cbf,56,male,2024-04-24_11h31.45.723,stockport_simplified,2022.2.4,Win32,59.88023952,661e456ee6de07e70aa9ef7b,6628df8b76fef1ba689272bc,,,,,,,,,,,,,,,,,,,,,,,,,,,,,,,,,,156.3432,158.3779,"[2,4,3,6,1,8,7,5]","[[-0.3,0.2],[0.3,0.2]]","[[-0.125,-0.2],[0.125,-0.2]]",0.106666692,-0.191666667,1,0,0,1.534,o2_image,158.3786,1,158.8783,158.8783,160.88,0,0,0,0,1,,,,,,,,,,,,,,,,,,,,,,,,,,,,,,,,,,,,,,,,,,,,,,,,,,
,,5b9d57e5737d030001ad2cbf,56,male,2024-04-24_11h31.45.723,stockport_simplified,2022.2.4,Win32,59.88023952,661e456ee6de07e70aa9ef7b,6628df8b76fef1ba689272bc,,,,,,,,,,,,,,,,,,,,,,,,,,,,,,,,,,,,,,,,,,,,,,,,,,,,,,,,0,2,2,25,1,N,M,D,o2_image,stimuli/out2.png,stimuli/out1.png,stimuli/correct_out2.png,,,,,,,,,,,,,,,,,,,,,,,,,,,,,,,,,,,,,,
,,5b9d57e5737d030001ad2cbf,56,male,2024-04-24_11h31.45.723,stockport_simplified,2022.2.4,Win32,59.88023952,661e456ee6de07e70aa9ef7b,6628df8b76fef1ba689272bc,,,,,,,,,,,,,,,,,,,,,,,,,,,,,,,,,,160.8802,162.7842,"[2,4,3,6,1,8,7,5]","[[-0.3,0.2],[0.3,0.2]]","[[0.125,-0.2],[-0.125,-0.2]]",0.100833321,-0.196666654,1,0,0,1.3865,o1_image,162.7847,1,163.2818,163.2818,165.2833,0,0,0,0,1,,,,,,,,,,,,,,,,,,,,,,,,,,,,,,,,,,,,,,,,,,,,,,,,,,
,,5b9d57e5737d030001ad2cbf,56,male,2024-04-24_11h31.45.723,stockport_simplified,2022.2.4,Win32,59.88023952,661e456ee6de07e70aa9ef7b,6628df8b76fef1ba689272bc,,,,,,,,,,,,,,,,,,,,,,,,,,,,,,,,,,,,,,,,,,,,,,,,,,,,,,,,0,3,3,53,1,N,M,C,o1_image,stimuli/out1.png,stimuli/correct_out1.png,stimuli/out2.png,,,,,,,,,,,,,,,,,,,,,,,,,,,,,,,,,,,,,,
,,5b9d57e5737d030001ad2cbf,56,male,2024-04-24_11h31.45.723,stockport_simplified,2022.2.4,Win32,59.88023952,661e456ee6de07e70aa9ef7b,6628df8b76fef1ba689272bc,,,,,,,,,,,,,,,,,,,,,,,,,,,,,,,,,,165.2837,166.9347,"[2,4,3,6,1,8,7,5]","[[-0.3,0.2],[0.3,0.2]]","[[-0.125,-0.2],[0.125,-0.2]]",0.114166705,-0.195833333,1,0,0,1.1321,o2_image,166.9353,1,167.4354,167.4354,169.4393,0,0,0,0,1,,,,,,,,,,,,,,,,,,,,,,,,,,,,,,,,,,,,,,,,,,,,,,,,,,
,,5b9d57e5737d030001ad2cbf,56,male,2024-04-24_11h31.45.723,stockport_simplified,2022.2.4,Win32,59.88023952,661e456ee6de07e70aa9ef7b,6628df8b76fef1ba689272bc,,,,,,,,,,,,,,,,,,,,,,,,,,,,,,,,,,,,,,,,,,,,,,,,,,,,,,,,0,4,4,27,1,N,M,D,o2_image,stimuli/out2.png,stimuli/out1.png,stimuli/correct_out2.png,,,,,,,,,,,,,,,,,,,,,,,,,,,,,,,,,,,,,,
,,5b9d57e5737d030001ad2cbf,56,male,2024-04-24_11h31.45.723,stockport_simplified,2022.2.4,Win32,59.88023952,661e456ee6de07e70aa9ef7b,6628df8b76fef1ba689272bc,,,,,,,,,,,,,,,,,,,,,,,,,,,,,,,,,,169.4396,170.7882,"[2,4,3,6,1,8,7,5]","[[0.3,0.2],[-0.3,0.2]]","[[-0.125,-0.2],[0.125,-0.2]]",0.131666692,-0.186666679,1,0,0,0.8318,o2_image,170.7891,1,171.2881,171.2882,173.2897,0,0,0,0,1,,,,,,,,,,,,,,,,,,,,,,,,,,,,,,,,,,,,,,,,,,,,,,,,,,
,,5b9d57e5737d030001ad2cbf,56,male,2024-04-24_11h31.45.723,stockport_simplified,2022.2.4,Win32,59.88023952,661e456ee6de07e70aa9ef7b,6628df8b76fef1ba689272bc,,,,,,,,,,,,,,,,,,,,,,,,,,,,,,,,,,,,,,,,,,,,,,,,,,,,,,,,0,5,5,58,1,N,M,D,o2_image,stimuli/out2.png,stimuli/out1.png,stimuli/correct_out2.png,,,,,,,,,,,,,,,,,,,,,,,,,,,,,,,,,,,,,,
,,5b9d57e5737d030001ad2cbf,56,male,2024-04-24_11h31.45.723,stockport_simplified,2022.2.4,Win32,59.88023952,661e456ee6de07e70aa9ef7b,6628df8b76fef1ba689272bc,,,,,,,,,,,,,,,,,,,,,,,,,,,,,,,,,,173.29,175.2416,"[2,4,3,6,1,8,7,5]","[[-0.3,0.2],[0.3,0.2]]","[[-0.125,-0.2],[0.125,-0.2]]",-0.103333346,-0.172500038,1,0,0,1.451,o1_image,175.2426,1,175.742,175.742,177.7457,0,0,0,0,1,,,,,,,,,,,,,,,,,,,,,,,,,,,,,,,,,,,,,,,,,,,,,,,,,,
,,5b9d57e5737d030001ad2cbf,56,male,2024-04-24_11h31.45.723,stockport_simplified,2022.2.4,Win32,59.88023952,661e456ee6de07e70aa9ef7b,6628df8b76fef1ba689272bc,,,,,,,,,,,,,,,,,,,,,,,,,,,,,,,,,,,,,,,,,,,,,,,,,,,,,,,,0,6,6,22,1,N,M,C,o1_image,stimuli/out1.png,stimuli/correct_out1.png,stimuli/out2.png,,,,,,,,,,,,,,,,,,,,,,,,,,,,,,,,,,,,,,
,,5b9d57e5737d030001ad2cbf,56,male,2024-04-24_11h31.45.723,stockport_simplified,2022.2.4,Win32,59.88023952,661e456ee6de07e70aa9ef7b,6628df8b76fef1ba689272bc,,,,,,,,,,,,,,,,,,,,,,,,,,,,,,,,,,177.7459,180.2287,"[2,4,3,6,1,8,7,5]","[[-0.3,0.2],[0.3,0.2]]","[[-0.125,-0.2],[0.125,-0.2]]",-0.135833295,-0.188333321,1,0,0,1.9673,o1_image,180.2362,1,180.7291,180.7291,182.7308,0,0,0,0,1,,,,,,,,,,,,,,,,,,,,,,,,,,,,,,,,,,,,,,,,,,,,,,,,,,
,,5b9d57e5737d030001ad2cbf,56,male,2024-04-24_11h31.45.723,stockport_simplified,2022.2.4,Win32,59.88023952,661e456ee6de07e70aa9ef7b,6628df8b76fef1ba689272bc,,,,,,,,,,,,,,,,,,,,,,,,,,,,,,,,,,,,,,,,,,,,,,,,,,,,,,,,0,7,7,37,1,A,Y,N,o1_image,stimuli/out1.png,stimuli/correct_out1.png,stimuli/out2.png,,,,,,,,,,,,,,,,,,,,,,,,,,,,,,,,,,,,,,
,,5b9d57e5737d030001ad2cbf,56,male,2024-04-24_11h31.45.723,stockport_simplified,2022.2.4,Win32,59.88023952,661e456ee6de07e70aa9ef7b,6628df8b76fef1ba689272bc,,,,,,,,,,,,,,,,,,,,,,,,,,,,,,,,,,182.7311,185.2022,"[2,4,3,6,1,8,7,5]","[[-0.3,0.2],[0.3,0.2]]","[[-0.125,-0.2],[0.125,-0.2]]",0.113333321,-0.188333321,1,0,0,1.9701,o2_image,185.2028,1,185.7,185.7001,187.7015,0,0,0,0,1,,,,,,,,,,,,,,,,,,,,,,,,,,,,,,,,,,,,,,,,,,,,,,,,,,
,,5b9d57e5737d030001ad2cbf,56,male,2024-04-24_11h31.45.723,stockport_simplified,2022.2.4,Win32,59.88023952,661e456ee6de07e70aa9ef7b,6628df8b76fef1ba689272bc,,,,,,,,,,,,,,,,,,,,,,,,,,,,,,,,,,,,,,,,,,,,,,,,,,,,,,,,0,8,8,17,1,B,Y,N,o2_image,stimuli/out2.png,stimuli/out1.png,stimuli/correct_out2.png,,,,,,,,,,,,,,,,,,,,,,,,,,,,,,,,,,,,,,
,,5b9d57e5737d030001ad2cbf,56,male,2024-04-24_11h31.45.723,stockport_simplified,2022.2.4,Win32,59.88023952,661e456ee6de07e70aa9ef7b,6628df8b76fef1ba689272bc,,,,,,,,,,,,,,,,,,,,,,,,,,,,,,,,,,187.7024,189.1886,"[2,4,3,6,1,8,7,5]","[[0.3,0.2],[-0.3,0.2]]","[[-0.125,-0.2],[0.125,-0.2]]",-0.100833321,-0.181666692,1,0,0,0.9693,o1_image,189.1891,0,189.6863,189.6863,191.6879,0,0,0,0,1,,,,,,,,,,,,,,,,,,,,,,,,,,,,,,,,,,,,,,,,,,,,,,,,,,
,,5b9d57e5737d030001ad2cbf,56,male,2024-04-24_11h31.45.723,stockport_simplified,2022.2.4,Win32,59.88023952,661e456ee6de07e70aa9ef7b,6628df8b76fef1ba689272bc,,,,,,,,,,,,,,,,,,,,,,,,,,,,,,,,,,,,,,,,,,,,,,,,,,,,,,,,0,9,9,42,1,B,X,N,o2_image,stimuli/out2.png,stimuli/out1.png,stimuli/correct_out2.png,,,,,,,,,,,,,,,,,,,,,,,,,,,,,,,,,,,,,,
,,5b9d57e5737d030001ad2cbf,56,male,2024-04-24_11h31.45.723,stockport_simplified,2022.2.4,Win32,59.88023952,661e456ee6de07e70aa9ef7b,6628df8b76fef1ba689272bc,,,,,,,,,,,,,,,,,,,,,,,,,,,,,,,,,,191.6883,193.5397,"[2,4,3,6,1,8,7,5]","[[-0.3,0.2],[0.3,0.2]]","[[-0.125,-0.2],[0.125,-0.2]]",0.109166654,-0.191666667,1,0,0,1.3484,o2_image,193.5405,0,194.0401,194.0401,196.0425,0,0,0,0,1,,,,,,,,,,,,,,,,,,,,,,,,,,,,,,,,,,,,,,,,,,,,,,,,,,
,,5b9d57e5737d030001ad2cbf,56,male,2024-04-24_11h31.45.723,stockport_simplified,2022.2.4,Win32,59.88023952,661e456ee6de07e70aa9ef7b,6628df8b76fef1ba689272bc,,,,,,,,,,,,,,,,,,,,,,,,,,,,,,,,,,,,,,,,,,,,,,,,,,,,,,,,0,10,10,54,1,N,M,C,o1_image,stimuli/out1.png,stimuli/correct_out1.png,stimuli/out2.png,,,,,,,,,,,,,,,,,,,,,,,,,,,,,,,,,,,,,,
,,5b9d57e5737d030001ad2cbf,56,male,2024-04-24_11h31.45.723,stockport_simplified,2022.2.4,Win32,59.88023952,661e456ee6de07e70aa9ef7b,6628df8b76fef1ba689272bc,,,,,,,,,,,,,,,,,,,,,,,,,,,,,,,,,,196.043,198.1267,"[2,4,3,6,1,8,7,5]","[[0.3,0.2],[-0.3,0.2]]","[[0.125,-0.2],[-0.125,-0.2]]",-0.128333346,-0.160000038,1,0,0,1.5676,o2_image,198.1272,0,198.6293,198.6293,200.6284,0,0,0,0,1,,,,,,,,,,,,,,,,,,,,,,,,,,,,,,,,,,,,,,,,,,,,,,,,,,
,,5b9d57e5737d030001ad2cbf,56,male,2024-04-24_11h31.45.723,stockport_simplified,2022.2.4,Win32,59.88023952,661e456ee6de07e70aa9ef7b,6628df8b76fef1ba689272bc,,,,,,,,,,,,,,,,,,,,,,,,,,,,,,,,,,,,,,,,,,,,,,,,,,,,,,,,0,11,11,2,1,A,X,N,o1_image,stimuli/out1.png,stimuli/correct_out1.png,stimuli/out2.png,,,,,,,,,,,,,,,,,,,,,,,,,,,,,,,,,,,,,,
,,5b9d57e5737d030001ad2cbf,56,male,2024-04-24_11h31.45.723,stockport_simplified,2022.2.4,Win32,59.88023952,661e456ee6de07e70aa9ef7b,6628df8b76fef1ba689272bc,,,,,,,,,,,,,,,,,,,,,,,,,,,,,,,,,,200.6287,202.6467,"[2,4,3,6,1,8,7,5]","[[0.3,0.2],[-0.3,0.2]]","[[-0.125,-0.2],[0.125,-0.2]]",-0.104999987,-0.186666679,1,0,0,1.5174,o1_image,202.6472,1,203.147,203.147,205.1491,0,0,0,0,1,,,,,,,,,,,,,,,,,,,,,,,,,,,,,,,,,,,,,,,,,,,,,,,,,,
,,5b9d57e5737d030001ad2cbf,56,male,2024-04-24_11h31.45.723,stockport_simplified,2022.2.4,Win32,59.88023952,661e456ee6de07e70aa9ef7b,6628df8b76fef1ba689272bc,,,,,,,,,,,,,,,,,,,,,,,,,,,,,,,,,,,,,,,,,,,,,,,,,,,,,,,,0,12,12,33,1,A,X,N,o1_image,stimuli/out1.png,stimuli/correct_out1.png,stimuli/out2.png,,,,,,,,,,,,,,,,,,,,,,,,,,,,,,,,,,,,,,
,,5b9d57e5737d030001ad2cbf,56,male,2024-04-24_11h31.45.723,stockport_simplified,2022.2.4,Win32,59.88023952,661e456ee6de07e70aa9ef7b,6628df8b76fef1ba689272bc,,,,,,,,,,,,,,,,,,,,,,,,,,,,,,,,,,205.1493,207.7341,"[2,4,3,6,1,8,7,5]","[[0.3,0.2],[-0.3,0.2]]","[[0.125,-0.2],[-0.125,-0.2]]",0.093333371,-0.201666705,1,0,0,2.0677,o1_image,207.7349,0,208.2346,208.2346,210.2365,0,0,0,0,1,,,,,,,,,,,,,,,,,,,,,,,,,,,,,,,,,,,,,,,,,,,,,,,,,,
,,5b9d57e5737d030001ad2cbf,56,male,2024-04-24_11h31.45.723,stockport_simplified,2022.2.4,Win32,59.88023952,661e456ee6de07e70aa9ef7b,6628df8b76fef1ba689272bc,,,,,,,,,,,,,,,,,,,,,,,,,,,,,,,,,,,,,,,,,,,,,,,,,,,,,,,,0,13,13,18,1,B,Y,N,o2_image,stimuli/out2.png,stimuli/out1.png,stimuli/correct_out2.png,,,,,,,,,,,,,,,,,,,,,,,,,,,,,,,,,,,,,,
,,5b9d57e5737d030001ad2cbf,56,male,2024-04-24_11h31.45.723,stockport_simplified,2022.2.4,Win32,59.88023952,661e456ee6de07e70aa9ef7b,6628df8b76fef1ba689272bc,,,,,,,,,,,,,,,,,,,,,,,,,,,,,,,,,,210.2368,212.9052,"[2,4,3,6,1,8,7,5]","[[0.3,0.2],[-0.3,0.2]]","[[-0.125,-0.2],[0.125,-0.2]]",0.120833333,-0.213333321,1,0,0,2.1515,o2_image,212.9061,0,213.4055,213.4055,215.4069,0,0,0,0,1,,,,,,,,,,,,,,,,,,,,,,,,,,,,,,,,,,,,,,,,,,,,,,,,,,
,,5b9d57e5737d030001ad2cbf,56,male,2024-04-24_11h31.45.723,stockport_simplified,2022.2.4,Win32,59.88023952,661e456ee6de07e70aa9ef7b,6628df8b76fef1ba689272bc,,,,,,,,,,,,,,,,,,,,,,,,,,,,,,,,,,,,,,,,,,,,,,,,,,,,,,,,0,14,14,51,1,N,M,C,o1_image,stimuli/out1.png,stimuli/correct_out1.png,stimuli/out2.png,,,,,,,,,,,,,,,,,,,,,,,,,,,,,,,,,,,,,,
,,5b9d57e5737d030001ad2cbf,56,male,2024-04-24_11h31.45.723,stockport_simplified,2022.2.4,Win32,59.88023952,661e456ee6de07e70aa9ef7b,6628df8b76fef1ba689272bc,,,,,,,,,,,,,,,,,,,,,,,,,,,,,,,,,,215.4071,217.4756,"[2,4,3,6,1,8,7,5]","[[-0.3,0.2],[0.3,0.2]]","[[-0.125,-0.2],[0.125,-0.2]]",-0.145833333,-0.201666705,1,0,0,1.5674,o1_image,217.4763,1,217.9757,217.9757,219.9777,0,0,0,0,1,,,,,,,,,,,,,,,,,,,,,,,,,,,,,,,,,,,,,,,,,,,,,,,,,,
,,5b9d57e5737d030001ad2cbf,56,male,2024-04-24_11h31.45.723,stockport_simplified,2022.2.4,Win32,59.88023952,661e456ee6de07e70aa9ef7b,6628df8b76fef1ba689272bc,,,,,,,,,,,,,,,,,,,,,,,,,,,,,,,,,,,,,,,,,,,,,,,,,,,,,,,,0,15,15,34,1,A,X,N,o1_image,stimuli/out1.png,stimuli/correct_out1.png,stimuli/out2.png,,,,,,,,,,,,,,,,,,,,,,,,,,,,,,,,,,,,,,
,,5b9d57e5737d030001ad2cbf,56,male,2024-04-24_11h31.45.723,stockport_simplified,2022.2.4,Win32,59.88023952,661e456ee6de07e70aa9ef7b,6628df8b76fef1ba689272bc,,,,,,,,,,,,,,,,,,,,,,,,,,,,,,,,,,219.9783,222.6127,"[2,4,3,6,1,8,7,5]","[[0.3,0.2],[-0.3,0.2]]","[[-0.125,-0.2],[0.125,-0.2]]",0.134166654,-0.189166705,1,0,0,2.118,o2_image,222.6133,1,223.113,223.1131,225.1147,0,0,0,0,1,,,,,,,,,,,,,,,,,,,,,,,,,,,,,,,,,,,,,,,,,,,,,,,,,,
,,5b9d57e5737d030001ad2cbf,56,male,2024-04-24_11h31.45.723,stockport_simplified,2022.2.4,Win32,59.88023952,661e456ee6de07e70aa9ef7b,6628df8b76fef1ba689272bc,,,,,,,,,,,,,,,,,,,,,,,,,,,,,,,,,,,,,,,,,,,,,,,,,,,,,,,,0,16,16,26,1,N,M,D,o2_image,stimuli/out2.png,stimuli/out1.png,stimuli/correct_out2.png,,,,,,,,,,,,,,,,,,,,,,,,,,,,,,,,,,,,,,
,,5b9d57e5737d030001ad2cbf,56,male,2024-04-24_11h31.45.723,stockport_simplified,2022.2.4,Win32,59.88023952,661e456ee6de07e70aa9ef7b,6628df8b76fef1ba689272bc,,,,,,,,,,,,,,,,,,,,,,,,,,,,,,,,,,225.1151,227.4168,"[2,4,3,6,1,8,7,5]","[[0.3,0.2],[-0.3,0.2]]","[[0.125,-0.2],[-0.125,-0.2]]",-0.105833308,-0.184166654,1,0,0,1.7848,o2_image,227.4173,1,227.917,227.9171,229.9189,0,0,0,0,1,,,,,,,,,,,,,,,,,,,,,,,,,,,,,,,,,,,,,,,,,,,,,,,,,,
,,5b9d57e5737d030001ad2cbf,56,male,2024-04-24_11h31.45.723,stockport_simplified,2022.2.4,Win32,59.88023952,661e456ee6de07e70aa9ef7b,6628df8b76fef1ba689272bc,,,,,,,,,,,,,,,,,,,,,,,,,,,,,,,,,,,,,,,,,,,,,,,,,,,,,,,,0,17,17,57,1,N,M,D,o2_image,stimuli/out2.png,stimuli/out1.png,stimuli/correct_out2.png,,,,,,,,,,,,,,,,,,,,,,,,,,,,,,,,,,,,,,
,,5b9d57e5737d030001ad2cbf,56,male,2024-04-24_11h31.45.723,stockport_simplified,2022.2.4,Win32,59.88023952,661e456ee6de07e70aa9ef7b,6628df8b76fef1ba689272bc,,,,,,,,,,,,,,,,,,,,,,,,,,,,,,,,,,229.9194,232.2371,"[2,4,3,6,1,8,7,5]","[[-0.3,0.2],[0.3,0.2]]","[[0.125,-0.2],[-0.125,-0.2]]",0.109166654,-0.175833321,1,0,0,1.8007,o1_image,232.2442,1,232.74,232.7401,234.7417,0,0,0,0,1,,,,,,,,,,,,,,,,,,,,,,,,,,,,,,,,,,,,,,,,,,,,,,,,,,
,,5b9d57e5737d030001ad2cbf,56,male,2024-04-24_11h31.45.723,stockport_simplified,2022.2.4,Win32,59.88023952,661e456ee6de07e70aa9ef7b,6628df8b76fef1ba689272bc,,,,,,,,,,,,,,,,,,,,,,,,,,,,,,,,,,,,,,,,,,,,,,,,,,,,,,,,0,18,18,23,1,N,M,C,o1_image,stimuli/out1.png,stimuli/correct_out1.png,stimuli/out2.png,,,,,,,,,,,,,,,,,,,,,,,,,,,,,,,,,,,,,,
,,5b9d57e5737d030001ad2cbf,56,male,2024-04-24_11h31.45.723,stockport_simplified,2022.2.4,Win32,59.88023952,661e456ee6de07e70aa9ef7b,6628df8b76fef1ba689272bc,,,,,,,,,,,,,,,,,,,,,,,,,,,,,,,,,,234.742,236.9577,"[2,4,3,6,1,8,7,5]","[[-0.3,0.2],[0.3,0.2]]","[[-0.125,-0.2],[0.125,-0.2]]",-0.125833321,-0.186666679,1,0,0,1.6989,o1_image,236.9583,0,237.4584,237.4584,239.4599,0,0,0,0,1,,,,,,,,,,,,,,,,,,,,,,,,,,,,,,,,,,,,,,,,,,,,,,,,,,
,,5b9d57e5737d030001ad2cbf,56,male,2024-04-24_11h31.45.723,stockport_simplified,2022.2.4,Win32,59.88023952,661e456ee6de07e70aa9ef7b,6628df8b76fef1ba689272bc,,,,,,,,,,,,,,,,,,,,,,,,,,,,,,,,,,,,,,,,,,,,,,,,,,,,,,,,0,19,19,16,1,B,Y,N,o2_image,stimuli/out2.png,stimuli/out1.png,stimuli/correct_out2.png,,,,,,,,,,,,,,,,,,,,,,,,,,,,,,,,,,,,,,
,,5b9d57e5737d030001ad2cbf,56,male,2024-04-24_11h31.45.723,stockport_simplified,2022.2.4,Win32,59.88023952,661e456ee6de07e70aa9ef7b,6628df8b76fef1ba689272bc,,,,,,,,,,,,,,,,,,,,,,,,,,,,,,,,,,239.4604,242.2786,"[2,4,3,6,1,8,7,5]","[[-0.3,0.2],[0.3,0.2]]","[[-0.125,-0.2],[0.125,-0.2]]",-0.115833346,-0.165000025,1,0,0,2.3177,o1_image,242.2861,1,242.7795,242.7795,244.7805,0,0,0,0,1,,,,,,,,,,,,,,,,,,,,,,,,,,,,,,,,,,,,,,,,,,,,,,,,,,
,,5b9d57e5737d030001ad2cbf,56,male,2024-04-24_11h31.45.723,stockport_simplified,2022.2.4,Win32,59.88023952,661e456ee6de07e70aa9ef7b,6628df8b76fef1ba689272bc,,,,,,,,,,,,,,,,,,,,,,,,,,,,,,,,,,,,,,,,,,,,,,,,,,,,,,,,0,20,20,21,1,N,M,C,o1_image,stimuli/out1.png,stimuli/correct_out1.png,stimuli/out2.png,,,,,,,,,,,,,,,,,,,,,,,,,,,,,,,,,,,,,,
,,5b9d57e5737d030001ad2cbf,56,male,2024-04-24_11h31.45.723,stockport_simplified,2022.2.4,Win32,59.88023952,661e456ee6de07e70aa9ef7b,6628df8b76fef1ba689272bc,,,,,,,,,,,,,,,,,,,,,,,,,,,,,,,,,,244.7808,247.0494,"[2,4,3,6,1,8,7,5]","[[0.3,0.2],[-0.3,0.2]]","[[-0.125,-0.2],[0.125,-0.2]]",0.099166679,-0.195000013,1,0,0,1.7673,o2_image,247.0503,1,247.5497,247.5497,249.5513,0,0,0,0,1,,,,,,,,,,,,,,,,,,,,,,,,,,,,,,,,,,,,,,,,,,,,,,,,,,
,,5b9d57e5737d030001ad2cbf,56,male,2024-04-24_11h31.45.723,stockport_simplified,2022.2.4,Win32,59.88023952,661e456ee6de07e70aa9ef7b,6628df8b76fef1ba689272bc,,,,,,,,,,,,,,,,,,,,,,,,,,,,,,,,,,,,,,,,,,,,,,,,,,,,,,,,0,21,21,29,1,N,M,D,o2_image,stimuli/out2.png,stimuli/out1.png,stimuli/correct_out2.png,,,,,,,,,,,,,,,,,,,,,,,,,,,,,,,,,,,,,,
,,5b9d57e5737d030001ad2cbf,56,male,2024-04-24_11h31.45.723,stockport_simplified,2022.2.4,Win32,59.88023952,661e456ee6de07e70aa9ef7b,6628df8b76fef1ba689272bc,,,,,,,,,,,,,,,,,,,,,,,,,,,,,,,,,,249.5515,251.2217,"[2,4,3,6,1,8,7,5]","[[-0.3,0.2],[0.3,0.2]]","[[0.125,-0.2],[-0.125,-0.2]]",-0.116666667,-0.176666705,1,0,0,1.1695,o2_image,251.2224,1,251.7197,251.7197,253.7213,0,0,0,0,1,,,,,,,,,,,,,,,,,,,,,,,,,,,,,,,,,,,,,,,,,,,,,,,,,,
,,5b9d57e5737d030001ad2cbf,56,male,2024-04-24_11h31.45.723,stockport_simplified,2022.2.4,Win32,59.88023952,661e456ee6de07e70aa9ef7b,6628df8b76fef1ba689272bc,,,,,,,,,,,,,,,,,,,,,,,,,,,,,,,,,,,,,,,,,,,,,,,,,,,,,,,,0,22,22,28,1,N,M,D,o2_image,stimuli/out2.png,stimuli/out1.png,stimuli/correct_out2.png,,,,,,,,,,,,,,,,,,,,,,,,,,,,,,,,,,,,,,
,,5b9d57e5737d030001ad2cbf,56,male,2024-04-24_11h31.45.723,stockport_simplified,2022.2.4,Win32,59.88023952,661e456ee6de07e70aa9ef7b,6628df8b76fef1ba689272bc,,,,,,,,,,,,,,,,,,,,,,,,,,,,,,,,,,253.7218,255.2247,"[2,4,3,6,1,8,7,5]","[[-0.3,0.2],[0.3,0.2]]","[[0.125,-0.2],[-0.125,-0.2]]",-0.102499962,-0.151666705,1,0,0,0.9855,o2_image,255.2253,0,255.7229,255.723,257.7243,0,0,0,0,1,,,,,,,,,,,,,,,,,,,,,,,,,,,,,,,,,,,,,,,,,,,,,,,,,,
,,5b9d57e5737d030001ad2cbf,56,male,2024-04-24_11h31.45.723,stockport_simplified,2022.2.4,Win32,59.88023952,661e456ee6de07e70aa9ef7b,6628df8b76fef1ba689272bc,,,,,,,,,,,,,,,,,,,,,,,,,,,,,,,,,,,,,,,,,,,,,,,,,,,,,,,,0,23,23,30,1,A,X,N,o1_image,stimuli/out1.png,stimuli/correct_out1.png,stimuli/out2.png,,,,,,,,,,,,,,,,,,,,,,,,,,,,,,,,,,,,,,
,,5b9d57e5737d030001ad2cbf,56,male,2024-04-24_11h31.45.723,stockport_simplified,2022.2.4,Win32,59.88023952,661e456ee6de07e70aa9ef7b,6628df8b76fef1ba689272bc,,,,,,,,,,,,,,,,,,,,,,,,,,,,,,,,,,257.7246,258.9923,"[2,4,3,6,1,8,7,5]","[[-0.3,0.2],[0.3,0.2]]","[[0.125,-0.2],[-0.125,-0.2]]",-0.090833346,-0.171666654,1,0,0,0.7672,o2_image,258.9928,1,259.4926,259.4926,261.4944,0,0,0,0,1,,,,,,,,,,,,,,,,,,,,,,,,,,,,,,,,,,,,,,,,,,,,,,,,,,
,,5b9d57e5737d030001ad2cbf,56,male,2024-04-24_11h31.45.723,stockport_simplified,2022.2.4,Win32,59.88023952,661e456ee6de07e70aa9ef7b,6628df8b76fef1ba689272bc,,,,,,,,,,,,,,,,,,,,,,,,,,,,,,,,,,,,,,,,,,,,,,,,,,,,,,,,0,24,24,46,1,B,Y,N,o2_image,stimuli/out2.png,stimuli/out1.png,stimuli/correct_out2.png,,,,,,,,,,,,,,,,,,,,,,,,,,,,,,,,,,,,,,
,,5b9d57e5737d030001ad2cbf,56,male,2024-04-24_11h31.45.723,stockport_simplified,2022.2.4,Win32,59.88023952,661e456ee6de07e70aa9ef7b,6628df8b76fef1ba689272bc,,,,,,,,,,,,,,,,,,,,,,,,,,,,,,,,,,261.4948,262.9452,"[2,4,3,6,1,8,7,5]","[[-0.3,0.2],[0.3,0.2]]","[[-0.125,-0.2],[0.125,-0.2]]",0.129166667,-0.199166679,1,0,0,0.9335,o2_image,262.9458,0,263.4458,263.4458,265.4473,0,0,0,0,1,,,,,,,,,,,,,,,,,,,,,,,,,,,,,,,,,,,,,,,,,,,,,,,,,,
,,5b9d57e5737d030001ad2cbf,56,male,2024-04-24_11h31.45.723,stockport_simplified,2022.2.4,Win32,59.88023952,661e456ee6de07e70aa9ef7b,6628df8b76fef1ba689272bc,,,,,,,,,,,,,,,,,,,,,,,,,,,,,,,,,,,,,,,,,,,,,,,,,,,,,,,,0,25,25,6,1,A,Y,N,o1_image,stimuli/out1.png,stimuli/correct_out1.png,stimuli/out2.png,,,,,,,,,,,,,,,,,,,,,,,,,,,,,,,,,,,,,,
,,5b9d57e5737d030001ad2cbf,56,male,2024-04-24_11h31.45.723,stockport_simplified,2022.2.4,Win32,59.88023952,661e456ee6de07e70aa9ef7b,6628df8b76fef1ba689272bc,,,,,,,,,,,,,,,,,,,,,,,,,,,,,,,,,,265.4476,267.5488,"[2,4,3,6,1,8,7,5]","[[0.3,0.2],[-0.3,0.2]]","[[-0.125,-0.2],[0.125,-0.2]]",0.136666679,-0.197500038,1,0,0,1.5838,o2_image,267.5496,1,268.0495,268.0495,270.0515,0,0,0,0,1,,,,,,,,,,,,,,,,,,,,,,,,,,,,,,,,,,,,,,,,,,,,,,,,,,
,,5b9d57e5737d030001ad2cbf,56,male,2024-04-24_11h31.45.723,stockport_simplified,2022.2.4,Win32,59.88023952,661e456ee6de07e70aa9ef7b,6628df8b76fef1ba689272bc,,,,,,,,,,,,,,,,,,,,,,,,,,,,,,,,,,,,,,,,,,,,,,,,,,,,,,,,0,26,26,40,1,B,X,N,o2_image,stimuli/out2.png,stimuli/out1.png,stimuli/correct_out2.png,,,,,,,,,,,,,,,,,,,,,,,,,,,,,,,,,,,,,,
,,5b9d57e5737d030001ad2cbf,56,male,2024-04-24_11h31.45.723,stockport_simplified,2022.2.4,Win32,59.88023952,661e456ee6de07e70aa9ef7b,6628df8b76fef1ba689272bc,,,,,,,,,,,,,,,,,,,,,,,,,,,,,,,,,,270.052,272.0025,"[2,4,3,6,1,8,7,5]","[[0.3,0.2],[-0.3,0.2]]","[[0.125,-0.2],[-0.125,-0.2]]",-0.097499975,-0.181666692,1,0,0,1.4344,o2_image,272.0031,1,272.5033,272.5034,274.5047,0,0,0,0,1,,,,,,,,,,,,,,,,,,,,,,,,,,,,,,,,,,,,,,,,,,,,,,,,,,
,,5b9d57e5737d030001ad2cbf,56,male,2024-04-24_11h31.45.723,stockport_simplified,2022.2.4,Win32,59.88023952,661e456ee6de07e70aa9ef7b,6628df8b76fef1ba689272bc,,,,,,,,,,,,,,,,,,,,,,,,,,,,,,,,,,,,,,,,,,,,,,,,,,,,,,,,0,27,27,49,1,B,Y,N,o2_image,stimuli/out2.png,stimuli/out1.png,stimuli/correct_out2.png,,,,,,,,,,,,,,,,,,,,,,,,,,,,,,,,,,,,,,
,,5b9d57e5737d030001ad2cbf,56,male,2024-04-24_11h31.45.723,stockport_simplified,2022.2.4,Win32,59.88023952,661e456ee6de07e70aa9ef7b,6628df8b76fef1ba689272bc,,,,,,,,,,,,,,,,,,,,,,,,,,,,,,,,,,274.5052,276.3893,"[2,4,3,6,1,8,7,5]","[[0.3,0.2],[-0.3,0.2]]","[[-0.125,-0.2],[0.125,-0.2]]",-0.091666667,-0.186666679,1,0,0,1.3673,o1_image,276.3898,0,276.8899,276.89,278.8916,0,0,0,0,1,,,,,,,,,,,,,,,,,,,,,,,,,,,,,,,,,,,,,,,,,,,,,,,,,,
,,5b9d57e5737d030001ad2cbf,56,male,2024-04-24_11h31.45.723,stockport_simplified,2022.2.4,Win32,59.88023952,661e456ee6de07e70aa9ef7b,6628df8b76fef1ba689272bc,,,,,,,,,,,,,,,,,,,,,,,,,,,,,,,,,,,,,,,,,,,,,,,,,,,,,,,,0,28,28,44,1,B,X,N,o2_image,stimuli/out2.png,stimuli/out1.png,stimuli/correct_out2.png,,,,,,,,,,,,,,,,,,,,,,,,,,,,,,,,,,,,,,
,,5b9d57e5737d030001ad2cbf,56,male,2024-04-24_11h31.45.723,stockport_simplified,2022.2.4,Win32,59.88023952,661e456ee6de07e70aa9ef7b,6628df8b76fef1ba689272bc,,,,,,,,,,,,,,,,,,,,,,,,,,,,,,,,,,278.8919,281.2936,"[2,4,3,6,1,8,7,5]","[[-0.3,0.2],[0.3,0.2]]","[[-0.125,-0.2],[0.125,-0.2]]",-0.131666629,-0.170833333,1,0,0,1.8848,o1_image,281.2949,1,281.7938,281.7938,283.7955,0,0,0,0,1,,,,,,,,,,,,,,,,,,,,,,,,,,,,,,,,,,,,,,,,,,,,,,,,,,
,,5b9d57e5737d030001ad2cbf,56,male,2024-04-24_11h31.45.723,stockport_simplified,2022.2.4,Win32,59.88023952,661e456ee6de07e70aa9ef7b,6628df8b76fef1ba689272bc,,,,,,,,,,,,,,,,,,,,,,,,,,,,,,,,,,,,,,,,,,,,,,,,,,,,,,,,0,29,29,20,1,N,M,C,o1_image,stimuli/out1.png,stimuli/correct_out1.png,stimuli/out2.png,,,,,,,,,,,,,,,,,,,,,,,,,,,,,,,,,,,,,,
,,5b9d57e5737d030001ad2cbf,56,male,2024-04-24_11h31.45.723,stockport_simplified,2022.2.4,Win32,59.88023952,661e456ee6de07e70aa9ef7b,6628df8b76fef1ba689272bc,,,,,,,,,,,,,,,,,,,,,,,,,,,,,,,,,,283.7959,285.5802,"[2,4,3,6,1,8,7,5]","[[0.3,0.2],[-0.3,0.2]]","[[0.125,-0.2],[-0.125,-0.2]]",-0.113333321,-0.204166667,1,0,0,1.2675,o2_image,285.581,0,286.0808,286.0808,288.0821,0,0,0,0,1,,,,,,,,,,,,,,,,,,,,,,,,,,,,,,,,,,,,,,,,,,,,,,,,,,
,,5b9d57e5737d030001ad2cbf,56,male,2024-04-24_11h31.45.723,stockport_simplified,2022.2.4,Win32,59.88023952,661e456ee6de07e70aa9ef7b,6628df8b76fef1ba689272bc,,,,,,,,,,,,,,,,,,,,,,,,,,,,,,,,,,,,,,,,,,,,,,,,,,,,,,,,0,30,30,5,1,A,Y,N,o1_image,stimuli/out1.png,stimuli/correct_out1.png,stimuli/out2.png,,,,,,,,,,,,,,,,,,,,,,,,,,,,,,,,,,,,,,
,,5b9d57e5737d030001ad2cbf,56,male,2024-04-24_11h31.45.723,stockport_simplified,2022.2.4,Win32,59.88023952,661e456ee6de07e70aa9ef7b,6628df8b76fef1ba689272bc,,,,,,,,,,,,,,,,,,,,,,,,,,,,,,,,,,288.0824,290.1337,"[2,4,3,6,1,8,7,5]","[[0.3,0.2],[-0.3,0.2]]","[[0.125,-0.2],[-0.125,-0.2]]",-0.123333295,-0.177500025,1,0,0,1.5489,o2_image,290.1343,1,290.6366,290.6366,292.636,0,0,0,0,1,,,,,,,,,,,,,,,,,,,,,,,,,,,,,,,,,,,,,,,,,,,,,,,,,,
,,5b9d57e5737d030001ad2cbf,56,male,2024-04-24_11h31.45.723,stockport_simplified,2022.2.4,Win32,59.88023952,661e456ee6de07e70aa9ef7b,6628df8b76fef1ba689272bc,,,,,,,,,,,,,,,,,,,,,,,,,,,,,,,,,,,,,,,,,,,,,,,,,,,,,,,,0,31,31,13,1,B,X,N,o2_image,stimuli/out2.png,stimuli/out1.png,stimuli/correct_out2.png,,,,,,,,,,,,,,,,,,,,,,,,,,,,,,,,,,,,,,
,,5b9d57e5737d030001ad2cbf,56,male,2024-04-24_11h31.45.723,stockport_simplified,2022.2.4,Win32,59.88023952,661e456ee6de07e70aa9ef7b,6628df8b76fef1ba689272bc,,,,,,,,,,,,,,,,,,,,,,,,,,,,,,,,,,292.6364,295.0714,"[2,4,3,6,1,8,7,5]","[[0.3,0.2],[-0.3,0.2]]","[[-0.125,-0.2],[0.125,-0.2]]",-0.095833333,-0.191666667,1,0,0,1.9181,o1_image,295.0719,1,295.5714,295.5714,297.573,0,0,0,0,1,,,,,,,,,,,,,,,,,,,,,,,,,,,,,,,,,,,,,,,,,,,,,,,,,,
,,5b9d57e5737d030001ad2cbf,56,male,2024-04-24_11h31.45.723,stockport_simplified,2022.2.4,Win32,59.88023952,661e456ee6de07e70aa9ef7b,6628df8b76fef1ba689272bc,,,,,,,,,,,,,,,,,,,,,,,,,,,,,,,,,,,,,,,,,,,,,,,,,,,,,,,,0,32,32,39,1,A,Y,N,o1_image,stimuli/out1.png,stimuli/correct_out1.png,stimuli/out2.png,,,,,,,,,,,,,,,,,,,,,,,,,,,,,,,,,,,,,,
,,5b9d57e5737d030001ad2cbf,56,male,2024-04-24_11h31.45.723,stockport_simplified,2022.2.4,Win32,59.88023952,661e456ee6de07e70aa9ef7b,6628df8b76fef1ba689272bc,,,,,,,,,,,,,,,,,,,,,,,,,,,,,,,,,,297.5734,299.4412,"[2,4,3,6,1,8,7,5]","[[0.3,0.2],[-0.3,0.2]]","[[-0.125,-0.2],[0.125,-0.2]]",-0.123333295,-0.197500038,1,0,0,1.367,o1_image,299.4417,1,299.9417,299.9418,301.9456,0,0,0,0,1,,,,,,,,,,,,,,,,,,,,,,,,,,,,,,,,,,,,,,,,,,,,,,,,,,
,,5b9d57e5737d030001ad2cbf,56,male,2024-04-24_11h31.45.723,stockport_simplified,2022.2.4,Win32,59.88023952,661e456ee6de07e70aa9ef7b,6628df8b76fef1ba689272bc,,,,,,,,,,,,,,,,,,,,,,,,,,,,,,,,,,,,,,,,,,,,,,,,,,,,,,,,0,33,33,50,1,N,M,C,o1_image,stimuli/out1.png,stimuli/correct_out1.png,stimuli/out2.png,,,,,,,,,,,,,,,,,,,,,,,,,,,,,,,,,,,,,,
,,5b9d57e5737d030001ad2cbf,56,male,2024-04-24_11h31.45.723,stockport_simplified,2022.2.4,Win32,59.88023952,661e456ee6de07e70aa9ef7b,6628df8b76fef1ba689272bc,,,,,,,,,,,,,,,,,,,,,,,,,,,,,,,,,,301.9459,303.3969,"[2,4,3,6,1,8,7,5]","[[-0.3,0.2],[0.3,0.2]]","[[0.125,-0.2],[-0.125,-0.2]]",-0.131666629,-0.149166679,1,0,0,0.9359,o2_image,303.3974,0,303.8949,303.895,305.8964,0,0,0,0,1,,,,,,,,,,,,,,,,,,,,,,,,,,,,,,,,,,,,,,,,,,,,,,,,,,
,,5b9d57e5737d030001ad2cbf,56,male,2024-04-24_11h31.45.723,stockport_simplified,2022.2.4,Win32,59.88023952,661e456ee6de07e70aa9ef7b,6628df8b76fef1ba689272bc,,,,,,,,,,,,,,,,,,,,,,,,,,,,,,,,,,,,,,,,,,,,,,,,,,,,,,,,0,34,34,8,1,A,Y,N,o1_image,stimuli/out1.png,stimuli/correct_out1.png,stimuli/out2.png,,,,,,,,,,,,,,,,,,,,,,,,,,,,,,,,,,,,,,
,,5b9d57e5737d030001ad2cbf,56,male,2024-04-24_11h31.45.723,stockport_simplified,2022.2.4,Win32,59.88023952,661e456ee6de07e70aa9ef7b,6628df8b76fef1ba689272bc,,,,,,,,,,,,,,,,,,,,,,,,,,,,,,,,,,305.8967,307.632,"[2,4,3,6,1,8,7,5]","[[0.3,0.2],[-0.3,0.2]]","[[-0.125,-0.2],[0.125,-0.2]]",-0.128333346,-0.152500025,1,0,0,1.2346,o1_image,307.6326,0,308.1314,308.1315,310.1336,0,0,0,0,1,,,,,,,,,,,,,,,,,,,,,,,,,,,,,,,,,,,,,,,,,,,,,,,,,,
,,5b9d57e5737d030001ad2cbf,56,male,2024-04-24_11h31.45.723,stockport_simplified,2022.2.4,Win32,59.88023952,661e456ee6de07e70aa9ef7b,6628df8b76fef1ba689272bc,,,,,,,,,,,,,,,,,,,,,,,,,,,,,,,,,,,,,,,,,,,,,,,,,,,,,,,,0,35,35,14,1,B,X,N,o2_image,stimuli/out2.png,stimuli/out1.png,stimuli/correct_out2.png,,,,,,,,,,,,,,,,,,,,,,,,,,,,,,,,,,,,,,
,,5b9d57e5737d030001ad2cbf,56,male,2024-04-24_11h31.45.723,stockport_simplified,2022.2.4,Win32,59.88023952,661e456ee6de07e70aa9ef7b,6628df8b76fef1ba689272bc,,,,,,,,,,,,,,,,,,,,,,,,,,,,,,,,,,310.134,311.968,"[2,4,3,6,1,8,7,5]","[[0.3,0.2],[-0.3,0.2]]","[[0.125,-0.2],[-0.125,-0.2]]",-0.124166679,-0.159166654,1,0,0,1.317,o2_image,311.9688,1,312.4685,312.4686,314.4705,0,0,0,0,1,,,,,,,,,,,,,,,,,,,,,,,,,,,,,,,,,,,,,,,,,,,,,,,,,,
,,5b9d57e5737d030001ad2cbf,56,male,2024-04-24_11h31.45.723,stockport_simplified,2022.2.4,Win32,59.88023952,661e456ee6de07e70aa9ef7b,6628df8b76fef1ba689272bc,,,,,,,,,,,,,,,,,,,,,,,,,,,,,,,,,,,,,,,,,,,,,,,,,,,,,,,,0,36,36,47,1,B,Y,N,o2_image,stimuli/out2.png,stimuli/out1.png,stimuli/correct_out2.png,,,,,,,,,,,,,,,,,,,,,,,,,,,,,,,,,,,,,,
,,5b9d57e5737d030001ad2cbf,56,male,2024-04-24_11h31.45.723,stockport_simplified,2022.2.4,Win32,59.88023952,661e456ee6de07e70aa9ef7b,6628df8b76fef1ba689272bc,,,,,,,,,,,,,,,,,,,,,,,,,,,,,,,,,,314.4709,316.8219,"[2,4,3,6,1,8,7,5]","[[0.3,0.2],[-0.3,0.2]]","[[0.125,-0.2],[-0.125,-0.2]]",-0.100833321,-0.144166692,1,0,0,1.834,o2_image,316.8224,1,317.3221,317.3221,319.324,0,0,0,0,1,,,,,,,,,,,,,,,,,,,,,,,,,,,,,,,,,,,,,,,,,,,,,,,,,,
,,5b9d57e5737d030001ad2cbf,56,male,2024-04-24_11h31.45.723,stockport_simplified,2022.2.4,Win32,59.88023952,661e456ee6de07e70aa9ef7b,6628df8b76fef1ba689272bc,,,,,,,,,,,,,,,,,,,,,,,,,,,,,,,,,,,,,,,,,,,,,,,,,,,,,,,,0,37,37,11,1,B,X,N,o2_image,stimuli/out2.png,stimuli/out1.png,stimuli/correct_out2.png,,,,,,,,,,,,,,,,,,,,,,,,,,,,,,,,,,,,,,
,,5b9d57e5737d030001ad2cbf,56,male,2024-04-24_11h31.45.723,stockport_simplified,2022.2.4,Win32,59.88023952,661e456ee6de07e70aa9ef7b,6628df8b76fef1ba689272bc,,,,,,,,,,,,,,,,,,,,,,,,,,,,,,,,,,319.3245,322.1286,"[2,4,3,6,1,8,7,5]","[[-0.3,0.2],[0.3,0.2]]","[[-0.125,-0.2],[0.125,-0.2]]",-0.093333308,-0.181666692,1,0,0,2.2873,o1_image,322.1292,0,322.6265,322.6265,324.628,0,0,0,0,1,,,,,,,,,,,,,,,,,,,,,,,,,,,,,,,,,,,,,,,,,,,,,,,,,,
,,5b9d57e5737d030001ad2cbf,56,male,2024-04-24_11h31.45.723,stockport_simplified,2022.2.4,Win32,59.88023952,661e456ee6de07e70aa9ef7b,6628df8b76fef1ba689272bc,,,,,,,,,,,,,,,,,,,,,,,,,,,,,,,,,,,,,,,,,,,,,,,,,,,,,,,,0,38,38,59,1,N,M,D,o2_image,stimuli/out2.png,stimuli/out1.png,stimuli/correct_out2.png,,,,,,,,,,,,,,,,,,,,,,,,,,,,,,,,,,,,,,
,,5b9d57e5737d030001ad2cbf,56,male,2024-04-24_11h31.45.723,stockport_simplified,2022.2.4,Win32,59.88023952,661e456ee6de07e70aa9ef7b,6628df8b76fef1ba689272bc,,,,,,,,,,,,,,,,,,,,,,,,,,,,,,,,,,324.6283,326.2297,"[2,4,3,6,1,8,7,5]","[[0.3,0.2],[-0.3,0.2]]","[[-0.125,-0.2],[0.125,-0.2]]",-0.102499962,-0.206666692,1,0,0,1.1008,o1_image,326.2306,1,326.7301,326.7301,328.7317,0,0,0,0,1,,,,,,,,,,,,,,,,,,,,,,,,,,,,,,,,,,,,,,,,,,,,,,,,,,
,,5b9d57e5737d030001ad2cbf,56,male,2024-04-24_11h31.45.723,stockport_simplified,2022.2.4,Win32,59.88023952,661e456ee6de07e70aa9ef7b,6628df8b76fef1ba689272bc,,,,,,,,,,,,,,,,,,,,,,,,,,,,,,,,,,,,,,,,,,,,,,,,,,,,,,,,0,39,39,4,1,A,X,N,o1_image,stimuli/out1.png,stimuli/correct_out1.png,stimuli/out2.png,,,,,,,,,,,,,,,,,,,,,,,,,,,,,,,,,,,,,,
,,5b9d57e5737d030001ad2cbf,56,male,2024-04-24_11h31.45.723,stockport_simplified,2022.2.4,Win32,59.88023952,661e456ee6de07e70aa9ef7b,6628df8b76fef1ba689272bc,,,,,,,,,,,,,,,,,,,,,,,,,,,,,,,,,,328.7321,331.0336,"[2,4,3,6,1,8,7,5]","[[-0.3,0.2],[0.3,0.2]]","[[-0.125,-0.2],[0.125,-0.2]]",-0.108333333,-0.185000038,1,0,0,1.7847,o1_image,331.0344,1,331.5339,331.5339,333.5358,0,0,0,0,1,,,,,,,,,,,,,,,,,,,,,,,,,,,,,,,,,,,,,,,,,,,,,,,,,,
,,5b9d57e5737d030001ad2cbf,56,male,2024-04-24_11h31.45.723,stockport_simplified,2022.2.4,Win32,59.88023952,661e456ee6de07e70aa9ef7b,6628df8b76fef1ba689272bc,,,,,,,,,,,,,,,,,,,,,,,,,,,,,,,,,,,,,,,,,,,,,,,,,,,,,,,,0,40,40,3,1,A,X,N,o1_image,stimuli/out1.png,stimuli/correct_out1.png,stimuli/out2.png,,,,,,,,,,,,,,,,,,,,,,,,,,,,,,,,,,,,,,
,,5b9d57e5737d030001ad2cbf,56,male,2024-04-24_11h31.45.723,stockport_simplified,2022.2.4,Win32,59.88023952,661e456ee6de07e70aa9ef7b,6628df8b76fef1ba689272bc,,,,,,,,,,,,,,,,,,,,,,,,,,,,,,,,,,333.5361,334.9364,"[2,4,3,6,1,8,7,5]","[[0.3,0.2],[-0.3,0.2]]","[[-0.125,-0.2],[0.125,-0.2]]",-0.102499962,-0.172500038,1,0,0,0.8839,o1_image,334.937,1,335.4367,335.4367,337.4384,0,0,0,0,1,,,,,,,,,,,,,,,,,,,,,,,,,,,,,,,,,,,,,,,,,,,,,,,,,,
,,5b9d57e5737d030001ad2cbf,56,male,2024-04-24_11h31.45.723,stockport_simplified,2022.2.4,Win32,59.88023952,661e456ee6de07e70aa9ef7b,6628df8b76fef1ba689272bc,,,,,,,,,,,,,,,,,,,,,,,,,,,,,,,,,,,,,,,,,,,,,,,,,,,,,,,,0,41,41,32,1,A,X,N,o1_image,stimuli/out1.png,stimuli/correct_out1.png,stimuli/out2.png,,,,,,,,,,,,,,,,,,,,,,,,,,,,,,,,,,,,,,
,,5b9d57e5737d030001ad2cbf,56,male,2024-04-24_11h31.45.723,stockport_simplified,2022.2.4,Win32,59.88023952,661e456ee6de07e70aa9ef7b,6628df8b76fef1ba689272bc,,,,,,,,,,,,,,,,,,,,,,,,,,,,,,,,,,337.4387,339.0229,"[2,4,3,6,1,8,7,5]","[[-0.3,0.2],[0.3,0.2]]","[[0.125,-0.2],[-0.125,-0.2]]",-0.108333333,-0.192499987,1,0,0,1.0832,o2_image,339.0235,1,339.5238,339.5239,341.5252,0,0,0,0,1,,,,,,,,,,,,,,,,,,,,,,,,,,,,,,,,,,,,,,,,,,,,,,,,,,
,,5b9d57e5737d030001ad2cbf,56,male,2024-04-24_11h31.45.723,stockport_simplified,2022.2.4,Win32,59.88023952,661e456ee6de07e70aa9ef7b,6628df8b76fef1ba689272bc,,,,,,,,,,,,,,,,,,,,,,,,,,,,,,,,,,,,,,,,,,,,,,,,,,,,,,,,0,42,42,19,1,B,Y,N,o2_image,stimuli/out2.png,stimuli/out1.png,stimuli/correct_out2.png,,,,,,,,,,,,,,,,,,,,,,,,,,,,,,,,,,,,,,
,,5b9d57e5737d030001ad2cbf,56,male,2024-04-24_11h31.45.723,stockport_simplified,2022.2.4,Win32,59.88023952,661e456ee6de07e70aa9ef7b,6628df8b76fef1ba689272bc,,,,,,,,,,,,,,,,,,,,,,,,,,,,,,,,,,341.5256,343.4932,"[2,4,3,6,1,8,7,5]","[[0.3,0.2],[-0.3,0.2]]","[[-0.125,-0.2],[0.125,-0.2]]",0.102500025,-0.191666667,1,0,0,1.4504,o2_image,343.4937,0,343.9938,343.9938,345.9955,0,0,0,0,1,,,,,,,,,,,,,,,,,,,,,,,,,,,,,,,,,,,,,,,,,,,,,,,,,,
,,5b9d57e5737d030001ad2cbf,56,male,2024-04-24_11h31.45.723,stockport_simplified,2022.2.4,Win32,59.88023952,661e456ee6de07e70aa9ef7b,6628df8b76fef1ba689272bc,,,,,,,,,,,,,,,,,,,,,,,,,,,,,,,,,,,,,,,,,,,,,,,,,,,,,,,,0,43,43,36,1,A,Y,N,o1_image,stimuli/out1.png,stimuli/correct_out1.png,stimuli/out2.png,,,,,,,,,,,,,,,,,,,,,,,,,,,,,,,,,,,,,,
,,5b9d57e5737d030001ad2cbf,56,male,2024-04-24_11h31.45.723,stockport_simplified,2022.2.4,Win32,59.88023952,661e456ee6de07e70aa9ef7b,6628df8b76fef1ba689272bc,,,,,,,,,,,,,,,,,,,,,,,,,,,,,,,,,,345.996,347.9135,"[2,4,3,6,1,8,7,5]","[[-0.3,0.2],[0.3,0.2]]","[[0.125,-0.2],[-0.125,-0.2]]",0.126666705,-0.189166705,1,0,0,1.4004,o1_image,347.914,0,348.414,348.414,350.4159,0,0,0,0,1,,,,,,,,,,,,,,,,,,,,,,,,,,,,,,,,,,,,,,,,,,,,,,,,,,
,,5b9d57e5737d030001ad2cbf,56,male,2024-04-24_11h31.45.723,stockport_simplified,2022.2.4,Win32,59.88023952,661e456ee6de07e70aa9ef7b,6628df8b76fef1ba689272bc,,,,,,,,,,,,,,,,,,,,,,,,,,,,,,,,,,,,,,,,,,,,,,,,,,,,,,,,0,44,44,48,1,B,Y,N,o2_image,stimuli/out2.png,stimuli/out1.png,stimuli/correct_out2.png,,,,,,,,,,,,,,,,,,,,,,,,,,,,,,,,,,,,,,
,,5b9d57e5737d030001ad2cbf,56,male,2024-04-24_11h31.45.723,stockport_simplified,2022.2.4,Win32,59.88023952,661e456ee6de07e70aa9ef7b,6628df8b76fef1ba689272bc,,,,,,,,,,,,,,,,,,,,,,,,,,,,,,,,,,350.4165,351.5164,"[2,4,3,6,1,8,7,5]","[[-0.3,0.2],[0.3,0.2]]","[[-0.125,-0.2],[0.125,-0.2]]",-0.098333295,-0.169166692,1,0,0,0.5831,o1_image,351.517,1,352.017,352.0171,354.0186,0,0,0,0,1,,,,,,,,,,,,,,,,,,,,,,,,,,,,,,,,,,,,,,,,,,,,,,,,,,
,,5b9d57e5737d030001ad2cbf,56,male,2024-04-24_11h31.45.723,stockport_simplified,2022.2.4,Win32,59.88023952,661e456ee6de07e70aa9ef7b,6628df8b76fef1ba689272bc,,,,,,,,,,,,,,,,,,,,,,,,,,,,,,,,,,,,,,,,,,,,,,,,,,,,,,,,0,45,45,0,1,A,X,N,o1_image,stimuli/out1.png,stimuli/correct_out1.png,stimuli/out2.png,,,,,,,,,,,,,,,,,,,,,,,,,,,,,,,,,,,,,,
,,5b9d57e5737d030001ad2cbf,56,male,2024-04-24_11h31.45.723,stockport_simplified,2022.2.4,Win32,59.88023952,661e456ee6de07e70aa9ef7b,6628df8b76fef1ba689272bc,,,,,,,,,,,,,,,,,,,,,,,,,,,,,,,,,,354.0191,355.5699,"[2,4,3,6,1,8,7,5]","[[0.3,0.2],[-0.3,0.2]]","[[0.125,-0.2],[-0.125,-0.2]]",-0.093333308,-0.166666667,1,0,0,1.0342,o2_image,355.571,0,356.0703,356.0703,358.0719,0,0,0,0,1,,,,,,,,,,,,,,,,,,,,,,,,,,,,,,,,,,,,,,,,,,,,,,,,,,
,,5b9d57e5737d030001ad2cbf,56,male,2024-04-24_11h31.45.723,stockport_simplified,2022.2.4,Win32,59.88023952,661e456ee6de07e70aa9ef7b,6628df8b76fef1ba689272bc,,,,,,,,,,,,,,,,,,,,,,,,,,,,,,,,,,,,,,,,,,,,,,,,,,,,,,,,0,46,46,7,1,A,Y,N,o1_image,stimuli/out1.png,stimuli/correct_out1.png,stimuli/out2.png,,,,,,,,,,,,,,,,,,,,,,,,,,,,,,,,,,,,,,
,,5b9d57e5737d030001ad2cbf,56,male,2024-04-24_11h31.45.723,stockport_simplified,2022.2.4,Win32,59.88023952,661e456ee6de07e70aa9ef7b,6628df8b76fef1ba689272bc,,,,,,,,,,,,,,,,,,,,,,,,,,,,,,,,,,358.0723,359.8901,"[2,4,3,6,1,8,7,5]","[[0.3,0.2],[-0.3,0.2]]","[[0.125,-0.2],[-0.125,-0.2]]",-0.113333321,-0.176666705,1,0,0,1.3011,o2_image,359.8912,1,360.3904,360.3904,362.3922,0,0,0,0,1,,,,,,,,,,,,,,,,,,,,,,,,,,,,,,,,,,,,,,,,,,,,,,,,,,
,,5b9d57e5737d030001ad2cbf,56,male,2024-04-24_11h31.45.723,stockport_simplified,2022.2.4,Win32,59.88023952,661e456ee6de07e70aa9ef7b,6628df8b76fef1ba689272bc,,,,,,,,,,,,,,,,,,,,,,,,,,,,,,,,,,,,,,,,,,,,,,,,,,,,,,,,0,47,47,45,1,B,Y,N,o2_image,stimuli/out2.png,stimuli/out1.png,stimuli/correct_out2.png,,,,,,,,,,,,,,,,,,,,,,,,,,,,,,,,,,,,,,
,,5b9d57e5737d030001ad2cbf,56,male,2024-04-24_11h31.45.723,stockport_simplified,2022.2.4,Win32,59.88023952,661e456ee6de07e70aa9ef7b,6628df8b76fef1ba689272bc,,,,,,,,,,,,,,,,,,,,,,,,,,,,,,,,,,362.3926,364.5102,"[2,4,3,6,1,8,7,5]","[[0.3,0.2],[-0.3,0.2]]","[[-0.125,-0.2],[0.125,-0.2]]",-0.121666654,-0.189166705,1,0,0,1.6004,o1_image,364.5106,0,365.013,365.013,367.0125,0,0,0,0,1,,,,,,,,,,,,,,,,,,,,,,,,,,,,,,,,,,,,,,,,,,,,,,,,,,
,,5b9d57e5737d030001ad2cbf,56,male,2024-04-24_11h31.45.723,stockport_simplified,2022.2.4,Win32,59.88023952,661e456ee6de07e70aa9ef7b,6628df8b76fef1ba689272bc,,,,,,,,,,,,,,,,,,,,,,,,,,,,,,,,,,,,,,,,,,,,,,,,,,,,,,,,0,48,48,12,1,B,X,N,o2_image,stimuli/out2.png,stimuli/out1.png,stimuli/correct_out2.png,,,,,,,,,,,,,,,,,,,,,,,,,,,,,,,,,,,,,,
,,5b9d57e5737d030001ad2cbf,56,male,2024-04-24_11h31.45.723,stockport_simplified,2022.2.4,Win32,59.88023952,661e456ee6de07e70aa9ef7b,6628df8b76fef1ba689272bc,,,,,,,,,,,,,,,,,,,,,,,,,,,,,,,,,,367.013,369.0805,"[2,4,3,6,1,8,7,5]","[[-0.3,0.2],[0.3,0.2]]","[[0.125,-0.2],[-0.125,-0.2]]",0.1375,-0.225833321,1,0,0,1.5505,o1_image,369.081,1,369.581,369.5811,371.5827,0,0,0,0,1,,,,,,,,,,,,,,,,,,,,,,,,,,,,,,,,,,,,,,,,,,,,,,,,,,
,,5b9d57e5737d030001ad2cbf,56,male,2024-04-24_11h31.45.723,stockport_simplified,2022.2.4,Win32,59.88023952,661e456ee6de07e70aa9ef7b,6628df8b76fef1ba689272bc,,,,,,,,,,,,,,,,,,,,,,,,,,,,,,,,,,,,,,,,,,,,,,,,,,,,,,,,0,49,49,52,1,N,M,C,o1_image,stimuli/out1.png,stimuli/correct_out1.png,stimuli/out2.png,,,,,,,,,,,,,,,,,,,,,,,,,,,,,,,,,,,,,,
,,5b9d57e5737d030001ad2cbf,56,male,2024-04-24_11h31.45.723,stockport_simplified,2022.2.4,Win32,59.88023952,661e456ee6de07e70aa9ef7b,6628df8b76fef1ba689272bc,,,,,,,,,,,,,,,,,,,,,,,,,,,,,,,,,,371.5832,373.6846,"[2,4,3,6,1,8,7,5]","[[-0.3,0.2],[0.3,0.2]]","[[-0.125,-0.2],[0.125,-0.2]]",0.1125,-0.205833371,1,0,0,1.5843,o2_image,373.6856,0,374.1846,374.1846,376.1866,0,0,0,0,1,,,,,,,,,,,,,,,,,,,,,,,,,,,,,,,,,,,,,,,,,,,,,,,,,,
,,5b9d57e5737d030001ad2cbf,56,male,2024-04-24_11h31.45.723,stockport_simplified,2022.2.4,Win32,59.88023952,661e456ee6de07e70aa9ef7b,6628df8b76fef1ba689272bc,,,,,,,,,,,,,,,,,,,,,,,,,,,,,,,,,,,,,,,,,,,,,,,,,,,,,,,,0,50,50,38,1,A,Y,N,o1_image,stimuli/out1.png,stimuli/correct_out1.png,stimuli/out2.png,,,,,,,,,,,,,,,,,,,,,,,,,,,,,,,,,,,,,,
,,5b9d57e5737d030001ad2cbf,56,male,2024-04-24_11h31.45.723,stockport_simplified,2022.2.4,Win32,59.88023952,661e456ee6de07e70aa9ef7b,6628df8b76fef1ba689272bc,,,,,,,,,,,,,,,,,,,,,,,,,,,,,,,,,,376.187,378.6883,"[2,4,3,6,1,8,7,5]","[[-0.3,0.2],[0.3,0.2]]","[[0.125,-0.2],[-0.125,-0.2]]",0.109166654,-0.198333359,1,0,0,1.9846,o1_image,378.6957,0,379.1888,379.1888,381.1902,0,0,0,0,1,,,,,,,,,,,,,,,,,,,,,,,,,,,,,,,,,,,,,,,,,,,,,,,,,,
,,5b9d57e5737d030001ad2cbf,56,male,2024-04-24_11h31.45.723,stockport_simplified,2022.2.4,Win32,59.88023952,661e456ee6de07e70aa9ef7b,6628df8b76fef1ba689272bc,,,,,,,,,,,,,,,,,,,,,,,,,,,,,,,,,,,,,,,,,,,,,,,,,,,,,,,,0,51,51,55,1,N,M,D,o2_image,stimuli/out2.png,stimuli/out1.png,stimuli/correct_out2.png,,,,,,,,,,,,,,,,,,,,,,,,,,,,,,,,,,,,,,
,,5b9d57e5737d030001ad2cbf,56,male,2024-04-24_11h31.45.723,stockport_simplified,2022.2.4,Win32,59.88023952,661e456ee6de07e70aa9ef7b,6628df8b76fef1ba689272bc,,,,,,,,,,,,,,,,,,,,,,,,,,,,,,,,,,381.1905,382.8249,"[2,4,3,6,1,8,7,5]","[[-0.3,0.2],[0.3,0.2]]","[[0.125,-0.2],[-0.125,-0.2]]",-0.107500013,-0.216666667,1,0,0,1.1339,o2_image,382.8254,0,383.3274,383.3274,385.3269,0,0,0,0,1,,,,,,,,,,,,,,,,,,,,,,,,,,,,,,,,,,,,,,,,,,,,,,,,,,
,,5b9d57e5737d030001ad2cbf,56,male,2024-04-24_11h31.45.723,stockport_simplified,2022.2.4,Win32,59.88023952,661e456ee6de07e70aa9ef7b,6628df8b76fef1ba689272bc,,,,,,,,,,,,,,,,,,,,,,,,,,,,,,,,,,,,,,,,,,,,,,,,,,,,,,,,0,52,52,1,1,A,X,N,o1_image,stimuli/out1.png,stimuli/correct_out1.png,stimuli/out2.png,,,,,,,,,,,,,,,,,,,,,,,,,,,,,,,,,,,,,,
,,5b9d57e5737d030001ad2cbf,56,male,2024-04-24_11h31.45.723,stockport_simplified,2022.2.4,Win32,59.88023952,661e456ee6de07e70aa9ef7b,6628df8b76fef1ba689272bc,,,,,,,,,,,,,,,,,,,,,,,,,,,,,,,,,,385.3274,386.8615,"[2,4,3,6,1,8,7,5]","[[0.3,0.2],[-0.3,0.2]]","[[-0.125,-0.2],[0.125,-0.2]]",-0.128333346,-0.171666654,1,0,0,1.0172,o1_image,386.8621,0,387.362,387.3621,389.3637,0,0,0,0,1,,,,,,,,,,,,,,,,,,,,,,,,,,,,,,,,,,,,,,,,,,,,,,,,,,
,,5b9d57e5737d030001ad2cbf,56,male,2024-04-24_11h31.45.723,stockport_simplified,2022.2.4,Win32,59.88023952,661e456ee6de07e70aa9ef7b,6628df8b76fef1ba689272bc,,,,,,,,,,,,,,,,,,,,,,,,,,,,,,,,,,,,,,,,,,,,,,,,,,,,,,,,0,53,53,41,1,B,X,N,o2_image,stimuli/out2.png,stimuli/out1.png,stimuli/correct_out2.png,,,,,,,,,,,,,,,,,,,,,,,,,,,,,,,,,,,,,,
,,5b9d57e5737d030001ad2cbf,56,male,2024-04-24_11h31.45.723,stockport_simplified,2022.2.4,Win32,59.88023952,661e456ee6de07e70aa9ef7b,6628df8b76fef1ba689272bc,,,,,,,,,,,,,,,,,,,,,,,,,,,,,,,,,,389.3642,390.6315,"[2,4,3,6,1,8,7,5]","[[-0.3,0.2],[0.3,0.2]]","[[-0.125,-0.2],[0.125,-0.2]]",-0.124166679,-0.170833333,1,0,0,0.75,o1_image,390.6322,1,391.1316,391.1316,393.1331,0,0,0,0,1,,,,,,,,,,,,,,,,,,,,,,,,,,,,,,,,,,,,,,,,,,,,,,,,,,
,,5b9d57e5737d030001ad2cbf,56,male,2024-04-24_11h31.45.723,stockport_simplified,2022.2.4,Win32,59.88023952,661e456ee6de07e70aa9ef7b,6628df8b76fef1ba689272bc,,,,,,,,,,,,,,,,,,,,,,,,,,,,,,,,,,,,,,,,,,,,,,,,,,,,,,,,0,54,54,35,1,A,Y,N,o1_image,stimuli/out1.png,stimuli/correct_out1.png,stimuli/out2.png,,,,,,,,,,,,,,,,,,,,,,,,,,,,,,,,,,,,,,
,,5b9d57e5737d030001ad2cbf,56,male,2024-04-24_11h31.45.723,stockport_simplified,2022.2.4,Win32,59.88023952,661e456ee6de07e70aa9ef7b,6628df8b76fef1ba689272bc,,,,,,,,,,,,,,,,,,,,,,,,,,,,,,,,,,393.1334,395.7354,"[2,4,3,6,1,8,7,5]","[[0.3,0.2],[-0.3,0.2]]","[[-0.125,-0.2],[0.125,-0.2]]",0.104999987,-0.185000038,1,0,0,2.1012,o2_image,395.7359,1,396.2358,396.2358,398.2397,0,0,0,0,1,,,,,,,,,,,,,,,,,,,,,,,,,,,,,,,,,,,,,,,,,,,,,,,,,,
,,5b9d57e5737d030001ad2cbf,56,male,2024-04-24_11h31.45.723,stockport_simplified,2022.2.4,Win32,59.88023952,661e456ee6de07e70aa9ef7b,6628df8b76fef1ba689272bc,,,,,,,,,,,,,,,,,,,,,,,,,,,,,,,,,,,,,,,,,,,,,,,,,,,,,,,,0,55,55,56,1,N,M,D,o2_image,stimuli/out2.png,stimuli/out1.png,stimuli/correct_out2.png,,,,,,,,,,,,,,,,,,,,,,,,,,,,,,,,,,,,,,
,,5b9d57e5737d030001ad2cbf,56,male,2024-04-24_11h31.45.723,stockport_simplified,2022.2.4,Win32,59.88023952,661e456ee6de07e70aa9ef7b,6628df8b76fef1ba689272bc,,,,,,,,,,,,,,,,,,,,,,,,,,,,,,,,,,398.24,400.1225,"[2,4,3,6,1,8,7,5]","[[-0.3,0.2],[0.3,0.2]]","[[-0.125,-0.2],[0.125,-0.2]]",-0.063333321,-0.205833371,1,0,0,1.3677,o1_image,400.123,0,400.6225,400.6226,402.6241,0,0,0,0,1,,,,,,,,,,,,,,,,,,,,,,,,,,,,,,,,,,,,,,,,,,,,,,,,,,
,,5b9d57e5737d030001ad2cbf,56,male,2024-04-24_11h31.45.723,stockport_simplified,2022.2.4,Win32,59.88023952,661e456ee6de07e70aa9ef7b,6628df8b76fef1ba689272bc,,,,,,,,,,,,,,,,,,,,,,,,,,,,,,,,,,,,,,,,,,,,,,,,,,,,,,,,0,56,56,10,1,B,X,N,o2_image,stimuli/out2.png,stimuli/out1.png,stimuli/correct_out2.png,,,,,,,,,,,,,,,,,,,,,,,,,,,,,,,,,,,,,,
,,5b9d57e5737d030001ad2cbf,56,male,2024-04-24_11h31.45.723,stockport_simplified,2022.2.4,Win32,59.88023952,661e456ee6de07e70aa9ef7b,6628df8b76fef1ba689272bc,,,,,,,,,,,,,,,,,,,,,,,,,,,,,,,,,,402.6245,404.5758,"[2,4,3,6,1,8,7,5]","[[-0.3,0.2],[0.3,0.2]]","[[-0.125,-0.2],[0.125,-0.2]]",-0.113333321,-0.186666679,1,0,0,1.4508,o1_image,404.5766,1,405.0762,405.0762,407.0778,0,0,0,0,1,,,,,,,,,,,,,,,,,,,,,,,,,,,,,,,,,,,,,,,,,,,,,,,,,,
,,5b9d57e5737d030001ad2cbf,56,male,2024-04-24_11h31.45.723,stockport_simplified,2022.2.4,Win32,59.88023952,661e456ee6de07e70aa9ef7b,6628df8b76fef1ba689272bc,,,,,,,,,,,,,,,,,,,,,,,,,,,,,,,,,,,,,,,,,,,,,,,,,,,,,,,,0,57,57,31,1,A,X,N,o1_image,stimuli/out1.png,stimuli/correct_out1.png,stimuli/out2.png,,,,,,,,,,,,,,,,,,,,,,,,,,,,,,,,,,,,,,
,,5b9d57e5737d030001ad2cbf,56,male,2024-04-24_11h31.45.723,stockport_simplified,2022.2.4,Win32,59.88023952,661e456ee6de07e70aa9ef7b,6628df8b76fef1ba689272bc,,,,,,,,,,,,,,,,,,,,,,,,,,,,,,,,,,407.0781,409.2465,"[2,4,3,6,1,8,7,5]","[[-0.3,0.2],[0.3,0.2]]","[[0.125,-0.2],[-0.125,-0.2]]",0.126666705,-0.2,1,0,0,1.6513,o1_image,409.2471,1,409.747,409.7471,411.7486,0,0,0,0,1,,,,,,,,,,,,,,,,,,,,,,,,,,,,,,,,,,,,,,,,,,,,,,,,,,
,,5b9d57e5737d030001ad2cbf,56,male,2024-04-24_11h31.45.723,stockport_simplified,2022.2.4,Win32,59.88023952,661e456ee6de07e70aa9ef7b,6628df8b76fef1ba689272bc,,,,,,,,,,,,,,,,,,,,,,,,,,,,,,,,,,,,,,,,,,,,,,,,,,,,,,,,0,58,58,9,1,A,Y,N,o1_image,stimuli/out1.png,stimuli/correct_out1.png,stimuli/out2.png,,,,,,,,,,,,,,,,,,,,,,,,,,,,,,,,,,,,,,
,,5b9d57e5737d030001ad2cbf,56,male,2024-04-24_11h31.45.723,stockport_simplified,2022.2.4,Win32,59.88023952,661e456ee6de07e70aa9ef7b,6628df8b76fef1ba689272bc,,,,,,,,,,,,,,,,,,,,,,,,,,,,,,,,,,411.749,414.553,"[2,4,3,6,1,8,7,5]","[[-0.3,0.2],[0.3,0.2]]","[[-0.125,-0.2],[0.125,-0.2]]",-0.104166667,-0.196666654,1,0,0,2.2871,o1_image,414.5602,1,415.051,415.0511,417.0526,0,0,0,0,1,,,,,,,,,,,,,,,,,,,,,,,,,,,,,,,,,,,,,,,,,,,,,,,,,,
,,5b9d57e5737d030001ad2cbf,56,male,2024-04-24_11h31.45.723,stockport_simplified,2022.2.4,Win32,59.88023952,661e456ee6de07e70aa9ef7b,6628df8b76fef1ba689272bc,,,,,,,,,,,,,,,,,,,,,,,,,,,,,,,,,,,,,,,,,,,,,,,,,,,,,,,,0,59,59,24,1,N,M,C,o1_image,stimuli/out1.png,stimuli/correct_out1.png,stimuli/out2.png,,,,,,,,,,,,,,,,,,,,,,,,,,,,,,,,,,,,,,
,,5b9d57e5737d030001ad2cbf,56,male,2024-04-24_11h31.45.723,stockport_simplified,2022.2.4,Win32,59.88023952,661e456ee6de07e70aa9ef7b,6628df8b76fef1ba689272bc,,,,,,,,,,,,,,,,,,,,,,,,,,,,,,,,,,417.0532,419.4739,"[2,4,3,6,1,8,7,5]","[[0.3,0.2],[-0.3,0.2]]","[[0.125,-0.2],[-0.125,-0.2]]",0.1125,-0.181666692,1,0,0,1.9037,o1_image,419.4744,0,419.9716,419.9716,421.9733,0,0,0,0,1,,,,,,,,,,,,,,,,,,,,,,,,,,,,,,,,,,,,,,,,,,,,,,,,,,
,,5b9d57e5737d030001ad2cbf,56,male,2024-04-24_11h31.45.723,stockport_simplified,2022.2.4,Win32,59.88023952,661e456ee6de07e70aa9ef7b,6628df8b76fef1ba689272bc,,,,,,,,,,,,,,,,,,,,,,,,,,,,,,,,,,,,,,,,,,,,,,,,,,,,,,,,1,0,60,17,1,B,Y,N,o2_image,stimuli/out2.png,stimuli/out1.png,stimuli/correct_out2.png,,,,,,,,,,,,,,,,,,,,,,,,,,,,,,,,,,,,,,
,,5b9d57e5737d030001ad2cbf,56,male,2024-04-24_11h31.45.723,stockport_simplified,2022.2.4,Win32,59.88023952,661e456ee6de07e70aa9ef7b,6628df8b76fef1ba689272bc,,,,,,,,,,,,,,,,,,,,,,,,,,,,,,,,,,421.9737,423.7414,"[2,4,3,6,1,8,7,5]","[[0.3,0.2],[-0.3,0.2]]","[[0.125,-0.2],[-0.125,-0.2]]",-0.089999962,-0.189166705,1,0,0,1.251,o2_image,423.7421,1,424.2415,424.2415,426.243,0,0,0,0,1,,,,,,,,,,,,,,,,,,,,,,,,,,,,,,,,,,,,,,,,,,,,,,,,,,
,,5b9d57e5737d030001ad2cbf,56,male,2024-04-24_11h31.45.723,stockport_simplified,2022.2.4,Win32,59.88023952,661e456ee6de07e70aa9ef7b,6628df8b76fef1ba689272bc,,,,,,,,,,,,,,,,,,,,,,,,,,,,,,,,,,,,,,,,,,,,,,,,,,,,,,,,1,1,61,49,1,B,Y,N,o2_image,stimuli/out2.png,stimuli/out1.png,stimuli/correct_out2.png,,,,,,,,,,,,,,,,,,,,,,,,,,,,,,,,,,,,,,
,,5b9d57e5737d030001ad2cbf,56,male,2024-04-24_11h31.45.723,stockport_simplified,2022.2.4,Win32,59.88023952,661e456ee6de07e70aa9ef7b,6628df8b76fef1ba689272bc,,,,,,,,,,,,,,,,,,,,,,,,,,,,,,,,,,426.2433,428.7789,"[2,4,3,6,1,8,7,5]","[[-0.3,0.2],[0.3,0.2]]","[[0.125,-0.2],[-0.125,-0.2]]",-0.111666679,-0.2,1,0,0,2.0351,o2_image,428.7862,1,429.2795,429.2795,431.2807,0,0,0,0,1,,,,,,,,,,,,,,,,,,,,,,,,,,,,,,,,,,,,,,,,,,,,,,,,,,
,,5b9d57e5737d030001ad2cbf,56,male,2024-04-24_11h31.45.723,stockport_simplified,2022.2.4,Win32,59.88023952,661e456ee6de07e70aa9ef7b,6628df8b76fef1ba689272bc,,,,,,,,,,,,,,,,,,,,,,,,,,,,,,,,,,,,,,,,,,,,,,,,,,,,,,,,1,2,62,10,1,B,X,N,o2_image,stimuli/out2.png,stimuli/out1.png,stimuli/correct_out2.png,,,,,,,,,,,,,,,,,,,,,,,,,,,,,,,,,,,,,,
,,5b9d57e5737d030001ad2cbf,56,male,2024-04-24_11h31.45.723,stockport_simplified,2022.2.4,Win32,59.88023952,661e456ee6de07e70aa9ef7b,6628df8b76fef1ba689272bc,,,,,,,,,,,,,,,,,,,,,,,,,,,,,,,,,,431.2811,433.666,"[2,4,3,6,1,8,7,5]","[[0.3,0.2],[-0.3,0.2]]","[[-0.125,-0.2],[0.125,-0.2]]",0.075,-0.169166692,1,0,0,1.8676,o2_image,433.6668,0,434.1662,434.1662,436.1677,0,0,0,0,1,,,,,,,,,,,,,,,,,,,,,,,,,,,,,,,,,,,,,,,,,,,,,,,,,,
,,5b9d57e5737d030001ad2cbf,56,male,2024-04-24_11h31.45.723,stockport_simplified,2022.2.4,Win32,59.88023952,661e456ee6de07e70aa9ef7b,6628df8b76fef1ba689272bc,,,,,,,,,,,,,,,,,,,,,,,,,,,,,,,,,,,,,,,,,,,,,,,,,,,,,,,,1,3,63,36,1,A,Y,N,o1_image,stimuli/out1.png,stimuli/correct_out1.png,stimuli/out2.png,,,,,,,,,,,,,,,,,,,,,,,,,,,,,,,,,,,,,,
,,5b9d57e5737d030001ad2cbf,56,male,2024-04-24_11h31.45.723,stockport_simplified,2022.2.4,Win32,59.88023952,661e456ee6de07e70aa9ef7b,6628df8b76fef1ba689272bc,,,,,,,,,,,,,,,,,,,,,,,,,,,,,,,,,,436.168,437.4024,"[2,4,3,6,1,8,7,5]","[[0.3,0.2],[-0.3,0.2]]","[[-0.125,-0.2],[0.125,-0.2]]",-0.120833333,-0.196666654,1,0,0,0.7339,o1_image,437.4031,1,437.903,437.9031,439.9043,0,0,0,0,1,,,,,,,,,,,,,,,,,,,,,,,,,,,,,,,,,,,,,,,,,,,,,,,,,,
,,5b9d57e5737d030001ad2cbf,56,male,2024-04-24_11h31.45.723,stockport_simplified,2022.2.4,Win32,59.88023952,661e456ee6de07e70aa9ef7b,6628df8b76fef1ba689272bc,,,,,,,,,,,,,,,,,,,,,,,,,,,,,,,,,,,,,,,,,,,,,,,,,,,,,,,,1,4,64,37,1,A,Y,N,o1_image,stimuli/out1.png,stimuli/correct_out1.png,stimuli/out2.png,,,,,,,,,,,,,,,,,,,,,,,,,,,,,,,,,,,,,,
,,5b9d57e5737d030001ad2cbf,56,male,2024-04-24_11h31.45.723,stockport_simplified,2022.2.4,Win32,59.88023952,661e456ee6de07e70aa9ef7b,6628df8b76fef1ba689272bc,,,,,,,,,,,,,,,,,,,,,,,,,,,,,,,,,,439.9047,441.3722,"[2,4,3,6,1,8,7,5]","[[-0.3,0.2],[0.3,0.2]]","[[0.125,-0.2],[-0.125,-0.2]]",-0.127499962,-0.181666692,1,0,0,0.9673,o2_image,441.3729,1,441.8725,441.8725,443.8741,0,0,0,0,1,,,,,,,,,,,,,,,,,,,,,,,,,,,,,,,,,,,,,,,,,,,,,,,,,,
,,5b9d57e5737d030001ad2cbf,56,male,2024-04-24_11h31.45.723,stockport_simplified,2022.2.4,Win32,59.88023952,661e456ee6de07e70aa9ef7b,6628df8b76fef1ba689272bc,,,,,,,,,,,,,,,,,,,,,,,,,,,,,,,,,,,,,,,,,,,,,,,,,,,,,,,,1,5,65,18,1,B,Y,N,o2_image,stimuli/out2.png,stimuli/out1.png,stimuli/correct_out2.png,,,,,,,,,,,,,,,,,,,,,,,,,,,,,,,,,,,,,,
,,5b9d57e5737d030001ad2cbf,56,male,2024-04-24_11h31.45.723,stockport_simplified,2022.2.4,Win32,59.88023952,661e456ee6de07e70aa9ef7b,6628df8b76fef1ba689272bc,,,,,,,,,,,,,,,,,,,,,,,,,,,,,,,,,,443.8746,446.5931,"[2,4,3,6,1,8,7,5]","[[0.3,0.2],[-0.3,0.2]]","[[-0.125,-0.2],[0.125,-0.2]]",-0.119166629,-0.2,1,0,0,2.2013,o1_image,446.6004,1,447.0935,447.0935,449.0949,0,0,0,0,1,,,,,,,,,,,,,,,,,,,,,,,,,,,,,,,,,,,,,,,,,,,,,,,,,,
,,5b9d57e5737d030001ad2cbf,56,male,2024-04-24_11h31.45.723,stockport_simplified,2022.2.4,Win32,59.88023952,661e456ee6de07e70aa9ef7b,6628df8b76fef1ba689272bc,,,,,,,,,,,,,,,,,,,,,,,,,,,,,,,,,,,,,,,,,,,,,,,,,,,,,,,,1,6,66,24,1,N,M,C,o1_image,stimuli/out1.png,stimuli/correct_out1.png,stimuli/out2.png,,,,,,,,,,,,,,,,,,,,,,,,,,,,,,,,,,,,,,
,,5b9d57e5737d030001ad2cbf,56,male,2024-04-24_11h31.45.723,stockport_simplified,2022.2.4,Win32,59.88023952,661e456ee6de07e70aa9ef7b,6628df8b76fef1ba689272bc,,,,,,,,,,,,,,,,,,,,,,,,,,,,,,,,,,449.0952,450.4984,"[2,4,3,6,1,8,7,5]","[[0.3,0.2],[-0.3,0.2]]","[[0.125,-0.2],[-0.125,-0.2]]",-0.110833295,-0.195833333,1,0,0,0.9028,o2_image,450.4989,0,450.9962,450.9963,452.9981,0,0,0,0,1,,,,,,,,,,,,,,,,,,,,,,,,,,,,,,,,,,,,,,,,,,,,,,,,,,
,,5b9d57e5737d030001ad2cbf,56,male,2024-04-24_11h31.45.723,stockport_simplified,2022.2.4,Win32,59.88023952,661e456ee6de07e70aa9ef7b,6628df8b76fef1ba689272bc,,,,,,,,,,,,,,,,,,,,,,,,,,,,,,,,,,,,,,,,,,,,,,,,,,,,,,,,1,7,67,6,1,A,Y,N,o1_image,stimuli/out1.png,stimuli/correct_out1.png,stimuli/out2.png,,,,,,,,,,,,,,,,,,,,,,,,,,,,,,,,,,,,,,
,,5b9d57e5737d030001ad2cbf,56,male,2024-04-24_11h31.45.723,stockport_simplified,2022.2.4,Win32,59.88023952,661e456ee6de07e70aa9ef7b,6628df8b76fef1ba689272bc,,,,,,,,,,,,,,,,,,,,,,,,,,,,,,,,,,452.9986,454.416,"[2,4,3,6,1,8,7,5]","[[0.3,0.2],[-0.3,0.2]]","[[0.125,-0.2],[-0.125,-0.2]]",-0.104999987,-0.195833333,1,0,0,0.9004,o2_image,454.4166,0,454.9162,454.9162,456.9177,0,0,0,0,1,,,,,,,,,,,,,,,,,,,,,,,,,,,,,,,,,,,,,,,,,,,,,,,,,,
,,5b9d57e5737d030001ad2cbf,56,male,2024-04-24_11h31.45.723,stockport_simplified,2022.2.4,Win32,59.88023952,661e456ee6de07e70aa9ef7b,6628df8b76fef1ba689272bc,,,,,,,,,,,,,,,,,,,,,,,,,,,,,,,,,,,,,,,,,,,,,,,,,,,,,,,,1,8,68,30,1,A,X,N,o1_image,stimuli/out1.png,stimuli/correct_out1.png,stimuli/out2.png,,,,,,,,,,,,,,,,,,,,,,,,,,,,,,,,,,,,,,
,,5b9d57e5737d030001ad2cbf,56,male,2024-04-24_11h31.45.723,stockport_simplified,2022.2.4,Win32,59.88023952,661e456ee6de07e70aa9ef7b,6628df8b76fef1ba689272bc,,,,,,,,,,,,,,,,,,,,,,,,,,,,,,,,,,456.918,458.0688,"[2,4,3,6,1,8,7,5]","[[-0.3,0.2],[0.3,0.2]]","[[0.125,-0.2],[-0.125,-0.2]]",-0.104999987,-0.195833333,1,0,0,0.6504,o2_image,458.0693,1,458.5693,458.5693,460.5708,0,0,0,0,1,,,,,,,,,,,,,,,,,,,,,,,,,,,,,,,,,,,,,,,,,,,,,,,,,,
,,5b9d57e5737d030001ad2cbf,56,male,2024-04-24_11h31.45.723,stockport_simplified,2022.2.4,Win32,59.88023952,661e456ee6de07e70aa9ef7b,6628df8b76fef1ba689272bc,,,,,,,,,,,,,,,,,,,,,,,,,,,,,,,,,,,,,,,,,,,,,,,,,,,,,,,,1,9,69,16,1,B,Y,N,o2_image,stimuli/out2.png,stimuli/out1.png,stimuli/correct_out2.png,,,,,,,,,,,,,,,,,,,,,,,,,,,,,,,,,,,,,,
,,5b9d57e5737d030001ad2cbf,56,male,2024-04-24_11h31.45.723,stockport_simplified,2022.2.4,Win32,59.88023952,661e456ee6de07e70aa9ef7b,6628df8b76fef1ba689272bc,,,,,,,,,,,,,,,,,,,,,,,,,,,,,,,,,,460.571,462.072,"[2,4,3,6,1,8,7,5]","[[-0.3,0.2],[0.3,0.2]]","[[-0.125,-0.2],[0.125,-0.2]]",-0.101666641,-0.181666692,1,0,0,0.9986,o1_image,462.0726,0,462.5725,462.5726,464.5742,0,0,0,0,1,,,,,,,,,,,,,,,,,,,,,,,,,,,,,,,,,,,,,,,,,,,,,,,,,,
,,5b9d57e5737d030001ad2cbf,56,male,2024-04-24_11h31.45.723,stockport_simplified,2022.2.4,Win32,59.88023952,661e456ee6de07e70aa9ef7b,6628df8b76fef1ba689272bc,,,,,,,,,,,,,,,,,,,,,,,,,,,,,,,,,,,,,,,,,,,,,,,,,,,,,,,,1,10,70,15,1,B,Y,N,o2_image,stimuli/out2.png,stimuli/out1.png,stimuli/correct_out2.png,,,,,,,,,,,,,,,,,,,,,,,,,,,,,,,,,,,,,,
,,5b9d57e5737d030001ad2cbf,56,male,2024-04-24_11h31.45.723,stockport_simplified,2022.2.4,Win32,59.88023952,661e456ee6de07e70aa9ef7b,6628df8b76fef1ba689272bc,,,,,,,,,,,,,,,,,,,,,,,,,,,,,,,,,,464.5747,466.8757,"[2,4,3,6,1,8,7,5]","[[0.3,0.2],[-0.3,0.2]]","[[-0.125,-0.2],[0.125,-0.2]]",-0.113333321,-0.197500038,1,0,0,1.7827,o1_image,466.8764,1,467.3786,467.3786,469.3778,0,0,0,0,1,,,,,,,,,,,,,,,,,,,,,,,,,,,,,,,,,,,,,,,,,,,,,,,,,,
,,5b9d57e5737d030001ad2cbf,56,male,2024-04-24_11h31.45.723,stockport_simplified,2022.2.4,Win32,59.88023952,661e456ee6de07e70aa9ef7b,6628df8b76fef1ba689272bc,,,,,,,,,,,,,,,,,,,,,,,,,,,,,,,,,,,,,,,,,,,,,,,,,,,,,,,,1,11,71,23,1,N,M,C,o1_image,stimuli/out1.png,stimuli/correct_out1.png,stimuli/out2.png,,,,,,,,,,,,,,,,,,,,,,,,,,,,,,,,,,,,,,
,,5b9d57e5737d030001ad2cbf,56,male,2024-04-24_11h31.45.723,stockport_simplified,2022.2.4,Win32,59.88023952,661e456ee6de07e70aa9ef7b,6628df8b76fef1ba689272bc,,,,,,,,,,,,,,,,,,,,,,,,,,,,,,,,,,469.3782,470.9291,"[2,4,3,6,1,8,7,5]","[[0.3,0.2],[-0.3,0.2]]","[[0.125,-0.2],[-0.125,-0.2]]",-0.095000013,-0.188333321,1,0,0,1.0501,o2_image,470.9296,0,471.4294,471.4295,473.4313,0,0,0,0,1,,,,,,,,,,,,,,,,,,,,,,,,,,,,,,,,,,,,,,,,,,,,,,,,,,
,,5b9d57e5737d030001ad2cbf,56,male,2024-04-24_11h31.45.723,stockport_simplified,2022.2.4,Win32,59.88023952,661e456ee6de07e70aa9ef7b,6628df8b76fef1ba689272bc,,,,,,,,,,,,,,,,,,,,,,,,,,,,,,,,,,,,,,,,,,,,,,,,,,,,,,,,1,12,72,4,1,A,X,N,o1_image,stimuli/out1.png,stimuli/correct_out1.png,stimuli/out2.png,,,,,,,,,,,,,,,,,,,,,,,,,,,,,,,,,,,,,,
,,5b9d57e5737d030001ad2cbf,56,male,2024-04-24_11h31.45.723,stockport_simplified,2022.2.4,Win32,59.88023952,661e456ee6de07e70aa9ef7b,6628df8b76fef1ba689272bc,,,,,,,,,,,,,,,,,,,,,,,,,,,,,,,,,,473.4322,476.1666,"[2,4,3,6,1,8,7,5]","[[-0.3,0.2],[0.3,0.2]]","[[0.125,-0.2],[-0.125,-0.2]]",-0.113333321,-0.198333359,1,0,0,2.2182,o2_image,476.1671,1,476.6696,476.6697,478.6687,0,0,0,0,1,,,,,,,,,,,,,,,,,,,,,,,,,,,,,,,,,,,,,,,,,,,,,,,,,,
,,5b9d57e5737d030001ad2cbf,56,male,2024-04-24_11h31.45.723,stockport_simplified,2022.2.4,Win32,59.88023952,661e456ee6de07e70aa9ef7b,6628df8b76fef1ba689272bc,,,,,,,,,,,,,,,,,,,,,,,,,,,,,,,,,,,,,,,,,,,,,,,,,,,,,,,,1,13,73,59,1,N,M,D,o2_image,stimuli/out2.png,stimuli/out1.png,stimuli/correct_out2.png,,,,,,,,,,,,,,,,,,,,,,,,,,,,,,,,,,,,,,
,,5b9d57e5737d030001ad2cbf,56,male,2024-04-24_11h31.45.723,stockport_simplified,2022.2.4,Win32,59.88023952,661e456ee6de07e70aa9ef7b,6628df8b76fef1ba689272bc,,,,,,,,,,,,,,,,,,,,,,,,,,,,,,,,,,478.6692,480.37,"[2,4,3,6,1,8,7,5]","[[0.3,0.2],[-0.3,0.2]]","[[0.125,-0.2],[-0.125,-0.2]]",-0.114166641,-0.193333371,1,0,0,1.1839,o2_image,480.3704,1,480.8706,480.8706,482.872,0,0,0,0,1,,,,,,,,,,,,,,,,,,,,,,,,,,,,,,,,,,,,,,,,,,,,,,,,,,
,,5b9d57e5737d030001ad2cbf,56,male,2024-04-24_11h31.45.723,stockport_simplified,2022.2.4,Win32,59.88023952,661e456ee6de07e70aa9ef7b,6628df8b76fef1ba689272bc,,,,,,,,,,,,,,,,,,,,,,,,,,,,,,,,,,,,,,,,,,,,,,,,,,,,,,,,1,14,74,55,1,N,M,D,o2_image,stimuli/out2.png,stimuli/out1.png,stimuli/correct_out2.png,,,,,,,,,,,,,,,,,,,,,,,,,,,,,,,,,,,,,,
,,5b9d57e5737d030001ad2cbf,56,male,2024-04-24_11h31.45.723,stockport_simplified,2022.2.4,Win32,59.88023952,661e456ee6de07e70aa9ef7b,6628df8b76fef1ba689272bc,,,,,,,,,,,,,,,,,,,,,,,,,,,,,,,,,,482.8722,484.857,"[2,4,3,6,1,8,7,5]","[[0.3,0.2],[-0.3,0.2]]","[[-0.125,-0.2],[0.125,-0.2]]",-0.125,-0.195000013,1,0,0,1.4843,o1_image,484.8576,0,485.3598,485.3598,487.3589,0,0,0,0,1,,,,,,,,,,,,,,,,,,,,,,,,,,,,,,,,,,,,,,,,,,,,,,,,,,
,,5b9d57e5737d030001ad2cbf,56,male,2024-04-24_11h31.45.723,stockport_simplified,2022.2.4,Win32,59.88023952,661e456ee6de07e70aa9ef7b,6628df8b76fef1ba689272bc,,,,,,,,,,,,,,,,,,,,,,,,,,,,,,,,,,,,,,,,,,,,,,,,,,,,,,,,1,15,75,41,1,B,X,N,o2_image,stimuli/out2.png,stimuli/out1.png,stimuli/correct_out2.png,,,,,,,,,,,,,,,,,,,,,,,,,,,,,,,,,,,,,,
,,5b9d57e5737d030001ad2cbf,56,male,2024-04-24_11h31.45.723,stockport_simplified,2022.2.4,Win32,59.88023952,661e456ee6de07e70aa9ef7b,6628df8b76fef1ba689272bc,,,,,,,,,,,,,,,,,,,,,,,,,,,,,,,,,,487.3592,488.8771,"[2,4,3,6,1,8,7,5]","[[-0.3,0.2],[0.3,0.2]]","[[0.125,-0.2],[-0.125,-0.2]]",-0.113333321,-0.191666667,1,0,0,1.0173,o2_image,488.8778,1,489.3774,489.3775,491.3787,0,0,0,0,1,,,,,,,,,,,,,,,,,,,,,,,,,,,,,,,,,,,,,,,,,,,,,,,,,,
,,5b9d57e5737d030001ad2cbf,56,male,2024-04-24_11h31.45.723,stockport_simplified,2022.2.4,Win32,59.88023952,661e456ee6de07e70aa9ef7b,6628df8b76fef1ba689272bc,,,,,,,,,,,,,,,,,,,,,,,,,,,,,,,,,,,,,,,,,,,,,,,,,,,,,,,,1,16,76,12,1,B,X,N,o2_image,stimuli/out2.png,stimuli/out1.png,stimuli/correct_out2.png,,,,,,,,,,,,,,,,,,,,,,,,,,,,,,,,,,,,,,
,,5b9d57e5737d030001ad2cbf,56,male,2024-04-24_11h31.45.723,stockport_simplified,2022.2.4,Win32,59.88023952,661e456ee6de07e70aa9ef7b,6628df8b76fef1ba689272bc,,,,,,,,,,,,,,,,,,,,,,,,,,,,,,,,,,491.3791,492.5966,"[2,4,3,6,1,8,7,5]","[[-0.3,0.2],[0.3,0.2]]","[[0.125,-0.2],[-0.125,-0.2]]",-0.1125,-0.191666667,1,0,0,0.7174,o2_image,492.5971,1,493.097,493.097,495.0987,0,0,0,0,1,,,,,,,,,,,,,,,,,,,,,,,,,,,,,,,,,,,,,,,,,,,,,,,,,,
,,5b9d57e5737d030001ad2cbf,56,male,2024-04-24_11h31.45.723,stockport_simplified,2022.2.4,Win32,59.88023952,661e456ee6de07e70aa9ef7b,6628df8b76fef1ba689272bc,,,,,,,,,,,,,,,,,,,,,,,,,,,,,,,,,,,,,,,,,,,,,,,,,,,,,,,,1,17,77,14,1,B,X,N,o2_image,stimuli/out2.png,stimuli/out1.png,stimuli/correct_out2.png,,,,,,,,,,,,,,,,,,,,,,,,,,,,,,,,,,,,,,
,,5b9d57e5737d030001ad2cbf,56,male,2024-04-24_11h31.45.723,stockport_simplified,2022.2.4,Win32,59.88023952,661e456ee6de07e70aa9ef7b,6628df8b76fef1ba689272bc,,,,,,,,,,,,,,,,,,,,,,,,,,,,,,,,,,495.0992,497.9675,"[2,4,3,6,1,8,7,5]","[[0.3,0.2],[-0.3,0.2]]","[[0.125,-0.2],[-0.125,-0.2]]",0.120833333,-0.188333321,1,0,0,2.3511,o1_image,497.968,1,498.4681,498.4682,500.4696,0,0,0,0,1,,,,,,,,,,,,,,,,,,,,,,,,,,,,,,,,,,,,,,,,,,,,,,,,,,
,,5b9d57e5737d030001ad2cbf,56,male,2024-04-24_11h31.45.723,stockport_simplified,2022.2.4,Win32,59.88023952,661e456ee6de07e70aa9ef7b,6628df8b76fef1ba689272bc,,,,,,,,,,,,,,,,,,,,,,,,,,,,,,,,,,,,,,,,,,,,,,,,,,,,,,,,1,18,78,20,1,N,M,C,o1_image,stimuli/out1.png,stimuli/correct_out1.png,stimuli/out2.png,,,,,,,,,,,,,,,,,,,,,,,,,,,,,,,,,,,,,,
,,5b9d57e5737d030001ad2cbf,56,male,2024-04-24_11h31.45.723,stockport_simplified,2022.2.4,Win32,59.88023952,661e456ee6de07e70aa9ef7b,6628df8b76fef1ba689272bc,,,,,,,,,,,,,,,,,,,,,,,,,,,,,,,,,,500.4701,502.3545,"[2,4,3,6,1,8,7,5]","[[0.3,0.2],[-0.3,0.2]]","[[-0.125,-0.2],[0.125,-0.2]]",0.108333333,-0.189166705,1,0,0,1.3676,o2_image,502.3551,1,502.8547,502.8547,504.8563,0,0,0,0,1,,,,,,,,,,,,,,,,,,,,,,,,,,,,,,,,,,,,,,,,,,,,,,,,,,
,,5b9d57e5737d030001ad2cbf,56,male,2024-04-24_11h31.45.723,stockport_simplified,2022.2.4,Win32,59.88023952,661e456ee6de07e70aa9ef7b,6628df8b76fef1ba689272bc,,,,,,,,,,,,,,,,,,,,,,,,,,,,,,,,,,,,,,,,,,,,,,,,,,,,,,,,1,19,79,56,1,N,M,D,o2_image,stimuli/out2.png,stimuli/out1.png,stimuli/correct_out2.png,,,,,,,,,,,,,,,,,,,,,,,,,,,,,,,,,,,,,,
,,5b9d57e5737d030001ad2cbf,56,male,2024-04-24_11h31.45.723,stockport_simplified,2022.2.4,Win32,59.88023952,661e456ee6de07e70aa9ef7b,6628df8b76fef1ba689272bc,,,,,,,,,,,,,,,,,,,,,,,,,,,,,,,,,,504.8566,506.4076,"[2,4,3,6,1,8,7,5]","[[0.3,0.2],[-0.3,0.2]]","[[-0.125,-0.2],[0.125,-0.2]]",-0.076666641,-0.223333359,1,0,0,1.05,o1_image,506.408,0,506.9081,506.9082,508.9095,0,0,0,0,1,,,,,,,,,,,,,,,,,,,,,,,,,,,,,,,,,,,,,,,,,,,,,,,,,,
,,5b9d57e5737d030001ad2cbf,56,male,2024-04-24_11h31.45.723,stockport_simplified,2022.2.4,Win32,59.88023952,661e456ee6de07e70aa9ef7b,6628df8b76fef1ba689272bc,,,,,,,,,,,,,,,,,,,,,,,,,,,,,,,,,,,,,,,,,,,,,,,,,,,,,,,,1,20,80,11,1,B,X,N,o2_image,stimuli/out2.png,stimuli/out1.png,stimuli/correct_out2.png,,,,,,,,,,,,,,,,,,,,,,,,,,,,,,,,,,,,,,
,,5b9d57e5737d030001ad2cbf,56,male,2024-04-24_11h31.45.723,stockport_simplified,2022.2.4,Win32,59.88023952,661e456ee6de07e70aa9ef7b,6628df8b76fef1ba689272bc,,,,,,,,,,,,,,,,,,,,,,,,,,,,,,,,,,508.9098,509.8771,"[2,4,3,6,1,8,7,5]","[[0.3,0.2],[-0.3,0.2]]","[[0.125,-0.2],[-0.125,-0.2]]",-0.0875,-0.210833359,1,0,0,0.4665,o2_image,509.8776,1,510.3774,510.3775,512.3793,0,0,0,0,1,,,,,,,,,,,,,,,,,,,,,,,,,,,,,,,,,,,,,,,,,,,,,,,,,,
,,5b9d57e5737d030001ad2cbf,56,male,2024-04-24_11h31.45.723,stockport_simplified,2022.2.4,Win32,59.88023952,661e456ee6de07e70aa9ef7b,6628df8b76fef1ba689272bc,,,,,,,,,,,,,,,,,,,,,,,,,,,,,,,,,,,,,,,,,,,,,,,,,,,,,,,,1,21,81,25,1,N,M,D,o2_image,stimuli/out2.png,stimuli/out1.png,stimuli/correct_out2.png,,,,,,,,,,,,,,,,,,,,,,,,,,,,,,,,,,,,,,
,,5b9d57e5737d030001ad2cbf,56,male,2024-04-24_11h31.45.723,stockport_simplified,2022.2.4,Win32,59.88023952,661e456ee6de07e70aa9ef7b,6628df8b76fef1ba689272bc,,,,,,,,,,,,,,,,,,,,,,,,,,,,,,,,,,512.3798,513.9496,"[2,4,3,6,1,8,7,5]","[[0.3,0.2],[-0.3,0.2]]","[[-0.125,-0.2],[0.125,-0.2]]",-0.083333333,-0.216666667,1,0,0,1.0533,o1_image,513.9501,1,514.4481,514.4481,516.4492,0,0,0,0,1,,,,,,,,,,,,,,,,,,,,,,,,,,,,,,,,,,,,,,,,,,,,,,,,,,
,,5b9d57e5737d030001ad2cbf,56,male,2024-04-24_11h31.45.723,stockport_simplified,2022.2.4,Win32,59.88023952,661e456ee6de07e70aa9ef7b,6628df8b76fef1ba689272bc,,,,,,,,,,,,,,,,,,,,,,,,,,,,,,,,,,,,,,,,,,,,,,,,,,,,,,,,1,22,82,35,1,A,Y,N,o1_image,stimuli/out1.png,stimuli/correct_out1.png,stimuli/out2.png,,,,,,,,,,,,,,,,,,,,,,,,,,,,,,,,,,,,,,
,,5b9d57e5737d030001ad2cbf,56,male,2024-04-24_11h31.45.723,stockport_simplified,2022.2.4,Win32,59.88023952,661e456ee6de07e70aa9ef7b,6628df8b76fef1ba689272bc,,,,,,,,,,,,,,,,,,,,,,,,,,,,,,,,,,516.4495,518.0836,"[2,4,3,6,1,8,7,5]","[[-0.3,0.2],[0.3,0.2]]","[[-0.125,-0.2],[0.125,-0.2]]",-0.114999962,-0.177500025,1,0,0,1.1169,o1_image,518.0841,0,518.5841,518.5842,520.5858,0,0,0,0,1,,,,,,,,,,,,,,,,,,,,,,,,,,,,,,,,,,,,,,,,,,,,,,,,,,
,,5b9d57e5737d030001ad2cbf,56,male,2024-04-24_11h31.45.723,stockport_simplified,2022.2.4,Win32,59.88023952,661e456ee6de07e70aa9ef7b,6628df8b76fef1ba689272bc,,,,,,,,,,,,,,,,,,,,,,,,,,,,,,,,,,,,,,,,,,,,,,,,,,,,,,,,1,23,83,19,1,B,Y,N,o2_image,stimuli/out2.png,stimuli/out1.png,stimuli/correct_out2.png,,,,,,,,,,,,,,,,,,,,,,,,,,,,,,,,,,,,,,
,,5b9d57e5737d030001ad2cbf,56,male,2024-04-24_11h31.45.723,stockport_simplified,2022.2.4,Win32,59.88023952,661e456ee6de07e70aa9ef7b,6628df8b76fef1ba689272bc,,,,,,,,,,,,,,,,,,,,,,,,,,,,,,,,,,520.586,522.3203,"[2,4,3,6,1,8,7,5]","[[-0.3,0.2],[0.3,0.2]]","[[0.125,-0.2],[-0.125,-0.2]]",-0.095833333,-0.184166654,1,0,0,1.2338,o2_image,522.3209,0,522.8209,522.8209,524.8223,0,0,0,0,1,,,,,,,,,,,,,,,,,,,,,,,,,,,,,,,,,,,,,,,,,,,,,,,,,,
,,5b9d57e5737d030001ad2cbf,56,male,2024-04-24_11h31.45.723,stockport_simplified,2022.2.4,Win32,59.88023952,661e456ee6de07e70aa9ef7b,6628df8b76fef1ba689272bc,,,,,,,,,,,,,,,,,,,,,,,,,,,,,,,,,,,,,,,,,,,,,,,,,,,,,,,,1,24,84,0,1,A,X,N,o1_image,stimuli/out1.png,stimuli/correct_out1.png,stimuli/out2.png,,,,,,,,,,,,,,,,,,,,,,,,,,,,,,,,,,,,,,
,,5b9d57e5737d030001ad2cbf,56,male,2024-04-24_11h31.45.723,stockport_simplified,2022.2.4,Win32,59.88023952,661e456ee6de07e70aa9ef7b,6628df8b76fef1ba689272bc,,,,,,,,,,,,,,,,,,,,,,,,,,,,,,,,,,524.8227,527.7438,"[2,4,3,6,1,8,7,5]","[[0.3,0.2],[-0.3,0.2]]","[[0.125,-0.2],[-0.125,-0.2]]",0.111666679,-0.177500025,1,0,0,2.4205,o1_image,527.7443,1,528.242,528.242,530.2437,0,0,0,0,1,,,,,,,,,,,,,,,,,,,,,,,,,,,,,,,,,,,,,,,,,,,,,,,,,,
,,5b9d57e5737d030001ad2cbf,56,male,2024-04-24_11h31.45.723,stockport_simplified,2022.2.4,Win32,59.88023952,661e456ee6de07e70aa9ef7b,6628df8b76fef1ba689272bc,,,,,,,,,,,,,,,,,,,,,,,,,,,,,,,,,,,,,,,,,,,,,,,,,,,,,,,,1,25,85,53,1,N,M,C,o1_image,stimuli/out1.png,stimuli/correct_out1.png,stimuli/out2.png,,,,,,,,,,,,,,,,,,,,,,,,,,,,,,,,,,,,,,
,,5b9d57e5737d030001ad2cbf,56,male,2024-04-24_11h31.45.723,stockport_simplified,2022.2.4,Win32,59.88023952,661e456ee6de07e70aa9ef7b,6628df8b76fef1ba689272bc,,,,,,,,,,,,,,,,,,,,,,,,,,,,,,,,,,530.2441,532.0282,"[2,4,3,6,1,8,7,5]","[[0.3,0.2],[-0.3,0.2]]","[[-0.125,-0.2],[0.125,-0.2]]",0.130833371,-0.176666705,1,0,0,1.2674,o2_image,532.0289,1,532.531,532.5311,534.5307,0,0,0,0,1,,,,,,,,,,,,,,,,,,,,,,,,,,,,,,,,,,,,,,,,,,,,,,,,,,
,,5b9d57e5737d030001ad2cbf,56,male,2024-04-24_11h31.45.723,stockport_simplified,2022.2.4,Win32,59.88023952,661e456ee6de07e70aa9ef7b,6628df8b76fef1ba689272bc,,,,,,,,,,,,,,,,,,,,,,,,,,,,,,,,,,,,,,,,,,,,,,,,,,,,,,,,1,26,86,48,1,B,Y,N,o2_image,stimuli/out2.png,stimuli/out1.png,stimuli/correct_out2.png,,,,,,,,,,,,,,,,,,,,,,,,,,,,,,,,,,,,,,
,,5b9d57e5737d030001ad2cbf,56,male,2024-04-24_11h31.45.723,stockport_simplified,2022.2.4,Win32,59.88023952,661e456ee6de07e70aa9ef7b,6628df8b76fef1ba689272bc,,,,,,,,,,,,,,,,,,,,,,,,,,,,,,,,,,534.5311,536.315,"[2,4,3,6,1,8,7,5]","[[-0.3,0.2],[0.3,0.2]]","[[0.125,-0.2],[-0.125,-0.2]]",-0.104999987,-0.166666667,1,0,0,1.2672,o2_image,536.3157,1,536.8155,536.8155,538.8172,0,0,0,0,1,,,,,,,,,,,,,,,,,,,,,,,,,,,,,,,,,,,,,,,,,,,,,,,,,,
,,5b9d57e5737d030001ad2cbf,56,male,2024-04-24_11h31.45.723,stockport_simplified,2022.2.4,Win32,59.88023952,661e456ee6de07e70aa9ef7b,6628df8b76fef1ba689272bc,,,,,,,,,,,,,,,,,,,,,,,,,,,,,,,,,,,,,,,,,,,,,,,,,,,,,,,,1,27,87,43,1,B,X,N,o2_image,stimuli/out2.png,stimuli/out1.png,stimuli/correct_out2.png,,,,,,,,,,,,,,,,,,,,,,,,,,,,,,,,,,,,,,
,,5b9d57e5737d030001ad2cbf,56,male,2024-04-24_11h31.45.723,stockport_simplified,2022.2.4,Win32,59.88023952,661e456ee6de07e70aa9ef7b,6628df8b76fef1ba689272bc,,,,,,,,,,,,,,,,,,,,,,,,,,,,,,,,,,538.8176,540.8853,"[2,4,3,6,1,8,7,5]","[[0.3,0.2],[-0.3,0.2]]","[[0.125,-0.2],[-0.125,-0.2]]",-0.126666641,-0.199166679,1,0,0,1.5508,o2_image,540.8859,0,541.3863,541.3863,543.3874,0,0,0,0,1,,,,,,,,,,,,,,,,,,,,,,,,,,,,,,,,,,,,,,,,,,,,,,,,,,
,,5b9d57e5737d030001ad2cbf,56,male,2024-04-24_11h31.45.723,stockport_simplified,2022.2.4,Win32,59.88023952,661e456ee6de07e70aa9ef7b,6628df8b76fef1ba689272bc,,,,,,,,,,,,,,,,,,,,,,,,,,,,,,,,,,,,,,,,,,,,,,,,,,,,,,,,1,28,88,1,1,A,X,N,o1_image,stimuli/out1.png,stimuli/correct_out1.png,stimuli/out2.png,,,,,,,,,,,,,,,,,,,,,,,,,,,,,,,,,,,,,,
,,5b9d57e5737d030001ad2cbf,56,male,2024-04-24_11h31.45.723,stockport_simplified,2022.2.4,Win32,59.88023952,661e456ee6de07e70aa9ef7b,6628df8b76fef1ba689272bc,,,,,,,,,,,,,,,,,,,,,,,,,,,,,,,,,,543.3879,544.8054,"[2,4,3,6,1,8,7,5]","[[-0.3,0.2],[0.3,0.2]]","[[0.125,-0.2],[-0.125,-0.2]]",-0.154999987,-0.174166679,1,0,0,0.9008,o2_image,544.8059,1,545.3057,545.3058,547.3074,0,0,0,0,1,,,,,,,,,,,,,,,,,,,,,,,,,,,,,,,,,,,,,,,,,,,,,,,,,,
,,5b9d57e5737d030001ad2cbf,56,male,2024-04-24_11h31.45.723,stockport_simplified,2022.2.4,Win32,59.88023952,661e456ee6de07e70aa9ef7b,6628df8b76fef1ba689272bc,,,,,,,,,,,,,,,,,,,,,,,,,,,,,,,,,,,,,,,,,,,,,,,,,,,,,,,,1,29,89,42,1,B,X,N,o2_image,stimuli/out2.png,stimuli/out1.png,stimuli/correct_out2.png,,,,,,,,,,,,,,,,,,,,,,,,,,,,,,,,,,,,,,
,,5b9d57e5737d030001ad2cbf,56,male,2024-04-24_11h31.45.723,stockport_simplified,2022.2.4,Win32,59.88023952,661e456ee6de07e70aa9ef7b,6628df8b76fef1ba689272bc,,,,,,,,,,,,,,,,,,,,,,,,,,,,,,,,,,547.3078,550.1098,"[2,4,3,6,1,8,7,5]","[[-0.3,0.2],[0.3,0.2]]","[[0.125,-0.2],[-0.125,-0.2]]",0.1125,-0.182500013,1,0,0,2.2848,o1_image,550.1105,1,550.6099,550.6099,552.6116,0,0,0,0,1,,,,,,,,,,,,,,,,,,,,,,,,,,,,,,,,,,,,,,,,,,,,,,,,,,
,,5b9d57e5737d030001ad2cbf,56,male,2024-04-24_11h31.45.723,stockport_simplified,2022.2.4,Win32,59.88023952,661e456ee6de07e70aa9ef7b,6628df8b76fef1ba689272bc,,,,,,,,,,,,,,,,,,,,,,,,,,,,,,,,,,,,,,,,,,,,,,,,,,,,,,,,1,30,90,51,1,N,M,C,o1_image,stimuli/out1.png,stimuli/correct_out1.png,stimuli/out2.png,,,,,,,,,,,,,,,,,,,,,,,,,,,,,,,,,,,,,,
,,5b9d57e5737d030001ad2cbf,56,male,2024-04-24_11h31.45.723,stockport_simplified,2022.2.4,Win32,59.88023952,661e456ee6de07e70aa9ef7b,6628df8b76fef1ba689272bc,,,,,,,,,,,,,,,,,,,,,,,,,,,,,,,,,,552.6121,554.1794,"[2,4,3,6,1,8,7,5]","[[0.3,0.2],[-0.3,0.2]]","[[0.125,-0.2],[-0.125,-0.2]]",0.113333321,-0.191666667,1,0,0,1.0651,o1_image,554.1799,0,554.6798,554.6798,556.6815,0,0,0,0,1,,,,,,,,,,,,,,,,,,,,,,,,,,,,,,,,,,,,,,,,,,,,,,,,,,
,,5b9d57e5737d030001ad2cbf,56,male,2024-04-24_11h31.45.723,stockport_simplified,2022.2.4,Win32,59.88023952,661e456ee6de07e70aa9ef7b,6628df8b76fef1ba689272bc,,,,,,,,,,,,,,,,,,,,,,,,,,,,,,,,,,,,,,,,,,,,,,,,,,,,,,,,1,31,91,45,1,B,Y,N,o2_image,stimuli/out2.png,stimuli/out1.png,stimuli/correct_out2.png,,,,,,,,,,,,,,,,,,,,,,,,,,,,,,,,,,,,,,
,,5b9d57e5737d030001ad2cbf,56,male,2024-04-24_11h31.45.723,stockport_simplified,2022.2.4,Win32,59.88023952,661e456ee6de07e70aa9ef7b,6628df8b76fef1ba689272bc,,,,,,,,,,,,,,,,,,,,,,,,,,,,,,,,,,556.6818,559.1169,"[2,4,3,6,1,8,7,5]","[[-0.3,0.2],[0.3,0.2]]","[[-0.125,-0.2],[0.125,-0.2]]",-0.116666667,-0.189166705,1,0,0,1.9346,o1_image,559.1176,1,559.6181,559.6181,561.6185,0,0,0,0,1,,,,,,,,,,,,,,,,,,,,,,,,,,,,,,,,,,,,,,,,,,,,,,,,,,
,,5b9d57e5737d030001ad2cbf,56,male,2024-04-24_11h31.45.723,stockport_simplified,2022.2.4,Win32,59.88023952,661e456ee6de07e70aa9ef7b,6628df8b76fef1ba689272bc,,,,,,,,,,,,,,,,,,,,,,,,,,,,,,,,,,,,,,,,,,,,,,,,,,,,,,,,1,32,92,50,1,N,M,C,o1_image,stimuli/out1.png,stimuli/correct_out1.png,stimuli/out2.png,,,,,,,,,,,,,,,,,,,,,,,,,,,,,,,,,,,,,,
,,5b9d57e5737d030001ad2cbf,56,male,2024-04-24_11h31.45.723,stockport_simplified,2022.2.4,Win32,59.88023952,661e456ee6de07e70aa9ef7b,6628df8b76fef1ba689272bc,,,,,,,,,,,,,,,,,,,,,,,,,,,,,,,,,,561.6189,563.4725,"[2,4,3,6,1,8,7,5]","[[-0.3,0.2],[0.3,0.2]]","[[-0.125,-0.2],[0.125,-0.2]]",0.094166692,-0.1875,1,0,0,1.353,o2_image,563.4729,1,563.9705,563.9705,565.9726,0,0,0,0,1,,,,,,,,,,,,,,,,,,,,,,,,,,,,,,,,,,,,,,,,,,,,,,,,,,
,,5b9d57e5737d030001ad2cbf,56,male,2024-04-24_11h31.45.723,stockport_simplified,2022.2.4,Win32,59.88023952,661e456ee6de07e70aa9ef7b,6628df8b76fef1ba689272bc,,,,,,,,,,,,,,,,,,,,,,,,,,,,,,,,,,,,,,,,,,,,,,,,,,,,,,,,1,33,93,28,1,N,M,D,o2_image,stimuli/out2.png,stimuli/out1.png,stimuli/correct_out2.png,,,,,,,,,,,,,,,,,,,,,,,,,,,,,,,,,,,,,,
,,5b9d57e5737d030001ad2cbf,56,male,2024-04-24_11h31.45.723,stockport_simplified,2022.2.4,Win32,59.88023952,661e456ee6de07e70aa9ef7b,6628df8b76fef1ba689272bc,,,,,,,,,,,,,,,,,,,,,,,,,,,,,,,,,,565.9731,568.1575,"[2,4,3,6,1,8,7,5]","[[0.3,0.2],[-0.3,0.2]]","[[0.125,-0.2],[-0.125,-0.2]]",-0.089166641,-0.181666692,1,0,0,1.6675,o2_image,568.1582,0,568.6576,568.6576,570.6591,0,0,0,0,1,,,,,,,,,,,,,,,,,,,,,,,,,,,,,,,,,,,,,,,,,,,,,,,,,,
,,5b9d57e5737d030001ad2cbf,56,male,2024-04-24_11h31.45.723,stockport_simplified,2022.2.4,Win32,59.88023952,661e456ee6de07e70aa9ef7b,6628df8b76fef1ba689272bc,,,,,,,,,,,,,,,,,,,,,,,,,,,,,,,,,,,,,,,,,,,,,,,,,,,,,,,,1,34,94,39,1,A,Y,N,o1_image,stimuli/out1.png,stimuli/correct_out1.png,stimuli/out2.png,,,,,,,,,,,,,,,,,,,,,,,,,,,,,,,,,,,,,,
,,5b9d57e5737d030001ad2cbf,56,male,2024-04-24_11h31.45.723,stockport_simplified,2022.2.4,Win32,59.88023952,661e456ee6de07e70aa9ef7b,6628df8b76fef1ba689272bc,,,,,,,,,,,,,,,,,,,,,,,,,,,,,,,,,,570.6595,571.8268,"[2,4,3,6,1,8,7,5]","[[-0.3,0.2],[0.3,0.2]]","[[-0.125,-0.2],[0.125,-0.2]]",-0.075833321,-0.165000025,1,0,0,0.6668,o1_image,571.8275,0,572.3277,572.3278,574.3291,0,0,0,0,1,,,,,,,,,,,,,,,,,,,,,,,,,,,,,,,,,,,,,,,,,,,,,,,,,,
,,5b9d57e5737d030001ad2cbf,56,male,2024-04-24_11h31.45.723,stockport_simplified,2022.2.4,Win32,59.88023952,661e456ee6de07e70aa9ef7b,6628df8b76fef1ba689272bc,,,,,,,,,,,,,,,,,,,,,,,,,,,,,,,,,,,,,,,,,,,,,,,,,,,,,,,,1,35,95,47,1,B,Y,N,o2_image,stimuli/out2.png,stimuli/out1.png,stimuli/correct_out2.png,,,,,,,,,,,,,,,,,,,,,,,,,,,,,,,,,,,,,,
,,5b9d57e5737d030001ad2cbf,56,male,2024-04-24_11h31.45.723,stockport_simplified,2022.2.4,Win32,59.88023952,661e456ee6de07e70aa9ef7b,6628df8b76fef1ba689272bc,,,,,,,,,,,,,,,,,,,,,,,,,,,,,,,,,,574.3295,576.414,"[2,4,3,6,1,8,7,5]","[[-0.3,0.2],[0.3,0.2]]","[[0.125,-0.2],[-0.125,-0.2]]",-0.115833346,-0.189166705,1,0,0,1.5678,o2_image,576.4145,1,576.9145,576.9146,578.9183,0,0,0,0,1,,,,,,,,,,,,,,,,,,,,,,,,,,,,,,,,,,,,,,,,,,,,,,,,,,
,,5b9d57e5737d030001ad2cbf,56,male,2024-04-24_11h31.45.723,stockport_simplified,2022.2.4,Win32,59.88023952,661e456ee6de07e70aa9ef7b,6628df8b76fef1ba689272bc,,,,,,,,,,,,,,,,,,,,,,,,,,,,,,,,,,,,,,,,,,,,,,,,,,,,,,,,1,36,96,57,1,N,M,D,o2_image,stimuli/out2.png,stimuli/out1.png,stimuli/correct_out2.png,,,,,,,,,,,,,,,,,,,,,,,,,,,,,,,,,,,,,,
,,5b9d57e5737d030001ad2cbf,56,male,2024-04-24_11h31.45.723,stockport_simplified,2022.2.4,Win32,59.88023952,661e456ee6de07e70aa9ef7b,6628df8b76fef1ba689272bc,,,,,,,,,,,,,,,,,,,,,,,,,,,,,,,,,,578.9187,580.3003,"[2,4,3,6,1,8,7,5]","[[-0.3,0.2],[0.3,0.2]]","[[0.125,-0.2],[-0.125,-0.2]]",-0.103333346,-0.166666667,1,0,0,0.8669,o2_image,580.3008,0,580.8032,580.8032,582.8023,0,0,0,0,1,,,,,,,,,,,,,,,,,,,,,,,,,,,,,,,,,,,,,,,,,,,,,,,,,,
,,5b9d57e5737d030001ad2cbf,56,male,2024-04-24_11h31.45.723,stockport_simplified,2022.2.4,Win32,59.88023952,661e456ee6de07e70aa9ef7b,6628df8b76fef1ba689272bc,,,,,,,,,,,,,,,,,,,,,,,,,,,,,,,,,,,,,,,,,,,,,,,,,,,,,,,,1,37,97,32,1,A,X,N,o1_image,stimuli/out1.png,stimuli/correct_out1.png,stimuli/out2.png,,,,,,,,,,,,,,,,,,,,,,,,,,,,,,,,,,,,,,
,,5b9d57e5737d030001ad2cbf,56,male,2024-04-24_11h31.45.723,stockport_simplified,2022.2.4,Win32,59.88023952,661e456ee6de07e70aa9ef7b,6628df8b76fef1ba689272bc,,,,,,,,,,,,,,,,,,,,,,,,,,,,,,,,,,582.8025,583.8366,"[2,4,3,6,1,8,7,5]","[[-0.3,0.2],[0.3,0.2]]","[[0.125,-0.2],[-0.125,-0.2]]",-0.111666679,-0.188333321,1,0,0,0.5335,o2_image,583.8372,1,584.337,584.3371,586.3388,0,0,0,0,1,,,,,,,,,,,,,,,,,,,,,,,,,,,,,,,,,,,,,,,,,,,,,,,,,,
,,5b9d57e5737d030001ad2cbf,56,male,2024-04-24_11h31.45.723,stockport_simplified,2022.2.4,Win32,59.88023952,661e456ee6de07e70aa9ef7b,6628df8b76fef1ba689272bc,,,,,,,,,,,,,,,,,,,,,,,,,,,,,,,,,,,,,,,,,,,,,,,,,,,,,,,,1,38,98,40,1,B,X,N,o2_image,stimuli/out2.png,stimuli/out1.png,stimuli/correct_out2.png,,,,,,,,,,,,,,,,,,,,,,,,,,,,,,,,,,,,,,
,,5b9d57e5737d030001ad2cbf,56,male,2024-04-24_11h31.45.723,stockport_simplified,2022.2.4,Win32,59.88023952,661e456ee6de07e70aa9ef7b,6628df8b76fef1ba689272bc,,,,,,,,,,,,,,,,,,,,,,,,,,,,,,,,,,586.339,587.5394,"[2,4,3,6,1,8,7,5]","[[0.3,0.2],[-0.3,0.2]]","[[0.125,-0.2],[-0.125,-0.2]]",-0.147499975,-0.1625,1,0,0,0.7002,o2_image,587.54,1,588.0398,588.0398,590.0414,0,0,0,0,1,,,,,,,,,,,,,,,,,,,,,,,,,,,,,,,,,,,,,,,,,,,,,,,,,,
,,5b9d57e5737d030001ad2cbf,56,male,2024-04-24_11h31.45.723,stockport_simplified,2022.2.4,Win32,59.88023952,661e456ee6de07e70aa9ef7b,6628df8b76fef1ba689272bc,,,,,,,,,,,,,,,,,,,,,,,,,,,,,,,,,,,,,,,,,,,,,,,,,,,,,,,,1,39,99,44,1,B,X,N,o2_image,stimuli/out2.png,stimuli/out1.png,stimuli/correct_out2.png,,,,,,,,,,,,,,,,,,,,,,,,,,,,,,,,,,,,,,
,,5b9d57e5737d030001ad2cbf,56,male,2024-04-24_11h31.45.723,stockport_simplified,2022.2.4,Win32,59.88023952,661e456ee6de07e70aa9ef7b,6628df8b76fef1ba689272bc,,,,,,,,,,,,,,,,,,,,,,,,,,,,,,,,,,590.0417,591.1924,"[2,4,3,6,1,8,7,5]","[[-0.3,0.2],[0.3,0.2]]","[[-0.125,-0.2],[0.125,-0.2]]",-0.134999975,-0.219166692,1,0,0,0.65,o1_image,591.1929,0,591.693,591.6931,593.6947,0,0,0,0,1,,,,,,,,,,,,,,,,,,,,,,,,,,,,,,,,,,,,,,,,,,,,,,,,,,
,,5b9d57e5737d030001ad2cbf,56,male,2024-04-24_11h31.45.723,stockport_simplified,2022.2.4,Win32,59.88023952,661e456ee6de07e70aa9ef7b,6628df8b76fef1ba689272bc,,,,,,,,,,,,,,,,,,,,,,,,,,,,,,,,,,,,,,,,,,,,,,,,,,,,,,,,1,40,100,13,1,B,X,N,o2_image,stimuli/out2.png,stimuli/out1.png,stimuli/correct_out2.png,,,,,,,,,,,,,,,,,,,,,,,,,,,,,,,,,,,,,,
,,5b9d57e5737d030001ad2cbf,56,male,2024-04-24_11h31.45.723,stockport_simplified,2022.2.4,Win32,59.88023952,661e456ee6de07e70aa9ef7b,6628df8b76fef1ba689272bc,,,,,,,,,,,,,,,,,,,,,,,,,,,,,,,,,,593.6952,595.0791,"[2,4,3,6,1,8,7,5]","[[0.3,0.2],[-0.3,0.2]]","[[-0.125,-0.2],[0.125,-0.2]]",0.135000038,-0.226666705,1,0,0,0.8673,o2_image,595.08,0,595.5793,595.5793,597.5809,0,0,0,0,1,,,,,,,,,,,,,,,,,,,,,,,,,,,,,,,,,,,,,,,,,,,,,,,,,,
,,5b9d57e5737d030001ad2cbf,56,male,2024-04-24_11h31.45.723,stockport_simplified,2022.2.4,Win32,59.88023952,661e456ee6de07e70aa9ef7b,6628df8b76fef1ba689272bc,,,,,,,,,,,,,,,,,,,,,,,,,,,,,,,,,,,,,,,,,,,,,,,,,,,,,,,,1,41,101,31,1,A,X,N,o1_image,stimuli/out1.png,stimuli/correct_out1.png,stimuli/out2.png,,,,,,,,,,,,,,,,,,,,,,,,,,,,,,,,,,,,,,
,,5b9d57e5737d030001ad2cbf,56,male,2024-04-24_11h31.45.723,stockport_simplified,2022.2.4,Win32,59.88023952,661e456ee6de07e70aa9ef7b,6628df8b76fef1ba689272bc,,,,,,,,,,,,,,,,,,,,,,,,,,,,,,,,,,597.5812,598.8486,"[2,4,3,6,1,8,7,5]","[[-0.3,0.2],[0.3,0.2]]","[[-0.125,-0.2],[0.125,-0.2]]",-0.134999975,-0.206666692,1,0,0,0.7668,o1_image,598.849,1,599.3496,599.3497,601.3506,0,0,0,0,1,,,,,,,,,,,,,,,,,,,,,,,,,,,,,,,,,,,,,,,,,,,,,,,,,,
,,5b9d57e5737d030001ad2cbf,56,male,2024-04-24_11h31.45.723,stockport_simplified,2022.2.4,Win32,59.88023952,661e456ee6de07e70aa9ef7b,6628df8b76fef1ba689272bc,,,,,,,,,,,,,,,,,,,,,,,,,,,,,,,,,,,,,,,,,,,,,,,,,,,,,,,,1,42,102,5,1,A,Y,N,o1_image,stimuli/out1.png,stimuli/correct_out1.png,stimuli/out2.png,,,,,,,,,,,,,,,,,,,,,,,,,,,,,,,,,,,,,,
,,5b9d57e5737d030001ad2cbf,56,male,2024-04-24_11h31.45.723,stockport_simplified,2022.2.4,Win32,59.88023952,661e456ee6de07e70aa9ef7b,6628df8b76fef1ba689272bc,,,,,,,,,,,,,,,,,,,,,,,,,,,,,,,,,,601.3511,602.8518,"[2,4,3,6,1,8,7,5]","[[0.3,0.2],[-0.3,0.2]]","[[-0.125,-0.2],[0.125,-0.2]]",-0.119166629,-0.181666692,1,0,0,0.9839,o1_image,602.8523,1,603.3522,603.3522,605.354,0,0,0,0,1,,,,,,,,,,,,,,,,,,,,,,,,,,,,,,,,,,,,,,,,,,,,,,,,,,
,,5b9d57e5737d030001ad2cbf,56,male,2024-04-24_11h31.45.723,stockport_simplified,2022.2.4,Win32,59.88023952,661e456ee6de07e70aa9ef7b,6628df8b76fef1ba689272bc,,,,,,,,,,,,,,,,,,,,,,,,,,,,,,,,,,,,,,,,,,,,,,,,,,,,,,,,1,43,103,38,1,A,Y,N,o1_image,stimuli/out1.png,stimuli/correct_out1.png,stimuli/out2.png,,,,,,,,,,,,,,,,,,,,,,,,,,,,,,,,,,,,,,
,,5b9d57e5737d030001ad2cbf,56,male,2024-04-24_11h31.45.723,stockport_simplified,2022.2.4,Win32,59.88023952,661e456ee6de07e70aa9ef7b,6628df8b76fef1ba689272bc,,,,,,,,,,,,,,,,,,,,,,,,,,,,,,,,,,605.3543,608.3565,"[2,4,3,6,1,8,7,5]","[[-0.3,0.2],[0.3,0.2]]","[[0.125,-0.2],[-0.125,-0.2]]",0.143333371,-0.201666705,1,0,0,2.4851,o1_image,608.3574,1,608.8566,608.8566,610.8585,0,0,0,0,1,,,,,,,,,,,,,,,,,,,,,,,,,,,,,,,,,,,,,,,,,,,,,,,,,,
,,5b9d57e5737d030001ad2cbf,56,male,2024-04-24_11h31.45.723,stockport_simplified,2022.2.4,Win32,59.88023952,661e456ee6de07e70aa9ef7b,6628df8b76fef1ba689272bc,,,,,,,,,,,,,,,,,,,,,,,,,,,,,,,,,,,,,,,,,,,,,,,,,,,,,,,,1,44,104,21,1,N,M,C,o1_image,stimuli/out1.png,stimuli/correct_out1.png,stimuli/out2.png,,,,,,,,,,,,,,,,,,,,,,,,,,,,,,,,,,,,,,
,,5b9d57e5737d030001ad2cbf,56,male,2024-04-24_11h31.45.723,stockport_simplified,2022.2.4,Win32,59.88023952,661e456ee6de07e70aa9ef7b,6628df8b76fef1ba689272bc,,,,,,,,,,,,,,,,,,,,,,,,,,,,,,,,,,610.8589,612.4598,"[2,4,3,6,1,8,7,5]","[[0.3,0.2],[-0.3,0.2]]","[[0.125,-0.2],[-0.125,-0.2]]",-0.115833346,-0.204166667,1,0,0,1.0843,o2_image,612.4604,0,612.9604,612.9604,614.9615,0,0,0,0,1,,,,,,,,,,,,,,,,,,,,,,,,,,,,,,,,,,,,,,,,,,,,,,,,,,
,,5b9d57e5737d030001ad2cbf,56,male,2024-04-24_11h31.45.723,stockport_simplified,2022.2.4,Win32,59.88023952,661e456ee6de07e70aa9ef7b,6628df8b76fef1ba689272bc,,,,,,,,,,,,,,,,,,,,,,,,,,,,,,,,,,,,,,,,,,,,,,,,,,,,,,,,1,45,105,2,1,A,X,N,o1_image,stimuli/out1.png,stimuli/correct_out1.png,stimuli/out2.png,,,,,,,,,,,,,,,,,,,,,,,,,,,,,,,,,,,,,,
,,5b9d57e5737d030001ad2cbf,56,male,2024-04-24_11h31.45.723,stockport_simplified,2022.2.4,Win32,59.88023952,661e456ee6de07e70aa9ef7b,6628df8b76fef1ba689272bc,,,,,,,,,,,,,,,,,,,,,,,,,,,,,,,,,,614.9618,616.2963,"[2,4,3,6,1,8,7,5]","[[0.3,0.2],[-0.3,0.2]]","[[0.125,-0.2],[-0.125,-0.2]]",-0.134999975,-0.179166667,1,0,0,0.8338,o2_image,616.2969,0,616.7964,616.7964,618.7984,0,0,0,0,1,,,,,,,,,,,,,,,,,,,,,,,,,,,,,,,,,,,,,,,,,,,,,,,,,,
,,5b9d57e5737d030001ad2cbf,56,male,2024-04-24_11h31.45.723,stockport_simplified,2022.2.4,Win32,59.88023952,661e456ee6de07e70aa9ef7b,6628df8b76fef1ba689272bc,,,,,,,,,,,,,,,,,,,,,,,,,,,,,,,,,,,,,,,,,,,,,,,,,,,,,,,,1,46,106,52,1,N,M,C,o1_image,stimuli/out1.png,stimuli/correct_out1.png,stimuli/out2.png,,,,,,,,,,,,,,,,,,,,,,,,,,,,,,,,,,,,,,
,,5b9d57e5737d030001ad2cbf,56,male,2024-04-24_11h31.45.723,stockport_simplified,2022.2.4,Win32,59.88023952,661e456ee6de07e70aa9ef7b,6628df8b76fef1ba689272bc,,,,,,,,,,,,,,,,,,,,,,,,,,,,,,,,,,618.799,620.2992,"[2,4,3,6,1,8,7,5]","[[0.3,0.2],[-0.3,0.2]]","[[0.125,-0.2],[-0.125,-0.2]]",-0.088333321,-0.171666654,1,0,0,0.9836,o2_image,620.2997,0,620.8025,620.8025,622.8012,0,0,0,0,1,,,,,,,,,,,,,,,,,,,,,,,,,,,,,,,,,,,,,,,,,,,,,,,,,,
,,5b9d57e5737d030001ad2cbf,56,male,2024-04-24_11h31.45.723,stockport_simplified,2022.2.4,Win32,59.88023952,661e456ee6de07e70aa9ef7b,6628df8b76fef1ba689272bc,,,,,,,,,,,,,,,,,,,,,,,,,,,,,,,,,,,,,,,,,,,,,,,,,,,,,,,,1,47,107,33,1,A,X,N,o1_image,stimuli/out1.png,stimuli/correct_out1.png,stimuli/out2.png,,,,,,,,,,,,,,,,,,,,,,,,,,,,,,,,,,,,,,
,,5b9d57e5737d030001ad2cbf,56,male,2024-04-24_11h31.45.723,stockport_simplified,2022.2.4,Win32,59.88023952,661e456ee6de07e70aa9ef7b,6628df8b76fef1ba689272bc,,,,,,,,,,,,,,,,,,,,,,,,,,,,,,,,,,622.8015,624.2384,"[2,4,3,6,1,8,7,5]","[[0.3,0.2],[-0.3,0.2]]","[[-0.125,-0.2],[0.125,-0.2]]",-0.122499975,-0.179166667,1,0,0,0.9197,o1_image,624.2389,1,624.7387,624.7388,626.739,0,0,0,0,1,,,,,,,,,,,,,,,,,,,,,,,,,,,,,,,,,,,,,,,,,,,,,,,,,,
,,5b9d57e5737d030001ad2cbf,56,male,2024-04-24_11h31.45.723,stockport_simplified,2022.2.4,Win32,59.88023952,661e456ee6de07e70aa9ef7b,6628df8b76fef1ba689272bc,,,,,,,,,,,,,,,,,,,,,,,,,,,,,,,,,,,,,,,,,,,,,,,,,,,,,,,,1,48,108,8,1,A,Y,N,o1_image,stimuli/out1.png,stimuli/correct_out1.png,stimuli/out2.png,,,,,,,,,,,,,,,,,,,,,,,,,,,,,,,,,,,,,,
,,5b9d57e5737d030001ad2cbf,56,male,2024-04-24_11h31.45.723,stockport_simplified,2022.2.4,Win32,59.88023952,661e456ee6de07e70aa9ef7b,6628df8b76fef1ba689272bc,,,,,,,,,,,,,,,,,,,,,,,,,,,,,,,,,,626.7393,628.706,"[2,4,3,6,1,8,7,5]","[[-0.3,0.2],[0.3,0.2]]","[[0.125,-0.2],[-0.125,-0.2]]",-0.097499975,-0.190833346,1,0,0,1.4505,o2_image,628.7064,1,629.2091,629.2091,631.2081,0,0,0,0,1,,,,,,,,,,,,,,,,,,,,,,,,,,,,,,,,,,,,,,,,,,,,,,,,,,
,,5b9d57e5737d030001ad2cbf,56,male,2024-04-24_11h31.45.723,stockport_simplified,2022.2.4,Win32,59.88023952,661e456ee6de07e70aa9ef7b,6628df8b76fef1ba689272bc,,,,,,,,,,,,,,,,,,,,,,,,,,,,,,,,,,,,,,,,,,,,,,,,,,,,,,,,1,49,109,27,1,N,M,D,o2_image,stimuli/out2.png,stimuli/out1.png,stimuli/correct_out2.png,,,,,,,,,,,,,,,,,,,,,,,,,,,,,,,,,,,,,,
,,5b9d57e5737d030001ad2cbf,56,male,2024-04-24_11h31.45.723,stockport_simplified,2022.2.4,Win32,59.88023952,661e456ee6de07e70aa9ef7b,6628df8b76fef1ba689272bc,,,,,,,,,,,,,,,,,,,,,,,,,,,,,,,,,,631.2085,633.977,"[2,4,3,6,1,8,7,5]","[[-0.3,0.2],[0.3,0.2]]","[[-0.125,-0.2],[0.125,-0.2]]",-0.125,-0.176666705,1,0,0,2.2514,o1_image,633.9777,1,634.4775,634.4775,636.4791,0,0,0,0,1,,,,,,,,,,,,,,,,,,,,,,,,,,,,,,,,,,,,,,,,,,,,,,,,,,
,,5b9d57e5737d030001ad2cbf,56,male,2024-04-24_11h31.45.723,stockport_simplified,2022.2.4,Win32,59.88023952,661e456ee6de07e70aa9ef7b,6628df8b76fef1ba689272bc,,,,,,,,,,,,,,,,,,,,,,,,,,,,,,,,,,,,,,,,,,,,,,,,,,,,,,,,1,50,110,22,1,N,M,C,o1_image,stimuli/out1.png,stimuli/correct_out1.png,stimuli/out2.png,,,,,,,,,,,,,,,,,,,,,,,,,,,,,,,,,,,,,,
,,5b9d57e5737d030001ad2cbf,56,male,2024-04-24_11h31.45.723,stockport_simplified,2022.2.4,Win32,59.88023952,661e456ee6de07e70aa9ef7b,6628df8b76fef1ba689272bc,,,,,,,,,,,,,,,,,,,,,,,,,,,,,,,,,,636.4801,638.3303,"[2,4,3,6,1,8,7,5]","[[0.3,0.2],[-0.3,0.2]]","[[0.125,-0.2],[-0.125,-0.2]]",0.130833371,-0.194166692,1,0,0,1.3343,o1_image,638.3309,1,638.8309,638.831,640.8324,0,0,0,0,1,,,,,,,,,,,,,,,,,,,,,,,,,,,,,,,,,,,,,,,,,,,,,,,,,,
,,5b9d57e5737d030001ad2cbf,56,male,2024-04-24_11h31.45.723,stockport_simplified,2022.2.4,Win32,59.88023952,661e456ee6de07e70aa9ef7b,6628df8b76fef1ba689272bc,,,,,,,,,,,,,,,,,,,,,,,,,,,,,,,,,,,,,,,,,,,,,,,,,,,,,,,,1,51,111,54,1,N,M,C,o1_image,stimuli/out1.png,stimuli/correct_out1.png,stimuli/out2.png,,,,,,,,,,,,,,,,,,,,,,,,,,,,,,,,,,,,,,
,,5b9d57e5737d030001ad2cbf,56,male,2024-04-24_11h31.45.723,stockport_simplified,2022.2.4,Win32,59.88023952,661e456ee6de07e70aa9ef7b,6628df8b76fef1ba689272bc,,,,,,,,,,,,,,,,,,,,,,,,,,,,,,,,,,640.8327,642.6172,"[2,4,3,6,1,8,7,5]","[[0.3,0.2],[-0.3,0.2]]","[[0.125,-0.2],[-0.125,-0.2]]",-0.109999975,-0.181666692,1,0,0,1.2842,o2_image,642.6177,1,643.1178,643.1179,645.1193,0,0,0,0,1,,,,,,,,,,,,,,,,,,,,,,,,,,,,,,,,,,,,,,,,,,,,,,,,,,
,,5b9d57e5737d030001ad2cbf,56,male,2024-04-24_11h31.45.723,stockport_simplified,2022.2.4,Win32,59.88023952,661e456ee6de07e70aa9ef7b,6628df8b76fef1ba689272bc,,,,,,,,,,,,,,,,,,,,,,,,,,,,,,,,,,,,,,,,,,,,,,,,,,,,,,,,1,52,112,26,1,N,M,D,o2_image,stimuli/out2.png,stimuli/out1.png,stimuli/correct_out2.png,,,,,,,,,,,,,,,,,,,,,,,,,,,,,,,,,,,,,,
,,5b9d57e5737d030001ad2cbf,56,male,2024-04-24_11h31.45.723,stockport_simplified,2022.2.4,Win32,59.88023952,661e456ee6de07e70aa9ef7b,6628df8b76fef1ba689272bc,,,,,,,,,,,,,,,,,,,,,,,,,,,,,,,,,,645.1198,646.6373,"[2,4,3,6,1,8,7,5]","[[-0.3,0.2],[0.3,0.2]]","[[0.125,-0.2],[-0.125,-0.2]]",-0.098333295,-0.175833321,1,0,0,1.0002,o2_image,646.6379,0,647.1374,647.1374,649.1392,0,0,0,0,1,,,,,,,,,,,,,,,,,,,,,,,,,,,,,,,,,,,,,,,,,,,,,,,,,,
,,5b9d57e5737d030001ad2cbf,56,male,2024-04-24_11h31.45.723,stockport_simplified,2022.2.4,Win32,59.88023952,661e456ee6de07e70aa9ef7b,6628df8b76fef1ba689272bc,,,,,,,,,,,,,,,,,,,,,,,,,,,,,,,,,,,,,,,,,,,,,,,,,,,,,,,,1,53,113,7,1,A,Y,N,o1_image,stimuli/out1.png,stimuli/correct_out1.png,stimuli/out2.png,,,,,,,,,,,,,,,,,,,,,,,,,,,,,,,,,,,,,,
,,5b9d57e5737d030001ad2cbf,56,male,2024-04-24_11h31.45.723,stockport_simplified,2022.2.4,Win32,59.88023952,661e456ee6de07e70aa9ef7b,6628df8b76fef1ba689272bc,,,,,,,,,,,,,,,,,,,,,,,,,,,,,,,,,,649.1397,650.3569,"[2,4,3,6,1,8,7,5]","[[0.3,0.2],[-0.3,0.2]]","[[-0.125,-0.2],[0.125,-0.2]]",-0.089999962,-0.150833321,1,0,0,0.7005,o1_image,650.3577,1,650.8573,650.8573,652.8589,0,0,0,0,1,,,,,,,,,,,,,,,,,,,,,,,,,,,,,,,,,,,,,,,,,,,,,,,,,,
,,5b9d57e5737d030001ad2cbf,56,male,2024-04-24_11h31.45.723,stockport_simplified,2022.2.4,Win32,59.88023952,661e456ee6de07e70aa9ef7b,6628df8b76fef1ba689272bc,,,,,,,,,,,,,,,,,,,,,,,,,,,,,,,,,,,,,,,,,,,,,,,,,,,,,,,,1,54,114,9,1,A,Y,N,o1_image,stimuli/out1.png,stimuli/correct_out1.png,stimuli/out2.png,,,,,,,,,,,,,,,,,,,,,,,,,,,,,,,,,,,,,,
,,5b9d57e5737d030001ad2cbf,56,male,2024-04-24_11h31.45.723,stockport_simplified,2022.2.4,Win32,59.88023952,661e456ee6de07e70aa9ef7b,6628df8b76fef1ba689272bc,,,,,,,,,,,,,,,,,,,,,,,,,,,,,,,,,,652.8593,654.944,"[2,4,3,6,1,8,7,5]","[[0.3,0.2],[-0.3,0.2]]","[[0.125,-0.2],[-0.125,-0.2]]",-0.109166654,-0.166666667,1,0,0,1.5679,o2_image,654.9447,1,655.4465,655.4466,657.4457,0,0,0,0,1,,,,,,,,,,,,,,,,,,,,,,,,,,,,,,,,,,,,,,,,,,,,,,,,,,
,,5b9d57e5737d030001ad2cbf,56,male,2024-04-24_11h31.45.723,stockport_simplified,2022.2.4,Win32,59.88023952,661e456ee6de07e70aa9ef7b,6628df8b76fef1ba689272bc,,,,,,,,,,,,,,,,,,,,,,,,,,,,,,,,,,,,,,,,,,,,,,,,,,,,,,,,1,55,115,58,1,N,M,D,o2_image,stimuli/out2.png,stimuli/out1.png,stimuli/correct_out2.png,,,,,,,,,,,,,,,,,,,,,,,,,,,,,,,,,,,,,,
,,5b9d57e5737d030001ad2cbf,56,male,2024-04-24_11h31.45.723,stockport_simplified,2022.2.4,Win32,59.88023952,661e456ee6de07e70aa9ef7b,6628df8b76fef1ba689272bc,,,,,,,,,,,,,,,,,,,,,,,,,,,,,,,,,,657.446,659.6809,"[2,4,3,6,1,8,7,5]","[[-0.3,0.2],[0.3,0.2]]","[[-0.125,-0.2],[0.125,-0.2]]",0.119166692,-0.197500038,1,0,0,1.7342,o2_image,659.6814,0,660.1813,660.1813,662.183,0,0,0,0,1,,,,,,,,,,,,,,,,,,,,,,,,,,,,,,,,,,,,,,,,,,,,,,,,,,
,,5b9d57e5737d030001ad2cbf,56,male,2024-04-24_11h31.45.723,stockport_simplified,2022.2.4,Win32,59.88023952,661e456ee6de07e70aa9ef7b,6628df8b76fef1ba689272bc,,,,,,,,,,,,,,,,,,,,,,,,,,,,,,,,,,,,,,,,,,,,,,,,,,,,,,,,1,56,116,3,1,A,X,N,o1_image,stimuli/out1.png,stimuli/correct_out1.png,stimuli/out2.png,,,,,,,,,,,,,,,,,,,,,,,,,,,,,,,,,,,,,,
,,5b9d57e5737d030001ad2cbf,56,male,2024-04-24_11h31.45.723,stockport_simplified,2022.2.4,Win32,59.88023952,661e456ee6de07e70aa9ef7b,6628df8b76fef1ba689272bc,,,,,,,,,,,,,,,,,,,,,,,,,,,,,,,,,,662.1835,663.4673,"[2,4,3,6,1,8,7,5]","[[0.3,0.2],[-0.3,0.2]]","[[0.125,-0.2],[-0.125,-0.2]]",-0.110833295,-0.181666692,1,0,0,0.7667,o2_image,663.4681,1,663.9675,663.9675,665.9691,0,0,0,0,1,,,,,,,,,,,,,,,,,,,,,,,,,,,,,,,,,,,,,,,,,,,,,,,,,,
,,5b9d57e5737d030001ad2cbf,56,male,2024-04-24_11h31.45.723,stockport_simplified,2022.2.4,Win32,59.88023952,661e456ee6de07e70aa9ef7b,6628df8b76fef1ba689272bc,,,,,,,,,,,,,,,,,,,,,,,,,,,,,,,,,,,,,,,,,,,,,,,,,,,,,,,,1,57,117,46,1,B,Y,N,o2_image,stimuli/out2.png,stimuli/out1.png,stimuli/correct_out2.png,,,,,,,,,,,,,,,,,,,,,,,,,,,,,,,,,,,,,,
,,5b9d57e5737d030001ad2cbf,56,male,2024-04-24_11h31.45.723,stockport_simplified,2022.2.4,Win32,59.88023952,661e456ee6de07e70aa9ef7b,6628df8b76fef1ba689272bc,,,,,,,,,,,,,,,,,,,,,,,,,,,,,,,,,,665.9695,668.5076,"[2,4,3,6,1,8,7,5]","[[0.3,0.2],[-0.3,0.2]]","[[0.125,-0.2],[-0.125,-0.2]]",-0.080833308,-0.179999987,1,0,0,2.0373,o2_image,668.5081,1,669.0051,669.0052,671.0089,0,0,0,0,1,,,,,,,,,,,,,,,,,,,,,,,,,,,,,,,,,,,,,,,,,,,,,,,,,,
,,5b9d57e5737d030001ad2cbf,56,male,2024-04-24_11h31.45.723,stockport_simplified,2022.2.4,Win32,59.88023952,661e456ee6de07e70aa9ef7b,6628df8b76fef1ba689272bc,,,,,,,,,,,,,,,,,,,,,,,,,,,,,,,,,,,,,,,,,,,,,,,,,,,,,,,,1,58,118,29,1,N,M,D,o2_image,stimuli/out2.png,stimuli/out1.png,stimuli/correct_out2.png,,,,,,,,,,,,,,,,,,,,,,,,,,,,,,,,,,,,,,
,,5b9d57e5737d030001ad2cbf,56,male,2024-04-24_11h31.45.723,stockport_simplified,2022.2.4,Win32,59.88023952,661e456ee6de07e70aa9ef7b,6628df8b76fef1ba689272bc,,,,,,,,,,,,,,,,,,,,,,,,,,,,,,,,,,671.0092,672.3913,"[2,4,3,6,1,8,7,5]","[[0.3,0.2],[-0.3,0.2]]","[[-0.125,-0.2],[0.125,-0.2]]",-0.113333321,-0.192499987,1,0,0,0.8673,o1_image,672.3924,1,672.8915,672.8915,674.8934,0,0,0,0,1,,,,,,,,,,,,,,,,,,,,,,,,,,,,,,,,,,,,,,,,,,,,,,,,,,
,,5b9d57e5737d030001ad2cbf,56,male,2024-04-24_11h31.45.723,stockport_simplified,2022.2.4,Win32,59.88023952,661e456ee6de07e70aa9ef7b,6628df8b76fef1ba689272bc,,,,,,,,,,,,,,,,,,,,,,,,,,,,,,,,,,,,,,,,,,,,,,,,,,,,,,,,1,59,119,34,1,A,X,N,o1_image,stimuli/out1.png,stimuli/correct_out1.png,stimuli/out2.png,,,,,,,,,,,,,,,,,,,,,,,,,,,,,,,,,,,,,,
,,5b9d57e5737d030001ad2cbf,56,male,2024-04-24_11h31.45.723,stockport_simplified,2022.2.4,Win32,59.88023952,661e456ee6de07e70aa9ef7b,6628df8b76fef1ba689272bc,,,,,,,,,,,,,,,,,,,,,,,,,,,,,,,,,,674.9048,676.3458,"[2,4,3,6,1,8,7,5]","[[0.3,0.2],[-0.3,0.2]]","[[0.125,-0.2],[-0.125,-0.2]]",-0.077499962,-0.207500013,1,0,0,0.9355,o2_image,676.3464,0,676.8449,676.8449,678.8461,,,,,,,,,,,,,,,,,,0,0,0,0,1,,,,,,,,,,,,,,,,,,,,,,,,,,,,,,,,,
,,5b9d57e5737d030001ad2cbf,56,male,2024-04-24_11h31.45.723,stockport_simplified,2022.2.4,Win32,59.88023952,661e456ee6de07e70aa9ef7b,6628df8b76fef1ba689272bc,,,,,,,,,,,,,,,,,,,,,,,,,,,,,,,,,,,,,,,,,,,,,,,,,,,,,,,,,,,,,B,X,N,o1_image,stimuli/out1.png,stimuli/correct_out1.png,stimuli/out2.png,,,,,,0,0,0,29,1,,,,,,,,,,,,,,,,,,,,,,,,,,,,
,,5b9d57e5737d030001ad2cbf,56,male,2024-04-24_11h31.45.723,stockport_simplified,2022.2.4,Win32,59.88023952,661e456ee6de07e70aa9ef7b,6628df8b76fef1ba689272bc,,,,,,,,,,,,,,,,,,,,,,,,,,,,,,,,,,678.8469,681.9323,"[2,4,3,6,1,8,7,5]","[[0.3,0.2],[-0.3,0.2]]","[[0.125,-0.2],[-0.125,-0.2]]",0.118333371,-0.211666679,1,0,0,2.5684,o1_image,681.9328,1,682.4327,682.4327,684.4347,,,,,,,,,,,,,,,,,,0,0,0,0,1,,,,,,,,,,,,,,,,,,,,,,,,,,,,,,,,,
,,5b9d57e5737d030001ad2cbf,56,male,2024-04-24_11h31.45.723,stockport_simplified,2022.2.4,Win32,59.88023952,661e456ee6de07e70aa9ef7b,6628df8b76fef1ba689272bc,,,,,,,,,,,,,,,,,,,,,,,,,,,,,,,,,,,,,,,,,,,,,,,,,,,,,,,,,,,,,N,M,C,o1_image,stimuli/out1.png,stimuli/correct_out1.png,stimuli/out2.png,,,,,,0,1,1,47,1,,,,,,,,,,,,,,,,,,,,,,,,,,,,
,,5b9d57e5737d030001ad2cbf,56,male,2024-04-24_11h31.45.723,stockport_simplified,2022.2.4,Win32,59.88023952,661e456ee6de07e70aa9ef7b,6628df8b76fef1ba689272bc,,,,,,,,,,,,,,,,,,,,,,,,,,,,,,,,,,684.4351,686.3382,"[2,4,3,6,1,8,7,5]","[[0.3,0.2],[-0.3,0.2]]","[[-0.125,-0.2],[0.125,-0.2]]",0.095000013,-0.168333371,1,0,0,1.4011,o2_image,686.3389,1,686.8361,686.8362,688.8379,,,,,,,,,,,,,,,,,,0,0,0,0,1,,,,,,,,,,,,,,,,,,,,,,,,,,,,,,,,,
,,5b9d57e5737d030001ad2cbf,56,male,2024-04-24_11h31.45.723,stockport_simplified,2022.2.4,Win32,59.88023952,661e456ee6de07e70aa9ef7b,6628df8b76fef1ba689272bc,,,,,,,,,,,,,,,,,,,,,,,,,,,,,,,,,,,,,,,,,,,,,,,,,,,,,,,,,,,,,N,M,D,o2_image,stimuli/out2.png,stimuli/out1.png,stimuli/correct_out2.png,,,,,,0,2,2,52,1,,,,,,,,,,,,,,,,,,,,,,,,,,,,
,,5b9d57e5737d030001ad2cbf,56,male,2024-04-24_11h31.45.723,stockport_simplified,2022.2.4,Win32,59.88023952,661e456ee6de07e70aa9ef7b,6628df8b76fef1ba689272bc,,,,,,,,,,,,,,,,,,,,,,,,,,,,,,,,,,688.8382,690.3555,"[2,4,3,6,1,8,7,5]","[[-0.3,0.2],[0.3,0.2]]","[[-0.125,-0.2],[0.125,-0.2]]",0.081666692,-0.184166654,1,0,0,0.9986,o2_image,690.3562,1,690.8559,690.8559,692.8577,,,,,,,,,,,,,,,,,,0,0,0,0,1,,,,,,,,,,,,,,,,,,,,,,,,,,,,,,,,,
,,5b9d57e5737d030001ad2cbf,56,male,2024-04-24_11h31.45.723,stockport_simplified,2022.2.4,Win32,59.88023952,661e456ee6de07e70aa9ef7b,6628df8b76fef1ba689272bc,,,,,,,,,,,,,,,,,,,,,,,,,,,,,,,,,,,,,,,,,,,,,,,,,,,,,,,,,,,,,A,X,N,o2_image,stimuli/out2.png,stimuli/out1.png,stimuli/correct_out2.png,,,,,,0,3,3,5,1,,,,,,,,,,,,,,,,,,,,,,,,,,,,
,,5b9d57e5737d030001ad2cbf,56,male,2024-04-24_11h31.45.723,stockport_simplified,2022.2.4,Win32,59.88023952,661e456ee6de07e70aa9ef7b,6628df8b76fef1ba689272bc,,,,,,,,,,,,,,,,,,,,,,,,,,,,,,,,,,692.8583,694.4755,"[2,4,3,6,1,8,7,5]","[[0.3,0.2],[-0.3,0.2]]","[[-0.125,-0.2],[0.125,-0.2]]",0.083333333,-0.184166654,1,0,0,1.1003,o2_image,694.476,1,694.9761,694.9761,696.9778,,,,,,,,,,,,,,,,,,0,0,0,0,1,,,,,,,,,,,,,,,,,,,,,,,,,,,,,,,,,
