counterbalance_2.started,counterbalance_2.stopped,participant,age,gender,date,expName,psychopyVersion,OS,frameRate,STUDY_ID,SESSION_ID,information_2.started,information_2.stopped,information_loop.thisRepN,information_loop.thisTrialN,information_loop.thisN,information_loop.thisIndex,information_loop.ran,information,consent_2.started,consent_2.stopped,slider_1.response,slider_2.response,slider_3.response,slider_4.response,slider_5.response,slider_6.response,instructions.started,instructions.stopped,task1_instr.thisRepN,task1_instr.thisTrialN,task1_instr.thisN,task1_instr.thisIndex,task1_instr.ran,task1,comprehension1_2.started,comprehension1_2.stopped,comp1_mouse.x,comp1_mouse.y,comp1_mouse.leftButton,comp1_mouse.midButton,comp1_mouse.rightButton,comp1_mouse.time,comp1_mouse.clicked_name,cue_o__trial_2.started,cue_o__trial_2.stopped,order,cue_order,out_order,cue_o_mouse.x,cue_o_mouse.y,cue_o_mouse.leftButton,cue_o_mouse.midButton,cue_o_mouse.rightButton,cue_o_mouse.time,cue_o_mouse.clicked_name,cue_selection_2.started,correct_answer,cue_selection_2.stopped,feedback_2.started,feedback_2.stopped,feedback_loop.thisRepN,feedback_loop.thisTrialN,feedback_loop.thisN,feedback_loop.thisIndex,feedback_loop.ran,stage1_trials.thisRepN,stage1_trials.thisTrialN,stage1_trials.thisN,stage1_trials.thisIndex,stage1_trials.ran,cue1,cue2,cue3,outcome,correct_out,o1_feedback,o2_feedback,stage2_feedback_loop.thisRepN,stage2_feedback_loop.thisTrialN,stage2_feedback_loop.thisN,stage2_feedback_loop.thisIndex,stage2_feedback_loop.ran,stage2_trials.thisRepN,stage2_trials.thisTrialN,stage2_trials.thisN,stage2_trials.thisIndex,stage2_trials.ran,stage3_feedback_loop.thisRepN,stage3_feedback_loop.thisTrialN,stage3_feedback_loop.thisN,stage3_feedback_loop.thisIndex,stage3_feedback_loop.ran,stage3_trials.thisRepN,stage3_trials.thisTrialN,stage3_trials.thisN,stage3_trials.thisIndex,stage3_trials.ran,debrief_2.started,debrief_2.stopped,debrief_loop.thisRepN,debrief_loop.thisTrialN,debrief_loop.thisN,debrief_loop.thisIndex,debrief_loop.ran,debrief_img,compr1_completed.thisRepN,compr1_completed.thisTrialN,compr1_completed.thisN,compr1_completed.thisIndex,compr1_completed.ran,consent_loop.thisRepN,consent_loop.thisTrialN,consent_loop.thisN,consent_loop.thisIndex,consent_loop.ran
0,0,642ca0829254c73fda107d25,38,female,2024-04-19_18h37.19.049,stockport_simplified,2022.2.4,Win32,59.95203837,661e456ee6de07e70aa9ef7b,66229da137609569465d8f98,,,,,,,,,,,,,,,,,,,,,,,,,,,,,,,,,,,,,,,,,,,,,,,,,,,,,,,,,,,,,,,,,,,,,,,,,,,,,,,,,,,,,,,,,,,,,,,,,,,,,,,,,
,,642ca0829254c73fda107d25,38,female,2024-04-19_18h37.19.049,stockport_simplified,2022.2.4,Win32,59.95203837,661e456ee6de07e70aa9ef7b,66229da137609569465d8f98,0.007,34.194,0,0,0,0,1,instructions/info1.png,,,,,,,,,,,,,,,,,,,,,,,,,,,,,,,,,,,,,,,,,,,,,,,,,,,,,,,,,,,,,,,,,,,,,,,,,,,,,,,,,,,,,,,,,,,,,,,,,
,,642ca0829254c73fda107d25,38,female,2024-04-19_18h37.19.049,stockport_simplified,2022.2.4,Win32,59.95203837,661e456ee6de07e70aa9ef7b,66229da137609569465d8f98,34.195,65.878,0,1,1,1,1,instructions/info2.png,,,,,,,,,,,,,,,,,,,,,,,,,,,,,,,,,,,,,,,,,,,,,,,,,,,,,,,,,,,,,,,,,,,,,,,,,,,,,,,,,,,,,,,,,,,,,,,,,
,,642ca0829254c73fda107d25,38,female,2024-04-19_18h37.19.049,stockport_simplified,2022.2.4,Win32,59.95203837,661e456ee6de07e70aa9ef7b,66229da137609569465d8f98,65.879,94.379,0,2,2,2,1,instructions/info3.png,,,,,,,,,,,,,,,,,,,,,,,,,,,,,,,,,,,,,,,,,,,,,,,,,,,,,,,,,,,,,,,,,,,,,,,,,,,,,,,,,,,,,,,,,,,,,,,,,
,,642ca0829254c73fda107d25,38,female,2024-04-19_18h37.19.049,stockport_simplified,2022.2.4,Win32,59.95203837,661e456ee6de07e70aa9ef7b,66229da137609569465d8f98,,,,,,,,,94.379,127.781,1,1,1,1,1,1,,,,,,,,,,,,,,,,,,,,,,,,,,,,,,,,,,,,,,,,,,,,,,,,,,,,,,,,,,,,,,,,,,,,,,,,,,,,,,,,,,,,,,,,,
,,642ca0829254c73fda107d25,38,female,2024-04-19_18h37.19.049,stockport_simplified,2022.2.4,Win32,59.95203837,661e456ee6de07e70aa9ef7b,66229da137609569465d8f98,,,,,,,,,,,,,,,,,127.785,153.348,0,0,0,0,1,instructions/task1_1.png,,,,,,,,,,,,,,,,,,,,,,,,,,,,,,,,,,,,,,,,,,,,,,,,,,,,,,,,,,,,,,,,,,,,,,,,,,,,,,,,,
,,642ca0829254c73fda107d25,38,female,2024-04-19_18h37.19.049,stockport_simplified,2022.2.4,Win32,59.95203837,661e456ee6de07e70aa9ef7b,66229da137609569465d8f98,,,,,,,,,,,,,,,,,153.348,188.932,0,1,1,1,1,instructions/task1_2.png,,,,,,,,,,,,,,,,,,,,,,,,,,,,,,,,,,,,,,,,,,,,,,,,,,,,,,,,,,,,,,,,,,,,,,,,,,,,,,,,,
,,642ca0829254c73fda107d25,38,female,2024-04-19_18h37.19.049,stockport_simplified,2022.2.4,Win32,59.95203837,661e456ee6de07e70aa9ef7b,66229da137609569465d8f98,,,,,,,,,,,,,,,,,188.933,204.766,0,2,2,2,1,instructions/task1_3.png,,,,,,,,,,,,,,,,,,,,,,,,,,,,,,,,,,,,,,,,,,,,,,,,,,,,,,,,,,,,,,,,,,,,,,,,,,,,,,,,,
,,642ca0829254c73fda107d25,38,female,2024-04-19_18h37.19.049,stockport_simplified,2022.2.4,Win32,59.95203837,661e456ee6de07e70aa9ef7b,66229da137609569465d8f98,,,,,,,,,,,,,,,,,,,,,,,,,204.767,221.05,-0.041666667,-0.333333333,1,0,0,16.282,comp1_resp1,221.061,224,"[8,7,5,4,2,1,6,3]","[[-0.3,0.2],[0.3,0.2]]","[[0.125,-0.2],[-0.125,-0.2]]",0.117592593,-0.20462963,1,0,0,2.433,o1_image,224,0,224.5,224.5,226.5,0,0,0,0,1,,,,,,,,,,,,,,,,,,,,,,,,,,,,,,,,,,,,,,,,,,,,,,,,,,
,,642ca0829254c73fda107d25,38,female,2024-04-19_18h37.19.049,stockport_simplified,2022.2.4,Win32,59.95203837,661e456ee6de07e70aa9ef7b,66229da137609569465d8f98,,,,,,,,,,,,,,,,,,,,,,,,,,,,,,,,,,,,,,,,,,,,,,,,,,,,,,,,0,0,0,28,1,N,M,D,o2_image,stimuli/out2.png,stimuli/out1.png,stimuli/correct_out2.png,,,,,,,,,,,,,,,,,,,,,,,,,,,,,,,,,,,,,,
,,642ca0829254c73fda107d25,38,female,2024-04-19_18h37.19.049,stockport_simplified,2022.2.4,Win32,59.95203837,661e456ee6de07e70aa9ef7b,66229da137609569465d8f98,,,,,,,,,,,,,,,,,,,,,,,,,,,,,,,,,,226.501,232.033,"[8,7,5,4,2,1,6,3]","[[-0.3,0.2],[0.3,0.2]]","[[0.125,-0.2],[-0.125,-0.2]]",-0.102777778,-0.185185185,1,0,0,5.016,o2_image,232.034,0,232.533,232.533,234.534,0,0,0,0,1,,,,,,,,,,,,,,,,,,,,,,,,,,,,,,,,,,,,,,,,,,,,,,,,,,
,,642ca0829254c73fda107d25,38,female,2024-04-19_18h37.19.049,stockport_simplified,2022.2.4,Win32,59.95203837,661e456ee6de07e70aa9ef7b,66229da137609569465d8f98,,,,,,,,,,,,,,,,,,,,,,,,,,,,,,,,,,,,,,,,,,,,,,,,,,,,,,,,0,1,1,31,1,A,X,N,o1_image,stimuli/out1.png,stimuli/correct_out1.png,stimuli/out2.png,,,,,,,,,,,,,,,,,,,,,,,,,,,,,,,,,,,,,,
,,642ca0829254c73fda107d25,38,female,2024-04-19_18h37.19.049,stockport_simplified,2022.2.4,Win32,59.95203837,661e456ee6de07e70aa9ef7b,66229da137609569465d8f98,,,,,,,,,,,,,,,,,,,,,,,,,,,,,,,,,,234.534,243.55,"[8,7,5,4,2,1,6,3]","[[-0.3,0.2],[0.3,0.2]]","[[-0.125,-0.2],[0.125,-0.2]]",0.121296296,-0.189814815,1,0,0,8.5,o2_image,243.551,0,244.051,244.051,246.05,0,0,0,0,1,,,,,,,,,,,,,,,,,,,,,,,,,,,,,,,,,,,,,,,,,,,,,,,,,,
,,642ca0829254c73fda107d25,38,female,2024-04-19_18h37.19.049,stockport_simplified,2022.2.4,Win32,59.95203837,661e456ee6de07e70aa9ef7b,66229da137609569465d8f98,,,,,,,,,,,,,,,,,,,,,,,,,,,,,,,,,,,,,,,,,,,,,,,,,,,,,,,,0,2,2,33,1,A,X,N,o1_image,stimuli/out1.png,stimuli/correct_out1.png,stimuli/out2.png,,,,,,,,,,,,,,,,,,,,,,,,,,,,,,,,,,,,,,
,,642ca0829254c73fda107d25,38,female,2024-04-19_18h37.19.049,stockport_simplified,2022.2.4,Win32,59.95203837,661e456ee6de07e70aa9ef7b,66229da137609569465d8f98,,,,,,,,,,,,,,,,,,,,,,,,,,,,,,,,,,246.051,252.367,"[8,7,5,4,2,1,6,3]","[[0.3,0.2],[-0.3,0.2]]","[[-0.125,-0.2],[0.125,-0.2]]",-0.123148148,-0.210185185,1,0,0,5.816,o1_image,252.368,0,252.868,252.868,254.868,0,0,0,0,1,,,,,,,,,,,,,,,,,,,,,,,,,,,,,,,,,,,,,,,,,,,,,,,,,,
,,642ca0829254c73fda107d25,38,female,2024-04-19_18h37.19.049,stockport_simplified,2022.2.4,Win32,59.95203837,661e456ee6de07e70aa9ef7b,66229da137609569465d8f98,,,,,,,,,,,,,,,,,,,,,,,,,,,,,,,,,,,,,,,,,,,,,,,,,,,,,,,,0,3,3,55,1,N,M,D,o2_image,stimuli/out2.png,stimuli/out1.png,stimuli/correct_out2.png,,,,,,,,,,,,,,,,,,,,,,,,,,,,,,,,,,,,,,
,,642ca0829254c73fda107d25,38,female,2024-04-19_18h37.19.049,stockport_simplified,2022.2.4,Win32,59.95203837,661e456ee6de07e70aa9ef7b,66229da137609569465d8f98,,,,,,,,,,,,,,,,,,,,,,,,,,,,,,,,,,254.869,266.368,"[8,7,5,4,2,1,6,3]","[[0.3,0.2],[-0.3,0.2]]","[[0.125,-0.2],[-0.125,-0.2]]",,,,,,,,,,,,,,,,,,0,4,4,1,1,A,X,N,o1_image,stimuli/out1.png,stimuli/correct_out1.png,stimuli/out2.png,,,,,,,,,,,,,,,,,,,,,,,,,,,,,,,,,,,,,,
,,642ca0829254c73fda107d25,38,female,2024-04-19_18h37.19.049,stockport_simplified,2022.2.4,Win32,59.95203837,661e456ee6de07e70aa9ef7b,66229da137609569465d8f98,,,,,,,,,,,,,,,,,,,,,,,,,,,,,,,,,,266.369,273.518,"[8,7,5,4,2,1,6,3]","[[0.3,0.2],[-0.3,0.2]]","[[0.125,-0.2],[-0.125,-0.2]]",0.122222222,-0.199074074,1,0,0,6.633,o1_image,273.518,1,274.018,274.018,276.018,0,0,0,0,1,,,,,,,,,,,,,,,,,,,,,,,,,,,,,,,,,,,,,,,,,,,,,,,,,,
,,642ca0829254c73fda107d25,38,female,2024-04-19_18h37.19.049,stockport_simplified,2022.2.4,Win32,59.95203837,661e456ee6de07e70aa9ef7b,66229da137609569465d8f98,,,,,,,,,,,,,,,,,,,,,,,,,,,,,,,,,,,,,,,,,,,,,,,,,,,,,,,,0,5,5,9,1,A,Y,N,o1_image,stimuli/out1.png,stimuli/correct_out1.png,stimuli/out2.png,,,,,,,,,,,,,,,,,,,,,,,,,,,,,,,,,,,,,,
,,642ca0829254c73fda107d25,38,female,2024-04-19_18h37.19.049,stockport_simplified,2022.2.4,Win32,59.95203837,661e456ee6de07e70aa9ef7b,66229da137609569465d8f98,,,,,,,,,,,,,,,,,,,,,,,,,,,,,,,,,,276.019,287.519,"[8,7,5,4,2,1,6,3]","[[-0.3,0.2],[0.3,0.2]]","[[-0.125,-0.2],[0.125,-0.2]]",,,,,,,,,,,,,,,,,,0,6,6,5,1,A,Y,N,o1_image,stimuli/out1.png,stimuli/correct_out1.png,stimuli/out2.png,,,,,,,,,,,,,,,,,,,,,,,,,,,,,,,,,,,,,,
,,642ca0829254c73fda107d25,38,female,2024-04-19_18h37.19.049,stockport_simplified,2022.2.4,Win32,59.95203837,661e456ee6de07e70aa9ef7b,66229da137609569465d8f98,,,,,,,,,,,,,,,,,,,,,,,,,,,,,,,,,,287.52,293.169,"[8,7,5,4,2,1,6,3]","[[0.3,0.2],[-0.3,0.2]]","[[0.125,-0.2],[-0.125,-0.2]]",-0.141666667,-0.187962963,1,0,0,5.132,o2_image,293.169,1,293.669,293.669,295.669,0,0,0,0,1,,,,,,,,,,,,,,,,,,,,,,,,,,,,,,,,,,,,,,,,,,,,,,,,,,
,,642ca0829254c73fda107d25,38,female,2024-04-19_18h37.19.049,stockport_simplified,2022.2.4,Win32,59.95203837,661e456ee6de07e70aa9ef7b,66229da137609569465d8f98,,,,,,,,,,,,,,,,,,,,,,,,,,,,,,,,,,,,,,,,,,,,,,,,,,,,,,,,0,7,7,11,1,B,X,N,o2_image,stimuli/out2.png,stimuli/out1.png,stimuli/correct_out2.png,,,,,,,,,,,,,,,,,,,,,,,,,,,,,,,,,,,,,,
,,642ca0829254c73fda107d25,38,female,2024-04-19_18h37.19.049,stockport_simplified,2022.2.4,Win32,59.95203837,661e456ee6de07e70aa9ef7b,66229da137609569465d8f98,,,,,,,,,,,,,,,,,,,,,,,,,,,,,,,,,,295.67,299.786,"[8,7,5,4,2,1,6,3]","[[-0.3,0.2],[0.3,0.2]]","[[-0.125,-0.2],[0.125,-0.2]]",0.124074074,-0.181481481,1,0,0,3.599,o2_image,299.786,1,300.286,300.286,302.286,0,0,0,0,1,,,,,,,,,,,,,,,,,,,,,,,,,,,,,,,,,,,,,,,,,,,,,,,,,,
,,642ca0829254c73fda107d25,38,female,2024-04-19_18h37.19.049,stockport_simplified,2022.2.4,Win32,59.95203837,661e456ee6de07e70aa9ef7b,66229da137609569465d8f98,,,,,,,,,,,,,,,,,,,,,,,,,,,,,,,,,,,,,,,,,,,,,,,,,,,,,,,,0,8,8,59,1,N,M,D,o2_image,stimuli/out2.png,stimuli/out1.png,stimuli/correct_out2.png,,,,,,,,,,,,,,,,,,,,,,,,,,,,,,,,,,,,,,
,,642ca0829254c73fda107d25,38,female,2024-04-19_18h37.19.049,stockport_simplified,2022.2.4,Win32,59.95203837,661e456ee6de07e70aa9ef7b,66229da137609569465d8f98,,,,,,,,,,,,,,,,,,,,,,,,,,,,,,,,,,302.286,308.203,"[8,7,5,4,2,1,6,3]","[[-0.3,0.2],[0.3,0.2]]","[[-0.125,-0.2],[0.125,-0.2]]",0.118518519,-0.196296296,1,0,0,5.417,o2_image,308.203,1,308.703,308.703,310.702,0,0,0,0,1,,,,,,,,,,,,,,,,,,,,,,,,,,,,,,,,,,,,,,,,,,,,,,,,,,
,,642ca0829254c73fda107d25,38,female,2024-04-19_18h37.19.049,stockport_simplified,2022.2.4,Win32,59.95203837,661e456ee6de07e70aa9ef7b,66229da137609569465d8f98,,,,,,,,,,,,,,,,,,,,,,,,,,,,,,,,,,,,,,,,,,,,,,,,,,,,,,,,0,9,9,14,1,B,X,N,o2_image,stimuli/out2.png,stimuli/out1.png,stimuli/correct_out2.png,,,,,,,,,,,,,,,,,,,,,,,,,,,,,,,,,,,,,,
,,642ca0829254c73fda107d25,38,female,2024-04-19_18h37.19.049,stockport_simplified,2022.2.4,Win32,59.95203837,661e456ee6de07e70aa9ef7b,66229da137609569465d8f98,,,,,,,,,,,,,,,,,,,,,,,,,,,,,,,,,,310.702,316.386,"[8,7,5,4,2,1,6,3]","[[-0.3,0.2],[0.3,0.2]]","[[-0.125,-0.2],[0.125,-0.2]]",0.117592593,-0.207407407,1,0,0,5.183,o2_image,316.387,1,316.886,316.886,318.887,0,0,0,0,1,,,,,,,,,,,,,,,,,,,,,,,,,,,,,,,,,,,,,,,,,,,,,,,,,,
,,642ca0829254c73fda107d25,38,female,2024-04-19_18h37.19.049,stockport_simplified,2022.2.4,Win32,59.95203837,661e456ee6de07e70aa9ef7b,66229da137609569465d8f98,,,,,,,,,,,,,,,,,,,,,,,,,,,,,,,,,,,,,,,,,,,,,,,,,,,,,,,,0,10,10,42,1,B,X,N,o2_image,stimuli/out2.png,stimuli/out1.png,stimuli/correct_out2.png,,,,,,,,,,,,,,,,,,,,,,,,,,,,,,,,,,,,,,
,,642ca0829254c73fda107d25,38,female,2024-04-19_18h37.19.049,stockport_simplified,2022.2.4,Win32,59.95203837,661e456ee6de07e70aa9ef7b,66229da137609569465d8f98,,,,,,,,,,,,,,,,,,,,,,,,,,,,,,,,,,318.887,322.67,"[8,7,5,4,2,1,6,3]","[[-0.3,0.2],[0.3,0.2]]","[[0.125,-0.2],[-0.125,-0.2]]",0.133333333,-0.214814815,1,0,0,3.267,o1_image,322.671,0,323.17,323.17,325.17,0,0,0,0,1,,,,,,,,,,,,,,,,,,,,,,,,,,,,,,,,,,,,,,,,,,,,,,,,,,
,,642ca0829254c73fda107d25,38,female,2024-04-19_18h37.19.049,stockport_simplified,2022.2.4,Win32,59.95203837,661e456ee6de07e70aa9ef7b,66229da137609569465d8f98,,,,,,,,,,,,,,,,,,,,,,,,,,,,,,,,,,,,,,,,,,,,,,,,,,,,,,,,0,11,11,27,1,N,M,D,o2_image,stimuli/out2.png,stimuli/out1.png,stimuli/correct_out2.png,,,,,,,,,,,,,,,,,,,,,,,,,,,,,,,,,,,,,,
,,642ca0829254c73fda107d25,38,female,2024-04-19_18h37.19.049,stockport_simplified,2022.2.4,Win32,59.95203837,661e456ee6de07e70aa9ef7b,66229da137609569465d8f98,,,,,,,,,,,,,,,,,,,,,,,,,,,,,,,,,,325.17,330.104,"[8,7,5,4,2,1,6,3]","[[-0.3,0.2],[0.3,0.2]]","[[0.125,-0.2],[-0.125,-0.2]]",0.128703704,-0.217592593,1,0,0,4.434,o1_image,330.104,1,330.604,330.604,332.603,0,0,0,0,1,,,,,,,,,,,,,,,,,,,,,,,,,,,,,,,,,,,,,,,,,,,,,,,,,,
,,642ca0829254c73fda107d25,38,female,2024-04-19_18h37.19.049,stockport_simplified,2022.2.4,Win32,59.95203837,661e456ee6de07e70aa9ef7b,66229da137609569465d8f98,,,,,,,,,,,,,,,,,,,,,,,,,,,,,,,,,,,,,,,,,,,,,,,,,,,,,,,,0,12,12,22,1,N,M,C,o1_image,stimuli/out1.png,stimuli/correct_out1.png,stimuli/out2.png,,,,,,,,,,,,,,,,,,,,,,,,,,,,,,,,,,,,,,
,,642ca0829254c73fda107d25,38,female,2024-04-19_18h37.19.049,stockport_simplified,2022.2.4,Win32,59.95203837,661e456ee6de07e70aa9ef7b,66229da137609569465d8f98,,,,,,,,,,,,,,,,,,,,,,,,,,,,,,,,,,332.603,335.953,"[8,7,5,4,2,1,6,3]","[[-0.3,0.2],[0.3,0.2]]","[[0.125,-0.2],[-0.125,-0.2]]",-0.109259259,-0.207407407,1,0,0,2.849,o2_image,335.954,1,336.454,336.454,338.454,0,0,0,0,1,,,,,,,,,,,,,,,,,,,,,,,,,,,,,,,,,,,,,,,,,,,,,,,,,,
,,642ca0829254c73fda107d25,38,female,2024-04-19_18h37.19.049,stockport_simplified,2022.2.4,Win32,59.95203837,661e456ee6de07e70aa9ef7b,66229da137609569465d8f98,,,,,,,,,,,,,,,,,,,,,,,,,,,,,,,,,,,,,,,,,,,,,,,,,,,,,,,,0,13,13,41,1,B,X,N,o2_image,stimuli/out2.png,stimuli/out1.png,stimuli/correct_out2.png,,,,,,,,,,,,,,,,,,,,,,,,,,,,,,,,,,,,,,
,,642ca0829254c73fda107d25,38,female,2024-04-19_18h37.19.049,stockport_simplified,2022.2.4,Win32,59.95203837,661e456ee6de07e70aa9ef7b,66229da137609569465d8f98,,,,,,,,,,,,,,,,,,,,,,,,,,,,,,,,,,338.454,342.654,"[8,7,5,4,2,1,6,3]","[[-0.3,0.2],[0.3,0.2]]","[[0.125,-0.2],[-0.125,-0.2]]",0.135185185,-0.22037037,1,0,0,3.684,o1_image,342.655,0,343.154,343.154,345.154,0,0,0,0,1,,,,,,,,,,,,,,,,,,,,,,,,,,,,,,,,,,,,,,,,,,,,,,,,,,
,,642ca0829254c73fda107d25,38,female,2024-04-19_18h37.19.049,stockport_simplified,2022.2.4,Win32,59.95203837,661e456ee6de07e70aa9ef7b,66229da137609569465d8f98,,,,,,,,,,,,,,,,,,,,,,,,,,,,,,,,,,,,,,,,,,,,,,,,,,,,,,,,0,14,14,46,1,B,Y,N,o2_image,stimuli/out2.png,stimuli/out1.png,stimuli/correct_out2.png,,,,,,,,,,,,,,,,,,,,,,,,,,,,,,,,,,,,,,
,,642ca0829254c73fda107d25,38,female,2024-04-19_18h37.19.049,stockport_simplified,2022.2.4,Win32,59.95203837,661e456ee6de07e70aa9ef7b,66229da137609569465d8f98,,,,,,,,,,,,,,,,,,,,,,,,,,,,,,,,,,345.154,350.471,"[8,7,5,4,2,1,6,3]","[[-0.3,0.2],[0.3,0.2]]","[[0.125,-0.2],[-0.125,-0.2]]",0.112962963,-0.231481481,1,0,0,4.817,o1_image,350.472,0,350.971,350.971,352.971,0,0,0,0,1,,,,,,,,,,,,,,,,,,,,,,,,,,,,,,,,,,,,,,,,,,,,,,,,,,
,,642ca0829254c73fda107d25,38,female,2024-04-19_18h37.19.049,stockport_simplified,2022.2.4,Win32,59.95203837,661e456ee6de07e70aa9ef7b,66229da137609569465d8f98,,,,,,,,,,,,,,,,,,,,,,,,,,,,,,,,,,,,,,,,,,,,,,,,,,,,,,,,0,15,15,17,1,B,Y,N,o2_image,stimuli/out2.png,stimuli/out1.png,stimuli/correct_out2.png,,,,,,,,,,,,,,,,,,,,,,,,,,,,,,,,,,,,,,
,,642ca0829254c73fda107d25,38,female,2024-04-19_18h37.19.049,stockport_simplified,2022.2.4,Win32,59.95203837,661e456ee6de07e70aa9ef7b,66229da137609569465d8f98,,,,,,,,,,,,,,,,,,,,,,,,,,,,,,,,,,352.972,358.687,"[8,7,5,4,2,1,6,3]","[[0.3,0.2],[-0.3,0.2]]","[[-0.125,-0.2],[0.125,-0.2]]",0.134259259,-0.221296296,1,0,0,5.2,o2_image,358.688,1,359.187,359.187,361.188,0,0,0,0,1,,,,,,,,,,,,,,,,,,,,,,,,,,,,,,,,,,,,,,,,,,,,,,,,,,
,,642ca0829254c73fda107d25,38,female,2024-04-19_18h37.19.049,stockport_simplified,2022.2.4,Win32,59.95203837,661e456ee6de07e70aa9ef7b,66229da137609569465d8f98,,,,,,,,,,,,,,,,,,,,,,,,,,,,,,,,,,,,,,,,,,,,,,,,,,,,,,,,0,16,16,15,1,B,Y,N,o2_image,stimuli/out2.png,stimuli/out1.png,stimuli/correct_out2.png,,,,,,,,,,,,,,,,,,,,,,,,,,,,,,,,,,,,,,
,,642ca0829254c73fda107d25,38,female,2024-04-19_18h37.19.049,stockport_simplified,2022.2.4,Win32,59.95203837,661e456ee6de07e70aa9ef7b,66229da137609569465d8f98,,,,,,,,,,,,,,,,,,,,,,,,,,,,,,,,,,361.188,363.721,"[8,7,5,4,2,1,6,3]","[[-0.3,0.2],[0.3,0.2]]","[[-0.125,-0.2],[0.125,-0.2]]",0.121296296,-0.233333333,1,0,0,2.033,o2_image,363.722,0,364.221,364.221,366.221,0,0,0,0,1,,,,,,,,,,,,,,,,,,,,,,,,,,,,,,,,,,,,,,,,,,,,,,,,,,
,,642ca0829254c73fda107d25,38,female,2024-04-19_18h37.19.049,stockport_simplified,2022.2.4,Win32,59.95203837,661e456ee6de07e70aa9ef7b,66229da137609569465d8f98,,,,,,,,,,,,,,,,,,,,,,,,,,,,,,,,,,,,,,,,,,,,,,,,,,,,,,,,0,17,17,0,1,A,X,N,o1_image,stimuli/out1.png,stimuli/correct_out1.png,stimuli/out2.png,,,,,,,,,,,,,,,,,,,,,,,,,,,,,,,,,,,,,,
,,642ca0829254c73fda107d25,38,female,2024-04-19_18h37.19.049,stockport_simplified,2022.2.4,Win32,59.95203837,661e456ee6de07e70aa9ef7b,66229da137609569465d8f98,,,,,,,,,,,,,,,,,,,,,,,,,,,,,,,,,,366.221,369.388,"[8,7,5,4,2,1,6,3]","[[0.3,0.2],[-0.3,0.2]]","[[-0.125,-0.2],[0.125,-0.2]]",-0.099074074,-0.227777778,1,0,0,2.666,o1_image,369.389,1,369.888,369.888,371.889,0,0,0,0,1,,,,,,,,,,,,,,,,,,,,,,,,,,,,,,,,,,,,,,,,,,,,,,,,,,
,,642ca0829254c73fda107d25,38,female,2024-04-19_18h37.19.049,stockport_simplified,2022.2.4,Win32,59.95203837,661e456ee6de07e70aa9ef7b,66229da137609569465d8f98,,,,,,,,,,,,,,,,,,,,,,,,,,,,,,,,,,,,,,,,,,,,,,,,,,,,,,,,0,18,18,8,1,A,Y,N,o1_image,stimuli/out1.png,stimuli/correct_out1.png,stimuli/out2.png,,,,,,,,,,,,,,,,,,,,,,,,,,,,,,,,,,,,,,
,,642ca0829254c73fda107d25,38,female,2024-04-19_18h37.19.049,stockport_simplified,2022.2.4,Win32,59.95203837,661e456ee6de07e70aa9ef7b,66229da137609569465d8f98,,,,,,,,,,,,,,,,,,,,,,,,,,,,,,,,,,371.889,375.155,"[8,7,5,4,2,1,6,3]","[[0.3,0.2],[-0.3,0.2]]","[[0.125,-0.2],[-0.125,-0.2]]",0.115740741,-0.212037037,1,0,0,2.749,o1_image,375.155,1,375.655,375.655,377.655,0,0,0,0,1,,,,,,,,,,,,,,,,,,,,,,,,,,,,,,,,,,,,,,,,,,,,,,,,,,
,,642ca0829254c73fda107d25,38,female,2024-04-19_18h37.19.049,stockport_simplified,2022.2.4,Win32,59.95203837,661e456ee6de07e70aa9ef7b,66229da137609569465d8f98,,,,,,,,,,,,,,,,,,,,,,,,,,,,,,,,,,,,,,,,,,,,,,,,,,,,,,,,0,19,19,51,1,N,M,C,o1_image,stimuli/out1.png,stimuli/correct_out1.png,stimuli/out2.png,,,,,,,,,,,,,,,,,,,,,,,,,,,,,,,,,,,,,,
,,642ca0829254c73fda107d25,38,female,2024-04-19_18h37.19.049,stockport_simplified,2022.2.4,Win32,59.95203837,661e456ee6de07e70aa9ef7b,66229da137609569465d8f98,,,,,,,,,,,,,,,,,,,,,,,,,,,,,,,,,,377.655,380.872,"[8,7,5,4,2,1,6,3]","[[0.3,0.2],[-0.3,0.2]]","[[-0.125,-0.2],[0.125,-0.2]]",0.153703704,-0.187037037,1,0,0,2.7,o2_image,380.873,0,381.371,381.372,383.372,0,0,0,0,1,,,,,,,,,,,,,,,,,,,,,,,,,,,,,,,,,,,,,,,,,,,,,,,,,,
,,642ca0829254c73fda107d25,38,female,2024-04-19_18h37.19.049,stockport_simplified,2022.2.4,Win32,59.95203837,661e456ee6de07e70aa9ef7b,66229da137609569465d8f98,,,,,,,,,,,,,,,,,,,,,,,,,,,,,,,,,,,,,,,,,,,,,,,,,,,,,,,,0,20,20,2,1,A,X,N,o1_image,stimuli/out1.png,stimuli/correct_out1.png,stimuli/out2.png,,,,,,,,,,,,,,,,,,,,,,,,,,,,,,,,,,,,,,
,,642ca0829254c73fda107d25,38,female,2024-04-19_18h37.19.049,stockport_simplified,2022.2.4,Win32,59.95203837,661e456ee6de07e70aa9ef7b,66229da137609569465d8f98,,,,,,,,,,,,,,,,,,,,,,,,,,,,,,,,,,383.372,386.305,"[8,7,5,4,2,1,6,3]","[[0.3,0.2],[-0.3,0.2]]","[[0.125,-0.2],[-0.125,-0.2]]",-0.107407407,-0.217592593,1,0,0,2.433,o2_image,386.308,1,386.806,386.806,388.805,0,0,0,0,1,,,,,,,,,,,,,,,,,,,,,,,,,,,,,,,,,,,,,,,,,,,,,,,,,,
,,642ca0829254c73fda107d25,38,female,2024-04-19_18h37.19.049,stockport_simplified,2022.2.4,Win32,59.95203837,661e456ee6de07e70aa9ef7b,66229da137609569465d8f98,,,,,,,,,,,,,,,,,,,,,,,,,,,,,,,,,,,,,,,,,,,,,,,,,,,,,,,,0,21,21,43,1,B,X,N,o2_image,stimuli/out2.png,stimuli/out1.png,stimuli/correct_out2.png,,,,,,,,,,,,,,,,,,,,,,,,,,,,,,,,,,,,,,
,,642ca0829254c73fda107d25,38,female,2024-04-19_18h37.19.049,stockport_simplified,2022.2.4,Win32,59.95203837,661e456ee6de07e70aa9ef7b,66229da137609569465d8f98,,,,,,,,,,,,,,,,,,,,,,,,,,,,,,,,,,388.806,392.939,"[8,7,5,4,2,1,6,3]","[[-0.3,0.2],[0.3,0.2]]","[[0.125,-0.2],[-0.125,-0.2]]",-0.1,-0.185185185,1,0,0,3.616,o2_image,392.94,0,393.439,393.439,395.439,0,0,0,0,1,,,,,,,,,,,,,,,,,,,,,,,,,,,,,,,,,,,,,,,,,,,,,,,,,,
,,642ca0829254c73fda107d25,38,female,2024-04-19_18h37.19.049,stockport_simplified,2022.2.4,Win32,59.95203837,661e456ee6de07e70aa9ef7b,66229da137609569465d8f98,,,,,,,,,,,,,,,,,,,,,,,,,,,,,,,,,,,,,,,,,,,,,,,,,,,,,,,,0,22,22,50,1,N,M,C,o1_image,stimuli/out1.png,stimuli/correct_out1.png,stimuli/out2.png,,,,,,,,,,,,,,,,,,,,,,,,,,,,,,,,,,,,,,
,,642ca0829254c73fda107d25,38,female,2024-04-19_18h37.19.049,stockport_simplified,2022.2.4,Win32,59.95203837,661e456ee6de07e70aa9ef7b,66229da137609569465d8f98,,,,,,,,,,,,,,,,,,,,,,,,,,,,,,,,,,395.439,397.956,"[8,7,5,4,2,1,6,3]","[[-0.3,0.2],[0.3,0.2]]","[[-0.125,-0.2],[0.125,-0.2]]",0.103703704,-0.2,1,0,0,2,o2_image,397.956,1,398.455,398.455,400.456,0,0,0,0,1,,,,,,,,,,,,,,,,,,,,,,,,,,,,,,,,,,,,,,,,,,,,,,,,,,
,,642ca0829254c73fda107d25,38,female,2024-04-19_18h37.19.049,stockport_simplified,2022.2.4,Win32,59.95203837,661e456ee6de07e70aa9ef7b,66229da137609569465d8f98,,,,,,,,,,,,,,,,,,,,,,,,,,,,,,,,,,,,,,,,,,,,,,,,,,,,,,,,0,23,23,44,1,B,X,N,o2_image,stimuli/out2.png,stimuli/out1.png,stimuli/correct_out2.png,,,,,,,,,,,,,,,,,,,,,,,,,,,,,,,,,,,,,,
,,642ca0829254c73fda107d25,38,female,2024-04-19_18h37.19.049,stockport_simplified,2022.2.4,Win32,59.95203837,661e456ee6de07e70aa9ef7b,66229da137609569465d8f98,,,,,,,,,,,,,,,,,,,,,,,,,,,,,,,,,,400.456,402.673,"[8,7,5,4,2,1,6,3]","[[-0.3,0.2],[0.3,0.2]]","[[-0.125,-0.2],[0.125,-0.2]]",0.108333333,-0.209259259,1,0,0,1.717,o2_image,402.673,1,403.173,403.173,405.172,0,0,0,0,1,,,,,,,,,,,,,,,,,,,,,,,,,,,,,,,,,,,,,,,,,,,,,,,,,,
,,642ca0829254c73fda107d25,38,female,2024-04-19_18h37.19.049,stockport_simplified,2022.2.4,Win32,59.95203837,661e456ee6de07e70aa9ef7b,66229da137609569465d8f98,,,,,,,,,,,,,,,,,,,,,,,,,,,,,,,,,,,,,,,,,,,,,,,,,,,,,,,,0,24,24,40,1,B,X,N,o2_image,stimuli/out2.png,stimuli/out1.png,stimuli/correct_out2.png,,,,,,,,,,,,,,,,,,,,,,,,,,,,,,,,,,,,,,
,,642ca0829254c73fda107d25,38,female,2024-04-19_18h37.19.049,stockport_simplified,2022.2.4,Win32,59.95203837,661e456ee6de07e70aa9ef7b,66229da137609569465d8f98,,,,,,,,,,,,,,,,,,,,,,,,,,,,,,,,,,405.173,407.606,"[8,7,5,4,2,1,6,3]","[[0.3,0.2],[-0.3,0.2]]","[[-0.125,-0.2],[0.125,-0.2]]",-0.10462963,-0.198148148,1,0,0,1.933,o1_image,407.607,1,408.106,408.106,410.106,0,0,0,0,1,,,,,,,,,,,,,,,,,,,,,,,,,,,,,,,,,,,,,,,,,,,,,,,,,,
,,642ca0829254c73fda107d25,38,female,2024-04-19_18h37.19.049,stockport_simplified,2022.2.4,Win32,59.95203837,661e456ee6de07e70aa9ef7b,66229da137609569465d8f98,,,,,,,,,,,,,,,,,,,,,,,,,,,,,,,,,,,,,,,,,,,,,,,,,,,,,,,,0,25,25,53,1,N,M,C,o1_image,stimuli/out1.png,stimuli/correct_out1.png,stimuli/out2.png,,,,,,,,,,,,,,,,,,,,,,,,,,,,,,,,,,,,,,
,,642ca0829254c73fda107d25,38,female,2024-04-19_18h37.19.049,stockport_simplified,2022.2.4,Win32,59.95203837,661e456ee6de07e70aa9ef7b,66229da137609569465d8f98,,,,,,,,,,,,,,,,,,,,,,,,,,,,,,,,,,410.106,413.623,"[8,7,5,4,2,1,6,3]","[[0.3,0.2],[-0.3,0.2]]","[[0.125,-0.2],[-0.125,-0.2]]",0.09537037,-0.22037037,1,0,0,3.016,o1_image,413.623,0,414.123,414.123,416.122,0,0,0,0,1,,,,,,,,,,,,,,,,,,,,,,,,,,,,,,,,,,,,,,,,,,,,,,,,,,
,,642ca0829254c73fda107d25,38,female,2024-04-19_18h37.19.049,stockport_simplified,2022.2.4,Win32,59.95203837,661e456ee6de07e70aa9ef7b,66229da137609569465d8f98,,,,,,,,,,,,,,,,,,,,,,,,,,,,,,,,,,,,,,,,,,,,,,,,,,,,,,,,0,26,26,16,1,B,Y,N,o2_image,stimuli/out2.png,stimuli/out1.png,stimuli/correct_out2.png,,,,,,,,,,,,,,,,,,,,,,,,,,,,,,,,,,,,,,
,,642ca0829254c73fda107d25,38,female,2024-04-19_18h37.19.049,stockport_simplified,2022.2.4,Win32,59.95203837,661e456ee6de07e70aa9ef7b,66229da137609569465d8f98,,,,,,,,,,,,,,,,,,,,,,,,,,,,,,,,,,416.123,418.34,"[8,7,5,4,2,1,6,3]","[[0.3,0.2],[-0.3,0.2]]","[[0.125,-0.2],[-0.125,-0.2]]",0.119444444,-0.22037037,1,0,0,1.717,o1_image,418.341,1,418.84,418.84,420.84,0,0,0,0,1,,,,,,,,,,,,,,,,,,,,,,,,,,,,,,,,,,,,,,,,,,,,,,,,,,
,,642ca0829254c73fda107d25,38,female,2024-04-19_18h37.19.049,stockport_simplified,2022.2.4,Win32,59.95203837,661e456ee6de07e70aa9ef7b,66229da137609569465d8f98,,,,,,,,,,,,,,,,,,,,,,,,,,,,,,,,,,,,,,,,,,,,,,,,,,,,,,,,0,27,27,21,1,N,M,C,o1_image,stimuli/out1.png,stimuli/correct_out1.png,stimuli/out2.png,,,,,,,,,,,,,,,,,,,,,,,,,,,,,,,,,,,,,,
,,642ca0829254c73fda107d25,38,female,2024-04-19_18h37.19.049,stockport_simplified,2022.2.4,Win32,59.95203837,661e456ee6de07e70aa9ef7b,66229da137609569465d8f98,,,,,,,,,,,,,,,,,,,,,,,,,,,,,,,,,,420.841,423.973,"[8,7,5,4,2,1,6,3]","[[-0.3,0.2],[0.3,0.2]]","[[-0.125,-0.2],[0.125,-0.2]]",0.100925926,-0.188888889,1,0,0,2.616,o2_image,423.974,0,424.473,424.473,426.474,0,0,0,0,1,,,,,,,,,,,,,,,,,,,,,,,,,,,,,,,,,,,,,,,,,,,,,,,,,,
,,642ca0829254c73fda107d25,38,female,2024-04-19_18h37.19.049,stockport_simplified,2022.2.4,Win32,59.95203837,661e456ee6de07e70aa9ef7b,66229da137609569465d8f98,,,,,,,,,,,,,,,,,,,,,,,,,,,,,,,,,,,,,,,,,,,,,,,,,,,,,,,,0,28,28,6,1,A,Y,N,o1_image,stimuli/out1.png,stimuli/correct_out1.png,stimuli/out2.png,,,,,,,,,,,,,,,,,,,,,,,,,,,,,,,,,,,,,,
,,642ca0829254c73fda107d25,38,female,2024-04-19_18h37.19.049,stockport_simplified,2022.2.4,Win32,59.95203837,661e456ee6de07e70aa9ef7b,66229da137609569465d8f98,,,,,,,,,,,,,,,,,,,,,,,,,,,,,,,,,,426.474,428.656,"[8,7,5,4,2,1,6,3]","[[0.3,0.2],[-0.3,0.2]]","[[0.125,-0.2],[-0.125,-0.2]]",-0.110185185,-0.206481481,1,0,0,1.682,o2_image,428.658,1,429.156,429.156,431.157,0,0,0,0,1,,,,,,,,,,,,,,,,,,,,,,,,,,,,,,,,,,,,,,,,,,,,,,,,,,
,,642ca0829254c73fda107d25,38,female,2024-04-19_18h37.19.049,stockport_simplified,2022.2.4,Win32,59.95203837,661e456ee6de07e70aa9ef7b,66229da137609569465d8f98,,,,,,,,,,,,,,,,,,,,,,,,,,,,,,,,,,,,,,,,,,,,,,,,,,,,,,,,0,29,29,10,1,B,X,N,o2_image,stimuli/out2.png,stimuli/out1.png,stimuli/correct_out2.png,,,,,,,,,,,,,,,,,,,,,,,,,,,,,,,,,,,,,,
,,642ca0829254c73fda107d25,38,female,2024-04-19_18h37.19.049,stockport_simplified,2022.2.4,Win32,59.95203837,661e456ee6de07e70aa9ef7b,66229da137609569465d8f98,,,,,,,,,,,,,,,,,,,,,,,,,,,,,,,,,,431.157,434.257,"[8,7,5,4,2,1,6,3]","[[-0.3,0.2],[0.3,0.2]]","[[0.125,-0.2],[-0.125,-0.2]]",-0.1,-0.218518519,1,0,0,2.6,o2_image,434.258,1,434.756,434.756,436.757,0,0,0,0,1,,,,,,,,,,,,,,,,,,,,,,,,,,,,,,,,,,,,,,,,,,,,,,,,,,
,,642ca0829254c73fda107d25,38,female,2024-04-19_18h37.19.049,stockport_simplified,2022.2.4,Win32,59.95203837,661e456ee6de07e70aa9ef7b,66229da137609569465d8f98,,,,,,,,,,,,,,,,,,,,,,,,,,,,,,,,,,,,,,,,,,,,,,,,,,,,,,,,0,30,30,45,1,B,Y,N,o2_image,stimuli/out2.png,stimuli/out1.png,stimuli/correct_out2.png,,,,,,,,,,,,,,,,,,,,,,,,,,,,,,,,,,,,,,
,,642ca0829254c73fda107d25,38,female,2024-04-19_18h37.19.049,stockport_simplified,2022.2.4,Win32,59.95203837,661e456ee6de07e70aa9ef7b,66229da137609569465d8f98,,,,,,,,,,,,,,,,,,,,,,,,,,,,,,,,,,436.757,439.724,"[8,7,5,4,2,1,6,3]","[[0.3,0.2],[-0.3,0.2]]","[[0.125,-0.2],[-0.125,-0.2]]",-0.113888889,-0.193518519,1,0,0,2.467,o2_image,439.724,0,440.224,440.224,442.224,0,0,0,0,1,,,,,,,,,,,,,,,,,,,,,,,,,,,,,,,,,,,,,,,,,,,,,,,,,,
,,642ca0829254c73fda107d25,38,female,2024-04-19_18h37.19.049,stockport_simplified,2022.2.4,Win32,59.95203837,661e456ee6de07e70aa9ef7b,66229da137609569465d8f98,,,,,,,,,,,,,,,,,,,,,,,,,,,,,,,,,,,,,,,,,,,,,,,,,,,,,,,,0,31,31,32,1,A,X,N,o1_image,stimuli/out1.png,stimuli/correct_out1.png,stimuli/out2.png,,,,,,,,,,,,,,,,,,,,,,,,,,,,,,,,,,,,,,
,,642ca0829254c73fda107d25,38,female,2024-04-19_18h37.19.049,stockport_simplified,2022.2.4,Win32,59.95203837,661e456ee6de07e70aa9ef7b,66229da137609569465d8f98,,,,,,,,,,,,,,,,,,,,,,,,,,,,,,,,,,442.224,444.841,"[8,7,5,4,2,1,6,3]","[[0.3,0.2],[-0.3,0.2]]","[[-0.125,-0.2],[0.125,-0.2]]",-0.102777778,-0.230555556,1,0,0,2.117,o1_image,444.841,0,445.34,445.34,447.341,0,0,0,0,1,,,,,,,,,,,,,,,,,,,,,,,,,,,,,,,,,,,,,,,,,,,,,,,,,,
,,642ca0829254c73fda107d25,38,female,2024-04-19_18h37.19.049,stockport_simplified,2022.2.4,Win32,59.95203837,661e456ee6de07e70aa9ef7b,66229da137609569465d8f98,,,,,,,,,,,,,,,,,,,,,,,,,,,,,,,,,,,,,,,,,,,,,,,,,,,,,,,,0,32,32,26,1,N,M,D,o2_image,stimuli/out2.png,stimuli/out1.png,stimuli/correct_out2.png,,,,,,,,,,,,,,,,,,,,,,,,,,,,,,,,,,,,,,
,,642ca0829254c73fda107d25,38,female,2024-04-19_18h37.19.049,stockport_simplified,2022.2.4,Win32,59.95203837,661e456ee6de07e70aa9ef7b,66229da137609569465d8f98,,,,,,,,,,,,,,,,,,,,,,,,,,,,,,,,,,447.341,451.141,"[8,7,5,4,2,1,6,3]","[[-0.3,0.2],[0.3,0.2]]","[[0.125,-0.2],[-0.125,-0.2]]",0.124074074,-0.24537037,1,0,0,3.283,o1_image,451.142,1,451.641,451.641,453.641,0,0,0,0,1,,,,,,,,,,,,,,,,,,,,,,,,,,,,,,,,,,,,,,,,,,,,,,,,,,
,,642ca0829254c73fda107d25,38,female,2024-04-19_18h37.19.049,stockport_simplified,2022.2.4,Win32,59.95203837,661e456ee6de07e70aa9ef7b,66229da137609569465d8f98,,,,,,,,,,,,,,,,,,,,,,,,,,,,,,,,,,,,,,,,,,,,,,,,,,,,,,,,0,33,33,39,1,A,Y,N,o1_image,stimuli/out1.png,stimuli/correct_out1.png,stimuli/out2.png,,,,,,,,,,,,,,,,,,,,,,,,,,,,,,,,,,,,,,
,,642ca0829254c73fda107d25,38,female,2024-04-19_18h37.19.049,stockport_simplified,2022.2.4,Win32,59.95203837,661e456ee6de07e70aa9ef7b,66229da137609569465d8f98,,,,,,,,,,,,,,,,,,,,,,,,,,,,,,,,,,453.642,455.175,"[8,7,5,4,2,1,6,3]","[[0.3,0.2],[-0.3,0.2]]","[[0.125,-0.2],[-0.125,-0.2]]",0.113888889,-0.205555556,1,0,0,1.016,o1_image,455.176,1,455.675,455.675,457.675,0,0,0,0,1,,,,,,,,,,,,,,,,,,,,,,,,,,,,,,,,,,,,,,,,,,,,,,,,,,
,,642ca0829254c73fda107d25,38,female,2024-04-19_18h37.19.049,stockport_simplified,2022.2.4,Win32,59.95203837,661e456ee6de07e70aa9ef7b,66229da137609569465d8f98,,,,,,,,,,,,,,,,,,,,,,,,,,,,,,,,,,,,,,,,,,,,,,,,,,,,,,,,0,34,34,24,1,N,M,C,o1_image,stimuli/out1.png,stimuli/correct_out1.png,stimuli/out2.png,,,,,,,,,,,,,,,,,,,,,,,,,,,,,,,,,,,,,,
,,642ca0829254c73fda107d25,38,female,2024-04-19_18h37.19.049,stockport_simplified,2022.2.4,Win32,59.95203837,661e456ee6de07e70aa9ef7b,66229da137609569465d8f98,,,,,,,,,,,,,,,,,,,,,,,,,,,,,,,,,,457.675,459.741,"[8,7,5,4,2,1,6,3]","[[0.3,0.2],[-0.3,0.2]]","[[-0.125,-0.2],[0.125,-0.2]]",-0.113888889,-0.192592593,1,0,0,1.55,o1_image,459.742,1,460.241,460.241,462.241,0,0,0,0,1,,,,,,,,,,,,,,,,,,,,,,,,,,,,,,,,,,,,,,,,,,,,,,,,,,
,,642ca0829254c73fda107d25,38,female,2024-04-19_18h37.19.049,stockport_simplified,2022.2.4,Win32,59.95203837,661e456ee6de07e70aa9ef7b,66229da137609569465d8f98,,,,,,,,,,,,,,,,,,,,,,,,,,,,,,,,,,,,,,,,,,,,,,,,,,,,,,,,0,35,35,20,1,N,M,C,o1_image,stimuli/out1.png,stimuli/correct_out1.png,stimuli/out2.png,,,,,,,,,,,,,,,,,,,,,,,,,,,,,,,,,,,,,,
,,642ca0829254c73fda107d25,38,female,2024-04-19_18h37.19.049,stockport_simplified,2022.2.4,Win32,59.95203837,661e456ee6de07e70aa9ef7b,66229da137609569465d8f98,,,,,,,,,,,,,,,,,,,,,,,,,,,,,,,,,,462.241,464.341,"[8,7,5,4,2,1,6,3]","[[0.3,0.2],[-0.3,0.2]]","[[-0.125,-0.2],[0.125,-0.2]]",0.116666667,-0.227777778,1,0,0,1.599,o2_image,464.341,1,464.842,464.842,466.842,0,0,0,0,1,,,,,,,,,,,,,,,,,,,,,,,,,,,,,,,,,,,,,,,,,,,,,,,,,,
,,642ca0829254c73fda107d25,38,female,2024-04-19_18h37.19.049,stockport_simplified,2022.2.4,Win32,59.95203837,661e456ee6de07e70aa9ef7b,66229da137609569465d8f98,,,,,,,,,,,,,,,,,,,,,,,,,,,,,,,,,,,,,,,,,,,,,,,,,,,,,,,,0,36,36,13,1,B,X,N,o2_image,stimuli/out2.png,stimuli/out1.png,stimuli/correct_out2.png,,,,,,,,,,,,,,,,,,,,,,,,,,,,,,,,,,,,,,
,,642ca0829254c73fda107d25,38,female,2024-04-19_18h37.19.049,stockport_simplified,2022.2.4,Win32,59.95203837,661e456ee6de07e70aa9ef7b,66229da137609569465d8f98,,,,,,,,,,,,,,,,,,,,,,,,,,,,,,,,,,466.842,469.325,"[8,7,5,4,2,1,6,3]","[[-0.3,0.2],[0.3,0.2]]","[[-0.125,-0.2],[0.125,-0.2]]",-0.107407407,-0.259259259,1,0,0,1.983,o1_image,469.325,0,469.824,469.824,471.825,0,0,0,0,1,,,,,,,,,,,,,,,,,,,,,,,,,,,,,,,,,,,,,,,,,,,,,,,,,,
,,642ca0829254c73fda107d25,38,female,2024-04-19_18h37.19.049,stockport_simplified,2022.2.4,Win32,59.95203837,661e456ee6de07e70aa9ef7b,66229da137609569465d8f98,,,,,,,,,,,,,,,,,,,,,,,,,,,,,,,,,,,,,,,,,,,,,,,,,,,,,,,,0,37,37,48,1,B,Y,N,o2_image,stimuli/out2.png,stimuli/out1.png,stimuli/correct_out2.png,,,,,,,,,,,,,,,,,,,,,,,,,,,,,,,,,,,,,,
,,642ca0829254c73fda107d25,38,female,2024-04-19_18h37.19.049,stockport_simplified,2022.2.4,Win32,59.95203837,661e456ee6de07e70aa9ef7b,66229da137609569465d8f98,,,,,,,,,,,,,,,,,,,,,,,,,,,,,,,,,,471.825,474.658,"[8,7,5,4,2,1,6,3]","[[-0.3,0.2],[0.3,0.2]]","[[-0.125,-0.2],[0.125,-0.2]]",0.10462963,-0.24537037,1,0,0,2.317,o2_image,474.659,0,475.158,475.158,477.158,0,0,0,0,1,,,,,,,,,,,,,,,,,,,,,,,,,,,,,,,,,,,,,,,,,,,,,,,,,,
,,642ca0829254c73fda107d25,38,female,2024-04-19_18h37.19.049,stockport_simplified,2022.2.4,Win32,59.95203837,661e456ee6de07e70aa9ef7b,66229da137609569465d8f98,,,,,,,,,,,,,,,,,,,,,,,,,,,,,,,,,,,,,,,,,,,,,,,,,,,,,,,,0,38,38,35,1,A,Y,N,o1_image,stimuli/out1.png,stimuli/correct_out1.png,stimuli/out2.png,,,,,,,,,,,,,,,,,,,,,,,,,,,,,,,,,,,,,,
,,642ca0829254c73fda107d25,38,female,2024-04-19_18h37.19.049,stockport_simplified,2022.2.4,Win32,59.95203837,661e456ee6de07e70aa9ef7b,66229da137609569465d8f98,,,,,,,,,,,,,,,,,,,,,,,,,,,,,,,,,,477.158,479.158,"[8,7,5,4,2,1,6,3]","[[-0.3,0.2],[0.3,0.2]]","[[0.125,-0.2],[-0.125,-0.2]]",0.109259259,-0.231481481,1,0,0,1.499,o1_image,479.159,0,479.659,479.659,481.659,0,0,0,0,1,,,,,,,,,,,,,,,,,,,,,,,,,,,,,,,,,,,,,,,,,,,,,,,,,,
,,642ca0829254c73fda107d25,38,female,2024-04-19_18h37.19.049,stockport_simplified,2022.2.4,Win32,59.95203837,661e456ee6de07e70aa9ef7b,66229da137609569465d8f98,,,,,,,,,,,,,,,,,,,,,,,,,,,,,,,,,,,,,,,,,,,,,,,,,,,,,,,,0,39,39,56,1,N,M,D,o2_image,stimuli/out2.png,stimuli/out1.png,stimuli/correct_out2.png,,,,,,,,,,,,,,,,,,,,,,,,,,,,,,,,,,,,,,
,,642ca0829254c73fda107d25,38,female,2024-04-19_18h37.19.049,stockport_simplified,2022.2.4,Win32,59.95203837,661e456ee6de07e70aa9ef7b,66229da137609569465d8f98,,,,,,,,,,,,,,,,,,,,,,,,,,,,,,,,,,481.659,483.375,"[8,7,5,4,2,1,6,3]","[[0.3,0.2],[-0.3,0.2]]","[[-0.125,-0.2],[0.125,-0.2]]",-0.175925926,-0.191666667,1,0,0,1.216,o1_image,483.376,0,483.875,483.875,485.876,0,0,0,0,1,,,,,,,,,,,,,,,,,,,,,,,,,,,,,,,,,,,,,,,,,,,,,,,,,,
,,642ca0829254c73fda107d25,38,female,2024-04-19_18h37.19.049,stockport_simplified,2022.2.4,Win32,59.95203837,661e456ee6de07e70aa9ef7b,66229da137609569465d8f98,,,,,,,,,,,,,,,,,,,,,,,,,,,,,,,,,,,,,,,,,,,,,,,,,,,,,,,,0,40,40,29,1,N,M,D,o2_image,stimuli/out2.png,stimuli/out1.png,stimuli/correct_out2.png,,,,,,,,,,,,,,,,,,,,,,,,,,,,,,,,,,,,,,
,,642ca0829254c73fda107d25,38,female,2024-04-19_18h37.19.049,stockport_simplified,2022.2.4,Win32,59.95203837,661e456ee6de07e70aa9ef7b,66229da137609569465d8f98,,,,,,,,,,,,,,,,,,,,,,,,,,,,,,,,,,485.877,488.059,"[8,7,5,4,2,1,6,3]","[[0.3,0.2],[-0.3,0.2]]","[[-0.125,-0.2],[0.125,-0.2]]",-0.106481481,-0.214814815,1,0,0,1.666,o1_image,488.06,1,488.558,488.558,490.559,0,0,0,0,1,,,,,,,,,,,,,,,,,,,,,,,,,,,,,,,,,,,,,,,,,,,,,,,,,,
,,642ca0829254c73fda107d25,38,female,2024-04-19_18h37.19.049,stockport_simplified,2022.2.4,Win32,59.95203837,661e456ee6de07e70aa9ef7b,66229da137609569465d8f98,,,,,,,,,,,,,,,,,,,,,,,,,,,,,,,,,,,,,,,,,,,,,,,,,,,,,,,,0,41,41,54,1,N,M,C,o1_image,stimuli/out1.png,stimuli/correct_out1.png,stimuli/out2.png,,,,,,,,,,,,,,,,,,,,,,,,,,,,,,,,,,,,,,
,,642ca0829254c73fda107d25,38,female,2024-04-19_18h37.19.049,stockport_simplified,2022.2.4,Win32,59.95203837,661e456ee6de07e70aa9ef7b,66229da137609569465d8f98,,,,,,,,,,,,,,,,,,,,,,,,,,,,,,,,,,490.56,493.209,"[8,7,5,4,2,1,6,3]","[[0.3,0.2],[-0.3,0.2]]","[[0.125,-0.2],[-0.125,-0.2]]",-0.124074074,-0.188888889,1,0,0,2.133,o2_image,493.21,0,493.709,493.709,495.709,0,0,0,0,1,,,,,,,,,,,,,,,,,,,,,,,,,,,,,,,,,,,,,,,,,,,,,,,,,,
,,642ca0829254c73fda107d25,38,female,2024-04-19_18h37.19.049,stockport_simplified,2022.2.4,Win32,59.95203837,661e456ee6de07e70aa9ef7b,66229da137609569465d8f98,,,,,,,,,,,,,,,,,,,,,,,,,,,,,,,,,,,,,,,,,,,,,,,,,,,,,,,,0,42,42,3,1,A,X,N,o1_image,stimuli/out1.png,stimuli/correct_out1.png,stimuli/out2.png,,,,,,,,,,,,,,,,,,,,,,,,,,,,,,,,,,,,,,
,,642ca0829254c73fda107d25,38,female,2024-04-19_18h37.19.049,stockport_simplified,2022.2.4,Win32,59.95203837,661e456ee6de07e70aa9ef7b,66229da137609569465d8f98,,,,,,,,,,,,,,,,,,,,,,,,,,,,,,,,,,495.709,499.893,"[8,7,5,4,2,1,6,3]","[[0.3,0.2],[-0.3,0.2]]","[[-0.125,-0.2],[0.125,-0.2]]",-0.103703704,-0.208333333,1,0,0,3.683,o1_image,499.893,0,500.393,500.393,502.393,0,0,0,0,1,,,,,,,,,,,,,,,,,,,,,,,,,,,,,,,,,,,,,,,,,,,,,,,,,,
,,642ca0829254c73fda107d25,38,female,2024-04-19_18h37.19.049,stockport_simplified,2022.2.4,Win32,59.95203837,661e456ee6de07e70aa9ef7b,66229da137609569465d8f98,,,,,,,,,,,,,,,,,,,,,,,,,,,,,,,,,,,,,,,,,,,,,,,,,,,,,,,,0,43,43,25,1,N,M,D,o2_image,stimuli/out2.png,stimuli/out1.png,stimuli/correct_out2.png,,,,,,,,,,,,,,,,,,,,,,,,,,,,,,,,,,,,,,
,,642ca0829254c73fda107d25,38,female,2024-04-19_18h37.19.049,stockport_simplified,2022.2.4,Win32,59.95203837,661e456ee6de07e70aa9ef7b,66229da137609569465d8f98,,,,,,,,,,,,,,,,,,,,,,,,,,,,,,,,,,502.393,505.159,"[8,7,5,4,2,1,6,3]","[[0.3,0.2],[-0.3,0.2]]","[[-0.125,-0.2],[0.125,-0.2]]",-0.10462963,-0.218518519,1,0,0,2.266,o1_image,505.16,1,505.659,505.659,507.66,0,0,0,0,1,,,,,,,,,,,,,,,,,,,,,,,,,,,,,,,,,,,,,,,,,,,,,,,,,,
,,642ca0829254c73fda107d25,38,female,2024-04-19_18h37.19.049,stockport_simplified,2022.2.4,Win32,59.95203837,661e456ee6de07e70aa9ef7b,66229da137609569465d8f98,,,,,,,,,,,,,,,,,,,,,,,,,,,,,,,,,,,,,,,,,,,,,,,,,,,,,,,,0,44,44,37,1,A,Y,N,o1_image,stimuli/out1.png,stimuli/correct_out1.png,stimuli/out2.png,,,,,,,,,,,,,,,,,,,,,,,,,,,,,,,,,,,,,,
,,642ca0829254c73fda107d25,38,female,2024-04-19_18h37.19.049,stockport_simplified,2022.2.4,Win32,59.95203837,661e456ee6de07e70aa9ef7b,66229da137609569465d8f98,,,,,,,,,,,,,,,,,,,,,,,,,,,,,,,,,,507.66,509.543,"[8,7,5,4,2,1,6,3]","[[-0.3,0.2],[0.3,0.2]]","[[-0.125,-0.2],[0.125,-0.2]]",-0.117592593,-0.213888889,1,0,0,1.367,o1_image,509.544,1,510.043,510.043,512.043,0,0,0,0,1,,,,,,,,,,,,,,,,,,,,,,,,,,,,,,,,,,,,,,,,,,,,,,,,,,
,,642ca0829254c73fda107d25,38,female,2024-04-19_18h37.19.049,stockport_simplified,2022.2.4,Win32,59.95203837,661e456ee6de07e70aa9ef7b,66229da137609569465d8f98,,,,,,,,,,,,,,,,,,,,,,,,,,,,,,,,,,,,,,,,,,,,,,,,,,,,,,,,0,45,45,36,1,A,Y,N,o1_image,stimuli/out1.png,stimuli/correct_out1.png,stimuli/out2.png,,,,,,,,,,,,,,,,,,,,,,,,,,,,,,,,,,,,,,
,,642ca0829254c73fda107d25,38,female,2024-04-19_18h37.19.049,stockport_simplified,2022.2.4,Win32,59.95203837,661e456ee6de07e70aa9ef7b,66229da137609569465d8f98,,,,,,,,,,,,,,,,,,,,,,,,,,,,,,,,,,512.043,515.226,"[8,7,5,4,2,1,6,3]","[[0.3,0.2],[-0.3,0.2]]","[[-0.125,-0.2],[0.125,-0.2]]",0.107407407,-0.213888889,1,0,0,2.683,o2_image,515.227,1,515.726,515.726,517.727,0,0,0,0,1,,,,,,,,,,,,,,,,,,,,,,,,,,,,,,,,,,,,,,,,,,,,,,,,,,
,,642ca0829254c73fda107d25,38,female,2024-04-19_18h37.19.049,stockport_simplified,2022.2.4,Win32,59.95203837,661e456ee6de07e70aa9ef7b,66229da137609569465d8f98,,,,,,,,,,,,,,,,,,,,,,,,,,,,,,,,,,,,,,,,,,,,,,,,,,,,,,,,0,46,46,19,1,B,Y,N,o2_image,stimuli/out2.png,stimuli/out1.png,stimuli/correct_out2.png,,,,,,,,,,,,,,,,,,,,,,,,,,,,,,,,,,,,,,
,,642ca0829254c73fda107d25,38,female,2024-04-19_18h37.19.049,stockport_simplified,2022.2.4,Win32,59.95203837,661e456ee6de07e70aa9ef7b,66229da137609569465d8f98,,,,,,,,,,,,,,,,,,,,,,,,,,,,,,,,,,517.727,519.861,"[8,7,5,4,2,1,6,3]","[[-0.3,0.2],[0.3,0.2]]","[[-0.125,-0.2],[0.125,-0.2]]",0.125925926,-0.225,1,0,0,1.617,o2_image,519.862,1,520.36,520.36,522.36,0,0,0,0,1,,,,,,,,,,,,,,,,,,,,,,,,,,,,,,,,,,,,,,,,,,,,,,,,,,
,,642ca0829254c73fda107d25,38,female,2024-04-19_18h37.19.049,stockport_simplified,2022.2.4,Win32,59.95203837,661e456ee6de07e70aa9ef7b,66229da137609569465d8f98,,,,,,,,,,,,,,,,,,,,,,,,,,,,,,,,,,,,,,,,,,,,,,,,,,,,,,,,0,47,47,12,1,B,X,N,o2_image,stimuli/out2.png,stimuli/out1.png,stimuli/correct_out2.png,,,,,,,,,,,,,,,,,,,,,,,,,,,,,,,,,,,,,,
,,642ca0829254c73fda107d25,38,female,2024-04-19_18h37.19.049,stockport_simplified,2022.2.4,Win32,59.95203837,661e456ee6de07e70aa9ef7b,66229da137609569465d8f98,,,,,,,,,,,,,,,,,,,,,,,,,,,,,,,,,,522.36,524.943,"[8,7,5,4,2,1,6,3]","[[-0.3,0.2],[0.3,0.2]]","[[0.125,-0.2],[-0.125,-0.2]]",-0.121296296,-0.218518519,1,0,0,2.083,o2_image,524.944,0,525.444,525.444,527.444,0,0,0,0,1,,,,,,,,,,,,,,,,,,,,,,,,,,,,,,,,,,,,,,,,,,,,,,,,,,
,,642ca0829254c73fda107d25,38,female,2024-04-19_18h37.19.049,stockport_simplified,2022.2.4,Win32,59.95203837,661e456ee6de07e70aa9ef7b,66229da137609569465d8f98,,,,,,,,,,,,,,,,,,,,,,,,,,,,,,,,,,,,,,,,,,,,,,,,,,,,,,,,0,48,48,34,1,A,X,N,o1_image,stimuli/out1.png,stimuli/correct_out1.png,stimuli/out2.png,,,,,,,,,,,,,,,,,,,,,,,,,,,,,,,,,,,,,,
,,642ca0829254c73fda107d25,38,female,2024-04-19_18h37.19.049,stockport_simplified,2022.2.4,Win32,59.95203837,661e456ee6de07e70aa9ef7b,66229da137609569465d8f98,,,,,,,,,,,,,,,,,,,,,,,,,,,,,,,,,,527.444,529.993,"[8,7,5,4,2,1,6,3]","[[-0.3,0.2],[0.3,0.2]]","[[0.125,-0.2],[-0.125,-0.2]]",-0.165740741,-0.196296296,1,0,0,2.048,o2_image,529.994,1,530.493,530.493,532.493,0,0,0,0,1,,,,,,,,,,,,,,,,,,,,,,,,,,,,,,,,,,,,,,,,,,,,,,,,,,
,,642ca0829254c73fda107d25,38,female,2024-04-19_18h37.19.049,stockport_simplified,2022.2.4,Win32,59.95203837,661e456ee6de07e70aa9ef7b,66229da137609569465d8f98,,,,,,,,,,,,,,,,,,,,,,,,,,,,,,,,,,,,,,,,,,,,,,,,,,,,,,,,0,49,49,57,1,N,M,D,o2_image,stimuli/out2.png,stimuli/out1.png,stimuli/correct_out2.png,,,,,,,,,,,,,,,,,,,,,,,,,,,,,,,,,,,,,,
,,642ca0829254c73fda107d25,38,female,2024-04-19_18h37.19.049,stockport_simplified,2022.2.4,Win32,59.95203837,661e456ee6de07e70aa9ef7b,66229da137609569465d8f98,,,,,,,,,,,,,,,,,,,,,,,,,,,,,,,,,,532.493,535.494,"[8,7,5,4,2,1,6,3]","[[-0.3,0.2],[0.3,0.2]]","[[-0.125,-0.2],[0.125,-0.2]]",0.111111111,-0.208333333,1,0,0,2.5,o2_image,535.494,1,535.994,535.994,537.993,0,0,0,0,1,,,,,,,,,,,,,,,,,,,,,,,,,,,,,,,,,,,,,,,,,,,,,,,,,,
,,642ca0829254c73fda107d25,38,female,2024-04-19_18h37.19.049,stockport_simplified,2022.2.4,Win32,59.95203837,661e456ee6de07e70aa9ef7b,66229da137609569465d8f98,,,,,,,,,,,,,,,,,,,,,,,,,,,,,,,,,,,,,,,,,,,,,,,,,,,,,,,,0,50,50,47,1,B,Y,N,o2_image,stimuli/out2.png,stimuli/out1.png,stimuli/correct_out2.png,,,,,,,,,,,,,,,,,,,,,,,,,,,,,,,,,,,,,,
,,642ca0829254c73fda107d25,38,female,2024-04-19_18h37.19.049,stockport_simplified,2022.2.4,Win32,59.95203837,661e456ee6de07e70aa9ef7b,66229da137609569465d8f98,,,,,,,,,,,,,,,,,,,,,,,,,,,,,,,,,,537.994,541.043,"[8,7,5,4,2,1,6,3]","[[0.3,0.2],[-0.3,0.2]]","[[0.125,-0.2],[-0.125,-0.2]]",-0.14537037,-0.213888889,1,0,0,2.532,o2_image,541.044,1,541.544,541.544,543.544,0,0,0,0,1,,,,,,,,,,,,,,,,,,,,,,,,,,,,,,,,,,,,,,,,,,,,,,,,,,
,,642ca0829254c73fda107d25,38,female,2024-04-19_18h37.19.049,stockport_simplified,2022.2.4,Win32,59.95203837,661e456ee6de07e70aa9ef7b,66229da137609569465d8f98,,,,,,,,,,,,,,,,,,,,,,,,,,,,,,,,,,,,,,,,,,,,,,,,,,,,,,,,0,51,51,49,1,B,Y,N,o2_image,stimuli/out2.png,stimuli/out1.png,stimuli/correct_out2.png,,,,,,,,,,,,,,,,,,,,,,,,,,,,,,,,,,,,,,
,,642ca0829254c73fda107d25,38,female,2024-04-19_18h37.19.049,stockport_simplified,2022.2.4,Win32,59.95203837,661e456ee6de07e70aa9ef7b,66229da137609569465d8f98,,,,,,,,,,,,,,,,,,,,,,,,,,,,,,,,,,543.544,545.594,"[8,7,5,4,2,1,6,3]","[[0.3,0.2],[-0.3,0.2]]","[[0.125,-0.2],[-0.125,-0.2]]",0.125,-0.211111111,1,0,0,1.55,o1_image,545.595,1,546.094,546.094,548.094,0,0,0,0,1,,,,,,,,,,,,,,,,,,,,,,,,,,,,,,,,,,,,,,,,,,,,,,,,,,
,,642ca0829254c73fda107d25,38,female,2024-04-19_18h37.19.049,stockport_simplified,2022.2.4,Win32,59.95203837,661e456ee6de07e70aa9ef7b,66229da137609569465d8f98,,,,,,,,,,,,,,,,,,,,,,,,,,,,,,,,,,,,,,,,,,,,,,,,,,,,,,,,0,52,52,4,1,A,X,N,o1_image,stimuli/out1.png,stimuli/correct_out1.png,stimuli/out2.png,,,,,,,,,,,,,,,,,,,,,,,,,,,,,,,,,,,,,,
,,642ca0829254c73fda107d25,38,female,2024-04-19_18h37.19.049,stockport_simplified,2022.2.4,Win32,59.95203837,661e456ee6de07e70aa9ef7b,66229da137609569465d8f98,,,,,,,,,,,,,,,,,,,,,,,,,,,,,,,,,,548.094,551.661,"[8,7,5,4,2,1,6,3]","[[-0.3,0.2],[0.3,0.2]]","[[-0.125,-0.2],[0.125,-0.2]]",-0.109259259,-0.201851852,1,0,0,3.067,o1_image,551.663,1,552.161,552.161,554.161,0,0,0,0,1,,,,,,,,,,,,,,,,,,,,,,,,,,,,,,,,,,,,,,,,,,,,,,,,,,
,,642ca0829254c73fda107d25,38,female,2024-04-19_18h37.19.049,stockport_simplified,2022.2.4,Win32,59.95203837,661e456ee6de07e70aa9ef7b,66229da137609569465d8f98,,,,,,,,,,,,,,,,,,,,,,,,,,,,,,,,,,,,,,,,,,,,,,,,,,,,,,,,0,53,53,30,1,A,X,N,o1_image,stimuli/out1.png,stimuli/correct_out1.png,stimuli/out2.png,,,,,,,,,,,,,,,,,,,,,,,,,,,,,,,,,,,,,,
,,642ca0829254c73fda107d25,38,female,2024-04-19_18h37.19.049,stockport_simplified,2022.2.4,Win32,59.95203837,661e456ee6de07e70aa9ef7b,66229da137609569465d8f98,,,,,,,,,,,,,,,,,,,,,,,,,,,,,,,,,,554.162,557.861,"[8,7,5,4,2,1,6,3]","[[-0.3,0.2],[0.3,0.2]]","[[0.125,-0.2],[-0.125,-0.2]]",-0.097222222,-0.177777778,1,0,0,3.183,o2_image,557.862,0,558.361,558.361,560.361,0,0,0,0,1,,,,,,,,,,,,,,,,,,,,,,,,,,,,,,,,,,,,,,,,,,,,,,,,,,
,,642ca0829254c73fda107d25,38,female,2024-04-19_18h37.19.049,stockport_simplified,2022.2.4,Win32,59.95203837,661e456ee6de07e70aa9ef7b,66229da137609569465d8f98,,,,,,,,,,,,,,,,,,,,,,,,,,,,,,,,,,,,,,,,,,,,,,,,,,,,,,,,0,54,54,23,1,N,M,C,o1_image,stimuli/out1.png,stimuli/correct_out1.png,stimuli/out2.png,,,,,,,,,,,,,,,,,,,,,,,,,,,,,,,,,,,,,,
,,642ca0829254c73fda107d25,38,female,2024-04-19_18h37.19.049,stockport_simplified,2022.2.4,Win32,59.95203837,661e456ee6de07e70aa9ef7b,66229da137609569465d8f98,,,,,,,,,,,,,,,,,,,,,,,,,,,,,,,,,,560.361,563.078,"[8,7,5,4,2,1,6,3]","[[-0.3,0.2],[0.3,0.2]]","[[0.125,-0.2],[-0.125,-0.2]]",-0.100925926,-0.202777778,1,0,0,2.216,o2_image,563.079,0,563.577,563.578,565.578,0,0,0,0,1,,,,,,,,,,,,,,,,,,,,,,,,,,,,,,,,,,,,,,,,,,,,,,,,,,
,,642ca0829254c73fda107d25,38,female,2024-04-19_18h37.19.049,stockport_simplified,2022.2.4,Win32,59.95203837,661e456ee6de07e70aa9ef7b,66229da137609569465d8f98,,,,,,,,,,,,,,,,,,,,,,,,,,,,,,,,,,,,,,,,,,,,,,,,,,,,,,,,0,55,55,38,1,A,Y,N,o1_image,stimuli/out1.png,stimuli/correct_out1.png,stimuli/out2.png,,,,,,,,,,,,,,,,,,,,,,,,,,,,,,,,,,,,,,
,,642ca0829254c73fda107d25,38,female,2024-04-19_18h37.19.049,stockport_simplified,2022.2.4,Win32,59.95203837,661e456ee6de07e70aa9ef7b,66229da137609569465d8f98,,,,,,,,,,,,,,,,,,,,,,,,,,,,,,,,,,565.578,569.262,"[8,7,5,4,2,1,6,3]","[[0.3,0.2],[-0.3,0.2]]","[[0.125,-0.2],[-0.125,-0.2]]",-0.092592593,-0.190740741,1,0,0,3.184,o2_image,569.262,1,569.761,569.761,571.762,0,0,0,0,1,,,,,,,,,,,,,,,,,,,,,,,,,,,,,,,,,,,,,,,,,,,,,,,,,,
,,642ca0829254c73fda107d25,38,female,2024-04-19_18h37.19.049,stockport_simplified,2022.2.4,Win32,59.95203837,661e456ee6de07e70aa9ef7b,66229da137609569465d8f98,,,,,,,,,,,,,,,,,,,,,,,,,,,,,,,,,,,,,,,,,,,,,,,,,,,,,,,,0,56,56,58,1,N,M,D,o2_image,stimuli/out2.png,stimuli/out1.png,stimuli/correct_out2.png,,,,,,,,,,,,,,,,,,,,,,,,,,,,,,,,,,,,,,
,,642ca0829254c73fda107d25,38,female,2024-04-19_18h37.19.049,stockport_simplified,2022.2.4,Win32,59.95203837,661e456ee6de07e70aa9ef7b,66229da137609569465d8f98,,,,,,,,,,,,,,,,,,,,,,,,,,,,,,,,,,571.762,573.828,"[8,7,5,4,2,1,6,3]","[[-0.3,0.2],[0.3,0.2]]","[[0.125,-0.2],[-0.125,-0.2]]",0.12962963,-0.225925926,1,0,0,1.566,o1_image,573.829,1,574.328,574.328,576.328,0,0,0,0,1,,,,,,,,,,,,,,,,,,,,,,,,,,,,,,,,,,,,,,,,,,,,,,,,,,
,,642ca0829254c73fda107d25,38,female,2024-04-19_18h37.19.049,stockport_simplified,2022.2.4,Win32,59.95203837,661e456ee6de07e70aa9ef7b,66229da137609569465d8f98,,,,,,,,,,,,,,,,,,,,,,,,,,,,,,,,,,,,,,,,,,,,,,,,,,,,,,,,0,57,57,52,1,N,M,C,o1_image,stimuli/out1.png,stimuli/correct_out1.png,stimuli/out2.png,,,,,,,,,,,,,,,,,,,,,,,,,,,,,,,,,,,,,,
,,642ca0829254c73fda107d25,38,female,2024-04-19_18h37.19.049,stockport_simplified,2022.2.4,Win32,59.95203837,661e456ee6de07e70aa9ef7b,66229da137609569465d8f98,,,,,,,,,,,,,,,,,,,,,,,,,,,,,,,,,,576.329,579.362,"[8,7,5,4,2,1,6,3]","[[0.3,0.2],[-0.3,0.2]]","[[-0.125,-0.2],[0.125,-0.2]]",0.110185185,-0.237962963,1,0,0,2.533,o2_image,579.363,0,579.861,579.861,581.862,0,0,0,0,1,,,,,,,,,,,,,,,,,,,,,,,,,,,,,,,,,,,,,,,,,,,,,,,,,,
,,642ca0829254c73fda107d25,38,female,2024-04-19_18h37.19.049,stockport_simplified,2022.2.4,Win32,59.95203837,661e456ee6de07e70aa9ef7b,66229da137609569465d8f98,,,,,,,,,,,,,,,,,,,,,,,,,,,,,,,,,,,,,,,,,,,,,,,,,,,,,,,,0,58,58,7,1,A,Y,N,o1_image,stimuli/out1.png,stimuli/correct_out1.png,stimuli/out2.png,,,,,,,,,,,,,,,,,,,,,,,,,,,,,,,,,,,,,,
,,642ca0829254c73fda107d25,38,female,2024-04-19_18h37.19.049,stockport_simplified,2022.2.4,Win32,59.95203837,661e456ee6de07e70aa9ef7b,66229da137609569465d8f98,,,,,,,,,,,,,,,,,,,,,,,,,,,,,,,,,,581.862,585.229,"[8,7,5,4,2,1,6,3]","[[0.3,0.2],[-0.3,0.2]]","[[0.125,-0.2],[-0.125,-0.2]]",0.137962963,-0.224074074,1,0,0,2.867,o1_image,585.231,0,585.728,585.728,587.729,0,0,0,0,1,,,,,,,,,,,,,,,,,,,,,,,,,,,,,,,,,,,,,,,,,,,,,,,,,,
,,642ca0829254c73fda107d25,38,female,2024-04-19_18h37.19.049,stockport_simplified,2022.2.4,Win32,59.95203837,661e456ee6de07e70aa9ef7b,66229da137609569465d8f98,,,,,,,,,,,,,,,,,,,,,,,,,,,,,,,,,,,,,,,,,,,,,,,,,,,,,,,,0,59,59,18,1,B,Y,N,o2_image,stimuli/out2.png,stimuli/out1.png,stimuli/correct_out2.png,,,,,,,,,,,,,,,,,,,,,,,,,,,,,,,,,,,,,,
,,642ca0829254c73fda107d25,38,female,2024-04-19_18h37.19.049,stockport_simplified,2022.2.4,Win32,59.95203837,661e456ee6de07e70aa9ef7b,66229da137609569465d8f98,,,,,,,,,,,,,,,,,,,,,,,,,,,,,,,,,,587.729,590.362,"[8,7,5,4,2,1,6,3]","[[-0.3,0.2],[0.3,0.2]]","[[-0.125,-0.2],[0.125,-0.2]]",-0.127777778,-0.224074074,1,0,0,2.116,o1_image,590.363,1,590.862,590.862,592.862,0,0,0,0,1,,,,,,,,,,,,,,,,,,,,,,,,,,,,,,,,,,,,,,,,,,,,,,,,,,
,,642ca0829254c73fda107d25,38,female,2024-04-19_18h37.19.049,stockport_simplified,2022.2.4,Win32,59.95203837,661e456ee6de07e70aa9ef7b,66229da137609569465d8f98,,,,,,,,,,,,,,,,,,,,,,,,,,,,,,,,,,,,,,,,,,,,,,,,,,,,,,,,1,0,60,34,1,A,X,N,o1_image,stimuli/out1.png,stimuli/correct_out1.png,stimuli/out2.png,,,,,,,,,,,,,,,,,,,,,,,,,,,,,,,,,,,,,,
,,642ca0829254c73fda107d25,38,female,2024-04-19_18h37.19.049,stockport_simplified,2022.2.4,Win32,59.95203837,661e456ee6de07e70aa9ef7b,66229da137609569465d8f98,,,,,,,,,,,,,,,,,,,,,,,,,,,,,,,,,,592.863,596.379,"[8,7,5,4,2,1,6,3]","[[0.3,0.2],[-0.3,0.2]]","[[-0.125,-0.2],[0.125,-0.2]]",-0.114814815,-0.233333333,1,0,0,3,o1_image,596.38,1,596.879,596.879,598.879,0,0,0,0,1,,,,,,,,,,,,,,,,,,,,,,,,,,,,,,,,,,,,,,,,,,,,,,,,,,
,,642ca0829254c73fda107d25,38,female,2024-04-19_18h37.19.049,stockport_simplified,2022.2.4,Win32,59.95203837,661e456ee6de07e70aa9ef7b,66229da137609569465d8f98,,,,,,,,,,,,,,,,,,,,,,,,,,,,,,,,,,,,,,,,,,,,,,,,,,,,,,,,1,1,61,54,1,N,M,C,o1_image,stimuli/out1.png,stimuli/correct_out1.png,stimuli/out2.png,,,,,,,,,,,,,,,,,,,,,,,,,,,,,,,,,,,,,,
,,642ca0829254c73fda107d25,38,female,2024-04-19_18h37.19.049,stockport_simplified,2022.2.4,Win32,59.95203837,661e456ee6de07e70aa9ef7b,66229da137609569465d8f98,,,,,,,,,,,,,,,,,,,,,,,,,,,,,,,,,,598.88,601.146,"[8,7,5,4,2,1,6,3]","[[0.3,0.2],[-0.3,0.2]]","[[-0.125,-0.2],[0.125,-0.2]]",-0.113888889,-0.239814815,1,0,0,1.766,o1_image,601.147,1,601.646,601.646,603.646,0,0,0,0,1,,,,,,,,,,,,,,,,,,,,,,,,,,,,,,,,,,,,,,,,,,,,,,,,,,
,,642ca0829254c73fda107d25,38,female,2024-04-19_18h37.19.049,stockport_simplified,2022.2.4,Win32,59.95203837,661e456ee6de07e70aa9ef7b,66229da137609569465d8f98,,,,,,,,,,,,,,,,,,,,,,,,,,,,,,,,,,,,,,,,,,,,,,,,,,,,,,,,1,2,62,30,1,A,X,N,o1_image,stimuli/out1.png,stimuli/correct_out1.png,stimuli/out2.png,,,,,,,,,,,,,,,,,,,,,,,,,,,,,,,,,,,,,,
,,642ca0829254c73fda107d25,38,female,2024-04-19_18h37.19.049,stockport_simplified,2022.2.4,Win32,59.95203837,661e456ee6de07e70aa9ef7b,66229da137609569465d8f98,,,,,,,,,,,,,,,,,,,,,,,,,,,,,,,,,,603.647,606.429,"[8,7,5,4,2,1,6,3]","[[0.3,0.2],[-0.3,0.2]]","[[0.125,-0.2],[-0.125,-0.2]]",0.111111111,-0.235185185,1,0,0,2.266,o1_image,606.43,1,606.929,606.929,608.93,0,0,0,0,1,,,,,,,,,,,,,,,,,,,,,,,,,,,,,,,,,,,,,,,,,,,,,,,,,,
,,642ca0829254c73fda107d25,38,female,2024-04-19_18h37.19.049,stockport_simplified,2022.2.4,Win32,59.95203837,661e456ee6de07e70aa9ef7b,66229da137609569465d8f98,,,,,,,,,,,,,,,,,,,,,,,,,,,,,,,,,,,,,,,,,,,,,,,,,,,,,,,,1,3,63,23,1,N,M,C,o1_image,stimuli/out1.png,stimuli/correct_out1.png,stimuli/out2.png,,,,,,,,,,,,,,,,,,,,,,,,,,,,,,,,,,,,,,
,,642ca0829254c73fda107d25,38,female,2024-04-19_18h37.19.049,stockport_simplified,2022.2.4,Win32,59.95203837,661e456ee6de07e70aa9ef7b,66229da137609569465d8f98,,,,,,,,,,,,,,,,,,,,,,,,,,,,,,,,,,608.93,611.78,"[8,7,5,4,2,1,6,3]","[[0.3,0.2],[-0.3,0.2]]","[[0.125,-0.2],[-0.125,-0.2]]",-0.109259259,-0.189814815,1,0,0,2.35,o2_image,611.781,0,612.28,612.28,614.28,0,0,0,0,1,,,,,,,,,,,,,,,,,,,,,,,,,,,,,,,,,,,,,,,,,,,,,,,,,,
,,642ca0829254c73fda107d25,38,female,2024-04-19_18h37.19.049,stockport_simplified,2022.2.4,Win32,59.95203837,661e456ee6de07e70aa9ef7b,66229da137609569465d8f98,,,,,,,,,,,,,,,,,,,,,,,,,,,,,,,,,,,,,,,,,,,,,,,,,,,,,,,,1,4,64,38,1,A,Y,N,o1_image,stimuli/out1.png,stimuli/correct_out1.png,stimuli/out2.png,,,,,,,,,,,,,,,,,,,,,,,,,,,,,,,,,,,,,,
,,642ca0829254c73fda107d25,38,female,2024-04-19_18h37.19.049,stockport_simplified,2022.2.4,Win32,59.95203837,661e456ee6de07e70aa9ef7b,66229da137609569465d8f98,,,,,,,,,,,,,,,,,,,,,,,,,,,,,,,,,,614.28,616.296,"[8,7,5,4,2,1,6,3]","[[-0.3,0.2],[0.3,0.2]]","[[-0.125,-0.2],[0.125,-0.2]]",-0.125925926,-0.214814815,1,0,0,1.516,o1_image,616.297,1,616.796,616.796,618.797,0,0,0,0,1,,,,,,,,,,,,,,,,,,,,,,,,,,,,,,,,,,,,,,,,,,,,,,,,,,
,,642ca0829254c73fda107d25,38,female,2024-04-19_18h37.19.049,stockport_simplified,2022.2.4,Win32,59.95203837,661e456ee6de07e70aa9ef7b,66229da137609569465d8f98,,,,,,,,,,,,,,,,,,,,,,,,,,,,,,,,,,,,,,,,,,,,,,,,,,,,,,,,1,5,65,50,1,N,M,C,o1_image,stimuli/out1.png,stimuli/correct_out1.png,stimuli/out2.png,,,,,,,,,,,,,,,,,,,,,,,,,,,,,,,,,,,,,,
,,642ca0829254c73fda107d25,38,female,2024-04-19_18h37.19.049,stockport_simplified,2022.2.4,Win32,59.95203837,661e456ee6de07e70aa9ef7b,66229da137609569465d8f98,,,,,,,,,,,,,,,,,,,,,,,,,,,,,,,,,,618.798,621.831,"[8,7,5,4,2,1,6,3]","[[0.3,0.2],[-0.3,0.2]]","[[-0.125,-0.2],[0.125,-0.2]]",0.133333333,-0.203703704,1,0,0,2.516,o2_image,621.831,1,622.33,622.33,624.33,0,0,0,0,1,,,,,,,,,,,,,,,,,,,,,,,,,,,,,,,,,,,,,,,,,,,,,,,,,,
,,642ca0829254c73fda107d25,38,female,2024-04-19_18h37.19.049,stockport_simplified,2022.2.4,Win32,59.95203837,661e456ee6de07e70aa9ef7b,66229da137609569465d8f98,,,,,,,,,,,,,,,,,,,,,,,,,,,,,,,,,,,,,,,,,,,,,,,,,,,,,,,,1,6,66,19,1,B,Y,N,o2_image,stimuli/out2.png,stimuli/out1.png,stimuli/correct_out2.png,,,,,,,,,,,,,,,,,,,,,,,,,,,,,,,,,,,,,,
,,642ca0829254c73fda107d25,38,female,2024-04-19_18h37.19.049,stockport_simplified,2022.2.4,Win32,59.95203837,661e456ee6de07e70aa9ef7b,66229da137609569465d8f98,,,,,,,,,,,,,,,,,,,,,,,,,,,,,,,,,,624.33,626.797,"[8,7,5,4,2,1,6,3]","[[-0.3,0.2],[0.3,0.2]]","[[0.125,-0.2],[-0.125,-0.2]]",-0.140740741,-0.182407407,1,0,0,1.967,o2_image,626.797,1,627.297,627.297,629.296,0,0,0,0,1,,,,,,,,,,,,,,,,,,,,,,,,,,,,,,,,,,,,,,,,,,,,,,,,,,
,,642ca0829254c73fda107d25,38,female,2024-04-19_18h37.19.049,stockport_simplified,2022.2.4,Win32,59.95203837,661e456ee6de07e70aa9ef7b,66229da137609569465d8f98,,,,,,,,,,,,,,,,,,,,,,,,,,,,,,,,,,,,,,,,,,,,,,,,,,,,,,,,1,7,67,45,1,B,Y,N,o2_image,stimuli/out2.png,stimuli/out1.png,stimuli/correct_out2.png,,,,,,,,,,,,,,,,,,,,,,,,,,,,,,,,,,,,,,
,,642ca0829254c73fda107d25,38,female,2024-04-19_18h37.19.049,stockport_simplified,2022.2.4,Win32,59.95203837,661e456ee6de07e70aa9ef7b,66229da137609569465d8f98,,,,,,,,,,,,,,,,,,,,,,,,,,,,,,,,,,629.297,632.514,"[8,7,5,4,2,1,6,3]","[[0.3,0.2],[-0.3,0.2]]","[[0.125,-0.2],[-0.125,-0.2]]",-0.111111111,-0.20462963,1,0,0,2.717,o2_image,632.514,1,633.014,633.014,635.013,0,0,0,0,1,,,,,,,,,,,,,,,,,,,,,,,,,,,,,,,,,,,,,,,,,,,,,,,,,,
,,642ca0829254c73fda107d25,38,female,2024-04-19_18h37.19.049,stockport_simplified,2022.2.4,Win32,59.95203837,661e456ee6de07e70aa9ef7b,66229da137609569465d8f98,,,,,,,,,,,,,,,,,,,,,,,,,,,,,,,,,,,,,,,,,,,,,,,,,,,,,,,,1,8,68,17,1,B,Y,N,o2_image,stimuli/out2.png,stimuli/out1.png,stimuli/correct_out2.png,,,,,,,,,,,,,,,,,,,,,,,,,,,,,,,,,,,,,,
,,642ca0829254c73fda107d25,38,female,2024-04-19_18h37.19.049,stockport_simplified,2022.2.4,Win32,59.95203837,661e456ee6de07e70aa9ef7b,66229da137609569465d8f98,,,,,,,,,,,,,,,,,,,,,,,,,,,,,,,,,,635.014,639.313,"[8,7,5,4,2,1,6,3]","[[-0.3,0.2],[0.3,0.2]]","[[-0.125,-0.2],[0.125,-0.2]]",0.133333333,-0.198148148,1,0,0,3.782,o2_image,639.314,1,639.814,639.814,641.814,0,0,0,0,1,,,,,,,,,,,,,,,,,,,,,,,,,,,,,,,,,,,,,,,,,,,,,,,,,,
,,642ca0829254c73fda107d25,38,female,2024-04-19_18h37.19.049,stockport_simplified,2022.2.4,Win32,59.95203837,661e456ee6de07e70aa9ef7b,66229da137609569465d8f98,,,,,,,,,,,,,,,,,,,,,,,,,,,,,,,,,,,,,,,,,,,,,,,,,,,,,,,,1,9,69,44,1,B,X,N,o2_image,stimuli/out2.png,stimuli/out1.png,stimuli/correct_out2.png,,,,,,,,,,,,,,,,,,,,,,,,,,,,,,,,,,,,,,
,,642ca0829254c73fda107d25,38,female,2024-04-19_18h37.19.049,stockport_simplified,2022.2.4,Win32,59.95203837,661e456ee6de07e70aa9ef7b,66229da137609569465d8f98,,,,,,,,,,,,,,,,,,,,,,,,,,,,,,,,,,641.814,647.098,"[8,7,5,4,2,1,6,3]","[[-0.3,0.2],[0.3,0.2]]","[[-0.125,-0.2],[0.125,-0.2]]",-0.127777778,-0.198148148,1,0,0,4.784,o1_image,647.098,1,647.597,647.598,649.597,0,0,0,0,1,,,,,,,,,,,,,,,,,,,,,,,,,,,,,,,,,,,,,,,,,,,,,,,,,,
,,642ca0829254c73fda107d25,38,female,2024-04-19_18h37.19.049,stockport_simplified,2022.2.4,Win32,59.95203837,661e456ee6de07e70aa9ef7b,66229da137609569465d8f98,,,,,,,,,,,,,,,,,,,,,,,,,,,,,,,,,,,,,,,,,,,,,,,,,,,,,,,,1,10,70,6,1,A,Y,N,o1_image,stimuli/out1.png,stimuli/correct_out1.png,stimuli/out2.png,,,,,,,,,,,,,,,,,,,,,,,,,,,,,,,,,,,,,,
,,642ca0829254c73fda107d25,38,female,2024-04-19_18h37.19.049,stockport_simplified,2022.2.4,Win32,59.95203837,661e456ee6de07e70aa9ef7b,66229da137609569465d8f98,,,,,,,,,,,,,,,,,,,,,,,,,,,,,,,,,,649.597,652.015,"[8,7,5,4,2,1,6,3]","[[0.3,0.2],[-0.3,0.2]]","[[0.125,-0.2],[-0.125,-0.2]]",0.165740741,-0.228703704,1,0,0,1.916,o1_image,652.016,1,652.514,652.514,654.514,0,0,0,0,1,,,,,,,,,,,,,,,,,,,,,,,,,,,,,,,,,,,,,,,,,,,,,,,,,,
,,642ca0829254c73fda107d25,38,female,2024-04-19_18h37.19.049,stockport_simplified,2022.2.4,Win32,59.95203837,661e456ee6de07e70aa9ef7b,66229da137609569465d8f98,,,,,,,,,,,,,,,,,,,,,,,,,,,,,,,,,,,,,,,,,,,,,,,,,,,,,,,,1,11,71,3,1,A,X,N,o1_image,stimuli/out1.png,stimuli/correct_out1.png,stimuli/out2.png,,,,,,,,,,,,,,,,,,,,,,,,,,,,,,,,,,,,,,
,,642ca0829254c73fda107d25,38,female,2024-04-19_18h37.19.049,stockport_simplified,2022.2.4,Win32,59.95203837,661e456ee6de07e70aa9ef7b,66229da137609569465d8f98,,,,,,,,,,,,,,,,,,,,,,,,,,,,,,,,,,654.515,656.381,"[8,7,5,4,2,1,6,3]","[[-0.3,0.2],[0.3,0.2]]","[[0.125,-0.2],[-0.125,-0.2]]",0.132407407,-0.246296296,1,0,0,1.349,o1_image,656.382,1,656.882,656.882,658.881,0,0,0,0,1,,,,,,,,,,,,,,,,,,,,,,,,,,,,,,,,,,,,,,,,,,,,,,,,,,
,,642ca0829254c73fda107d25,38,female,2024-04-19_18h37.19.049,stockport_simplified,2022.2.4,Win32,59.95203837,661e456ee6de07e70aa9ef7b,66229da137609569465d8f98,,,,,,,,,,,,,,,,,,,,,,,,,,,,,,,,,,,,,,,,,,,,,,,,,,,,,,,,1,12,72,22,1,N,M,C,o1_image,stimuli/out1.png,stimuli/correct_out1.png,stimuli/out2.png,,,,,,,,,,,,,,,,,,,,,,,,,,,,,,,,,,,,,,
,,642ca0829254c73fda107d25,38,female,2024-04-19_18h37.19.049,stockport_simplified,2022.2.4,Win32,59.95203837,661e456ee6de07e70aa9ef7b,66229da137609569465d8f98,,,,,,,,,,,,,,,,,,,,,,,,,,,,,,,,,,658.882,660.548,"[8,7,5,4,2,1,6,3]","[[0.3,0.2],[-0.3,0.2]]","[[0.125,-0.2],[-0.125,-0.2]]",-0.1,-0.191666667,1,0,0,1.166,o2_image,660.548,1,661.048,661.048,663.048,0,0,0,0,1,,,,,,,,,,,,,,,,,,,,,,,,,,,,,,,,,,,,,,,,,,,,,,,,,,
,,642ca0829254c73fda107d25,38,female,2024-04-19_18h37.19.049,stockport_simplified,2022.2.4,Win32,59.95203837,661e456ee6de07e70aa9ef7b,66229da137609569465d8f98,,,,,,,,,,,,,,,,,,,,,,,,,,,,,,,,,,,,,,,,,,,,,,,,,,,,,,,,1,13,73,58,1,N,M,D,o2_image,stimuli/out2.png,stimuli/out1.png,stimuli/correct_out2.png,,,,,,,,,,,,,,,,,,,,,,,,,,,,,,,,,,,,,,
,,642ca0829254c73fda107d25,38,female,2024-04-19_18h37.19.049,stockport_simplified,2022.2.4,Win32,59.95203837,661e456ee6de07e70aa9ef7b,66229da137609569465d8f98,,,,,,,,,,,,,,,,,,,,,,,,,,,,,,,,,,663.048,667.015,"[8,7,5,4,2,1,6,3]","[[-0.3,0.2],[0.3,0.2]]","[[0.125,-0.2],[-0.125,-0.2]]",0.165740741,-0.226851852,1,0,0,3.467,o1_image,667.016,1,667.515,667.515,669.515,0,0,0,0,1,,,,,,,,,,,,,,,,,,,,,,,,,,,,,,,,,,,,,,,,,,,,,,,,,,
,,642ca0829254c73fda107d25,38,female,2024-04-19_18h37.19.049,stockport_simplified,2022.2.4,Win32,59.95203837,661e456ee6de07e70aa9ef7b,66229da137609569465d8f98,,,,,,,,,,,,,,,,,,,,,,,,,,,,,,,,,,,,,,,,,,,,,,,,,,,,,,,,1,14,74,8,1,A,Y,N,o1_image,stimuli/out1.png,stimuli/correct_out1.png,stimuli/out2.png,,,,,,,,,,,,,,,,,,,,,,,,,,,,,,,,,,,,,,
,,642ca0829254c73fda107d25,38,female,2024-04-19_18h37.19.049,stockport_simplified,2022.2.4,Win32,59.95203837,661e456ee6de07e70aa9ef7b,66229da137609569465d8f98,,,,,,,,,,,,,,,,,,,,,,,,,,,,,,,,,,669.515,672.382,"[8,7,5,4,2,1,6,3]","[[0.3,0.2],[-0.3,0.2]]","[[0.125,-0.2],[-0.125,-0.2]]",-0.12037037,-0.176851852,1,0,0,2.367,o2_image,672.382,1,672.882,672.882,674.882,0,0,0,0,1,,,,,,,,,,,,,,,,,,,,,,,,,,,,,,,,,,,,,,,,,,,,,,,,,,
,,642ca0829254c73fda107d25,38,female,2024-04-19_18h37.19.049,stockport_simplified,2022.2.4,Win32,59.95203837,661e456ee6de07e70aa9ef7b,66229da137609569465d8f98,,,,,,,,,,,,,,,,,,,,,,,,,,,,,,,,,,,,,,,,,,,,,,,,,,,,,,,,1,15,75,49,1,B,Y,N,o2_image,stimuli/out2.png,stimuli/out1.png,stimuli/correct_out2.png,,,,,,,,,,,,,,,,,,,,,,,,,,,,,,,,,,,,,,
,,642ca0829254c73fda107d25,38,female,2024-04-19_18h37.19.049,stockport_simplified,2022.2.4,Win32,59.95203837,661e456ee6de07e70aa9ef7b,66229da137609569465d8f98,,,,,,,,,,,,,,,,,,,,,,,,,,,,,,,,,,674.882,679.165,"[8,7,5,4,2,1,6,3]","[[0.3,0.2],[-0.3,0.2]]","[[-0.125,-0.2],[0.125,-0.2]]",0.087037037,-0.201851852,1,0,0,3.783,o2_image,679.166,1,679.665,679.665,681.665,0,0,0,0,1,,,,,,,,,,,,,,,,,,,,,,,,,,,,,,,,,,,,,,,,,,,,,,,,,,
,,642ca0829254c73fda107d25,38,female,2024-04-19_18h37.19.049,stockport_simplified,2022.2.4,Win32,59.95203837,661e456ee6de07e70aa9ef7b,66229da137609569465d8f98,,,,,,,,,,,,,,,,,,,,,,,,,,,,,,,,,,,,,,,,,,,,,,,,,,,,,,,,1,16,76,10,1,B,X,N,o2_image,stimuli/out2.png,stimuli/out1.png,stimuli/correct_out2.png,,,,,,,,,,,,,,,,,,,,,,,,,,,,,,,,,,,,,,
,,642ca0829254c73fda107d25,38,female,2024-04-19_18h37.19.049,stockport_simplified,2022.2.4,Win32,59.95203837,661e456ee6de07e70aa9ef7b,66229da137609569465d8f98,,,,,,,,,,,,,,,,,,,,,,,,,,,,,,,,,,681.665,684.849,"[8,7,5,4,2,1,6,3]","[[0.3,0.2],[-0.3,0.2]]","[[0.125,-0.2],[-0.125,-0.2]]",-0.126851852,-0.192592593,1,0,0,2.683,o2_image,684.851,1,685.348,685.348,687.348,0,0,0,0,1,,,,,,,,,,,,,,,,,,,,,,,,,,,,,,,,,,,,,,,,,,,,,,,,,,
,,642ca0829254c73fda107d25,38,female,2024-04-19_18h37.19.049,stockport_simplified,2022.2.4,Win32,59.95203837,661e456ee6de07e70aa9ef7b,66229da137609569465d8f98,,,,,,,,,,,,,,,,,,,,,,,,,,,,,,,,,,,,,,,,,,,,,,,,,,,,,,,,1,17,77,16,1,B,Y,N,o2_image,stimuli/out2.png,stimuli/out1.png,stimuli/correct_out2.png,,,,,,,,,,,,,,,,,,,,,,,,,,,,,,,,,,,,,,
,,642ca0829254c73fda107d25,38,female,2024-04-19_18h37.19.049,stockport_simplified,2022.2.4,Win32,59.95203837,661e456ee6de07e70aa9ef7b,66229da137609569465d8f98,,,,,,,,,,,,,,,,,,,,,,,,,,,,,,,,,,687.349,689.533,"[8,7,5,4,2,1,6,3]","[[0.3,0.2],[-0.3,0.2]]","[[-0.125,-0.2],[0.125,-0.2]]",0.080555556,-0.224074074,1,0,0,1.683,o2_image,689.533,1,690.032,690.032,692.032,0,0,0,0,1,,,,,,,,,,,,,,,,,,,,,,,,,,,,,,,,,,,,,,,,,,,,,,,,,,
,,642ca0829254c73fda107d25,38,female,2024-04-19_18h37.19.049,stockport_simplified,2022.2.4,Win32,59.95203837,661e456ee6de07e70aa9ef7b,66229da137609569465d8f98,,,,,,,,,,,,,,,,,,,,,,,,,,,,,,,,,,,,,,,,,,,,,,,,,,,,,,,,1,18,78,57,1,N,M,D,o2_image,stimuli/out2.png,stimuli/out1.png,stimuli/correct_out2.png,,,,,,,,,,,,,,,,,,,,,,,,,,,,,,,,,,,,,,
,,642ca0829254c73fda107d25,38,female,2024-04-19_18h37.19.049,stockport_simplified,2022.2.4,Win32,59.95203837,661e456ee6de07e70aa9ef7b,66229da137609569465d8f98,,,,,,,,,,,,,,,,,,,,,,,,,,,,,,,,,,692.033,694.149,"[8,7,5,4,2,1,6,3]","[[-0.3,0.2],[0.3,0.2]]","[[0.125,-0.2],[-0.125,-0.2]]",-0.102777778,-0.201851852,1,0,0,1.616,o2_image,694.149,1,694.649,694.649,696.649,0,0,0,0,1,,,,,,,,,,,,,,,,,,,,,,,,,,,,,,,,,,,,,,,,,,,,,,,,,,
,,642ca0829254c73fda107d25,38,female,2024-04-19_18h37.19.049,stockport_simplified,2022.2.4,Win32,59.95203837,661e456ee6de07e70aa9ef7b,66229da137609569465d8f98,,,,,,,,,,,,,,,,,,,,,,,,,,,,,,,,,,,,,,,,,,,,,,,,,,,,,,,,1,19,79,55,1,N,M,D,o2_image,stimuli/out2.png,stimuli/out1.png,stimuli/correct_out2.png,,,,,,,,,,,,,,,,,,,,,,,,,,,,,,,,,,,,,,
,,642ca0829254c73fda107d25,38,female,2024-04-19_18h37.19.049,stockport_simplified,2022.2.4,Win32,59.95203837,661e456ee6de07e70aa9ef7b,66229da137609569465d8f98,,,,,,,,,,,,,,,,,,,,,,,,,,,,,,,,,,696.649,700.382,"[8,7,5,4,2,1,6,3]","[[-0.3,0.2],[0.3,0.2]]","[[-0.125,-0.2],[0.125,-0.2]]",-0.099074074,-0.212962963,1,0,0,3.232,o1_image,700.383,1,700.882,700.882,702.882,0,0,0,0,1,,,,,,,,,,,,,,,,,,,,,,,,,,,,,,,,,,,,,,,,,,,,,,,,,,
,,642ca0829254c73fda107d25,38,female,2024-04-19_18h37.19.049,stockport_simplified,2022.2.4,Win32,59.95203837,661e456ee6de07e70aa9ef7b,66229da137609569465d8f98,,,,,,,,,,,,,,,,,,,,,,,,,,,,,,,,,,,,,,,,,,,,,,,,,,,,,,,,1,20,80,39,1,A,Y,N,o1_image,stimuli/out1.png,stimuli/correct_out1.png,stimuli/out2.png,,,,,,,,,,,,,,,,,,,,,,,,,,,,,,,,,,,,,,
,,642ca0829254c73fda107d25,38,female,2024-04-19_18h37.19.049,stockport_simplified,2022.2.4,Win32,59.95203837,661e456ee6de07e70aa9ef7b,66229da137609569465d8f98,,,,,,,,,,,,,,,,,,,,,,,,,,,,,,,,,,702.883,705.282,"[8,7,5,4,2,1,6,3]","[[0.3,0.2],[-0.3,0.2]]","[[-0.125,-0.2],[0.125,-0.2]]",0.110185185,-0.212037037,1,0,0,1.899,o2_image,705.283,1,705.783,705.783,707.783,0,0,0,0,1,,,,,,,,,,,,,,,,,,,,,,,,,,,,,,,,,,,,,,,,,,,,,,,,,,
,,642ca0829254c73fda107d25,38,female,2024-04-19_18h37.19.049,stockport_simplified,2022.2.4,Win32,59.95203837,661e456ee6de07e70aa9ef7b,66229da137609569465d8f98,,,,,,,,,,,,,,,,,,,,,,,,,,,,,,,,,,,,,,,,,,,,,,,,,,,,,,,,1,21,81,14,1,B,X,N,o2_image,stimuli/out2.png,stimuli/out1.png,stimuli/correct_out2.png,,,,,,,,,,,,,,,,,,,,,,,,,,,,,,,,,,,,,,
,,642ca0829254c73fda107d25,38,female,2024-04-19_18h37.19.049,stockport_simplified,2022.2.4,Win32,59.95203837,661e456ee6de07e70aa9ef7b,66229da137609569465d8f98,,,,,,,,,,,,,,,,,,,,,,,,,,,,,,,,,,707.783,709.799,"[8,7,5,4,2,1,6,3]","[[0.3,0.2],[-0.3,0.2]]","[[-0.125,-0.2],[0.125,-0.2]]",0.094444444,-0.219444444,1,0,0,1.516,o2_image,709.8,1,710.299,710.299,712.3,0,0,0,0,1,,,,,,,,,,,,,,,,,,,,,,,,,,,,,,,,,,,,,,,,,,,,,,,,,,
,,642ca0829254c73fda107d25,38,female,2024-04-19_18h37.19.049,stockport_simplified,2022.2.4,Win32,59.95203837,661e456ee6de07e70aa9ef7b,66229da137609569465d8f98,,,,,,,,,,,,,,,,,,,,,,,,,,,,,,,,,,,,,,,,,,,,,,,,,,,,,,,,1,22,82,41,1,B,X,N,o2_image,stimuli/out2.png,stimuli/out1.png,stimuli/correct_out2.png,,,,,,,,,,,,,,,,,,,,,,,,,,,,,,,,,,,,,,
,,642ca0829254c73fda107d25,38,female,2024-04-19_18h37.19.049,stockport_simplified,2022.2.4,Win32,59.95203837,661e456ee6de07e70aa9ef7b,66229da137609569465d8f98,,,,,,,,,,,,,,,,,,,,,,,,,,,,,,,,,,712.3,716.166,"[8,7,5,4,2,1,6,3]","[[-0.3,0.2],[0.3,0.2]]","[[0.125,-0.2],[-0.125,-0.2]]",0.12037037,-0.215740741,1,0,0,3.366,o1_image,716.167,1,716.666,716.666,718.666,0,0,0,0,1,,,,,,,,,,,,,,,,,,,,,,,,,,,,,,,,,,,,,,,,,,,,,,,,,,
,,642ca0829254c73fda107d25,38,female,2024-04-19_18h37.19.049,stockport_simplified,2022.2.4,Win32,59.95203837,661e456ee6de07e70aa9ef7b,66229da137609569465d8f98,,,,,,,,,,,,,,,,,,,,,,,,,,,,,,,,,,,,,,,,,,,,,,,,,,,,,,,,1,23,83,31,1,A,X,N,o1_image,stimuli/out1.png,stimuli/correct_out1.png,stimuli/out2.png,,,,,,,,,,,,,,,,,,,,,,,,,,,,,,,,,,,,,,
,,642ca0829254c73fda107d25,38,female,2024-04-19_18h37.19.049,stockport_simplified,2022.2.4,Win32,59.95203837,661e456ee6de07e70aa9ef7b,66229da137609569465d8f98,,,,,,,,,,,,,,,,,,,,,,,,,,,,,,,,,,718.668,721.217,"[8,7,5,4,2,1,6,3]","[[0.3,0.2],[-0.3,0.2]]","[[-0.125,-0.2],[0.125,-0.2]]",-0.113888889,-0.212037037,1,0,0,2.033,o1_image,721.218,1,721.716,721.716,723.716,0,0,0,0,1,,,,,,,,,,,,,,,,,,,,,,,,,,,,,,,,,,,,,,,,,,,,,,,,,,
,,642ca0829254c73fda107d25,38,female,2024-04-19_18h37.19.049,stockport_simplified,2022.2.4,Win32,59.95203837,661e456ee6de07e70aa9ef7b,66229da137609569465d8f98,,,,,,,,,,,,,,,,,,,,,,,,,,,,,,,,,,,,,,,,,,,,,,,,,,,,,,,,1,24,84,2,1,A,X,N,o1_image,stimuli/out1.png,stimuli/correct_out1.png,stimuli/out2.png,,,,,,,,,,,,,,,,,,,,,,,,,,,,,,,,,,,,,,
,,642ca0829254c73fda107d25,38,female,2024-04-19_18h37.19.049,stockport_simplified,2022.2.4,Win32,59.95203837,661e456ee6de07e70aa9ef7b,66229da137609569465d8f98,,,,,,,,,,,,,,,,,,,,,,,,,,,,,,,,,,723.717,726.15,"[8,7,5,4,2,1,6,3]","[[-0.3,0.2],[0.3,0.2]]","[[0.125,-0.2],[-0.125,-0.2]]",0.147222222,-0.190740741,1,0,0,1.916,o1_image,726.151,1,726.65,726.65,728.65,0,0,0,0,1,,,,,,,,,,,,,,,,,,,,,,,,,,,,,,,,,,,,,,,,,,,,,,,,,,
,,642ca0829254c73fda107d25,38,female,2024-04-19_18h37.19.049,stockport_simplified,2022.2.4,Win32,59.95203837,661e456ee6de07e70aa9ef7b,66229da137609569465d8f98,,,,,,,,,,,,,,,,,,,,,,,,,,,,,,,,,,,,,,,,,,,,,,,,,,,,,,,,1,25,85,7,1,A,Y,N,o1_image,stimuli/out1.png,stimuli/correct_out1.png,stimuli/out2.png,,,,,,,,,,,,,,,,,,,,,,,,,,,,,,,,,,,,,,
,,642ca0829254c73fda107d25,38,female,2024-04-19_18h37.19.049,stockport_simplified,2022.2.4,Win32,59.95203837,661e456ee6de07e70aa9ef7b,66229da137609569465d8f98,,,,,,,,,,,,,,,,,,,,,,,,,,,,,,,,,,728.65,732.433,"[8,7,5,4,2,1,6,3]","[[0.3,0.2],[-0.3,0.2]]","[[0.125,-0.2],[-0.125,-0.2]]",-0.108333333,-0.192592593,1,0,0,3.283,o2_image,732.434,1,732.934,732.934,734.933,0,0,0,0,1,,,,,,,,,,,,,,,,,,,,,,,,,,,,,,,,,,,,,,,,,,,,,,,,,,
,,642ca0829254c73fda107d25,38,female,2024-04-19_18h37.19.049,stockport_simplified,2022.2.4,Win32,59.95203837,661e456ee6de07e70aa9ef7b,66229da137609569465d8f98,,,,,,,,,,,,,,,,,,,,,,,,,,,,,,,,,,,,,,,,,,,,,,,,,,,,,,,,1,26,86,43,1,B,X,N,o2_image,stimuli/out2.png,stimuli/out1.png,stimuli/correct_out2.png,,,,,,,,,,,,,,,,,,,,,,,,,,,,,,,,,,,,,,
,,642ca0829254c73fda107d25,38,female,2024-04-19_18h37.19.049,stockport_simplified,2022.2.4,Win32,59.95203837,661e456ee6de07e70aa9ef7b,66229da137609569465d8f98,,,,,,,,,,,,,,,,,,,,,,,,,,,,,,,,,,734.934,737.067,"[8,7,5,4,2,1,6,3]","[[-0.3,0.2],[0.3,0.2]]","[[0.125,-0.2],[-0.125,-0.2]]",-0.122222222,-0.201851852,1,0,0,1.616,o2_image,737.068,1,737.567,737.567,739.567,0,0,0,0,1,,,,,,,,,,,,,,,,,,,,,,,,,,,,,,,,,,,,,,,,,,,,,,,,,,
,,642ca0829254c73fda107d25,38,female,2024-04-19_18h37.19.049,stockport_simplified,2022.2.4,Win32,59.95203837,661e456ee6de07e70aa9ef7b,66229da137609569465d8f98,,,,,,,,,,,,,,,,,,,,,,,,,,,,,,,,,,,,,,,,,,,,,,,,,,,,,,,,1,27,87,46,1,B,Y,N,o2_image,stimuli/out2.png,stimuli/out1.png,stimuli/correct_out2.png,,,,,,,,,,,,,,,,,,,,,,,,,,,,,,,,,,,,,,
,,642ca0829254c73fda107d25,38,female,2024-04-19_18h37.19.049,stockport_simplified,2022.2.4,Win32,59.95203837,661e456ee6de07e70aa9ef7b,66229da137609569465d8f98,,,,,,,,,,,,,,,,,,,,,,,,,,,,,,,,,,739.568,742.384,"[8,7,5,4,2,1,6,3]","[[0.3,0.2],[-0.3,0.2]]","[[0.125,-0.2],[-0.125,-0.2]]",0.123148148,-0.218518519,1,0,0,2.3,o1_image,742.385,1,742.884,742.884,744.884,0,0,0,0,1,,,,,,,,,,,,,,,,,,,,,,,,,,,,,,,,,,,,,,,,,,,,,,,,,,
,,642ca0829254c73fda107d25,38,female,2024-04-19_18h37.19.049,stockport_simplified,2022.2.4,Win32,59.95203837,661e456ee6de07e70aa9ef7b,66229da137609569465d8f98,,,,,,,,,,,,,,,,,,,,,,,,,,,,,,,,,,,,,,,,,,,,,,,,,,,,,,,,1,28,88,4,1,A,X,N,o1_image,stimuli/out1.png,stimuli/correct_out1.png,stimuli/out2.png,,,,,,,,,,,,,,,,,,,,,,,,,,,,,,,,,,,,,,
,,642ca0829254c73fda107d25,38,female,2024-04-19_18h37.19.049,stockport_simplified,2022.2.4,Win32,59.95203837,661e456ee6de07e70aa9ef7b,66229da137609569465d8f98,,,,,,,,,,,,,,,,,,,,,,,,,,,,,,,,,,744.884,748.018,"[8,7,5,4,2,1,6,3]","[[-0.3,0.2],[0.3,0.2]]","[[0.125,-0.2],[-0.125,-0.2]]",-0.159259259,-0.201851852,1,0,0,2.634,o2_image,748.018,1,748.517,748.517,750.518,0,0,0,0,1,,,,,,,,,,,,,,,,,,,,,,,,,,,,,,,,,,,,,,,,,,,,,,,,,,
,,642ca0829254c73fda107d25,38,female,2024-04-19_18h37.19.049,stockport_simplified,2022.2.4,Win32,59.95203837,661e456ee6de07e70aa9ef7b,66229da137609569465d8f98,,,,,,,,,,,,,,,,,,,,,,,,,,,,,,,,,,,,,,,,,,,,,,,,,,,,,,,,1,29,89,40,1,B,X,N,o2_image,stimuli/out2.png,stimuli/out1.png,stimuli/correct_out2.png,,,,,,,,,,,,,,,,,,,,,,,,,,,,,,,,,,,,,,
,,642ca0829254c73fda107d25,38,female,2024-04-19_18h37.19.049,stockport_simplified,2022.2.4,Win32,59.95203837,661e456ee6de07e70aa9ef7b,66229da137609569465d8f98,,,,,,,,,,,,,,,,,,,,,,,,,,,,,,,,,,750.519,752.701,"[8,7,5,4,2,1,6,3]","[[0.3,0.2],[-0.3,0.2]]","[[0.125,-0.2],[-0.125,-0.2]]",-0.135185185,-0.214814815,1,0,0,1.666,o2_image,752.702,0,753.201,753.201,755.201,0,0,0,0,1,,,,,,,,,,,,,,,,,,,,,,,,,,,,,,,,,,,,,,,,,,,,,,,,,,
,,642ca0829254c73fda107d25,38,female,2024-04-19_18h37.19.049,stockport_simplified,2022.2.4,Win32,59.95203837,661e456ee6de07e70aa9ef7b,66229da137609569465d8f98,,,,,,,,,,,,,,,,,,,,,,,,,,,,,,,,,,,,,,,,,,,,,,,,,,,,,,,,1,30,90,0,1,A,X,N,o1_image,stimuli/out1.png,stimuli/correct_out1.png,stimuli/out2.png,,,,,,,,,,,,,,,,,,,,,,,,,,,,,,,,,,,,,,
,,642ca0829254c73fda107d25,38,female,2024-04-19_18h37.19.049,stockport_simplified,2022.2.4,Win32,59.95203837,661e456ee6de07e70aa9ef7b,66229da137609569465d8f98,,,,,,,,,,,,,,,,,,,,,,,,,,,,,,,,,,755.201,757.767,"[8,7,5,4,2,1,6,3]","[[-0.3,0.2],[0.3,0.2]]","[[-0.125,-0.2],[0.125,-0.2]]",0.136111111,-0.201851852,1,0,0,2.065,o2_image,757.768,1,758.268,758.268,760.268,0,0,0,0,1,,,,,,,,,,,,,,,,,,,,,,,,,,,,,,,,,,,,,,,,,,,,,,,,,,
,,642ca0829254c73fda107d25,38,female,2024-04-19_18h37.19.049,stockport_simplified,2022.2.4,Win32,59.95203837,661e456ee6de07e70aa9ef7b,66229da137609569465d8f98,,,,,,,,,,,,,,,,,,,,,,,,,,,,,,,,,,,,,,,,,,,,,,,,,,,,,,,,1,31,91,48,1,B,Y,N,o2_image,stimuli/out2.png,stimuli/out1.png,stimuli/correct_out2.png,,,,,,,,,,,,,,,,,,,,,,,,,,,,,,,,,,,,,,
,,642ca0829254c73fda107d25,38,female,2024-04-19_18h37.19.049,stockport_simplified,2022.2.4,Win32,59.95203837,661e456ee6de07e70aa9ef7b,66229da137609569465d8f98,,,,,,,,,,,,,,,,,,,,,,,,,,,,,,,,,,760.268,762.035,"[8,7,5,4,2,1,6,3]","[[-0.3,0.2],[0.3,0.2]]","[[-0.125,-0.2],[0.125,-0.2]]",0.133333333,-0.197222222,1,0,0,1.267,o2_image,762.035,1,762.534,762.534,764.534,0,0,0,0,1,,,,,,,,,,,,,,,,,,,,,,,,,,,,,,,,,,,,,,,,,,,,,,,,,,
,,642ca0829254c73fda107d25,38,female,2024-04-19_18h37.19.049,stockport_simplified,2022.2.4,Win32,59.95203837,661e456ee6de07e70aa9ef7b,66229da137609569465d8f98,,,,,,,,,,,,,,,,,,,,,,,,,,,,,,,,,,,,,,,,,,,,,,,,,,,,,,,,1,32,92,27,1,N,M,D,o2_image,stimuli/out2.png,stimuli/out1.png,stimuli/correct_out2.png,,,,,,,,,,,,,,,,,,,,,,,,,,,,,,,,,,,,,,
,,642ca0829254c73fda107d25,38,female,2024-04-19_18h37.19.049,stockport_simplified,2022.2.4,Win32,59.95203837,661e456ee6de07e70aa9ef7b,66229da137609569465d8f98,,,,,,,,,,,,,,,,,,,,,,,,,,,,,,,,,,764.535,765.885,"[8,7,5,4,2,1,6,3]","[[0.3,0.2],[-0.3,0.2]]","[[-0.125,-0.2],[0.125,-0.2]]",0.12037037,-0.228703704,1,0,0,0.85,o2_image,765.886,1,766.385,766.385,768.384,0,0,0,0,1,,,,,,,,,,,,,,,,,,,,,,,,,,,,,,,,,,,,,,,,,,,,,,,,,,
,,642ca0829254c73fda107d25,38,female,2024-04-19_18h37.19.049,stockport_simplified,2022.2.4,Win32,59.95203837,661e456ee6de07e70aa9ef7b,66229da137609569465d8f98,,,,,,,,,,,,,,,,,,,,,,,,,,,,,,,,,,,,,,,,,,,,,,,,,,,,,,,,1,33,93,26,1,N,M,D,o2_image,stimuli/out2.png,stimuli/out1.png,stimuli/correct_out2.png,,,,,,,,,,,,,,,,,,,,,,,,,,,,,,,,,,,,,,
,,642ca0829254c73fda107d25,38,female,2024-04-19_18h37.19.049,stockport_simplified,2022.2.4,Win32,59.95203837,661e456ee6de07e70aa9ef7b,66229da137609569465d8f98,,,,,,,,,,,,,,,,,,,,,,,,,,,,,,,,,,768.385,770.469,"[8,7,5,4,2,1,6,3]","[[0.3,0.2],[-0.3,0.2]]","[[0.125,-0.2],[-0.125,-0.2]]",-0.132407407,-0.174074074,1,0,0,1.567,o2_image,770.469,1,770.968,770.968,772.968,0,0,0,0,1,,,,,,,,,,,,,,,,,,,,,,,,,,,,,,,,,,,,,,,,,,,,,,,,,,
,,642ca0829254c73fda107d25,38,female,2024-04-19_18h37.19.049,stockport_simplified,2022.2.4,Win32,59.95203837,661e456ee6de07e70aa9ef7b,66229da137609569465d8f98,,,,,,,,,,,,,,,,,,,,,,,,,,,,,,,,,,,,,,,,,,,,,,,,,,,,,,,,1,34,94,29,1,N,M,D,o2_image,stimuli/out2.png,stimuli/out1.png,stimuli/correct_out2.png,,,,,,,,,,,,,,,,,,,,,,,,,,,,,,,,,,,,,,
,,642ca0829254c73fda107d25,38,female,2024-04-19_18h37.19.049,stockport_simplified,2022.2.4,Win32,59.95203837,661e456ee6de07e70aa9ef7b,66229da137609569465d8f98,,,,,,,,,,,,,,,,,,,,,,,,,,,,,,,,,,772.968,776.285,"[8,7,5,4,2,1,6,3]","[[0.3,0.2],[-0.3,0.2]]","[[-0.125,-0.2],[0.125,-0.2]]",-0.103703704,-0.213888889,1,0,0,2.816,o1_image,776.286,1,776.785,776.785,778.785,0,0,0,0,1,,,,,,,,,,,,,,,,,,,,,,,,,,,,,,,,,,,,,,,,,,,,,,,,,,
,,642ca0829254c73fda107d25,38,female,2024-04-19_18h37.19.049,stockport_simplified,2022.2.4,Win32,59.95203837,661e456ee6de07e70aa9ef7b,66229da137609569465d8f98,,,,,,,,,,,,,,,,,,,,,,,,,,,,,,,,,,,,,,,,,,,,,,,,,,,,,,,,1,35,95,37,1,A,Y,N,o1_image,stimuli/out1.png,stimuli/correct_out1.png,stimuli/out2.png,,,,,,,,,,,,,,,,,,,,,,,,,,,,,,,,,,,,,,
,,642ca0829254c73fda107d25,38,female,2024-04-19_18h37.19.049,stockport_simplified,2022.2.4,Win32,59.95203837,661e456ee6de07e70aa9ef7b,66229da137609569465d8f98,,,,,,,,,,,,,,,,,,,,,,,,,,,,,,,,,,778.785,781.369,"[8,7,5,4,2,1,6,3]","[[-0.3,0.2],[0.3,0.2]]","[[-0.125,-0.2],[0.125,-0.2]]",0.127777778,-0.202777778,1,0,0,2.083,o2_image,781.369,1,781.869,781.869,783.868,0,0,0,0,1,,,,,,,,,,,,,,,,,,,,,,,,,,,,,,,,,,,,,,,,,,,,,,,,,,
,,642ca0829254c73fda107d25,38,female,2024-04-19_18h37.19.049,stockport_simplified,2022.2.4,Win32,59.95203837,661e456ee6de07e70aa9ef7b,66229da137609569465d8f98,,,,,,,,,,,,,,,,,,,,,,,,,,,,,,,,,,,,,,,,,,,,,,,,,,,,,,,,1,36,96,13,1,B,X,N,o2_image,stimuli/out2.png,stimuli/out1.png,stimuli/correct_out2.png,,,,,,,,,,,,,,,,,,,,,,,,,,,,,,,,,,,,,,
,,642ca0829254c73fda107d25,38,female,2024-04-19_18h37.19.049,stockport_simplified,2022.2.4,Win32,59.95203837,661e456ee6de07e70aa9ef7b,66229da137609569465d8f98,,,,,,,,,,,,,,,,,,,,,,,,,,,,,,,,,,783.869,785.652,"[8,7,5,4,2,1,6,3]","[[0.3,0.2],[-0.3,0.2]]","[[-0.125,-0.2],[0.125,-0.2]]",-0.166666667,-0.193518519,1,0,0,1.282,o1_image,785.654,1,786.153,786.153,788.152,0,0,0,0,1,,,,,,,,,,,,,,,,,,,,,,,,,,,,,,,,,,,,,,,,,,,,,,,,,,
,,642ca0829254c73fda107d25,38,female,2024-04-19_18h37.19.049,stockport_simplified,2022.2.4,Win32,59.95203837,661e456ee6de07e70aa9ef7b,66229da137609569465d8f98,,,,,,,,,,,,,,,,,,,,,,,,,,,,,,,,,,,,,,,,,,,,,,,,,,,,,,,,1,37,97,52,1,N,M,C,o1_image,stimuli/out1.png,stimuli/correct_out1.png,stimuli/out2.png,,,,,,,,,,,,,,,,,,,,,,,,,,,,,,,,,,,,,,
,,642ca0829254c73fda107d25,38,female,2024-04-19_18h37.19.049,stockport_simplified,2022.2.4,Win32,59.95203837,661e456ee6de07e70aa9ef7b,66229da137609569465d8f98,,,,,,,,,,,,,,,,,,,,,,,,,,,,,,,,,,788.153,791.453,"[8,7,5,4,2,1,6,3]","[[-0.3,0.2],[0.3,0.2]]","[[-0.125,-0.2],[0.125,-0.2]]",-0.126851852,-0.206481481,1,0,0,2.783,o1_image,791.453,1,791.953,791.953,793.953,0,0,0,0,1,,,,,,,,,,,,,,,,,,,,,,,,,,,,,,,,,,,,,,,,,,,,,,,,,,
,,642ca0829254c73fda107d25,38,female,2024-04-19_18h37.19.049,stockport_simplified,2022.2.4,Win32,59.95203837,661e456ee6de07e70aa9ef7b,66229da137609569465d8f98,,,,,,,,,,,,,,,,,,,,,,,,,,,,,,,,,,,,,,,,,,,,,,,,,,,,,,,,1,38,98,35,1,A,Y,N,o1_image,stimuli/out1.png,stimuli/correct_out1.png,stimuli/out2.png,,,,,,,,,,,,,,,,,,,,,,,,,,,,,,,,,,,,,,
,,642ca0829254c73fda107d25,38,female,2024-04-19_18h37.19.049,stockport_simplified,2022.2.4,Win32,59.95203837,661e456ee6de07e70aa9ef7b,66229da137609569465d8f98,,,,,,,,,,,,,,,,,,,,,,,,,,,,,,,,,,793.953,796.419,"[8,7,5,4,2,1,6,3]","[[-0.3,0.2],[0.3,0.2]]","[[-0.125,-0.2],[0.125,-0.2]]",0.15,-0.186111111,1,0,0,1.966,o2_image,796.42,1,796.919,796.919,798.92,0,0,0,0,1,,,,,,,,,,,,,,,,,,,,,,,,,,,,,,,,,,,,,,,,,,,,,,,,,,
,,642ca0829254c73fda107d25,38,female,2024-04-19_18h37.19.049,stockport_simplified,2022.2.4,Win32,59.95203837,661e456ee6de07e70aa9ef7b,66229da137609569465d8f98,,,,,,,,,,,,,,,,,,,,,,,,,,,,,,,,,,,,,,,,,,,,,,,,,,,,,,,,1,39,99,42,1,B,X,N,o2_image,stimuli/out2.png,stimuli/out1.png,stimuli/correct_out2.png,,,,,,,,,,,,,,,,,,,,,,,,,,,,,,,,,,,,,,
,,642ca0829254c73fda107d25,38,female,2024-04-19_18h37.19.049,stockport_simplified,2022.2.4,Win32,59.95203837,661e456ee6de07e70aa9ef7b,66229da137609569465d8f98,,,,,,,,,,,,,,,,,,,,,,,,,,,,,,,,,,798.92,800.736,"[8,7,5,4,2,1,6,3]","[[0.3,0.2],[-0.3,0.2]]","[[-0.125,-0.2],[0.125,-0.2]]",-0.09537037,-0.20462963,1,0,0,1.316,o1_image,800.737,1,801.236,801.236,803.236,0,0,0,0,1,,,,,,,,,,,,,,,,,,,,,,,,,,,,,,,,,,,,,,,,,,,,,,,,,,
,,642ca0829254c73fda107d25,38,female,2024-04-19_18h37.19.049,stockport_simplified,2022.2.4,Win32,59.95203837,661e456ee6de07e70aa9ef7b,66229da137609569465d8f98,,,,,,,,,,,,,,,,,,,,,,,,,,,,,,,,,,,,,,,,,,,,,,,,,,,,,,,,1,40,100,24,1,N,M,C,o1_image,stimuli/out1.png,stimuli/correct_out1.png,stimuli/out2.png,,,,,,,,,,,,,,,,,,,,,,,,,,,,,,,,,,,,,,
,,642ca0829254c73fda107d25,38,female,2024-04-19_18h37.19.049,stockport_simplified,2022.2.4,Win32,59.95203837,661e456ee6de07e70aa9ef7b,66229da137609569465d8f98,,,,,,,,,,,,,,,,,,,,,,,,,,,,,,,,,,803.237,805.736,"[8,7,5,4,2,1,6,3]","[[0.3,0.2],[-0.3,0.2]]","[[0.125,-0.2],[-0.125,-0.2]]",-0.109259259,-0.205555556,1,0,0,1.983,o2_image,805.737,1,806.236,806.236,808.236,0,0,0,0,1,,,,,,,,,,,,,,,,,,,,,,,,,,,,,,,,,,,,,,,,,,,,,,,,,,
,,642ca0829254c73fda107d25,38,female,2024-04-19_18h37.19.049,stockport_simplified,2022.2.4,Win32,59.95203837,661e456ee6de07e70aa9ef7b,66229da137609569465d8f98,,,,,,,,,,,,,,,,,,,,,,,,,,,,,,,,,,,,,,,,,,,,,,,,,,,,,,,,1,41,101,18,1,B,Y,N,o2_image,stimuli/out2.png,stimuli/out1.png,stimuli/correct_out2.png,,,,,,,,,,,,,,,,,,,,,,,,,,,,,,,,,,,,,,
,,642ca0829254c73fda107d25,38,female,2024-04-19_18h37.19.049,stockport_simplified,2022.2.4,Win32,59.95203837,661e456ee6de07e70aa9ef7b,66229da137609569465d8f98,,,,,,,,,,,,,,,,,,,,,,,,,,,,,,,,,,808.237,810.336,"[8,7,5,4,2,1,6,3]","[[0.3,0.2],[-0.3,0.2]]","[[0.125,-0.2],[-0.125,-0.2]]",0.12037037,-0.212962963,1,0,0,1.583,o1_image,810.337,1,810.836,810.836,812.837,0,0,0,0,1,,,,,,,,,,,,,,,,,,,,,,,,,,,,,,,,,,,,,,,,,,,,,,,,,,
,,642ca0829254c73fda107d25,38,female,2024-04-19_18h37.19.049,stockport_simplified,2022.2.4,Win32,59.95203837,661e456ee6de07e70aa9ef7b,66229da137609569465d8f98,,,,,,,,,,,,,,,,,,,,,,,,,,,,,,,,,,,,,,,,,,,,,,,,,,,,,,,,1,42,102,53,1,N,M,C,o1_image,stimuli/out1.png,stimuli/correct_out1.png,stimuli/out2.png,,,,,,,,,,,,,,,,,,,,,,,,,,,,,,,,,,,,,,
,,642ca0829254c73fda107d25,38,female,2024-04-19_18h37.19.049,stockport_simplified,2022.2.4,Win32,59.95203837,661e456ee6de07e70aa9ef7b,66229da137609569465d8f98,,,,,,,,,,,,,,,,,,,,,,,,,,,,,,,,,,812.837,816.303,"[8,7,5,4,2,1,6,3]","[[-0.3,0.2],[0.3,0.2]]","[[-0.125,-0.2],[0.125,-0.2]]",-0.116666667,-0.221296296,1,0,0,2.949,o1_image,816.303,1,816.803,816.803,818.803,0,0,0,0,1,,,,,,,,,,,,,,,,,,,,,,,,,,,,,,,,,,,,,,,,,,,,,,,,,,
,,642ca0829254c73fda107d25,38,female,2024-04-19_18h37.19.049,stockport_simplified,2022.2.4,Win32,59.95203837,661e456ee6de07e70aa9ef7b,66229da137609569465d8f98,,,,,,,,,,,,,,,,,,,,,,,,,,,,,,,,,,,,,,,,,,,,,,,,,,,,,,,,1,43,103,1,1,A,X,N,o1_image,stimuli/out1.png,stimuli/correct_out1.png,stimuli/out2.png,,,,,,,,,,,,,,,,,,,,,,,,,,,,,,,,,,,,,,
,,642ca0829254c73fda107d25,38,female,2024-04-19_18h37.19.049,stockport_simplified,2022.2.4,Win32,59.95203837,661e456ee6de07e70aa9ef7b,66229da137609569465d8f98,,,,,,,,,,,,,,,,,,,,,,,,,,,,,,,,,,818.804,821.537,"[8,7,5,4,2,1,6,3]","[[-0.3,0.2],[0.3,0.2]]","[[0.125,-0.2],[-0.125,-0.2]]",-0.130555556,-0.187037037,1,0,0,2.216,o2_image,821.538,1,822.037,822.037,824.037,0,0,0,0,1,,,,,,,,,,,,,,,,,,,,,,,,,,,,,,,,,,,,,,,,,,,,,,,,,,
,,642ca0829254c73fda107d25,38,female,2024-04-19_18h37.19.049,stockport_simplified,2022.2.4,Win32,59.95203837,661e456ee6de07e70aa9ef7b,66229da137609569465d8f98,,,,,,,,,,,,,,,,,,,,,,,,,,,,,,,,,,,,,,,,,,,,,,,,,,,,,,,,1,44,104,15,1,B,Y,N,o2_image,stimuli/out2.png,stimuli/out1.png,stimuli/correct_out2.png,,,,,,,,,,,,,,,,,,,,,,,,,,,,,,,,,,,,,,
,,642ca0829254c73fda107d25,38,female,2024-04-19_18h37.19.049,stockport_simplified,2022.2.4,Win32,59.95203837,661e456ee6de07e70aa9ef7b,66229da137609569465d8f98,,,,,,,,,,,,,,,,,,,,,,,,,,,,,,,,,,824.037,825.97,"[8,7,5,4,2,1,6,3]","[[-0.3,0.2],[0.3,0.2]]","[[0.125,-0.2],[-0.125,-0.2]]",-0.15462963,-0.187037037,1,0,0,1.415,o2_image,825.97,1,826.47,826.47,828.471,0,0,0,0,1,,,,,,,,,,,,,,,,,,,,,,,,,,,,,,,,,,,,,,,,,,,,,,,,,,
,,642ca0829254c73fda107d25,38,female,2024-04-19_18h37.19.049,stockport_simplified,2022.2.4,Win32,59.95203837,661e456ee6de07e70aa9ef7b,66229da137609569465d8f98,,,,,,,,,,,,,,,,,,,,,,,,,,,,,,,,,,,,,,,,,,,,,,,,,,,,,,,,1,45,105,28,1,N,M,D,o2_image,stimuli/out2.png,stimuli/out1.png,stimuli/correct_out2.png,,,,,,,,,,,,,,,,,,,,,,,,,,,,,,,,,,,,,,
,,642ca0829254c73fda107d25,38,female,2024-04-19_18h37.19.049,stockport_simplified,2022.2.4,Win32,59.95203837,661e456ee6de07e70aa9ef7b,66229da137609569465d8f98,,,,,,,,,,,,,,,,,,,,,,,,,,,,,,,,,,828.471,831.004,"[8,7,5,4,2,1,6,3]","[[-0.3,0.2],[0.3,0.2]]","[[-0.125,-0.2],[0.125,-0.2]]",-0.110185185,-0.213888889,1,0,0,2.032,o1_image,831.004,1,831.504,831.504,833.504,0,0,0,0,1,,,,,,,,,,,,,,,,,,,,,,,,,,,,,,,,,,,,,,,,,,,,,,,,,,
,,642ca0829254c73fda107d25,38,female,2024-04-19_18h37.19.049,stockport_simplified,2022.2.4,Win32,59.95203837,661e456ee6de07e70aa9ef7b,66229da137609569465d8f98,,,,,,,,,,,,,,,,,,,,,,,,,,,,,,,,,,,,,,,,,,,,,,,,,,,,,,,,1,46,106,5,1,A,Y,N,o1_image,stimuli/out1.png,stimuli/correct_out1.png,stimuli/out2.png,,,,,,,,,,,,,,,,,,,,,,,,,,,,,,,,,,,,,,
,,642ca0829254c73fda107d25,38,female,2024-04-19_18h37.19.049,stockport_simplified,2022.2.4,Win32,59.95203837,661e456ee6de07e70aa9ef7b,66229da137609569465d8f98,,,,,,,,,,,,,,,,,,,,,,,,,,,,,,,,,,833.504,835.071,"[8,7,5,4,2,1,6,3]","[[-0.3,0.2],[0.3,0.2]]","[[-0.125,-0.2],[0.125,-0.2]]",-0.122222222,-0.225925926,1,0,0,1.067,o1_image,835.071,1,835.571,835.571,837.57,0,0,0,0,1,,,,,,,,,,,,,,,,,,,,,,,,,,,,,,,,,,,,,,,,,,,,,,,,,,
,,642ca0829254c73fda107d25,38,female,2024-04-19_18h37.19.049,stockport_simplified,2022.2.4,Win32,59.95203837,661e456ee6de07e70aa9ef7b,66229da137609569465d8f98,,,,,,,,,,,,,,,,,,,,,,,,,,,,,,,,,,,,,,,,,,,,,,,,,,,,,,,,1,47,107,36,1,A,Y,N,o1_image,stimuli/out1.png,stimuli/correct_out1.png,stimuli/out2.png,,,,,,,,,,,,,,,,,,,,,,,,,,,,,,,,,,,,,,
,,642ca0829254c73fda107d25,38,female,2024-04-19_18h37.19.049,stockport_simplified,2022.2.4,Win32,59.95203837,661e456ee6de07e70aa9ef7b,66229da137609569465d8f98,,,,,,,,,,,,,,,,,,,,,,,,,,,,,,,,,,837.571,839.304,"[8,7,5,4,2,1,6,3]","[[0.3,0.2],[-0.3,0.2]]","[[-0.125,-0.2],[0.125,-0.2]]",-0.117592593,-0.22037037,1,0,0,1.216,o1_image,839.305,1,839.804,839.804,841.804,0,0,0,0,1,,,,,,,,,,,,,,,,,,,,,,,,,,,,,,,,,,,,,,,,,,,,,,,,,,
,,642ca0829254c73fda107d25,38,female,2024-04-19_18h37.19.049,stockport_simplified,2022.2.4,Win32,59.95203837,661e456ee6de07e70aa9ef7b,66229da137609569465d8f98,,,,,,,,,,,,,,,,,,,,,,,,,,,,,,,,,,,,,,,,,,,,,,,,,,,,,,,,1,48,108,21,1,N,M,C,o1_image,stimuli/out1.png,stimuli/correct_out1.png,stimuli/out2.png,,,,,,,,,,,,,,,,,,,,,,,,,,,,,,,,,,,,,,
,,642ca0829254c73fda107d25,38,female,2024-04-19_18h37.19.049,stockport_simplified,2022.2.4,Win32,59.95203837,661e456ee6de07e70aa9ef7b,66229da137609569465d8f98,,,,,,,,,,,,,,,,,,,,,,,,,,,,,,,,,,841.804,843.971,"[8,7,5,4,2,1,6,3]","[[0.3,0.2],[-0.3,0.2]]","[[-0.125,-0.2],[0.125,-0.2]]",-0.098148148,-0.230555556,1,0,0,1.667,o1_image,843.971,1,844.471,844.471,846.471,0,0,0,0,1,,,,,,,,,,,,,,,,,,,,,,,,,,,,,,,,,,,,,,,,,,,,,,,,,,
,,642ca0829254c73fda107d25,38,female,2024-04-19_18h37.19.049,stockport_simplified,2022.2.4,Win32,59.95203837,661e456ee6de07e70aa9ef7b,66229da137609569465d8f98,,,,,,,,,,,,,,,,,,,,,,,,,,,,,,,,,,,,,,,,,,,,,,,,,,,,,,,,1,49,109,51,1,N,M,C,o1_image,stimuli/out1.png,stimuli/correct_out1.png,stimuli/out2.png,,,,,,,,,,,,,,,,,,,,,,,,,,,,,,,,,,,,,,
,,642ca0829254c73fda107d25,38,female,2024-04-19_18h37.19.049,stockport_simplified,2022.2.4,Win32,59.95203837,661e456ee6de07e70aa9ef7b,66229da137609569465d8f98,,,,,,,,,,,,,,,,,,,,,,,,,,,,,,,,,,846.471,847.821,"[8,7,5,4,2,1,6,3]","[[-0.3,0.2],[0.3,0.2]]","[[-0.125,-0.2],[0.125,-0.2]]",0.135185185,-0.196296296,1,0,0,0.833,o2_image,847.822,1,848.321,848.321,850.321,0,0,0,0,1,,,,,,,,,,,,,,,,,,,,,,,,,,,,,,,,,,,,,,,,,,,,,,,,,,
,,642ca0829254c73fda107d25,38,female,2024-04-19_18h37.19.049,stockport_simplified,2022.2.4,Win32,59.95203837,661e456ee6de07e70aa9ef7b,66229da137609569465d8f98,,,,,,,,,,,,,,,,,,,,,,,,,,,,,,,,,,,,,,,,,,,,,,,,,,,,,,,,1,50,110,25,1,N,M,D,o2_image,stimuli/out2.png,stimuli/out1.png,stimuli/correct_out2.png,,,,,,,,,,,,,,,,,,,,,,,,,,,,,,,,,,,,,,
,,642ca0829254c73fda107d25,38,female,2024-04-19_18h37.19.049,stockport_simplified,2022.2.4,Win32,59.95203837,661e456ee6de07e70aa9ef7b,66229da137609569465d8f98,,,,,,,,,,,,,,,,,,,,,,,,,,,,,,,,,,850.322,852.788,"[8,7,5,4,2,1,6,3]","[[0.3,0.2],[-0.3,0.2]]","[[0.125,-0.2],[-0.125,-0.2]]",0.132407407,-0.237037037,1,0,0,1.949,o1_image,852.789,1,853.288,853.288,855.287,0,0,0,0,1,,,,,,,,,,,,,,,,,,,,,,,,,,,,,,,,,,,,,,,,,,,,,,,,,,
,,642ca0829254c73fda107d25,38,female,2024-04-19_18h37.19.049,stockport_simplified,2022.2.4,Win32,59.95203837,661e456ee6de07e70aa9ef7b,66229da137609569465d8f98,,,,,,,,,,,,,,,,,,,,,,,,,,,,,,,,,,,,,,,,,,,,,,,,,,,,,,,,1,51,111,9,1,A,Y,N,o1_image,stimuli/out1.png,stimuli/correct_out1.png,stimuli/out2.png,,,,,,,,,,,,,,,,,,,,,,,,,,,,,,,,,,,,,,
,,642ca0829254c73fda107d25,38,female,2024-04-19_18h37.19.049,stockport_simplified,2022.2.4,Win32,59.95203837,661e456ee6de07e70aa9ef7b,66229da137609569465d8f98,,,,,,,,,,,,,,,,,,,,,,,,,,,,,,,,,,855.288,857.038,"[8,7,5,4,2,1,6,3]","[[0.3,0.2],[-0.3,0.2]]","[[-0.125,-0.2],[0.125,-0.2]]",-0.163888889,-0.221296296,1,0,0,1.25,o1_image,857.038,1,857.538,857.538,859.538,0,0,0,0,1,,,,,,,,,,,,,,,,,,,,,,,,,,,,,,,,,,,,,,,,,,,,,,,,,,
,,642ca0829254c73fda107d25,38,female,2024-04-19_18h37.19.049,stockport_simplified,2022.2.4,Win32,59.95203837,661e456ee6de07e70aa9ef7b,66229da137609569465d8f98,,,,,,,,,,,,,,,,,,,,,,,,,,,,,,,,,,,,,,,,,,,,,,,,,,,,,,,,1,52,112,32,1,A,X,N,o1_image,stimuli/out1.png,stimuli/correct_out1.png,stimuli/out2.png,,,,,,,,,,,,,,,,,,,,,,,,,,,,,,,,,,,,,,
,,642ca0829254c73fda107d25,38,female,2024-04-19_18h37.19.049,stockport_simplified,2022.2.4,Win32,59.95203837,661e456ee6de07e70aa9ef7b,66229da137609569465d8f98,,,,,,,,,,,,,,,,,,,,,,,,,,,,,,,,,,859.538,862.504,"[8,7,5,4,2,1,6,3]","[[0.3,0.2],[-0.3,0.2]]","[[-0.125,-0.2],[0.125,-0.2]]",0.089814815,-0.211111111,1,0,0,2.466,o2_image,862.505,1,863.005,863.005,865.005,0,0,0,0,1,,,,,,,,,,,,,,,,,,,,,,,,,,,,,,,,,,,,,,,,,,,,,,,,,,
,,642ca0829254c73fda107d25,38,female,2024-04-19_18h37.19.049,stockport_simplified,2022.2.4,Win32,59.95203837,661e456ee6de07e70aa9ef7b,66229da137609569465d8f98,,,,,,,,,,,,,,,,,,,,,,,,,,,,,,,,,,,,,,,,,,,,,,,,,,,,,,,,1,53,113,11,1,B,X,N,o2_image,stimuli/out2.png,stimuli/out1.png,stimuli/correct_out2.png,,,,,,,,,,,,,,,,,,,,,,,,,,,,,,,,,,,,,,
,,642ca0829254c73fda107d25,38,female,2024-04-19_18h37.19.049,stockport_simplified,2022.2.4,Win32,59.95203837,661e456ee6de07e70aa9ef7b,66229da137609569465d8f98,,,,,,,,,,,,,,,,,,,,,,,,,,,,,,,,,,865.005,867.122,"[8,7,5,4,2,1,6,3]","[[-0.3,0.2],[0.3,0.2]]","[[-0.125,-0.2],[0.125,-0.2]]",0.128703704,-0.210185185,1,0,0,1.617,o2_image,867.122,1,867.622,867.622,869.622,0,0,0,0,1,,,,,,,,,,,,,,,,,,,,,,,,,,,,,,,,,,,,,,,,,,,,,,,,,,
,,642ca0829254c73fda107d25,38,female,2024-04-19_18h37.19.049,stockport_simplified,2022.2.4,Win32,59.95203837,661e456ee6de07e70aa9ef7b,66229da137609569465d8f98,,,,,,,,,,,,,,,,,,,,,,,,,,,,,,,,,,,,,,,,,,,,,,,,,,,,,,,,1,54,114,47,1,B,Y,N,o2_image,stimuli/out2.png,stimuli/out1.png,stimuli/correct_out2.png,,,,,,,,,,,,,,,,,,,,,,,,,,,,,,,,,,,,,,
,,642ca0829254c73fda107d25,38,female,2024-04-19_18h37.19.049,stockport_simplified,2022.2.4,Win32,59.95203837,661e456ee6de07e70aa9ef7b,66229da137609569465d8f98,,,,,,,,,,,,,,,,,,,,,,,,,,,,,,,,,,869.622,871.605,"[8,7,5,4,2,1,6,3]","[[-0.3,0.2],[0.3,0.2]]","[[-0.125,-0.2],[0.125,-0.2]]",-0.122222222,-0.236111111,1,0,0,1.483,o1_image,871.606,1,872.105,872.105,874.105,0,0,0,0,1,,,,,,,,,,,,,,,,,,,,,,,,,,,,,,,,,,,,,,,,,,,,,,,,,,
,,642ca0829254c73fda107d25,38,female,2024-04-19_18h37.19.049,stockport_simplified,2022.2.4,Win32,59.95203837,661e456ee6de07e70aa9ef7b,66229da137609569465d8f98,,,,,,,,,,,,,,,,,,,,,,,,,,,,,,,,,,,,,,,,,,,,,,,,,,,,,,,,1,55,115,33,1,A,X,N,o1_image,stimuli/out1.png,stimuli/correct_out1.png,stimuli/out2.png,,,,,,,,,,,,,,,,,,,,,,,,,,,,,,,,,,,,,,
,,642ca0829254c73fda107d25,38,female,2024-04-19_18h37.19.049,stockport_simplified,2022.2.4,Win32,59.95203837,661e456ee6de07e70aa9ef7b,66229da137609569465d8f98,,,,,,,,,,,,,,,,,,,,,,,,,,,,,,,,,,874.105,876.039,"[8,7,5,4,2,1,6,3]","[[0.3,0.2],[-0.3,0.2]]","[[-0.125,-0.2],[0.125,-0.2]]",0.157407407,-0.216666667,1,0,0,1.433,o2_image,876.039,1,876.538,876.538,878.538,0,0,0,0,1,,,,,,,,,,,,,,,,,,,,,,,,,,,,,,,,,,,,,,,,,,,,,,,,,,
,,642ca0829254c73fda107d25,38,female,2024-04-19_18h37.19.049,stockport_simplified,2022.2.4,Win32,59.95203837,661e456ee6de07e70aa9ef7b,66229da137609569465d8f98,,,,,,,,,,,,,,,,,,,,,,,,,,,,,,,,,,,,,,,,,,,,,,,,,,,,,,,,1,56,116,56,1,N,M,D,o2_image,stimuli/out2.png,stimuli/out1.png,stimuli/correct_out2.png,,,,,,,,,,,,,,,,,,,,,,,,,,,,,,,,,,,,,,
,,642ca0829254c73fda107d25,38,female,2024-04-19_18h37.19.049,stockport_simplified,2022.2.4,Win32,59.95203837,661e456ee6de07e70aa9ef7b,66229da137609569465d8f98,,,,,,,,,,,,,,,,,,,,,,,,,,,,,,,,,,878.539,880.272,"[8,7,5,4,2,1,6,3]","[[-0.3,0.2],[0.3,0.2]]","[[-0.125,-0.2],[0.125,-0.2]]",0.147222222,-0.188888889,1,0,0,1.217,o2_image,880.273,1,880.772,880.772,882.772,0,0,0,0,1,,,,,,,,,,,,,,,,,,,,,,,,,,,,,,,,,,,,,,,,,,,,,,,,,,
,,642ca0829254c73fda107d25,38,female,2024-04-19_18h37.19.049,stockport_simplified,2022.2.4,Win32,59.95203837,661e456ee6de07e70aa9ef7b,66229da137609569465d8f98,,,,,,,,,,,,,,,,,,,,,,,,,,,,,,,,,,,,,,,,,,,,,,,,,,,,,,,,1,57,117,59,1,N,M,D,o2_image,stimuli/out2.png,stimuli/out1.png,stimuli/correct_out2.png,,,,,,,,,,,,,,,,,,,,,,,,,,,,,,,,,,,,,,
,,642ca0829254c73fda107d25,38,female,2024-04-19_18h37.19.049,stockport_simplified,2022.2.4,Win32,59.95203837,661e456ee6de07e70aa9ef7b,66229da137609569465d8f98,,,,,,,,,,,,,,,,,,,,,,,,,,,,,,,,,,882.772,885.639,"[8,7,5,4,2,1,6,3]","[[-0.3,0.2],[0.3,0.2]]","[[0.125,-0.2],[-0.125,-0.2]]",-0.144444444,-0.197222222,1,0,0,2.367,o2_image,885.641,1,886.139,886.139,888.139,0,0,0,0,1,,,,,,,,,,,,,,,,,,,,,,,,,,,,,,,,,,,,,,,,,,,,,,,,,,
,,642ca0829254c73fda107d25,38,female,2024-04-19_18h37.19.049,stockport_simplified,2022.2.4,Win32,59.95203837,661e456ee6de07e70aa9ef7b,66229da137609569465d8f98,,,,,,,,,,,,,,,,,,,,,,,,,,,,,,,,,,,,,,,,,,,,,,,,,,,,,,,,1,58,118,12,1,B,X,N,o2_image,stimuli/out2.png,stimuli/out1.png,stimuli/correct_out2.png,,,,,,,,,,,,,,,,,,,,,,,,,,,,,,,,,,,,,,
,,642ca0829254c73fda107d25,38,female,2024-04-19_18h37.19.049,stockport_simplified,2022.2.4,Win32,59.95203837,661e456ee6de07e70aa9ef7b,66229da137609569465d8f98,,,,,,,,,,,,,,,,,,,,,,,,,,,,,,,,,,888.139,889.873,"[8,7,5,4,2,1,6,3]","[[-0.3,0.2],[0.3,0.2]]","[[0.125,-0.2],[-0.125,-0.2]]",0.113888889,-0.216666667,1,0,0,1.233,o1_image,889.873,1,890.372,890.372,892.372,0,0,0,0,1,,,,,,,,,,,,,,,,,,,,,,,,,,,,,,,,,,,,,,,,,,,,,,,,,,
,,642ca0829254c73fda107d25,38,female,2024-04-19_18h37.19.049,stockport_simplified,2022.2.4,Win32,59.95203837,661e456ee6de07e70aa9ef7b,66229da137609569465d8f98,,,,,,,,,,,,,,,,,,,,,,,,,,,,,,,,,,,,,,,,,,,,,,,,,,,,,,,,1,59,119,20,1,N,M,C,o1_image,stimuli/out1.png,stimuli/correct_out1.png,stimuli/out2.png,,,,,,,,,,,,,,,,,,,,,,,,,,,,,,,,,,,,,,
,,642ca0829254c73fda107d25,38,female,2024-04-19_18h37.19.049,stockport_simplified,2022.2.4,Win32,59.95203837,661e456ee6de07e70aa9ef7b,66229da137609569465d8f98,,,,,,,,,,,,,,,,,,,,,,,,,,,,,,,,,,892.38,893.973,"[8,7,5,4,2,1,6,3]","[[-0.3,0.2],[0.3,0.2]]","[[-0.125,-0.2],[0.125,-0.2]]",0.112037037,-0.224074074,1,0,0,1.083,o2_image,893.973,1,894.473,894.473,896.472,,,,,,,,,,,,,,,,,,0,0,0,0,1,,,,,,,,,,,,,,,,,,,,,,,,,,,,,,,,,
,,642ca0829254c73fda107d25,38,female,2024-04-19_18h37.19.049,stockport_simplified,2022.2.4,Win32,59.95203837,661e456ee6de07e70aa9ef7b,66229da137609569465d8f98,,,,,,,,,,,,,,,,,,,,,,,,,,,,,,,,,,,,,,,,,,,,,,,,,,,,,,,,,,,,,N,M,D,o2_image,stimuli/out2.png,stimuli/out1.png,stimuli/correct_out2.png,,,,,,0,0,0,55,1,,,,,,,,,,,,,,,,,,,,,,,,,,,,
,,642ca0829254c73fda107d25,38,female,2024-04-19_18h37.19.049,stockport_simplified,2022.2.4,Win32,59.95203837,661e456ee6de07e70aa9ef7b,66229da137609569465d8f98,,,,,,,,,,,,,,,,,,,,,,,,,,,,,,,,,,896.472,899.573,"[8,7,5,4,2,1,6,3]","[[0.3,0.2],[-0.3,0.2]]","[[0.125,-0.2],[-0.125,-0.2]]",-0.141666667,-0.2,1,0,0,2.6,o2_image,899.573,1,900.072,900.073,902.073,,,,,,,,,,,,,,,,,,0,0,0,0,1,,,,,,,,,,,,,,,,,,,,,,,,,,,,,,,,,
,,642ca0829254c73fda107d25,38,female,2024-04-19_18h37.19.049,stockport_simplified,2022.2.4,Win32,59.95203837,661e456ee6de07e70aa9ef7b,66229da137609569465d8f98,,,,,,,,,,,,,,,,,,,,,,,,,,,,,,,,,,,,,,,,,,,,,,,,,,,,,,,,,,,,,B,Y,N,o2_image,stimuli/out2.png,stimuli/out1.png,stimuli/correct_out2.png,,,,,,0,1,1,38,1,,,,,,,,,,,,,,,,,,,,,,,,,,,,
,,642ca0829254c73fda107d25,38,female,2024-04-19_18h37.19.049,stockport_simplified,2022.2.4,Win32,59.95203837,661e456ee6de07e70aa9ef7b,66229da137609569465d8f98,,,,,,,,,,,,,,,,,,,,,,,,,,,,,,,,,,902.073,903.706,"[8,7,5,4,2,1,6,3]","[[0.3,0.2],[-0.3,0.2]]","[[0.125,-0.2],[-0.125,-0.2]]",-0.143518519,-0.224074074,1,0,0,1.133,o2_image,903.707,1,904.206,904.206,906.206,,,,,,,,,,,,,,,,,,0,0,0,0,1,,,,,,,,,,,,,,,,,,,,,,,,,,,,,,,,,
,,642ca0829254c73fda107d25,38,female,2024-04-19_18h37.19.049,stockport_simplified,2022.2.4,Win32,59.95203837,661e456ee6de07e70aa9ef7b,66229da137609569465d8f98,,,,,,,,,,,,,,,,,,,,,,,,,,,,,,,,,,,,,,,,,,,,,,,,,,,,,,,,,,,,,B,Y,N,o2_image,stimuli/out2.png,stimuli/out1.png,stimuli/correct_out2.png,,,,,,0,2,2,37,1,,,,,,,,,,,,,,,,,,,,,,,,,,,,
,,642ca0829254c73fda107d25,38,female,2024-04-19_18h37.19.049,stockport_simplified,2022.2.4,Win32,59.95203837,661e456ee6de07e70aa9ef7b,66229da137609569465d8f98,,,,,,,,,,,,,,,,,,,,,,,,,,,,,,,,,,906.206,907.957,"[8,7,5,4,2,1,6,3]","[[0.3,0.2],[-0.3,0.2]]","[[0.125,-0.2],[-0.125,-0.2]]",0.109259259,-0.22037037,1,0,0,1.251,o1_image,907.957,1,908.456,908.456,910.457,,,,,,,,,,,,,,,,,,0,0,0,0,1,,,,,,,,,,,,,,,,,,,,,,,,,,,,,,,,,
,,642ca0829254c73fda107d25,38,female,2024-04-19_18h37.19.049,stockport_simplified,2022.2.4,Win32,59.95203837,661e456ee6de07e70aa9ef7b,66229da137609569465d8f98,,,,,,,,,,,,,,,,,,,,,,,,,,,,,,,,,,,,,,,,,,,,,,,,,,,,,,,,,,,,,A,Y,N,o1_image,stimuli/out1.png,stimuli/correct_out1.png,stimuli/out2.png,,,,,,0,3,3,13,1,,,,,,,,,,,,,,,,,,,,,,,,,,,,
,,642ca0829254c73fda107d25,38,female,2024-04-19_18h37.19.049,stockport_simplified,2022.2.4,Win32,59.95203837,661e456ee6de07e70aa9ef7b,66229da137609569465d8f98,,,,,,,,,,,,,,,,,,,,,,,,,,,,,,,,,,910.457,912.439,"[8,7,5,4,2,1,6,3]","[[-0.3,0.2],[0.3,0.2]]","[[-0.125,-0.2],[0.125,-0.2]]",0.151851852,-0.219444444,1,0,0,1.466,o2_image,912.44,1,912.94,912.94,914.94,,,,,,,,,,,,,,,,,,0,0,0,0,1,,,,,,,,,,,,,,,,,,,,,,,,,,,,,,,,,
,,642ca0829254c73fda107d25,38,female,2024-04-19_18h37.19.049,stockport_simplified,2022.2.4,Win32,59.95203837,661e456ee6de07e70aa9ef7b,66229da137609569465d8f98,,,,,,,,,,,,,,,,,,,,,,,,,,,,,,,,,,,,,,,,,,,,,,,,,,,,,,,,,,,,,B,Y,N,o2_image,stimuli/out2.png,stimuli/out1.png,stimuli/correct_out2.png,,,,,,0,4,4,36,1,,,,,,,,,,,,,,,,,,,,,,,,,,,,
,,642ca0829254c73fda107d25,38,female,2024-04-19_18h37.19.049,stockport_simplified,2022.2.4,Win32,59.95203837,661e456ee6de07e70aa9ef7b,66229da137609569465d8f98,,,,,,,,,,,,,,,,,,,,,,,,,,,,,,,,,,914.941,916.907,"[8,7,5,4,2,1,6,3]","[[-0.3,0.2],[0.3,0.2]]","[[0.125,-0.2],[-0.125,-0.2]]",-0.114814815,-0.203703704,1,0,0,1.451,o2_image,916.908,1,917.406,917.406,919.407,,,,,,,,,,,,,,,,,,0,0,0,0,1,,,,,,,,,,,,,,,,,,,,,,,,,,,,,,,,,
