counterbalance_2.started,counterbalance_2.stopped,participant,age,gender,date,expName,psychopyVersion,OS,frameRate,STUDY_ID,SESSION_ID,information_2.started,information_2.stopped,information_loop.thisRepN,information_loop.thisTrialN,information_loop.thisN,information_loop.thisIndex,information_loop.ran,information,consent_2.started,consent_2.stopped,slider_1.response,slider_2.response,slider_3.response,slider_4.response,slider_5.response,slider_6.response,instructions.started,instructions.stopped,task1_instr.thisRepN,task1_instr.thisTrialN,task1_instr.thisN,task1_instr.thisIndex,task1_instr.ran,task1,comprehension1_2.started,comprehension1_2.stopped,comp1_mouse.x,comp1_mouse.y,comp1_mouse.leftButton,comp1_mouse.midButton,comp1_mouse.rightButton,comp1_mouse.time,comp1_mouse.clicked_name,cue_o__trial_2.started,cue_o__trial_2.stopped,order,cue_order,out_order,cue_o_mouse.x,cue_o_mouse.y,cue_o_mouse.leftButton,cue_o_mouse.midButton,cue_o_mouse.rightButton,cue_o_mouse.time,cue_o_mouse.clicked_name,cue_selection_2.started,correct_answer,cue_selection_2.stopped,feedback_2.started,feedback_2.stopped,feedback_loop.thisRepN,feedback_loop.thisTrialN,feedback_loop.thisN,feedback_loop.thisIndex,feedback_loop.ran,stage1_trials.thisRepN,stage1_trials.thisTrialN,stage1_trials.thisN,stage1_trials.thisIndex,stage1_trials.ran,cue1,cue2,cue3,outcome,correct_out,o1_feedback,o2_feedback,stage2_feedback_loop.thisRepN,stage2_feedback_loop.thisTrialN,stage2_feedback_loop.thisN,stage2_feedback_loop.thisIndex,stage2_feedback_loop.ran,stage2_trials.thisRepN,stage2_trials.thisTrialN,stage2_trials.thisN,stage2_trials.thisIndex,stage2_trials.ran,stage3_feedback_loop.thisRepN,stage3_feedback_loop.thisTrialN,stage3_feedback_loop.thisN,stage3_feedback_loop.thisIndex,stage3_feedback_loop.ran,stage3_trials.thisRepN,stage3_trials.thisTrialN,stage3_trials.thisN,stage3_trials.thisIndex,stage3_trials.ran,debrief_2.started,debrief_2.stopped,debrief_loop.thisRepN,debrief_loop.thisTrialN,debrief_loop.thisN,debrief_loop.thisIndex,debrief_loop.ran,debrief_img,compr1_completed.thisRepN,compr1_completed.thisTrialN,compr1_completed.thisN,compr1_completed.thisIndex,compr1_completed.ran,consent_loop.thisRepN,consent_loop.thisTrialN,consent_loop.thisN,consent_loop.thisIndex,consent_loop.ran
0.001,0.001,5ba4d6c929629d00014e6c28,35,male,2024-04-19_18h39.42.507,stockport_simplified,2022.2.4,Win32,60.0240096,661e456ee6de07e70aa9ef7b,66229d99094ac4f56051407c,,,,,,,,,,,,,,,,,,,,,,,,,,,,,,,,,,,,,,,,,,,,,,,,,,,,,,,,,,,,,,,,,,,,,,,,,,,,,,,,,,,,,,,,,,,,,,,,,,,,,,,,,
,,5ba4d6c929629d00014e6c28,35,male,2024-04-19_18h39.42.507,stockport_simplified,2022.2.4,Win32,60.0240096,661e456ee6de07e70aa9ef7b,66229d99094ac4f56051407c,0.01,6.204,0,0,0,0,1,instructions/info1.png,,,,,,,,,,,,,,,,,,,,,,,,,,,,,,,,,,,,,,,,,,,,,,,,,,,,,,,,,,,,,,,,,,,,,,,,,,,,,,,,,,,,,,,,,,,,,,,,,
,,5ba4d6c929629d00014e6c28,35,male,2024-04-19_18h39.42.507,stockport_simplified,2022.2.4,Win32,60.0240096,661e456ee6de07e70aa9ef7b,66229d99094ac4f56051407c,6.205,11.869,0,1,1,1,1,instructions/info2.png,,,,,,,,,,,,,,,,,,,,,,,,,,,,,,,,,,,,,,,,,,,,,,,,,,,,,,,,,,,,,,,,,,,,,,,,,,,,,,,,,,,,,,,,,,,,,,,,,
,,5ba4d6c929629d00014e6c28,35,male,2024-04-19_18h39.42.507,stockport_simplified,2022.2.4,Win32,60.0240096,661e456ee6de07e70aa9ef7b,66229d99094ac4f56051407c,11.87,14.718,0,2,2,2,1,instructions/info3.png,,,,,,,,,,,,,,,,,,,,,,,,,,,,,,,,,,,,,,,,,,,,,,,,,,,,,,,,,,,,,,,,,,,,,,,,,,,,,,,,,,,,,,,,,,,,,,,,,
,,5ba4d6c929629d00014e6c28,35,male,2024-04-19_18h39.42.507,stockport_simplified,2022.2.4,Win32,60.0240096,661e456ee6de07e70aa9ef7b,66229d99094ac4f56051407c,,,,,,,,,14.718,29.031,1,1,1,1,1,1,,,,,,,,,,,,,,,,,,,,,,,,,,,,,,,,,,,,,,,,,,,,,,,,,,,,,,,,,,,,,,,,,,,,,,,,,,,,,,,,,,,,,,,,,
,,5ba4d6c929629d00014e6c28,35,male,2024-04-19_18h39.42.507,stockport_simplified,2022.2.4,Win32,60.0240096,661e456ee6de07e70aa9ef7b,66229d99094ac4f56051407c,,,,,,,,,,,,,,,,,29.043,52.588,0,0,0,0,1,instructions/task1_1.png,,,,,,,,,,,,,,,,,,,,,,,,,,,,,,,,,,,,,,,,,,,,,,,,,,,,,,,,,,,,,,,,,,,,,,,,,,,,,,,,,
,,5ba4d6c929629d00014e6c28,35,male,2024-04-19_18h39.42.507,stockport_simplified,2022.2.4,Win32,60.0240096,661e456ee6de07e70aa9ef7b,66229d99094ac4f56051407c,,,,,,,,,,,,,,,,,52.589,67.386,0,1,1,1,1,instructions/task1_2.png,,,,,,,,,,,,,,,,,,,,,,,,,,,,,,,,,,,,,,,,,,,,,,,,,,,,,,,,,,,,,,,,,,,,,,,,,,,,,,,,,
,,5ba4d6c929629d00014e6c28,35,male,2024-04-19_18h39.42.507,stockport_simplified,2022.2.4,Win32,60.0240096,661e456ee6de07e70aa9ef7b,66229d99094ac4f56051407c,,,,,,,,,,,,,,,,,67.391,83.194,0,2,2,2,1,instructions/task1_3.png,,,,,,,,,,,,,,,,,,,,,,,,,,,,,,,,,,,,,,,,,,,,,,,,,,,,,,,,,,,,,,,,,,,,,,,,,,,,,,,,,
,,5ba4d6c929629d00014e6c28,35,male,2024-04-19_18h39.42.507,stockport_simplified,2022.2.4,Win32,60.0240096,661e456ee6de07e70aa9ef7b,66229d99094ac4f56051407c,,,,,,,,,,,,,,,,,,,,,,,,,83.194,95.674,0.046296296,-0.31712963,1,0,0,12.479,comp1_resp1,95.697,100.205,"[6,3,5,1,4,8,2,7]","[[0.3,0.2],[-0.3,0.2]]","[[-0.125,-0.2],[0.125,-0.2]]",0.119212963,-0.208333333,1,0,0,3.996,o2_image,100.209,1,100.704,100.704,102.704,0,0,0,0,1,,,,,,,,,,,,,,,,,,,,,,,,,,,,,,,,,,,,,,,,,,,,,,,,,,
,,5ba4d6c929629d00014e6c28,35,male,2024-04-19_18h39.42.507,stockport_simplified,2022.2.4,Win32,60.0240096,661e456ee6de07e70aa9ef7b,66229d99094ac4f56051407c,,,,,,,,,,,,,,,,,,,,,,,,,,,,,,,,,,,,,,,,,,,,,,,,,,,,,,,,0,0,0,16,1,B,Y,N,o2_image,stimuli/out2.png,stimuli/out1.png,stimuli/correct_out2.png,,,,,,,,,,,,,,,,,,,,,,,,,,,,,,,,,,,,,,
,,5ba4d6c929629d00014e6c28,35,male,2024-04-19_18h39.42.507,stockport_simplified,2022.2.4,Win32,60.0240096,661e456ee6de07e70aa9ef7b,66229d99094ac4f56051407c,,,,,,,,,,,,,,,,,,,,,,,,,,,,,,,,,,102.705,105.653,"[6,3,5,1,4,8,2,7]","[[0.3,0.2],[-0.3,0.2]]","[[-0.125,-0.2],[0.125,-0.2]]",-0.076388889,-0.193287037,1,0,0,2.432,o1_image,105.655,0,106.153,106.153,108.152,0,0,0,0,1,,,,,,,,,,,,,,,,,,,,,,,,,,,,,,,,,,,,,,,,,,,,,,,,,,
,,5ba4d6c929629d00014e6c28,35,male,2024-04-19_18h39.42.507,stockport_simplified,2022.2.4,Win32,60.0240096,661e456ee6de07e70aa9ef7b,66229d99094ac4f56051407c,,,,,,,,,,,,,,,,,,,,,,,,,,,,,,,,,,,,,,,,,,,,,,,,,,,,,,,,0,1,1,42,1,B,X,N,o2_image,stimuli/out2.png,stimuli/out1.png,stimuli/correct_out2.png,,,,,,,,,,,,,,,,,,,,,,,,,,,,,,,,,,,,,,
,,5ba4d6c929629d00014e6c28,35,male,2024-04-19_18h39.42.507,stockport_simplified,2022.2.4,Win32,60.0240096,661e456ee6de07e70aa9ef7b,66229d99094ac4f56051407c,,,,,,,,,,,,,,,,,,,,,,,,,,,,,,,,,,108.153,110.95,"[6,3,5,1,4,8,2,7]","[[0.3,0.2],[-0.3,0.2]]","[[0.125,-0.2],[-0.125,-0.2]]",-0.084490741,-0.19212963,1,0,0,2.282,o2_image,110.953,1,111.451,111.451,113.45,0,0,0,0,1,,,,,,,,,,,,,,,,,,,,,,,,,,,,,,,,,,,,,,,,,,,,,,,,,,
,,5ba4d6c929629d00014e6c28,35,male,2024-04-19_18h39.42.507,stockport_simplified,2022.2.4,Win32,60.0240096,661e456ee6de07e70aa9ef7b,66229d99094ac4f56051407c,,,,,,,,,,,,,,,,,,,,,,,,,,,,,,,,,,,,,,,,,,,,,,,,,,,,,,,,0,2,2,14,1,B,X,N,o2_image,stimuli/out2.png,stimuli/out1.png,stimuli/correct_out2.png,,,,,,,,,,,,,,,,,,,,,,,,,,,,,,,,,,,,,,
,,5ba4d6c929629d00014e6c28,35,male,2024-04-19_18h39.42.507,stockport_simplified,2022.2.4,Win32,60.0240096,661e456ee6de07e70aa9ef7b,66229d99094ac4f56051407c,,,,,,,,,,,,,,,,,,,,,,,,,,,,,,,,,,113.451,116.332,"[6,3,5,1,4,8,2,7]","[[-0.3,0.2],[0.3,0.2]]","[[0.125,-0.2],[-0.125,-0.2]]",0.071759259,-0.164351852,1,0,0,2.366,o1_image,116.336,1,116.832,116.832,118.831,0,0,0,0,1,,,,,,,,,,,,,,,,,,,,,,,,,,,,,,,,,,,,,,,,,,,,,,,,,,
,,5ba4d6c929629d00014e6c28,35,male,2024-04-19_18h39.42.507,stockport_simplified,2022.2.4,Win32,60.0240096,661e456ee6de07e70aa9ef7b,66229d99094ac4f56051407c,,,,,,,,,,,,,,,,,,,,,,,,,,,,,,,,,,,,,,,,,,,,,,,,,,,,,,,,0,3,3,1,1,A,X,N,o1_image,stimuli/out1.png,stimuli/correct_out1.png,stimuli/out2.png,,,,,,,,,,,,,,,,,,,,,,,,,,,,,,,,,,,,,,
,,5ba4d6c929629d00014e6c28,35,male,2024-04-19_18h39.42.507,stockport_simplified,2022.2.4,Win32,60.0240096,661e456ee6de07e70aa9ef7b,66229d99094ac4f56051407c,,,,,,,,,,,,,,,,,,,,,,,,,,,,,,,,,,118.832,121.43,"[6,3,5,1,4,8,2,7]","[[-0.3,0.2],[0.3,0.2]]","[[-0.125,-0.2],[0.125,-0.2]]",-0.076388889,-0.18287037,1,0,0,2.081,o1_image,121.433,0,121.93,121.93,123.93,0,0,0,0,1,,,,,,,,,,,,,,,,,,,,,,,,,,,,,,,,,,,,,,,,,,,,,,,,,,
,,5ba4d6c929629d00014e6c28,35,male,2024-04-19_18h39.42.507,stockport_simplified,2022.2.4,Win32,60.0240096,661e456ee6de07e70aa9ef7b,66229d99094ac4f56051407c,,,,,,,,,,,,,,,,,,,,,,,,,,,,,,,,,,,,,,,,,,,,,,,,,,,,,,,,0,4,4,17,1,B,Y,N,o2_image,stimuli/out2.png,stimuli/out1.png,stimuli/correct_out2.png,,,,,,,,,,,,,,,,,,,,,,,,,,,,,,,,,,,,,,
,,5ba4d6c929629d00014e6c28,35,male,2024-04-19_18h39.42.507,stockport_simplified,2022.2.4,Win32,60.0240096,661e456ee6de07e70aa9ef7b,66229d99094ac4f56051407c,,,,,,,,,,,,,,,,,,,,,,,,,,,,,,,,,,123.93,126.712,"[6,3,5,1,4,8,2,7]","[[-0.3,0.2],[0.3,0.2]]","[[-0.125,-0.2],[0.125,-0.2]]",0.109953704,-0.150462963,1,0,0,2.265,o2_image,126.715,1,127.213,127.213,129.211,0,0,0,0,1,,,,,,,,,,,,,,,,,,,,,,,,,,,,,,,,,,,,,,,,,,,,,,,,,,
,,5ba4d6c929629d00014e6c28,35,male,2024-04-19_18h39.42.507,stockport_simplified,2022.2.4,Win32,60.0240096,661e456ee6de07e70aa9ef7b,66229d99094ac4f56051407c,,,,,,,,,,,,,,,,,,,,,,,,,,,,,,,,,,,,,,,,,,,,,,,,,,,,,,,,0,5,5,56,1,N,M,D,o2_image,stimuli/out2.png,stimuli/out1.png,stimuli/correct_out2.png,,,,,,,,,,,,,,,,,,,,,,,,,,,,,,,,,,,,,,
,,5ba4d6c929629d00014e6c28,35,male,2024-04-19_18h39.42.507,stockport_simplified,2022.2.4,Win32,60.0240096,661e456ee6de07e70aa9ef7b,66229d99094ac4f56051407c,,,,,,,,,,,,,,,,,,,,,,,,,,,,,,,,,,129.212,131.132,"[6,3,5,1,4,8,2,7]","[[-0.3,0.2],[0.3,0.2]]","[[0.125,-0.2],[-0.125,-0.2]]",-0.099537037,-0.157407407,1,0,0,1.401,o2_image,131.138,0,131.628,131.628,133.626,0,0,0,0,1,,,,,,,,,,,,,,,,,,,,,,,,,,,,,,,,,,,,,,,,,,,,,,,,,,
,,5ba4d6c929629d00014e6c28,35,male,2024-04-19_18h39.42.507,stockport_simplified,2022.2.4,Win32,60.0240096,661e456ee6de07e70aa9ef7b,66229d99094ac4f56051407c,,,,,,,,,,,,,,,,,,,,,,,,,,,,,,,,,,,,,,,,,,,,,,,,,,,,,,,,0,6,6,23,1,N,M,C,o1_image,stimuli/out1.png,stimuli/correct_out1.png,stimuli/out2.png,,,,,,,,,,,,,,,,,,,,,,,,,,,,,,,,,,,,,,
,,5ba4d6c929629d00014e6c28,35,male,2024-04-19_18h39.42.507,stockport_simplified,2022.2.4,Win32,60.0240096,661e456ee6de07e70aa9ef7b,66229d99094ac4f56051407c,,,,,,,,,,,,,,,,,,,,,,,,,,,,,,,,,,133.628,135.893,"[6,3,5,1,4,8,2,7]","[[-0.3,0.2],[0.3,0.2]]","[[-0.125,-0.2],[0.125,-0.2]]",0.127314815,-0.185185185,1,0,0,1.746,o2_image,135.897,1,136.392,136.392,138.392,0,0,0,0,1,,,,,,,,,,,,,,,,,,,,,,,,,,,,,,,,,,,,,,,,,,,,,,,,,,
,,5ba4d6c929629d00014e6c28,35,male,2024-04-19_18h39.42.507,stockport_simplified,2022.2.4,Win32,60.0240096,661e456ee6de07e70aa9ef7b,66229d99094ac4f56051407c,,,,,,,,,,,,,,,,,,,,,,,,,,,,,,,,,,,,,,,,,,,,,,,,,,,,,,,,0,7,7,12,1,B,X,N,o2_image,stimuli/out2.png,stimuli/out1.png,stimuli/correct_out2.png,,,,,,,,,,,,,,,,,,,,,,,,,,,,,,,,,,,,,,
,,5ba4d6c929629d00014e6c28,35,male,2024-04-19_18h39.42.507,stockport_simplified,2022.2.4,Win32,60.0240096,661e456ee6de07e70aa9ef7b,66229d99094ac4f56051407c,,,,,,,,,,,,,,,,,,,,,,,,,,,,,,,,,,138.393,140.641,"[6,3,5,1,4,8,2,7]","[[0.3,0.2],[-0.3,0.2]]","[[0.125,-0.2],[-0.125,-0.2]]",0.153935185,-0.144675926,1,0,0,1.732,o1_image,140.642,1,141.14,141.14,143.14,0,0,0,0,1,,,,,,,,,,,,,,,,,,,,,,,,,,,,,,,,,,,,,,,,,,,,,,,,,,
,,5ba4d6c929629d00014e6c28,35,male,2024-04-19_18h39.42.507,stockport_simplified,2022.2.4,Win32,60.0240096,661e456ee6de07e70aa9ef7b,66229d99094ac4f56051407c,,,,,,,,,,,,,,,,,,,,,,,,,,,,,,,,,,,,,,,,,,,,,,,,,,,,,,,,0,8,8,20,1,N,M,C,o1_image,stimuli/out1.png,stimuli/correct_out1.png,stimuli/out2.png,,,,,,,,,,,,,,,,,,,,,,,,,,,,,,,,,,,,,,
,,5ba4d6c929629d00014e6c28,35,male,2024-04-19_18h39.42.507,stockport_simplified,2022.2.4,Win32,60.0240096,661e456ee6de07e70aa9ef7b,66229d99094ac4f56051407c,,,,,,,,,,,,,,,,,,,,,,,,,,,,,,,,,,143.141,146.039,"[6,3,5,1,4,8,2,7]","[[0.3,0.2],[-0.3,0.2]]","[[0.125,-0.2],[-0.125,-0.2]]",-0.104166667,-0.180555556,1,0,0,2.382,o2_image,146.042,1,146.538,146.538,148.538,0,0,0,0,1,,,,,,,,,,,,,,,,,,,,,,,,,,,,,,,,,,,,,,,,,,,,,,,,,,
,,5ba4d6c929629d00014e6c28,35,male,2024-04-19_18h39.42.507,stockport_simplified,2022.2.4,Win32,60.0240096,661e456ee6de07e70aa9ef7b,66229d99094ac4f56051407c,,,,,,,,,,,,,,,,,,,,,,,,,,,,,,,,,,,,,,,,,,,,,,,,,,,,,,,,0,9,9,58,1,N,M,D,o2_image,stimuli/out2.png,stimuli/out1.png,stimuli/correct_out2.png,,,,,,,,,,,,,,,,,,,,,,,,,,,,,,,,,,,,,,
,,5ba4d6c929629d00014e6c28,35,male,2024-04-19_18h39.42.507,stockport_simplified,2022.2.4,Win32,60.0240096,661e456ee6de07e70aa9ef7b,66229d99094ac4f56051407c,,,,,,,,,,,,,,,,,,,,,,,,,,,,,,,,,,148.538,150.37,"[6,3,5,1,4,8,2,7]","[[-0.3,0.2],[0.3,0.2]]","[[0.125,-0.2],[-0.125,-0.2]]",-0.104166667,-0.180555556,1,0,0,1.315,o2_image,150.375,1,150.87,150.87,152.87,0,0,0,0,1,,,,,,,,,,,,,,,,,,,,,,,,,,,,,,,,,,,,,,,,,,,,,,,,,,
,,5ba4d6c929629d00014e6c28,35,male,2024-04-19_18h39.42.507,stockport_simplified,2022.2.4,Win32,60.0240096,661e456ee6de07e70aa9ef7b,66229d99094ac4f56051407c,,,,,,,,,,,,,,,,,,,,,,,,,,,,,,,,,,,,,,,,,,,,,,,,,,,,,,,,0,10,10,13,1,B,X,N,o2_image,stimuli/out2.png,stimuli/out1.png,stimuli/correct_out2.png,,,,,,,,,,,,,,,,,,,,,,,,,,,,,,,,,,,,,,
,,5ba4d6c929629d00014e6c28,35,male,2024-04-19_18h39.42.507,stockport_simplified,2022.2.4,Win32,60.0240096,661e456ee6de07e70aa9ef7b,66229d99094ac4f56051407c,,,,,,,,,,,,,,,,,,,,,,,,,,,,,,,,,,152.871,155.186,"[6,3,5,1,4,8,2,7]","[[-0.3,0.2],[0.3,0.2]]","[[-0.125,-0.2],[0.125,-0.2]]",0.134259259,-0.155092593,1,0,0,1.798,o2_image,155.19,1,155.686,155.686,157.686,0,0,0,0,1,,,,,,,,,,,,,,,,,,,,,,,,,,,,,,,,,,,,,,,,,,,,,,,,,,
,,5ba4d6c929629d00014e6c28,35,male,2024-04-19_18h39.42.507,stockport_simplified,2022.2.4,Win32,60.0240096,661e456ee6de07e70aa9ef7b,66229d99094ac4f56051407c,,,,,,,,,,,,,,,,,,,,,,,,,,,,,,,,,,,,,,,,,,,,,,,,,,,,,,,,0,11,11,57,1,N,M,D,o2_image,stimuli/out2.png,stimuli/out1.png,stimuli/correct_out2.png,,,,,,,,,,,,,,,,,,,,,,,,,,,,,,,,,,,,,,
,,5ba4d6c929629d00014e6c28,35,male,2024-04-19_18h39.42.507,stockport_simplified,2022.2.4,Win32,60.0240096,661e456ee6de07e70aa9ef7b,66229d99094ac4f56051407c,,,,,,,,,,,,,,,,,,,,,,,,,,,,,,,,,,157.687,161.034,"[6,3,5,1,4,8,2,7]","[[0.3,0.2],[-0.3,0.2]]","[[0.125,-0.2],[-0.125,-0.2]]",-0.056712963,-0.173611111,1,0,0,2.831,o2_image,161.035,1,161.534,161.534,163.535,0,0,0,0,1,,,,,,,,,,,,,,,,,,,,,,,,,,,,,,,,,,,,,,,,,,,,,,,,,,
,,5ba4d6c929629d00014e6c28,35,male,2024-04-19_18h39.42.507,stockport_simplified,2022.2.4,Win32,60.0240096,661e456ee6de07e70aa9ef7b,66229d99094ac4f56051407c,,,,,,,,,,,,,,,,,,,,,,,,,,,,,,,,,,,,,,,,,,,,,,,,,,,,,,,,0,12,12,19,1,B,Y,N,o2_image,stimuli/out2.png,stimuli/out1.png,stimuli/correct_out2.png,,,,,,,,,,,,,,,,,,,,,,,,,,,,,,,,,,,,,,
,,5ba4d6c929629d00014e6c28,35,male,2024-04-19_18h39.42.507,stockport_simplified,2022.2.4,Win32,60.0240096,661e456ee6de07e70aa9ef7b,66229d99094ac4f56051407c,,,,,,,,,,,,,,,,,,,,,,,,,,,,,,,,,,163.54,165.199,"[6,3,5,1,4,8,2,7]","[[-0.3,0.2],[0.3,0.2]]","[[0.125,-0.2],[-0.125,-0.2]]",-0.056712963,-0.173611111,1,0,0,1.145,o2_image,165.204,1,165.698,165.698,167.698,0,0,0,0,1,,,,,,,,,,,,,,,,,,,,,,,,,,,,,,,,,,,,,,,,,,,,,,,,,,
,,5ba4d6c929629d00014e6c28,35,male,2024-04-19_18h39.42.507,stockport_simplified,2022.2.4,Win32,60.0240096,661e456ee6de07e70aa9ef7b,66229d99094ac4f56051407c,,,,,,,,,,,,,,,,,,,,,,,,,,,,,,,,,,,,,,,,,,,,,,,,,,,,,,,,0,13,13,29,1,N,M,D,o2_image,stimuli/out2.png,stimuli/out1.png,stimuli/correct_out2.png,,,,,,,,,,,,,,,,,,,,,,,,,,,,,,,,,,,,,,
,,5ba4d6c929629d00014e6c28,35,male,2024-04-19_18h39.42.507,stockport_simplified,2022.2.4,Win32,60.0240096,661e456ee6de07e70aa9ef7b,66229d99094ac4f56051407c,,,,,,,,,,,,,,,,,,,,,,,,,,,,,,,,,,167.698,169.564,"[6,3,5,1,4,8,2,7]","[[-0.3,0.2],[0.3,0.2]]","[[0.125,-0.2],[-0.125,-0.2]]",0.138888889,-0.159722222,1,0,0,1.366,o1_image,169.568,1,170.064,170.064,172.064,0,0,0,0,1,,,,,,,,,,,,,,,,,,,,,,,,,,,,,,,,,,,,,,,,,,,,,,,,,,
,,5ba4d6c929629d00014e6c28,35,male,2024-04-19_18h39.42.507,stockport_simplified,2022.2.4,Win32,60.0240096,661e456ee6de07e70aa9ef7b,66229d99094ac4f56051407c,,,,,,,,,,,,,,,,,,,,,,,,,,,,,,,,,,,,,,,,,,,,,,,,,,,,,,,,0,14,14,24,1,N,M,C,o1_image,stimuli/out1.png,stimuli/correct_out1.png,stimuli/out2.png,,,,,,,,,,,,,,,,,,,,,,,,,,,,,,,,,,,,,,
,,5ba4d6c929629d00014e6c28,35,male,2024-04-19_18h39.42.507,stockport_simplified,2022.2.4,Win32,60.0240096,661e456ee6de07e70aa9ef7b,66229d99094ac4f56051407c,,,,,,,,,,,,,,,,,,,,,,,,,,,,,,,,,,172.064,174.596,"[6,3,5,1,4,8,2,7]","[[0.3,0.2],[-0.3,0.2]]","[[-0.125,-0.2],[0.125,-0.2]]",0.106481481,-0.163194444,1,0,0,2.015,o2_image,174.601,1,175.095,175.095,177.095,0,0,0,0,1,,,,,,,,,,,,,,,,,,,,,,,,,,,,,,,,,,,,,,,,,,,,,,,,,,
,,5ba4d6c929629d00014e6c28,35,male,2024-04-19_18h39.42.507,stockport_simplified,2022.2.4,Win32,60.0240096,661e456ee6de07e70aa9ef7b,66229d99094ac4f56051407c,,,,,,,,,,,,,,,,,,,,,,,,,,,,,,,,,,,,,,,,,,,,,,,,,,,,,,,,0,15,15,43,1,B,X,N,o2_image,stimuli/out2.png,stimuli/out1.png,stimuli/correct_out2.png,,,,,,,,,,,,,,,,,,,,,,,,,,,,,,,,,,,,,,
,,5ba4d6c929629d00014e6c28,35,male,2024-04-19_18h39.42.507,stockport_simplified,2022.2.4,Win32,60.0240096,661e456ee6de07e70aa9ef7b,66229d99094ac4f56051407c,,,,,,,,,,,,,,,,,,,,,,,,,,,,,,,,,,177.095,179.71,"[6,3,5,1,4,8,2,7]","[[0.3,0.2],[-0.3,0.2]]","[[0.125,-0.2],[-0.125,-0.2]]",-0.12037037,-0.204861111,1,0,0,2.098,o2_image,179.713,0,180.21,180.211,182.21,0,0,0,0,1,,,,,,,,,,,,,,,,,,,,,,,,,,,,,,,,,,,,,,,,,,,,,,,,,,
,,5ba4d6c929629d00014e6c28,35,male,2024-04-19_18h39.42.507,stockport_simplified,2022.2.4,Win32,60.0240096,661e456ee6de07e70aa9ef7b,66229d99094ac4f56051407c,,,,,,,,,,,,,,,,,,,,,,,,,,,,,,,,,,,,,,,,,,,,,,,,,,,,,,,,0,16,16,37,1,A,Y,N,o1_image,stimuli/out1.png,stimuli/correct_out1.png,stimuli/out2.png,,,,,,,,,,,,,,,,,,,,,,,,,,,,,,,,,,,,,,
,,5ba4d6c929629d00014e6c28,35,male,2024-04-19_18h39.42.507,stockport_simplified,2022.2.4,Win32,60.0240096,661e456ee6de07e70aa9ef7b,66229d99094ac4f56051407c,,,,,,,,,,,,,,,,,,,,,,,,,,,,,,,,,,182.21,184.459,"[6,3,5,1,4,8,2,7]","[[-0.3,0.2],[0.3,0.2]]","[[-0.125,-0.2],[0.125,-0.2]]",-0.123842593,-0.210648148,1,0,0,1.733,o1_image,184.462,1,184.959,184.959,186.958,0,0,0,0,1,,,,,,,,,,,,,,,,,,,,,,,,,,,,,,,,,,,,,,,,,,,,,,,,,,
,,5ba4d6c929629d00014e6c28,35,male,2024-04-19_18h39.42.507,stockport_simplified,2022.2.4,Win32,60.0240096,661e456ee6de07e70aa9ef7b,66229d99094ac4f56051407c,,,,,,,,,,,,,,,,,,,,,,,,,,,,,,,,,,,,,,,,,,,,,,,,,,,,,,,,0,17,17,53,1,N,M,C,o1_image,stimuli/out1.png,stimuli/correct_out1.png,stimuli/out2.png,,,,,,,,,,,,,,,,,,,,,,,,,,,,,,,,,,,,,,
,,5ba4d6c929629d00014e6c28,35,male,2024-04-19_18h39.42.507,stockport_simplified,2022.2.4,Win32,60.0240096,661e456ee6de07e70aa9ef7b,66229d99094ac4f56051407c,,,,,,,,,,,,,,,,,,,,,,,,,,,,,,,,,,186.958,189.741,"[6,3,5,1,4,8,2,7]","[[-0.3,0.2],[0.3,0.2]]","[[0.125,-0.2],[-0.125,-0.2]]",0.105324074,-0.173611111,1,0,0,2.264,o1_image,189.743,1,190.24,190.24,192.239,0,0,0,0,1,,,,,,,,,,,,,,,,,,,,,,,,,,,,,,,,,,,,,,,,,,,,,,,,,,
,,5ba4d6c929629d00014e6c28,35,male,2024-04-19_18h39.42.507,stockport_simplified,2022.2.4,Win32,60.0240096,661e456ee6de07e70aa9ef7b,66229d99094ac4f56051407c,,,,,,,,,,,,,,,,,,,,,,,,,,,,,,,,,,,,,,,,,,,,,,,,,,,,,,,,0,18,18,2,1,A,X,N,o1_image,stimuli/out1.png,stimuli/correct_out1.png,stimuli/out2.png,,,,,,,,,,,,,,,,,,,,,,,,,,,,,,,,,,,,,,
,,5ba4d6c929629d00014e6c28,35,male,2024-04-19_18h39.42.507,stockport_simplified,2022.2.4,Win32,60.0240096,661e456ee6de07e70aa9ef7b,66229d99094ac4f56051407c,,,,,,,,,,,,,,,,,,,,,,,,,,,,,,,,,,192.24,194.806,"[6,3,5,1,4,8,2,7]","[[0.3,0.2],[-0.3,0.2]]","[[-0.125,-0.2],[0.125,-0.2]]",-0.083333333,-0.172453704,1,0,0,2.05,o1_image,194.812,1,195.306,195.306,197.305,0,0,0,0,1,,,,,,,,,,,,,,,,,,,,,,,,,,,,,,,,,,,,,,,,,,,,,,,,,,
,,5ba4d6c929629d00014e6c28,35,male,2024-04-19_18h39.42.507,stockport_simplified,2022.2.4,Win32,60.0240096,661e456ee6de07e70aa9ef7b,66229d99094ac4f56051407c,,,,,,,,,,,,,,,,,,,,,,,,,,,,,,,,,,,,,,,,,,,,,,,,,,,,,,,,0,19,19,30,1,A,X,N,o1_image,stimuli/out1.png,stimuli/correct_out1.png,stimuli/out2.png,,,,,,,,,,,,,,,,,,,,,,,,,,,,,,,,,,,,,,
,,5ba4d6c929629d00014e6c28,35,male,2024-04-19_18h39.42.507,stockport_simplified,2022.2.4,Win32,60.0240096,661e456ee6de07e70aa9ef7b,66229d99094ac4f56051407c,,,,,,,,,,,,,,,,,,,,,,,,,,,,,,,,,,197.306,201.487,"[6,3,5,1,4,8,2,7]","[[-0.3,0.2],[0.3,0.2]]","[[-0.125,-0.2],[0.125,-0.2]]",0.113425926,-0.168981481,1,0,0,3.662,o2_image,201.492,1,201.987,201.987,203.986,0,0,0,0,1,,,,,,,,,,,,,,,,,,,,,,,,,,,,,,,,,,,,,,,,,,,,,,,,,,
,,5ba4d6c929629d00014e6c28,35,male,2024-04-19_18h39.42.507,stockport_simplified,2022.2.4,Win32,60.0240096,661e456ee6de07e70aa9ef7b,66229d99094ac4f56051407c,,,,,,,,,,,,,,,,,,,,,,,,,,,,,,,,,,,,,,,,,,,,,,,,,,,,,,,,0,20,20,47,1,B,Y,N,o2_image,stimuli/out2.png,stimuli/out1.png,stimuli/correct_out2.png,,,,,,,,,,,,,,,,,,,,,,,,,,,,,,,,,,,,,,
,,5ba4d6c929629d00014e6c28,35,male,2024-04-19_18h39.42.507,stockport_simplified,2022.2.4,Win32,60.0240096,661e456ee6de07e70aa9ef7b,66229d99094ac4f56051407c,,,,,,,,,,,,,,,,,,,,,,,,,,,,,,,,,,203.987,206.917,"[6,3,5,1,4,8,2,7]","[[0.3,0.2],[-0.3,0.2]]","[[0.125,-0.2],[-0.125,-0.2]]",0.12962963,-0.200231481,1,0,0,2.414,o1_image,206.921,1,207.417,207.417,209.417,0,0,0,0,1,,,,,,,,,,,,,,,,,,,,,,,,,,,,,,,,,,,,,,,,,,,,,,,,,,
,,5ba4d6c929629d00014e6c28,35,male,2024-04-19_18h39.42.507,stockport_simplified,2022.2.4,Win32,60.0240096,661e456ee6de07e70aa9ef7b,66229d99094ac4f56051407c,,,,,,,,,,,,,,,,,,,,,,,,,,,,,,,,,,,,,,,,,,,,,,,,,,,,,,,,0,21,21,6,1,A,Y,N,o1_image,stimuli/out1.png,stimuli/correct_out1.png,stimuli/out2.png,,,,,,,,,,,,,,,,,,,,,,,,,,,,,,,,,,,,,,
,,5ba4d6c929629d00014e6c28,35,male,2024-04-19_18h39.42.507,stockport_simplified,2022.2.4,Win32,60.0240096,661e456ee6de07e70aa9ef7b,66229d99094ac4f56051407c,,,,,,,,,,,,,,,,,,,,,,,,,,,,,,,,,,209.418,211.3,"[6,3,5,1,4,8,2,7]","[[0.3,0.2],[-0.3,0.2]]","[[-0.125,-0.2],[0.125,-0.2]]",-0.122685185,-0.197916667,1,0,0,1.365,o1_image,211.302,1,211.806,211.806,213.799,0,0,0,0,1,,,,,,,,,,,,,,,,,,,,,,,,,,,,,,,,,,,,,,,,,,,,,,,,,,
,,5ba4d6c929629d00014e6c28,35,male,2024-04-19_18h39.42.507,stockport_simplified,2022.2.4,Win32,60.0240096,661e456ee6de07e70aa9ef7b,66229d99094ac4f56051407c,,,,,,,,,,,,,,,,,,,,,,,,,,,,,,,,,,,,,,,,,,,,,,,,,,,,,,,,0,22,22,54,1,N,M,C,o1_image,stimuli/out1.png,stimuli/correct_out1.png,stimuli/out2.png,,,,,,,,,,,,,,,,,,,,,,,,,,,,,,,,,,,,,,
,,5ba4d6c929629d00014e6c28,35,male,2024-04-19_18h39.42.507,stockport_simplified,2022.2.4,Win32,60.0240096,661e456ee6de07e70aa9ef7b,66229d99094ac4f56051407c,,,,,,,,,,,,,,,,,,,,,,,,,,,,,,,,,,213.8,215.782,"[6,3,5,1,4,8,2,7]","[[0.3,0.2],[-0.3,0.2]]","[[0.125,-0.2],[-0.125,-0.2]]",-0.122685185,-0.197916667,1,0,0,1.466,o2_image,215.786,1,216.281,216.281,218.281,0,0,0,0,1,,,,,,,,,,,,,,,,,,,,,,,,,,,,,,,,,,,,,,,,,,,,,,,,,,
,,5ba4d6c929629d00014e6c28,35,male,2024-04-19_18h39.42.507,stockport_simplified,2022.2.4,Win32,60.0240096,661e456ee6de07e70aa9ef7b,66229d99094ac4f56051407c,,,,,,,,,,,,,,,,,,,,,,,,,,,,,,,,,,,,,,,,,,,,,,,,,,,,,,,,0,23,23,59,1,N,M,D,o2_image,stimuli/out2.png,stimuli/out1.png,stimuli/correct_out2.png,,,,,,,,,,,,,,,,,,,,,,,,,,,,,,,,,,,,,,
,,5ba4d6c929629d00014e6c28,35,male,2024-04-19_18h39.42.507,stockport_simplified,2022.2.4,Win32,60.0240096,661e456ee6de07e70aa9ef7b,66229d99094ac4f56051407c,,,,,,,,,,,,,,,,,,,,,,,,,,,,,,,,,,218.281,220.48,"[6,3,5,1,4,8,2,7]","[[0.3,0.2],[-0.3,0.2]]","[[0.125,-0.2],[-0.125,-0.2]]",0.090277778,-0.177083333,1,0,0,1.698,o1_image,220.482,1,220.98,220.98,222.979,0,0,0,0,1,,,,,,,,,,,,,,,,,,,,,,,,,,,,,,,,,,,,,,,,,,,,,,,,,,
,,5ba4d6c929629d00014e6c28,35,male,2024-04-19_18h39.42.507,stockport_simplified,2022.2.4,Win32,60.0240096,661e456ee6de07e70aa9ef7b,66229d99094ac4f56051407c,,,,,,,,,,,,,,,,,,,,,,,,,,,,,,,,,,,,,,,,,,,,,,,,,,,,,,,,0,24,24,34,1,A,X,N,o1_image,stimuli/out1.png,stimuli/correct_out1.png,stimuli/out2.png,,,,,,,,,,,,,,,,,,,,,,,,,,,,,,,,,,,,,,
,,5ba4d6c929629d00014e6c28,35,male,2024-04-19_18h39.42.507,stockport_simplified,2022.2.4,Win32,60.0240096,661e456ee6de07e70aa9ef7b,66229d99094ac4f56051407c,,,,,,,,,,,,,,,,,,,,,,,,,,,,,,,,,,222.979,225.779,"[6,3,5,1,4,8,2,7]","[[0.3,0.2],[-0.3,0.2]]","[[0.125,-0.2],[-0.125,-0.2]]",0.143518519,-0.164351852,1,0,0,2.299,o1_image,225.784,1,226.278,226.278,228.277,0,0,0,0,1,,,,,,,,,,,,,,,,,,,,,,,,,,,,,,,,,,,,,,,,,,,,,,,,,,
,,5ba4d6c929629d00014e6c28,35,male,2024-04-19_18h39.42.507,stockport_simplified,2022.2.4,Win32,60.0240096,661e456ee6de07e70aa9ef7b,66229d99094ac4f56051407c,,,,,,,,,,,,,,,,,,,,,,,,,,,,,,,,,,,,,,,,,,,,,,,,,,,,,,,,0,25,25,9,1,A,Y,N,o1_image,stimuli/out1.png,stimuli/correct_out1.png,stimuli/out2.png,,,,,,,,,,,,,,,,,,,,,,,,,,,,,,,,,,,,,,
,,5ba4d6c929629d00014e6c28,35,male,2024-04-19_18h39.42.507,stockport_simplified,2022.2.4,Win32,60.0240096,661e456ee6de07e70aa9ef7b,66229d99094ac4f56051407c,,,,,,,,,,,,,,,,,,,,,,,,,,,,,,,,,,228.279,230.36,"[6,3,5,1,4,8,2,7]","[[-0.3,0.2],[0.3,0.2]]","[[-0.125,-0.2],[0.125,-0.2]]",-0.126157407,-0.1875,1,0,0,1.565,o1_image,230.363,1,230.86,230.86,232.859,0,0,0,0,1,,,,,,,,,,,,,,,,,,,,,,,,,,,,,,,,,,,,,,,,,,,,,,,,,,
,,5ba4d6c929629d00014e6c28,35,male,2024-04-19_18h39.42.507,stockport_simplified,2022.2.4,Win32,60.0240096,661e456ee6de07e70aa9ef7b,66229d99094ac4f56051407c,,,,,,,,,,,,,,,,,,,,,,,,,,,,,,,,,,,,,,,,,,,,,,,,,,,,,,,,0,26,26,33,1,A,X,N,o1_image,stimuli/out1.png,stimuli/correct_out1.png,stimuli/out2.png,,,,,,,,,,,,,,,,,,,,,,,,,,,,,,,,,,,,,,
,,5ba4d6c929629d00014e6c28,35,male,2024-04-19_18h39.42.507,stockport_simplified,2022.2.4,Win32,60.0240096,661e456ee6de07e70aa9ef7b,66229d99094ac4f56051407c,,,,,,,,,,,,,,,,,,,,,,,,,,,,,,,,,,232.86,234.975,"[6,3,5,1,4,8,2,7]","[[0.3,0.2],[-0.3,0.2]]","[[0.125,-0.2],[-0.125,-0.2]]",0.09375,-0.184027778,1,0,0,1.6,o1_image,234.978,1,235.475,235.475,237.474,0,0,0,0,1,,,,,,,,,,,,,,,,,,,,,,,,,,,,,,,,,,,,,,,,,,,,,,,,,,
,,5ba4d6c929629d00014e6c28,35,male,2024-04-19_18h39.42.507,stockport_simplified,2022.2.4,Win32,60.0240096,661e456ee6de07e70aa9ef7b,66229d99094ac4f56051407c,,,,,,,,,,,,,,,,,,,,,,,,,,,,,,,,,,,,,,,,,,,,,,,,,,,,,,,,0,27,27,32,1,A,X,N,o1_image,stimuli/out1.png,stimuli/correct_out1.png,stimuli/out2.png,,,,,,,,,,,,,,,,,,,,,,,,,,,,,,,,,,,,,,
,,5ba4d6c929629d00014e6c28,35,male,2024-04-19_18h39.42.507,stockport_simplified,2022.2.4,Win32,60.0240096,661e456ee6de07e70aa9ef7b,66229d99094ac4f56051407c,,,,,,,,,,,,,,,,,,,,,,,,,,,,,,,,,,237.476,239.441,"[6,3,5,1,4,8,2,7]","[[-0.3,0.2],[0.3,0.2]]","[[-0.125,-0.2],[0.125,-0.2]]",-0.150462963,-0.189814815,1,0,0,1.449,o1_image,239.443,1,239.94,239.94,241.939,0,0,0,0,1,,,,,,,,,,,,,,,,,,,,,,,,,,,,,,,,,,,,,,,,,,,,,,,,,,
,,5ba4d6c929629d00014e6c28,35,male,2024-04-19_18h39.42.507,stockport_simplified,2022.2.4,Win32,60.0240096,661e456ee6de07e70aa9ef7b,66229d99094ac4f56051407c,,,,,,,,,,,,,,,,,,,,,,,,,,,,,,,,,,,,,,,,,,,,,,,,,,,,,,,,0,28,28,21,1,N,M,C,o1_image,stimuli/out1.png,stimuli/correct_out1.png,stimuli/out2.png,,,,,,,,,,,,,,,,,,,,,,,,,,,,,,,,,,,,,,
,,5ba4d6c929629d00014e6c28,35,male,2024-04-19_18h39.42.507,stockport_simplified,2022.2.4,Win32,60.0240096,661e456ee6de07e70aa9ef7b,66229d99094ac4f56051407c,,,,,,,,,,,,,,,,,,,,,,,,,,,,,,,,,,241.94,243.472,"[6,3,5,1,4,8,2,7]","[[-0.3,0.2],[0.3,0.2]]","[[-0.125,-0.2],[0.125,-0.2]]",-0.150462963,-0.189814815,1,0,0,1.015,o1_image,243.476,1,243.972,243.972,245.971,0,0,0,0,1,,,,,,,,,,,,,,,,,,,,,,,,,,,,,,,,,,,,,,,,,,,,,,,,,,
,,5ba4d6c929629d00014e6c28,35,male,2024-04-19_18h39.42.507,stockport_simplified,2022.2.4,Win32,60.0240096,661e456ee6de07e70aa9ef7b,66229d99094ac4f56051407c,,,,,,,,,,,,,,,,,,,,,,,,,,,,,,,,,,,,,,,,,,,,,,,,,,,,,,,,0,29,29,31,1,A,X,N,o1_image,stimuli/out1.png,stimuli/correct_out1.png,stimuli/out2.png,,,,,,,,,,,,,,,,,,,,,,,,,,,,,,,,,,,,,,
,,5ba4d6c929629d00014e6c28,35,male,2024-04-19_18h39.42.507,stockport_simplified,2022.2.4,Win32,60.0240096,661e456ee6de07e70aa9ef7b,66229d99094ac4f56051407c,,,,,,,,,,,,,,,,,,,,,,,,,,,,,,,,,,245.972,248.204,"[6,3,5,1,4,8,2,7]","[[-0.3,0.2],[0.3,0.2]]","[[0.125,-0.2],[-0.125,-0.2]]",-0.104166667,-0.168981481,1,0,0,1.716,o2_image,248.207,1,248.703,248.703,250.703,0,0,0,0,1,,,,,,,,,,,,,,,,,,,,,,,,,,,,,,,,,,,,,,,,,,,,,,,,,,
,,5ba4d6c929629d00014e6c28,35,male,2024-04-19_18h39.42.507,stockport_simplified,2022.2.4,Win32,60.0240096,661e456ee6de07e70aa9ef7b,66229d99094ac4f56051407c,,,,,,,,,,,,,,,,,,,,,,,,,,,,,,,,,,,,,,,,,,,,,,,,,,,,,,,,0,30,30,28,1,N,M,D,o2_image,stimuli/out2.png,stimuli/out1.png,stimuli/correct_out2.png,,,,,,,,,,,,,,,,,,,,,,,,,,,,,,,,,,,,,,
,,5ba4d6c929629d00014e6c28,35,male,2024-04-19_18h39.42.507,stockport_simplified,2022.2.4,Win32,60.0240096,661e456ee6de07e70aa9ef7b,66229d99094ac4f56051407c,,,,,,,,,,,,,,,,,,,,,,,,,,,,,,,,,,250.703,252.77,"[6,3,5,1,4,8,2,7]","[[-0.3,0.2],[0.3,0.2]]","[[0.125,-0.2],[-0.125,-0.2]]",0.09837963,-0.181712963,1,0,0,1.567,o1_image,252.775,1,253.269,253.269,255.268,0,0,0,0,1,,,,,,,,,,,,,,,,,,,,,,,,,,,,,,,,,,,,,,,,,,,,,,,,,,
,,5ba4d6c929629d00014e6c28,35,male,2024-04-19_18h39.42.507,stockport_simplified,2022.2.4,Win32,60.0240096,661e456ee6de07e70aa9ef7b,66229d99094ac4f56051407c,,,,,,,,,,,,,,,,,,,,,,,,,,,,,,,,,,,,,,,,,,,,,,,,,,,,,,,,0,31,31,7,1,A,Y,N,o1_image,stimuli/out1.png,stimuli/correct_out1.png,stimuli/out2.png,,,,,,,,,,,,,,,,,,,,,,,,,,,,,,,,,,,,,,
,,5ba4d6c929629d00014e6c28,35,male,2024-04-19_18h39.42.507,stockport_simplified,2022.2.4,Win32,60.0240096,661e456ee6de07e70aa9ef7b,66229d99094ac4f56051407c,,,,,,,,,,,,,,,,,,,,,,,,,,,,,,,,,,255.269,257.303,"[6,3,5,1,4,8,2,7]","[[-0.3,0.2],[0.3,0.2]]","[[-0.125,-0.2],[0.125,-0.2]]",-0.116898148,-0.203703704,1,0,0,1.513,o1_image,257.31,1,257.801,257.801,259.8,0,0,0,0,1,,,,,,,,,,,,,,,,,,,,,,,,,,,,,,,,,,,,,,,,,,,,,,,,,,
,,5ba4d6c929629d00014e6c28,35,male,2024-04-19_18h39.42.507,stockport_simplified,2022.2.4,Win32,60.0240096,661e456ee6de07e70aa9ef7b,66229d99094ac4f56051407c,,,,,,,,,,,,,,,,,,,,,,,,,,,,,,,,,,,,,,,,,,,,,,,,,,,,,,,,0,32,32,4,1,A,X,N,o1_image,stimuli/out1.png,stimuli/correct_out1.png,stimuli/out2.png,,,,,,,,,,,,,,,,,,,,,,,,,,,,,,,,,,,,,,
,,5ba4d6c929629d00014e6c28,35,male,2024-04-19_18h39.42.507,stockport_simplified,2022.2.4,Win32,60.0240096,661e456ee6de07e70aa9ef7b,66229d99094ac4f56051407c,,,,,,,,,,,,,,,,,,,,,,,,,,,,,,,,,,259.803,261.882,"[6,3,5,1,4,8,2,7]","[[-0.3,0.2],[0.3,0.2]]","[[0.125,-0.2],[-0.125,-0.2]]",0.083333333,-0.196759259,1,0,0,1.565,o1_image,261.887,1,262.383,262.383,264.382,0,0,0,0,1,,,,,,,,,,,,,,,,,,,,,,,,,,,,,,,,,,,,,,,,,,,,,,,,,,
,,5ba4d6c929629d00014e6c28,35,male,2024-04-19_18h39.42.507,stockport_simplified,2022.2.4,Win32,60.0240096,661e456ee6de07e70aa9ef7b,66229d99094ac4f56051407c,,,,,,,,,,,,,,,,,,,,,,,,,,,,,,,,,,,,,,,,,,,,,,,,,,,,,,,,0,33,33,35,1,A,Y,N,o1_image,stimuli/out1.png,stimuli/correct_out1.png,stimuli/out2.png,,,,,,,,,,,,,,,,,,,,,,,,,,,,,,,,,,,,,,
,,5ba4d6c929629d00014e6c28,35,male,2024-04-19_18h39.42.507,stockport_simplified,2022.2.4,Win32,60.0240096,661e456ee6de07e70aa9ef7b,66229d99094ac4f56051407c,,,,,,,,,,,,,,,,,,,,,,,,,,,,,,,,,,264.383,266.731,"[6,3,5,1,4,8,2,7]","[[0.3,0.2],[-0.3,0.2]]","[[-0.125,-0.2],[0.125,-0.2]]",0.119212963,-0.159722222,1,0,0,1.831,o2_image,266.733,1,267.23,267.23,269.23,0,0,0,0,1,,,,,,,,,,,,,,,,,,,,,,,,,,,,,,,,,,,,,,,,,,,,,,,,,,
,,5ba4d6c929629d00014e6c28,35,male,2024-04-19_18h39.42.507,stockport_simplified,2022.2.4,Win32,60.0240096,661e456ee6de07e70aa9ef7b,66229d99094ac4f56051407c,,,,,,,,,,,,,,,,,,,,,,,,,,,,,,,,,,,,,,,,,,,,,,,,,,,,,,,,0,34,34,46,1,B,Y,N,o2_image,stimuli/out2.png,stimuli/out1.png,stimuli/correct_out2.png,,,,,,,,,,,,,,,,,,,,,,,,,,,,,,,,,,,,,,
,,5ba4d6c929629d00014e6c28,35,male,2024-04-19_18h39.42.507,stockport_simplified,2022.2.4,Win32,60.0240096,661e456ee6de07e70aa9ef7b,66229d99094ac4f56051407c,,,,,,,,,,,,,,,,,,,,,,,,,,,,,,,,,,269.231,271.846,"[6,3,5,1,4,8,2,7]","[[-0.3,0.2],[0.3,0.2]]","[[-0.125,-0.2],[0.125,-0.2]]",0.104166667,-0.158564815,1,0,0,2.1,o2_image,271.85,1,272.345,272.346,274.344,0,0,0,0,1,,,,,,,,,,,,,,,,,,,,,,,,,,,,,,,,,,,,,,,,,,,,,,,,,,
,,5ba4d6c929629d00014e6c28,35,male,2024-04-19_18h39.42.507,stockport_simplified,2022.2.4,Win32,60.0240096,661e456ee6de07e70aa9ef7b,66229d99094ac4f56051407c,,,,,,,,,,,,,,,,,,,,,,,,,,,,,,,,,,,,,,,,,,,,,,,,,,,,,,,,0,35,35,49,1,B,Y,N,o2_image,stimuli/out2.png,stimuli/out1.png,stimuli/correct_out2.png,,,,,,,,,,,,,,,,,,,,,,,,,,,,,,,,,,,,,,
,,5ba4d6c929629d00014e6c28,35,male,2024-04-19_18h39.42.507,stockport_simplified,2022.2.4,Win32,60.0240096,661e456ee6de07e70aa9ef7b,66229d99094ac4f56051407c,,,,,,,,,,,,,,,,,,,,,,,,,,,,,,,,,,274.346,276.861,"[6,3,5,1,4,8,2,7]","[[-0.3,0.2],[0.3,0.2]]","[[-0.125,-0.2],[0.125,-0.2]]",-0.104166667,-0.196759259,1,0,0,1.999,o1_image,276.865,1,277.36,277.36,279.36,0,0,0,0,1,,,,,,,,,,,,,,,,,,,,,,,,,,,,,,,,,,,,,,,,,,,,,,,,,,
,,5ba4d6c929629d00014e6c28,35,male,2024-04-19_18h39.42.507,stockport_simplified,2022.2.4,Win32,60.0240096,661e456ee6de07e70aa9ef7b,66229d99094ac4f56051407c,,,,,,,,,,,,,,,,,,,,,,,,,,,,,,,,,,,,,,,,,,,,,,,,,,,,,,,,0,36,36,50,1,N,M,C,o1_image,stimuli/out1.png,stimuli/correct_out1.png,stimuli/out2.png,,,,,,,,,,,,,,,,,,,,,,,,,,,,,,,,,,,,,,
,,5ba4d6c929629d00014e6c28,35,male,2024-04-19_18h39.42.507,stockport_simplified,2022.2.4,Win32,60.0240096,661e456ee6de07e70aa9ef7b,66229d99094ac4f56051407c,,,,,,,,,,,,,,,,,,,,,,,,,,,,,,,,,,279.36,281.609,"[6,3,5,1,4,8,2,7]","[[-0.3,0.2],[0.3,0.2]]","[[-0.125,-0.2],[0.125,-0.2]]",0.076388889,-0.194444444,1,0,0,1.749,o2_image,281.611,1,282.109,282.109,284.109,0,0,0,0,1,,,,,,,,,,,,,,,,,,,,,,,,,,,,,,,,,,,,,,,,,,,,,,,,,,
,,5ba4d6c929629d00014e6c28,35,male,2024-04-19_18h39.42.507,stockport_simplified,2022.2.4,Win32,60.0240096,661e456ee6de07e70aa9ef7b,66229d99094ac4f56051407c,,,,,,,,,,,,,,,,,,,,,,,,,,,,,,,,,,,,,,,,,,,,,,,,,,,,,,,,0,37,37,15,1,B,Y,N,o2_image,stimuli/out2.png,stimuli/out1.png,stimuli/correct_out2.png,,,,,,,,,,,,,,,,,,,,,,,,,,,,,,,,,,,,,,
,,5ba4d6c929629d00014e6c28,35,male,2024-04-19_18h39.42.507,stockport_simplified,2022.2.4,Win32,60.0240096,661e456ee6de07e70aa9ef7b,66229d99094ac4f56051407c,,,,,,,,,,,,,,,,,,,,,,,,,,,,,,,,,,284.109,286.224,"[6,3,5,1,4,8,2,7]","[[0.3,0.2],[-0.3,0.2]]","[[0.125,-0.2],[-0.125,-0.2]]",0.091435185,-0.190972222,1,0,0,1.597,o1_image,286.227,1,286.724,286.724,288.724,0,0,0,0,1,,,,,,,,,,,,,,,,,,,,,,,,,,,,,,,,,,,,,,,,,,,,,,,,,,
,,5ba4d6c929629d00014e6c28,35,male,2024-04-19_18h39.42.507,stockport_simplified,2022.2.4,Win32,60.0240096,661e456ee6de07e70aa9ef7b,66229d99094ac4f56051407c,,,,,,,,,,,,,,,,,,,,,,,,,,,,,,,,,,,,,,,,,,,,,,,,,,,,,,,,0,38,38,22,1,N,M,C,o1_image,stimuli/out1.png,stimuli/correct_out1.png,stimuli/out2.png,,,,,,,,,,,,,,,,,,,,,,,,,,,,,,,,,,,,,,
,,5ba4d6c929629d00014e6c28,35,male,2024-04-19_18h39.42.507,stockport_simplified,2022.2.4,Win32,60.0240096,661e456ee6de07e70aa9ef7b,66229d99094ac4f56051407c,,,,,,,,,,,,,,,,,,,,,,,,,,,,,,,,,,288.73,291.623,"[6,3,5,1,4,8,2,7]","[[0.3,0.2],[-0.3,0.2]]","[[-0.125,-0.2],[0.125,-0.2]]",0.091435185,-0.190972222,1,0,0,2.378,o2_image,291.628,1,292.122,292.122,294.122,0,0,0,0,1,,,,,,,,,,,,,,,,,,,,,,,,,,,,,,,,,,,,,,,,,,,,,,,,,,
,,5ba4d6c929629d00014e6c28,35,male,2024-04-19_18h39.42.507,stockport_simplified,2022.2.4,Win32,60.0240096,661e456ee6de07e70aa9ef7b,66229d99094ac4f56051407c,,,,,,,,,,,,,,,,,,,,,,,,,,,,,,,,,,,,,,,,,,,,,,,,,,,,,,,,0,39,39,48,1,B,Y,N,o2_image,stimuli/out2.png,stimuli/out1.png,stimuli/correct_out2.png,,,,,,,,,,,,,,,,,,,,,,,,,,,,,,,,,,,,,,
,,5ba4d6c929629d00014e6c28,35,male,2024-04-19_18h39.42.507,stockport_simplified,2022.2.4,Win32,60.0240096,661e456ee6de07e70aa9ef7b,66229d99094ac4f56051407c,,,,,,,,,,,,,,,,,,,,,,,,,,,,,,,,,,294.123,296.338,"[6,3,5,1,4,8,2,7]","[[0.3,0.2],[-0.3,0.2]]","[[0.125,-0.2],[-0.125,-0.2]]",0.137731481,-0.184027778,1,0,0,1.698,o1_image,296.341,1,296.837,296.837,298.836,0,0,0,0,1,,,,,,,,,,,,,,,,,,,,,,,,,,,,,,,,,,,,,,,,,,,,,,,,,,
,,5ba4d6c929629d00014e6c28,35,male,2024-04-19_18h39.42.507,stockport_simplified,2022.2.4,Win32,60.0240096,661e456ee6de07e70aa9ef7b,66229d99094ac4f56051407c,,,,,,,,,,,,,,,,,,,,,,,,,,,,,,,,,,,,,,,,,,,,,,,,,,,,,,,,0,40,40,0,1,A,X,N,o1_image,stimuli/out1.png,stimuli/correct_out1.png,stimuli/out2.png,,,,,,,,,,,,,,,,,,,,,,,,,,,,,,,,,,,,,,
,,5ba4d6c929629d00014e6c28,35,male,2024-04-19_18h39.42.507,stockport_simplified,2022.2.4,Win32,60.0240096,661e456ee6de07e70aa9ef7b,66229d99094ac4f56051407c,,,,,,,,,,,,,,,,,,,,,,,,,,,,,,,,,,298.836,303.119,"[6,3,5,1,4,8,2,7]","[[0.3,0.2],[-0.3,0.2]]","[[0.125,-0.2],[-0.125,-0.2]]",-0.079861111,-0.217592593,1,0,0,3.782,o2_image,303.122,1,303.618,303.618,305.618,0,0,0,0,1,,,,,,,,,,,,,,,,,,,,,,,,,,,,,,,,,,,,,,,,,,,,,,,,,,
,,5ba4d6c929629d00014e6c28,35,male,2024-04-19_18h39.42.507,stockport_simplified,2022.2.4,Win32,60.0240096,661e456ee6de07e70aa9ef7b,66229d99094ac4f56051407c,,,,,,,,,,,,,,,,,,,,,,,,,,,,,,,,,,,,,,,,,,,,,,,,,,,,,,,,0,41,41,45,1,B,Y,N,o2_image,stimuli/out2.png,stimuli/out1.png,stimuli/correct_out2.png,,,,,,,,,,,,,,,,,,,,,,,,,,,,,,,,,,,,,,
,,5ba4d6c929629d00014e6c28,35,male,2024-04-19_18h39.42.507,stockport_simplified,2022.2.4,Win32,60.0240096,661e456ee6de07e70aa9ef7b,66229d99094ac4f56051407c,,,,,,,,,,,,,,,,,,,,,,,,,,,,,,,,,,305.618,307.55,"[6,3,5,1,4,8,2,7]","[[0.3,0.2],[-0.3,0.2]]","[[0.125,-0.2],[-0.125,-0.2]]",0.091435185,-0.173611111,1,0,0,1.415,o1_image,307.555,1,308.05,308.05,310.05,0,0,0,0,1,,,,,,,,,,,,,,,,,,,,,,,,,,,,,,,,,,,,,,,,,,,,,,,,,,
,,5ba4d6c929629d00014e6c28,35,male,2024-04-19_18h39.42.507,stockport_simplified,2022.2.4,Win32,60.0240096,661e456ee6de07e70aa9ef7b,66229d99094ac4f56051407c,,,,,,,,,,,,,,,,,,,,,,,,,,,,,,,,,,,,,,,,,,,,,,,,,,,,,,,,0,42,42,3,1,A,X,N,o1_image,stimuli/out1.png,stimuli/correct_out1.png,stimuli/out2.png,,,,,,,,,,,,,,,,,,,,,,,,,,,,,,,,,,,,,,
,,5ba4d6c929629d00014e6c28,35,male,2024-04-19_18h39.42.507,stockport_simplified,2022.2.4,Win32,60.0240096,661e456ee6de07e70aa9ef7b,66229d99094ac4f56051407c,,,,,,,,,,,,,,,,,,,,,,,,,,,,,,,,,,310.05,312.399,"[6,3,5,1,4,8,2,7]","[[0.3,0.2],[-0.3,0.2]]","[[-0.125,-0.2],[0.125,-0.2]]",0.091435185,-0.173611111,1,0,0,1.832,o2_image,312.401,1,312.898,312.898,314.897,0,0,0,0,1,,,,,,,,,,,,,,,,,,,,,,,,,,,,,,,,,,,,,,,,,,,,,,,,,,
,,5ba4d6c929629d00014e6c28,35,male,2024-04-19_18h39.42.507,stockport_simplified,2022.2.4,Win32,60.0240096,661e456ee6de07e70aa9ef7b,66229d99094ac4f56051407c,,,,,,,,,,,,,,,,,,,,,,,,,,,,,,,,,,,,,,,,,,,,,,,,,,,,,,,,0,43,43,18,1,B,Y,N,o2_image,stimuli/out2.png,stimuli/out1.png,stimuli/correct_out2.png,,,,,,,,,,,,,,,,,,,,,,,,,,,,,,,,,,,,,,
,,5ba4d6c929629d00014e6c28,35,male,2024-04-19_18h39.42.507,stockport_simplified,2022.2.4,Win32,60.0240096,661e456ee6de07e70aa9ef7b,66229d99094ac4f56051407c,,,,,,,,,,,,,,,,,,,,,,,,,,,,,,,,,,314.898,316.731,"[6,3,5,1,4,8,2,7]","[[0.3,0.2],[-0.3,0.2]]","[[-0.125,-0.2],[0.125,-0.2]]",0.091435185,-0.173611111,1,0,0,1.333,o2_image,316.733,1,317.231,317.231,319.229,0,0,0,0,1,,,,,,,,,,,,,,,,,,,,,,,,,,,,,,,,,,,,,,,,,,,,,,,,,,
,,5ba4d6c929629d00014e6c28,35,male,2024-04-19_18h39.42.507,stockport_simplified,2022.2.4,Win32,60.0240096,661e456ee6de07e70aa9ef7b,66229d99094ac4f56051407c,,,,,,,,,,,,,,,,,,,,,,,,,,,,,,,,,,,,,,,,,,,,,,,,,,,,,,,,0,44,44,10,1,B,X,N,o2_image,stimuli/out2.png,stimuli/out1.png,stimuli/correct_out2.png,,,,,,,,,,,,,,,,,,,,,,,,,,,,,,,,,,,,,,
,,5ba4d6c929629d00014e6c28,35,male,2024-04-19_18h39.42.507,stockport_simplified,2022.2.4,Win32,60.0240096,661e456ee6de07e70aa9ef7b,66229d99094ac4f56051407c,,,,,,,,,,,,,,,,,,,,,,,,,,,,,,,,,,319.23,321.514,"[6,3,5,1,4,8,2,7]","[[-0.3,0.2],[0.3,0.2]]","[[-0.125,-0.2],[0.125,-0.2]]",0.070601852,-0.173611111,1,0,0,1.765,o2_image,321.52,1,322.012,322.013,324.011,0,0,0,0,1,,,,,,,,,,,,,,,,,,,,,,,,,,,,,,,,,,,,,,,,,,,,,,,,,,
,,5ba4d6c929629d00014e6c28,35,male,2024-04-19_18h39.42.507,stockport_simplified,2022.2.4,Win32,60.0240096,661e456ee6de07e70aa9ef7b,66229d99094ac4f56051407c,,,,,,,,,,,,,,,,,,,,,,,,,,,,,,,,,,,,,,,,,,,,,,,,,,,,,,,,0,45,45,55,1,N,M,D,o2_image,stimuli/out2.png,stimuli/out1.png,stimuli/correct_out2.png,,,,,,,,,,,,,,,,,,,,,,,,,,,,,,,,,,,,,,
,,5ba4d6c929629d00014e6c28,35,male,2024-04-19_18h39.42.507,stockport_simplified,2022.2.4,Win32,60.0240096,661e456ee6de07e70aa9ef7b,66229d99094ac4f56051407c,,,,,,,,,,,,,,,,,,,,,,,,,,,,,,,,,,324.013,326.71,"[6,3,5,1,4,8,2,7]","[[-0.3,0.2],[0.3,0.2]]","[[0.125,-0.2],[-0.125,-0.2]]",-0.104166667,-0.199074074,1,0,0,2.18,o2_image,326.714,1,327.21,327.21,329.21,0,0,0,0,1,,,,,,,,,,,,,,,,,,,,,,,,,,,,,,,,,,,,,,,,,,,,,,,,,,
,,5ba4d6c929629d00014e6c28,35,male,2024-04-19_18h39.42.507,stockport_simplified,2022.2.4,Win32,60.0240096,661e456ee6de07e70aa9ef7b,66229d99094ac4f56051407c,,,,,,,,,,,,,,,,,,,,,,,,,,,,,,,,,,,,,,,,,,,,,,,,,,,,,,,,0,46,46,41,1,B,X,N,o2_image,stimuli/out2.png,stimuli/out1.png,stimuli/correct_out2.png,,,,,,,,,,,,,,,,,,,,,,,,,,,,,,,,,,,,,,
,,5ba4d6c929629d00014e6c28,35,male,2024-04-19_18h39.42.507,stockport_simplified,2022.2.4,Win32,60.0240096,661e456ee6de07e70aa9ef7b,66229d99094ac4f56051407c,,,,,,,,,,,,,,,,,,,,,,,,,,,,,,,,,,329.211,331.342,"[6,3,5,1,4,8,2,7]","[[-0.3,0.2],[0.3,0.2]]","[[0.125,-0.2],[-0.125,-0.2]]",-0.104166667,-0.199074074,1,0,0,1.615,o2_image,331.346,1,331.842,331.842,333.842,0,0,0,0,1,,,,,,,,,,,,,,,,,,,,,,,,,,,,,,,,,,,,,,,,,,,,,,,,,,
,,5ba4d6c929629d00014e6c28,35,male,2024-04-19_18h39.42.507,stockport_simplified,2022.2.4,Win32,60.0240096,661e456ee6de07e70aa9ef7b,66229d99094ac4f56051407c,,,,,,,,,,,,,,,,,,,,,,,,,,,,,,,,,,,,,,,,,,,,,,,,,,,,,,,,0,47,47,26,1,N,M,D,o2_image,stimuli/out2.png,stimuli/out1.png,stimuli/correct_out2.png,,,,,,,,,,,,,,,,,,,,,,,,,,,,,,,,,,,,,,
,,5ba4d6c929629d00014e6c28,35,male,2024-04-19_18h39.42.507,stockport_simplified,2022.2.4,Win32,60.0240096,661e456ee6de07e70aa9ef7b,66229d99094ac4f56051407c,,,,,,,,,,,,,,,,,,,,,,,,,,,,,,,,,,333.842,335.491,"[6,3,5,1,4,8,2,7]","[[-0.3,0.2],[0.3,0.2]]","[[0.125,-0.2],[-0.125,-0.2]]",-0.104166667,-0.199074074,1,0,0,1.133,o2_image,335.493,1,335.99,335.99,337.99,0,0,0,0,1,,,,,,,,,,,,,,,,,,,,,,,,,,,,,,,,,,,,,,,,,,,,,,,,,,
,,5ba4d6c929629d00014e6c28,35,male,2024-04-19_18h39.42.507,stockport_simplified,2022.2.4,Win32,60.0240096,661e456ee6de07e70aa9ef7b,66229d99094ac4f56051407c,,,,,,,,,,,,,,,,,,,,,,,,,,,,,,,,,,,,,,,,,,,,,,,,,,,,,,,,0,48,48,40,1,B,X,N,o2_image,stimuli/out2.png,stimuli/out1.png,stimuli/correct_out2.png,,,,,,,,,,,,,,,,,,,,,,,,,,,,,,,,,,,,,,
,,5ba4d6c929629d00014e6c28,35,male,2024-04-19_18h39.42.507,stockport_simplified,2022.2.4,Win32,60.0240096,661e456ee6de07e70aa9ef7b,66229d99094ac4f56051407c,,,,,,,,,,,,,,,,,,,,,,,,,,,,,,,,,,337.991,340.422,"[6,3,5,1,4,8,2,7]","[[-0.3,0.2],[0.3,0.2]]","[[-0.125,-0.2],[0.125,-0.2]]",0.09837963,-0.188657407,1,0,0,1.915,o2_image,340.424,1,340.922,340.922,342.922,0,0,0,0,1,,,,,,,,,,,,,,,,,,,,,,,,,,,,,,,,,,,,,,,,,,,,,,,,,,
,,5ba4d6c929629d00014e6c28,35,male,2024-04-19_18h39.42.507,stockport_simplified,2022.2.4,Win32,60.0240096,661e456ee6de07e70aa9ef7b,66229d99094ac4f56051407c,,,,,,,,,,,,,,,,,,,,,,,,,,,,,,,,,,,,,,,,,,,,,,,,,,,,,,,,0,49,49,25,1,N,M,D,o2_image,stimuli/out2.png,stimuli/out1.png,stimuli/correct_out2.png,,,,,,,,,,,,,,,,,,,,,,,,,,,,,,,,,,,,,,
,,5ba4d6c929629d00014e6c28,35,male,2024-04-19_18h39.42.507,stockport_simplified,2022.2.4,Win32,60.0240096,661e456ee6de07e70aa9ef7b,66229d99094ac4f56051407c,,,,,,,,,,,,,,,,,,,,,,,,,,,,,,,,,,342.923,344.871,"[6,3,5,1,4,8,2,7]","[[-0.3,0.2],[0.3,0.2]]","[[0.125,-0.2],[-0.125,-0.2]]",-0.071759259,-0.196759259,1,0,0,1.432,o2_image,344.872,1,345.371,345.371,347.37,0,0,0,0,1,,,,,,,,,,,,,,,,,,,,,,,,,,,,,,,,,,,,,,,,,,,,,,,,,,
,,5ba4d6c929629d00014e6c28,35,male,2024-04-19_18h39.42.507,stockport_simplified,2022.2.4,Win32,60.0240096,661e456ee6de07e70aa9ef7b,66229d99094ac4f56051407c,,,,,,,,,,,,,,,,,,,,,,,,,,,,,,,,,,,,,,,,,,,,,,,,,,,,,,,,0,50,50,27,1,N,M,D,o2_image,stimuli/out2.png,stimuli/out1.png,stimuli/correct_out2.png,,,,,,,,,,,,,,,,,,,,,,,,,,,,,,,,,,,,,,
,,5ba4d6c929629d00014e6c28,35,male,2024-04-19_18h39.42.507,stockport_simplified,2022.2.4,Win32,60.0240096,661e456ee6de07e70aa9ef7b,66229d99094ac4f56051407c,,,,,,,,,,,,,,,,,,,,,,,,,,,,,,,,,,347.37,349.536,"[6,3,5,1,4,8,2,7]","[[-0.3,0.2],[0.3,0.2]]","[[0.125,-0.2],[-0.125,-0.2]]",0.126157407,-0.171296296,1,0,0,1.666,o1_image,349.536,1,350.035,350.036,352.035,0,0,0,0,1,,,,,,,,,,,,,,,,,,,,,,,,,,,,,,,,,,,,,,,,,,,,,,,,,,
,,5ba4d6c929629d00014e6c28,35,male,2024-04-19_18h39.42.507,stockport_simplified,2022.2.4,Win32,60.0240096,661e456ee6de07e70aa9ef7b,66229d99094ac4f56051407c,,,,,,,,,,,,,,,,,,,,,,,,,,,,,,,,,,,,,,,,,,,,,,,,,,,,,,,,0,51,51,39,1,A,Y,N,o1_image,stimuli/out1.png,stimuli/correct_out1.png,stimuli/out2.png,,,,,,,,,,,,,,,,,,,,,,,,,,,,,,,,,,,,,,
,,5ba4d6c929629d00014e6c28,35,male,2024-04-19_18h39.42.507,stockport_simplified,2022.2.4,Win32,60.0240096,661e456ee6de07e70aa9ef7b,66229d99094ac4f56051407c,,,,,,,,,,,,,,,,,,,,,,,,,,,,,,,,,,352.036,354.334,"[6,3,5,1,4,8,2,7]","[[0.3,0.2],[-0.3,0.2]]","[[0.125,-0.2],[-0.125,-0.2]]",-0.049768519,-0.171296296,1,0,0,1.777,o2_image,354.341,1,354.834,354.834,356.834,0,0,0,0,1,,,,,,,,,,,,,,,,,,,,,,,,,,,,,,,,,,,,,,,,,,,,,,,,,,
,,5ba4d6c929629d00014e6c28,35,male,2024-04-19_18h39.42.507,stockport_simplified,2022.2.4,Win32,60.0240096,661e456ee6de07e70aa9ef7b,66229d99094ac4f56051407c,,,,,,,,,,,,,,,,,,,,,,,,,,,,,,,,,,,,,,,,,,,,,,,,,,,,,,,,0,52,52,11,1,B,X,N,o2_image,stimuli/out2.png,stimuli/out1.png,stimuli/correct_out2.png,,,,,,,,,,,,,,,,,,,,,,,,,,,,,,,,,,,,,,
,,5ba4d6c929629d00014e6c28,35,male,2024-04-19_18h39.42.507,stockport_simplified,2022.2.4,Win32,60.0240096,661e456ee6de07e70aa9ef7b,66229d99094ac4f56051407c,,,,,,,,,,,,,,,,,,,,,,,,,,,,,,,,,,356.835,359.282,"[6,3,5,1,4,8,2,7]","[[-0.3,0.2],[0.3,0.2]]","[[-0.125,-0.2],[0.125,-0.2]]",0.082175926,-0.155092593,1,0,0,1.932,o2_image,359.286,1,359.782,359.782,361.782,0,0,0,0,1,,,,,,,,,,,,,,,,,,,,,,,,,,,,,,,,,,,,,,,,,,,,,,,,,,
,,5ba4d6c929629d00014e6c28,35,male,2024-04-19_18h39.42.507,stockport_simplified,2022.2.4,Win32,60.0240096,661e456ee6de07e70aa9ef7b,66229d99094ac4f56051407c,,,,,,,,,,,,,,,,,,,,,,,,,,,,,,,,,,,,,,,,,,,,,,,,,,,,,,,,0,53,53,44,1,B,X,N,o2_image,stimuli/out2.png,stimuli/out1.png,stimuli/correct_out2.png,,,,,,,,,,,,,,,,,,,,,,,,,,,,,,,,,,,,,,
,,5ba4d6c929629d00014e6c28,35,male,2024-04-19_18h39.42.507,stockport_simplified,2022.2.4,Win32,60.0240096,661e456ee6de07e70aa9ef7b,66229d99094ac4f56051407c,,,,,,,,,,,,,,,,,,,,,,,,,,,,,,,,,,361.783,364.614,"[6,3,5,1,4,8,2,7]","[[-0.3,0.2],[0.3,0.2]]","[[0.125,-0.2],[-0.125,-0.2]]",0.142361111,-0.189814815,1,0,0,2.314,o1_image,364.618,1,365.114,365.114,367.114,0,0,0,0,1,,,,,,,,,,,,,,,,,,,,,,,,,,,,,,,,,,,,,,,,,,,,,,,,,,
,,5ba4d6c929629d00014e6c28,35,male,2024-04-19_18h39.42.507,stockport_simplified,2022.2.4,Win32,60.0240096,661e456ee6de07e70aa9ef7b,66229d99094ac4f56051407c,,,,,,,,,,,,,,,,,,,,,,,,,,,,,,,,,,,,,,,,,,,,,,,,,,,,,,,,0,54,54,8,1,A,Y,N,o1_image,stimuli/out1.png,stimuli/correct_out1.png,stimuli/out2.png,,,,,,,,,,,,,,,,,,,,,,,,,,,,,,,,,,,,,,
,,5ba4d6c929629d00014e6c28,35,male,2024-04-19_18h39.42.507,stockport_simplified,2022.2.4,Win32,60.0240096,661e456ee6de07e70aa9ef7b,66229d99094ac4f56051407c,,,,,,,,,,,,,,,,,,,,,,,,,,,,,,,,,,367.114,369.146,"[6,3,5,1,4,8,2,7]","[[0.3,0.2],[-0.3,0.2]]","[[-0.125,-0.2],[0.125,-0.2]]",-0.103009259,-0.155092593,1,0,0,1.514,o1_image,369.148,1,369.646,369.646,371.645,0,0,0,0,1,,,,,,,,,,,,,,,,,,,,,,,,,,,,,,,,,,,,,,,,,,,,,,,,,,
,,5ba4d6c929629d00014e6c28,35,male,2024-04-19_18h39.42.507,stockport_simplified,2022.2.4,Win32,60.0240096,661e456ee6de07e70aa9ef7b,66229d99094ac4f56051407c,,,,,,,,,,,,,,,,,,,,,,,,,,,,,,,,,,,,,,,,,,,,,,,,,,,,,,,,0,55,55,52,1,N,M,C,o1_image,stimuli/out1.png,stimuli/correct_out1.png,stimuli/out2.png,,,,,,,,,,,,,,,,,,,,,,,,,,,,,,,,,,,,,,
,,5ba4d6c929629d00014e6c28,35,male,2024-04-19_18h39.42.507,stockport_simplified,2022.2.4,Win32,60.0240096,661e456ee6de07e70aa9ef7b,66229d99094ac4f56051407c,,,,,,,,,,,,,,,,,,,,,,,,,,,,,,,,,,371.645,373.41,"[6,3,5,1,4,8,2,7]","[[0.3,0.2],[-0.3,0.2]]","[[0.125,-0.2],[-0.125,-0.2]]",0.094907407,-0.145833333,1,0,0,1.241,o1_image,373.414,1,373.911,373.911,375.911,0,0,0,0,1,,,,,,,,,,,,,,,,,,,,,,,,,,,,,,,,,,,,,,,,,,,,,,,,,,
,,5ba4d6c929629d00014e6c28,35,male,2024-04-19_18h39.42.507,stockport_simplified,2022.2.4,Win32,60.0240096,661e456ee6de07e70aa9ef7b,66229d99094ac4f56051407c,,,,,,,,,,,,,,,,,,,,,,,,,,,,,,,,,,,,,,,,,,,,,,,,,,,,,,,,0,56,56,51,1,N,M,C,o1_image,stimuli/out1.png,stimuli/correct_out1.png,stimuli/out2.png,,,,,,,,,,,,,,,,,,,,,,,,,,,,,,,,,,,,,,
,,5ba4d6c929629d00014e6c28,35,male,2024-04-19_18h39.42.507,stockport_simplified,2022.2.4,Win32,60.0240096,661e456ee6de07e70aa9ef7b,66229d99094ac4f56051407c,,,,,,,,,,,,,,,,,,,,,,,,,,,,,,,,,,375.911,379.476,"[6,3,5,1,4,8,2,7]","[[0.3,0.2],[-0.3,0.2]]","[[-0.125,-0.2],[0.125,-0.2]]",-0.149305556,-0.096064815,1,0,0,2.396,o1_image,379.479,1,379.975,379.975,381.975,0,0,0,0,1,,,,,,,,,,,,,,,,,,,,,,,,,,,,,,,,,,,,,,,,,,,,,,,,,,
,,5ba4d6c929629d00014e6c28,35,male,2024-04-19_18h39.42.507,stockport_simplified,2022.2.4,Win32,60.0240096,661e456ee6de07e70aa9ef7b,66229d99094ac4f56051407c,,,,,,,,,,,,,,,,,,,,,,,,,,,,,,,,,,,,,,,,,,,,,,,,,,,,,,,,0,57,57,5,1,A,Y,N,o1_image,stimuli/out1.png,stimuli/correct_out1.png,stimuli/out2.png,,,,,,,,,,,,,,,,,,,,,,,,,,,,,,,,,,,,,,
,,5ba4d6c929629d00014e6c28,35,male,2024-04-19_18h39.42.507,stockport_simplified,2022.2.4,Win32,60.0240096,661e456ee6de07e70aa9ef7b,66229d99094ac4f56051407c,,,,,,,,,,,,,,,,,,,,,,,,,,,,,,,,,,381.975,384.107,"[6,3,5,1,4,8,2,7]","[[0.3,0.2],[-0.3,0.2]]","[[-0.125,-0.2],[0.125,-0.2]]",-0.141203704,-0.16087963,1,0,0,1.632,o1_image,384.109,1,384.607,384.608,386.606,0,0,0,0,1,,,,,,,,,,,,,,,,,,,,,,,,,,,,,,,,,,,,,,,,,,,,,,,,,,
,,5ba4d6c929629d00014e6c28,35,male,2024-04-19_18h39.42.507,stockport_simplified,2022.2.4,Win32,60.0240096,661e456ee6de07e70aa9ef7b,66229d99094ac4f56051407c,,,,,,,,,,,,,,,,,,,,,,,,,,,,,,,,,,,,,,,,,,,,,,,,,,,,,,,,0,58,58,36,1,A,Y,N,o1_image,stimuli/out1.png,stimuli/correct_out1.png,stimuli/out2.png,,,,,,,,,,,,,,,,,,,,,,,,,,,,,,,,,,,,,,
,,5ba4d6c929629d00014e6c28,35,male,2024-04-19_18h39.42.507,stockport_simplified,2022.2.4,Win32,60.0240096,661e456ee6de07e70aa9ef7b,66229d99094ac4f56051407c,,,,,,,,,,,,,,,,,,,,,,,,,,,,,,,,,,386.61,388.707,"[6,3,5,1,4,8,2,7]","[[-0.3,0.2],[0.3,0.2]]","[[0.125,-0.2],[-0.125,-0.2]]",0.078703704,-0.155092593,1,0,0,1.582,o1_image,388.714,1,389.205,389.205,391.205,0,0,0,0,1,,,,,,,,,,,,,,,,,,,,,,,,,,,,,,,,,,,,,,,,,,,,,,,,,,
,,5ba4d6c929629d00014e6c28,35,male,2024-04-19_18h39.42.507,stockport_simplified,2022.2.4,Win32,60.0240096,661e456ee6de07e70aa9ef7b,66229d99094ac4f56051407c,,,,,,,,,,,,,,,,,,,,,,,,,,,,,,,,,,,,,,,,,,,,,,,,,,,,,,,,0,59,59,38,1,A,Y,N,o1_image,stimuli/out1.png,stimuli/correct_out1.png,stimuli/out2.png,,,,,,,,,,,,,,,,,,,,,,,,,,,,,,,,,,,,,,
,,5ba4d6c929629d00014e6c28,35,male,2024-04-19_18h39.42.507,stockport_simplified,2022.2.4,Win32,60.0240096,661e456ee6de07e70aa9ef7b,66229d99094ac4f56051407c,,,,,,,,,,,,,,,,,,,,,,,,,,,,,,,,,,391.207,393.205,"[6,3,5,1,4,8,2,7]","[[-0.3,0.2],[0.3,0.2]]","[[-0.125,-0.2],[0.125,-0.2]]",0.078703704,-0.155092593,1,0,0,1.479,o2_image,393.208,1,393.704,393.704,395.703,0,0,0,0,1,,,,,,,,,,,,,,,,,,,,,,,,,,,,,,,,,,,,,,,,,,,,,,,,,,
,,5ba4d6c929629d00014e6c28,35,male,2024-04-19_18h39.42.507,stockport_simplified,2022.2.4,Win32,60.0240096,661e456ee6de07e70aa9ef7b,66229d99094ac4f56051407c,,,,,,,,,,,,,,,,,,,,,,,,,,,,,,,,,,,,,,,,,,,,,,,,,,,,,,,,1,0,60,56,1,N,M,D,o2_image,stimuli/out2.png,stimuli/out1.png,stimuli/correct_out2.png,,,,,,,,,,,,,,,,,,,,,,,,,,,,,,,,,,,,,,
,,5ba4d6c929629d00014e6c28,35,male,2024-04-19_18h39.42.507,stockport_simplified,2022.2.4,Win32,60.0240096,661e456ee6de07e70aa9ef7b,66229d99094ac4f56051407c,,,,,,,,,,,,,,,,,,,,,,,,,,,,,,,,,,395.704,397.736,"[6,3,5,1,4,8,2,7]","[[0.3,0.2],[-0.3,0.2]]","[[-0.125,-0.2],[0.125,-0.2]]",0.078703704,-0.155092593,1,0,0,1.515,o2_image,397.738,1,398.235,398.235,400.235,0,0,0,0,1,,,,,,,,,,,,,,,,,,,,,,,,,,,,,,,,,,,,,,,,,,,,,,,,,,
,,5ba4d6c929629d00014e6c28,35,male,2024-04-19_18h39.42.507,stockport_simplified,2022.2.4,Win32,60.0240096,661e456ee6de07e70aa9ef7b,66229d99094ac4f56051407c,,,,,,,,,,,,,,,,,,,,,,,,,,,,,,,,,,,,,,,,,,,,,,,,,,,,,,,,1,1,61,48,1,B,Y,N,o2_image,stimuli/out2.png,stimuli/out1.png,stimuli/correct_out2.png,,,,,,,,,,,,,,,,,,,,,,,,,,,,,,,,,,,,,,
,,5ba4d6c929629d00014e6c28,35,male,2024-04-19_18h39.42.507,stockport_simplified,2022.2.4,Win32,60.0240096,661e456ee6de07e70aa9ef7b,66229d99094ac4f56051407c,,,,,,,,,,,,,,,,,,,,,,,,,,,,,,,,,,400.236,403.134,"[6,3,5,1,4,8,2,7]","[[0.3,0.2],[-0.3,0.2]]","[[-0.125,-0.2],[0.125,-0.2]]",-0.113425926,-0.162037037,1,0,0,2.382,o1_image,403.137,1,403.634,403.634,405.633,0,0,0,0,1,,,,,,,,,,,,,,,,,,,,,,,,,,,,,,,,,,,,,,,,,,,,,,,,,,
,,5ba4d6c929629d00014e6c28,35,male,2024-04-19_18h39.42.507,stockport_simplified,2022.2.4,Win32,60.0240096,661e456ee6de07e70aa9ef7b,66229d99094ac4f56051407c,,,,,,,,,,,,,,,,,,,,,,,,,,,,,,,,,,,,,,,,,,,,,,,,,,,,,,,,1,2,62,31,1,A,X,N,o1_image,stimuli/out1.png,stimuli/correct_out1.png,stimuli/out2.png,,,,,,,,,,,,,,,,,,,,,,,,,,,,,,,,,,,,,,
,,5ba4d6c929629d00014e6c28,35,male,2024-04-19_18h39.42.507,stockport_simplified,2022.2.4,Win32,60.0240096,661e456ee6de07e70aa9ef7b,66229d99094ac4f56051407c,,,,,,,,,,,,,,,,,,,,,,,,,,,,,,,,,,405.634,407.449,"[6,3,5,1,4,8,2,7]","[[0.3,0.2],[-0.3,0.2]]","[[0.125,-0.2],[-0.125,-0.2]]",0.146990741,-0.150462963,1,0,0,1.298,o1_image,407.452,1,407.949,407.949,409.948,0,0,0,0,1,,,,,,,,,,,,,,,,,,,,,,,,,,,,,,,,,,,,,,,,,,,,,,,,,,
,,5ba4d6c929629d00014e6c28,35,male,2024-04-19_18h39.42.507,stockport_simplified,2022.2.4,Win32,60.0240096,661e456ee6de07e70aa9ef7b,66229d99094ac4f56051407c,,,,,,,,,,,,,,,,,,,,,,,,,,,,,,,,,,,,,,,,,,,,,,,,,,,,,,,,1,3,63,20,1,N,M,C,o1_image,stimuli/out1.png,stimuli/correct_out1.png,stimuli/out2.png,,,,,,,,,,,,,,,,,,,,,,,,,,,,,,,,,,,,,,
,,5ba4d6c929629d00014e6c28,35,male,2024-04-19_18h39.42.507,stockport_simplified,2022.2.4,Win32,60.0240096,661e456ee6de07e70aa9ef7b,66229d99094ac4f56051407c,,,,,,,,,,,,,,,,,,,,,,,,,,,,,,,,,,409.949,411.998,"[6,3,5,1,4,8,2,7]","[[0.3,0.2],[-0.3,0.2]]","[[0.125,-0.2],[-0.125,-0.2]]",-0.105324074,-0.229166667,1,0,0,1.533,o2_image,412.001,1,412.498,412.498,414.496,0,0,0,0,1,,,,,,,,,,,,,,,,,,,,,,,,,,,,,,,,,,,,,,,,,,,,,,,,,,
,,5ba4d6c929629d00014e6c28,35,male,2024-04-19_18h39.42.507,stockport_simplified,2022.2.4,Win32,60.0240096,661e456ee6de07e70aa9ef7b,66229d99094ac4f56051407c,,,,,,,,,,,,,,,,,,,,,,,,,,,,,,,,,,,,,,,,,,,,,,,,,,,,,,,,1,4,64,28,1,N,M,D,o2_image,stimuli/out2.png,stimuli/out1.png,stimuli/correct_out2.png,,,,,,,,,,,,,,,,,,,,,,,,,,,,,,,,,,,,,,
,,5ba4d6c929629d00014e6c28,35,male,2024-04-19_18h39.42.507,stockport_simplified,2022.2.4,Win32,60.0240096,661e456ee6de07e70aa9ef7b,66229d99094ac4f56051407c,,,,,,,,,,,,,,,,,,,,,,,,,,,,,,,,,,414.498,416.731,"[6,3,5,1,4,8,2,7]","[[0.3,0.2],[-0.3,0.2]]","[[0.125,-0.2],[-0.125,-0.2]]",-0.105324074,-0.229166667,1,0,0,1.716,o2_image,416.737,1,417.23,417.23,419.229,0,0,0,0,1,,,,,,,,,,,,,,,,,,,,,,,,,,,,,,,,,,,,,,,,,,,,,,,,,,
,,5ba4d6c929629d00014e6c28,35,male,2024-04-19_18h39.42.507,stockport_simplified,2022.2.4,Win32,60.0240096,661e456ee6de07e70aa9ef7b,66229d99094ac4f56051407c,,,,,,,,,,,,,,,,,,,,,,,,,,,,,,,,,,,,,,,,,,,,,,,,,,,,,,,,1,5,65,17,1,B,Y,N,o2_image,stimuli/out2.png,stimuli/out1.png,stimuli/correct_out2.png,,,,,,,,,,,,,,,,,,,,,,,,,,,,,,,,,,,,,,
,,5ba4d6c929629d00014e6c28,35,male,2024-04-19_18h39.42.507,stockport_simplified,2022.2.4,Win32,60.0240096,661e456ee6de07e70aa9ef7b,66229d99094ac4f56051407c,,,,,,,,,,,,,,,,,,,,,,,,,,,,,,,,,,419.23,421.328,"[6,3,5,1,4,8,2,7]","[[0.3,0.2],[-0.3,0.2]]","[[0.125,-0.2],[-0.125,-0.2]]",-0.105324074,-0.229166667,1,0,0,1.582,o2_image,421.332,1,421.828,421.828,423.827,0,0,0,0,1,,,,,,,,,,,,,,,,,,,,,,,,,,,,,,,,,,,,,,,,,,,,,,,,,,
,,5ba4d6c929629d00014e6c28,35,male,2024-04-19_18h39.42.507,stockport_simplified,2022.2.4,Win32,60.0240096,661e456ee6de07e70aa9ef7b,66229d99094ac4f56051407c,,,,,,,,,,,,,,,,,,,,,,,,,,,,,,,,,,,,,,,,,,,,,,,,,,,,,,,,1,6,66,12,1,B,X,N,o2_image,stimuli/out2.png,stimuli/out1.png,stimuli/correct_out2.png,,,,,,,,,,,,,,,,,,,,,,,,,,,,,,,,,,,,,,
,,5ba4d6c929629d00014e6c28,35,male,2024-04-19_18h39.42.507,stockport_simplified,2022.2.4,Win32,60.0240096,661e456ee6de07e70aa9ef7b,66229d99094ac4f56051407c,,,,,,,,,,,,,,,,,,,,,,,,,,,,,,,,,,423.828,426.643,"[6,3,5,1,4,8,2,7]","[[0.3,0.2],[-0.3,0.2]]","[[-0.125,-0.2],[0.125,-0.2]]",-0.145833333,-0.188657407,1,0,0,2.299,o1_image,426.648,1,427.142,427.142,429.142,0,0,0,0,1,,,,,,,,,,,,,,,,,,,,,,,,,,,,,,,,,,,,,,,,,,,,,,,,,,
,,5ba4d6c929629d00014e6c28,35,male,2024-04-19_18h39.42.507,stockport_simplified,2022.2.4,Win32,60.0240096,661e456ee6de07e70aa9ef7b,66229d99094ac4f56051407c,,,,,,,,,,,,,,,,,,,,,,,,,,,,,,,,,,,,,,,,,,,,,,,,,,,,,,,,1,7,67,33,1,A,X,N,o1_image,stimuli/out1.png,stimuli/correct_out1.png,stimuli/out2.png,,,,,,,,,,,,,,,,,,,,,,,,,,,,,,,,,,,,,,
,,5ba4d6c929629d00014e6c28,35,male,2024-04-19_18h39.42.507,stockport_simplified,2022.2.4,Win32,60.0240096,661e456ee6de07e70aa9ef7b,66229d99094ac4f56051407c,,,,,,,,,,,,,,,,,,,,,,,,,,,,,,,,,,429.142,431.491,"[6,3,5,1,4,8,2,7]","[[0.3,0.2],[-0.3,0.2]]","[[-0.125,-0.2],[0.125,-0.2]]",-0.150462963,-0.190972222,1,0,0,1.833,o1_image,431.496,1,431.991,431.991,433.99,0,0,0,0,1,,,,,,,,,,,,,,,,,,,,,,,,,,,,,,,,,,,,,,,,,,,,,,,,,,
,,5ba4d6c929629d00014e6c28,35,male,2024-04-19_18h39.42.507,stockport_simplified,2022.2.4,Win32,60.0240096,661e456ee6de07e70aa9ef7b,66229d99094ac4f56051407c,,,,,,,,,,,,,,,,,,,,,,,,,,,,,,,,,,,,,,,,,,,,,,,,,,,,,,,,1,8,68,38,1,A,Y,N,o1_image,stimuli/out1.png,stimuli/correct_out1.png,stimuli/out2.png,,,,,,,,,,,,,,,,,,,,,,,,,,,,,,,,,,,,,,
,,5ba4d6c929629d00014e6c28,35,male,2024-04-19_18h39.42.507,stockport_simplified,2022.2.4,Win32,60.0240096,661e456ee6de07e70aa9ef7b,66229d99094ac4f56051407c,,,,,,,,,,,,,,,,,,,,,,,,,,,,,,,,,,433.991,435.74,"[6,3,5,1,4,8,2,7]","[[0.3,0.2],[-0.3,0.2]]","[[0.125,-0.2],[-0.125,-0.2]]",-0.150462963,-0.190972222,1,0,0,1.233,o2_image,435.745,1,436.24,436.24,438.239,0,0,0,0,1,,,,,,,,,,,,,,,,,,,,,,,,,,,,,,,,,,,,,,,,,,,,,,,,,,
,,5ba4d6c929629d00014e6c28,35,male,2024-04-19_18h39.42.507,stockport_simplified,2022.2.4,Win32,60.0240096,661e456ee6de07e70aa9ef7b,66229d99094ac4f56051407c,,,,,,,,,,,,,,,,,,,,,,,,,,,,,,,,,,,,,,,,,,,,,,,,,,,,,,,,1,9,69,25,1,N,M,D,o2_image,stimuli/out2.png,stimuli/out1.png,stimuli/correct_out2.png,,,,,,,,,,,,,,,,,,,,,,,,,,,,,,,,,,,,,,
,,5ba4d6c929629d00014e6c28,35,male,2024-04-19_18h39.42.507,stockport_simplified,2022.2.4,Win32,60.0240096,661e456ee6de07e70aa9ef7b,66229d99094ac4f56051407c,,,,,,,,,,,,,,,,,,,,,,,,,,,,,,,,,,438.24,440.172,"[6,3,5,1,4,8,2,7]","[[0.3,0.2],[-0.3,0.2]]","[[0.125,-0.2],[-0.125,-0.2]]",0.092592593,-0.207175926,1,0,0,1.416,o1_image,440.174,1,440.672,440.672,442.671,0,0,0,0,1,,,,,,,,,,,,,,,,,,,,,,,,,,,,,,,,,,,,,,,,,,,,,,,,,,
,,5ba4d6c929629d00014e6c28,35,male,2024-04-19_18h39.42.507,stockport_simplified,2022.2.4,Win32,60.0240096,661e456ee6de07e70aa9ef7b,66229d99094ac4f56051407c,,,,,,,,,,,,,,,,,,,,,,,,,,,,,,,,,,,,,,,,,,,,,,,,,,,,,,,,1,10,70,50,1,N,M,C,o1_image,stimuli/out1.png,stimuli/correct_out1.png,stimuli/out2.png,,,,,,,,,,,,,,,,,,,,,,,,,,,,,,,,,,,,,,
,,5ba4d6c929629d00014e6c28,35,male,2024-04-19_18h39.42.507,stockport_simplified,2022.2.4,Win32,60.0240096,661e456ee6de07e70aa9ef7b,66229d99094ac4f56051407c,,,,,,,,,,,,,,,,,,,,,,,,,,,,,,,,,,442.671,444.603,"[6,3,5,1,4,8,2,7]","[[0.3,0.2],[-0.3,0.2]]","[[0.125,-0.2],[-0.125,-0.2]]",-0.071759259,-0.215277778,1,0,0,1.416,o2_image,444.605,1,445.103,445.103,447.103,0,0,0,0,1,,,,,,,,,,,,,,,,,,,,,,,,,,,,,,,,,,,,,,,,,,,,,,,,,,
,,5ba4d6c929629d00014e6c28,35,male,2024-04-19_18h39.42.507,stockport_simplified,2022.2.4,Win32,60.0240096,661e456ee6de07e70aa9ef7b,66229d99094ac4f56051407c,,,,,,,,,,,,,,,,,,,,,,,,,,,,,,,,,,,,,,,,,,,,,,,,,,,,,,,,1,11,71,57,1,N,M,D,o2_image,stimuli/out2.png,stimuli/out1.png,stimuli/correct_out2.png,,,,,,,,,,,,,,,,,,,,,,,,,,,,,,,,,,,,,,
,,5ba4d6c929629d00014e6c28,35,male,2024-04-19_18h39.42.507,stockport_simplified,2022.2.4,Win32,60.0240096,661e456ee6de07e70aa9ef7b,66229d99094ac4f56051407c,,,,,,,,,,,,,,,,,,,,,,,,,,,,,,,,,,447.103,449.685,"[6,3,5,1,4,8,2,7]","[[0.3,0.2],[-0.3,0.2]]","[[0.125,-0.2],[-0.125,-0.2]]",0.097222222,-0.210648148,1,0,0,2.065,o1_image,449.685,1,450.185,450.185,452.186,0,0,0,0,1,,,,,,,,,,,,,,,,,,,,,,,,,,,,,,,,,,,,,,,,,,,,,,,,,,
,,5ba4d6c929629d00014e6c28,35,male,2024-04-19_18h39.42.507,stockport_simplified,2022.2.4,Win32,60.0240096,661e456ee6de07e70aa9ef7b,66229d99094ac4f56051407c,,,,,,,,,,,,,,,,,,,,,,,,,,,,,,,,,,,,,,,,,,,,,,,,,,,,,,,,1,12,72,51,1,N,M,C,o1_image,stimuli/out1.png,stimuli/correct_out1.png,stimuli/out2.png,,,,,,,,,,,,,,,,,,,,,,,,,,,,,,,,,,,,,,
,,5ba4d6c929629d00014e6c28,35,male,2024-04-19_18h39.42.507,stockport_simplified,2022.2.4,Win32,60.0240096,661e456ee6de07e70aa9ef7b,66229d99094ac4f56051407c,,,,,,,,,,,,,,,,,,,,,,,,,,,,,,,,,,452.191,454.683,"[6,3,5,1,4,8,2,7]","[[-0.3,0.2],[0.3,0.2]]","[[-0.125,-0.2],[0.125,-0.2]]",-0.134259259,-0.1875,1,0,0,1.977,o1_image,454.689,1,455.183,455.183,457.182,0,0,0,0,1,,,,,,,,,,,,,,,,,,,,,,,,,,,,,,,,,,,,,,,,,,,,,,,,,,
,,5ba4d6c929629d00014e6c28,35,male,2024-04-19_18h39.42.507,stockport_simplified,2022.2.4,Win32,60.0240096,661e456ee6de07e70aa9ef7b,66229d99094ac4f56051407c,,,,,,,,,,,,,,,,,,,,,,,,,,,,,,,,,,,,,,,,,,,,,,,,,,,,,,,,1,13,73,37,1,A,Y,N,o1_image,stimuli/out1.png,stimuli/correct_out1.png,stimuli/out2.png,,,,,,,,,,,,,,,,,,,,,,,,,,,,,,,,,,,,,,
,,5ba4d6c929629d00014e6c28,35,male,2024-04-19_18h39.42.507,stockport_simplified,2022.2.4,Win32,60.0240096,661e456ee6de07e70aa9ef7b,66229d99094ac4f56051407c,,,,,,,,,,,,,,,,,,,,,,,,,,,,,,,,,,457.183,459.198,"[6,3,5,1,4,8,2,7]","[[-0.3,0.2],[0.3,0.2]]","[[0.125,-0.2],[-0.125,-0.2]]",-0.134259259,-0.1875,1,0,0,1.496,o2_image,459.202,1,459.698,459.698,461.697,0,0,0,0,1,,,,,,,,,,,,,,,,,,,,,,,,,,,,,,,,,,,,,,,,,,,,,,,,,,
,,5ba4d6c929629d00014e6c28,35,male,2024-04-19_18h39.42.507,stockport_simplified,2022.2.4,Win32,60.0240096,661e456ee6de07e70aa9ef7b,66229d99094ac4f56051407c,,,,,,,,,,,,,,,,,,,,,,,,,,,,,,,,,,,,,,,,,,,,,,,,,,,,,,,,1,14,74,11,1,B,X,N,o2_image,stimuli/out2.png,stimuli/out1.png,stimuli/correct_out2.png,,,,,,,,,,,,,,,,,,,,,,,,,,,,,,,,,,,,,,
,,5ba4d6c929629d00014e6c28,35,male,2024-04-19_18h39.42.507,stockport_simplified,2022.2.4,Win32,60.0240096,661e456ee6de07e70aa9ef7b,66229d99094ac4f56051407c,,,,,,,,,,,,,,,,,,,,,,,,,,,,,,,,,,461.697,463.313,"[6,3,5,1,4,8,2,7]","[[0.3,0.2],[-0.3,0.2]]","[[-0.125,-0.2],[0.125,-0.2]]",-0.134259259,-0.1875,1,0,0,1.115,o1_image,463.318,0,463.813,463.814,465.812,0,0,0,0,1,,,,,,,,,,,,,,,,,,,,,,,,,,,,,,,,,,,,,,,,,,,,,,,,,,
,,5ba4d6c929629d00014e6c28,35,male,2024-04-19_18h39.42.507,stockport_simplified,2022.2.4,Win32,60.0240096,661e456ee6de07e70aa9ef7b,66229d99094ac4f56051407c,,,,,,,,,,,,,,,,,,,,,,,,,,,,,,,,,,,,,,,,,,,,,,,,,,,,,,,,1,15,75,59,1,N,M,D,o2_image,stimuli/out2.png,stimuli/out1.png,stimuli/correct_out2.png,,,,,,,,,,,,,,,,,,,,,,,,,,,,,,,,,,,,,,
,,5ba4d6c929629d00014e6c28,35,male,2024-04-19_18h39.42.507,stockport_simplified,2022.2.4,Win32,60.0240096,661e456ee6de07e70aa9ef7b,66229d99094ac4f56051407c,,,,,,,,,,,,,,,,,,,,,,,,,,,,,,,,,,465.813,468.828,"[6,3,5,1,4,8,2,7]","[[-0.3,0.2],[0.3,0.2]]","[[-0.125,-0.2],[0.125,-0.2]]",-0.104166667,-0.18287037,1,0,0,2.499,o1_image,468.831,1,469.328,469.328,471.327,0,0,0,0,1,,,,,,,,,,,,,,,,,,,,,,,,,,,,,,,,,,,,,,,,,,,,,,,,,,
,,5ba4d6c929629d00014e6c28,35,male,2024-04-19_18h39.42.507,stockport_simplified,2022.2.4,Win32,60.0240096,661e456ee6de07e70aa9ef7b,66229d99094ac4f56051407c,,,,,,,,,,,,,,,,,,,,,,,,,,,,,,,,,,,,,,,,,,,,,,,,,,,,,,,,1,16,76,21,1,N,M,C,o1_image,stimuli/out1.png,stimuli/correct_out1.png,stimuli/out2.png,,,,,,,,,,,,,,,,,,,,,,,,,,,,,,,,,,,,,,
,,5ba4d6c929629d00014e6c28,35,male,2024-04-19_18h39.42.507,stockport_simplified,2022.2.4,Win32,60.0240096,661e456ee6de07e70aa9ef7b,66229d99094ac4f56051407c,,,,,,,,,,,,,,,,,,,,,,,,,,,,,,,,,,471.327,473.676,"[6,3,5,1,4,8,2,7]","[[0.3,0.2],[-0.3,0.2]]","[[-0.125,-0.2],[0.125,-0.2]]",0.159722222,-0.165509259,1,0,0,1.848,o2_image,473.678,1,474.176,474.176,476.175,0,0,0,0,1,,,,,,,,,,,,,,,,,,,,,,,,,,,,,,,,,,,,,,,,,,,,,,,,,,
,,5ba4d6c929629d00014e6c28,35,male,2024-04-19_18h39.42.507,stockport_simplified,2022.2.4,Win32,60.0240096,661e456ee6de07e70aa9ef7b,66229d99094ac4f56051407c,,,,,,,,,,,,,,,,,,,,,,,,,,,,,,,,,,,,,,,,,,,,,,,,,,,,,,,,1,17,77,46,1,B,Y,N,o2_image,stimuli/out2.png,stimuli/out1.png,stimuli/correct_out2.png,,,,,,,,,,,,,,,,,,,,,,,,,,,,,,,,,,,,,,
,,5ba4d6c929629d00014e6c28,35,male,2024-04-19_18h39.42.507,stockport_simplified,2022.2.4,Win32,60.0240096,661e456ee6de07e70aa9ef7b,66229d99094ac4f56051407c,,,,,,,,,,,,,,,,,,,,,,,,,,,,,,,,,,476.176,478.625,"[6,3,5,1,4,8,2,7]","[[0.3,0.2],[-0.3,0.2]]","[[0.125,-0.2],[-0.125,-0.2]]",-0.168981481,-0.225694444,1,0,0,1.949,o2_image,478.626,1,479.124,479.124,481.124,0,0,0,0,1,,,,,,,,,,,,,,,,,,,,,,,,,,,,,,,,,,,,,,,,,,,,,,,,,,
,,5ba4d6c929629d00014e6c28,35,male,2024-04-19_18h39.42.507,stockport_simplified,2022.2.4,Win32,60.0240096,661e456ee6de07e70aa9ef7b,66229d99094ac4f56051407c,,,,,,,,,,,,,,,,,,,,,,,,,,,,,,,,,,,,,,,,,,,,,,,,,,,,,,,,1,18,78,49,1,B,Y,N,o2_image,stimuli/out2.png,stimuli/out1.png,stimuli/correct_out2.png,,,,,,,,,,,,,,,,,,,,,,,,,,,,,,,,,,,,,,
,,5ba4d6c929629d00014e6c28,35,male,2024-04-19_18h39.42.507,stockport_simplified,2022.2.4,Win32,60.0240096,661e456ee6de07e70aa9ef7b,66229d99094ac4f56051407c,,,,,,,,,,,,,,,,,,,,,,,,,,,,,,,,,,481.125,482.857,"[6,3,5,1,4,8,2,7]","[[-0.3,0.2],[0.3,0.2]]","[[0.125,-0.2],[-0.125,-0.2]]",0.065972222,-0.210648148,1,0,0,1.215,o1_image,482.859,1,483.356,483.356,485.356,0,0,0,0,1,,,,,,,,,,,,,,,,,,,,,,,,,,,,,,,,,,,,,,,,,,,,,,,,,,
,,5ba4d6c929629d00014e6c28,35,male,2024-04-19_18h39.42.507,stockport_simplified,2022.2.4,Win32,60.0240096,661e456ee6de07e70aa9ef7b,66229d99094ac4f56051407c,,,,,,,,,,,,,,,,,,,,,,,,,,,,,,,,,,,,,,,,,,,,,,,,,,,,,,,,1,19,79,54,1,N,M,C,o1_image,stimuli/out1.png,stimuli/correct_out1.png,stimuli/out2.png,,,,,,,,,,,,,,,,,,,,,,,,,,,,,,,,,,,,,,
,,5ba4d6c929629d00014e6c28,35,male,2024-04-19_18h39.42.507,stockport_simplified,2022.2.4,Win32,60.0240096,661e456ee6de07e70aa9ef7b,66229d99094ac4f56051407c,,,,,,,,,,,,,,,,,,,,,,,,,,,,,,,,,,485.361,489.555,"[6,3,5,1,4,8,2,7]","[[-0.3,0.2],[0.3,0.2]]","[[0.125,-0.2],[-0.125,-0.2]]",-0.065972222,-0.210648148,1,0,0,3.673,o2_image,489.561,1,490.054,490.054,492.053,0,0,0,0,1,,,,,,,,,,,,,,,,,,,,,,,,,,,,,,,,,,,,,,,,,,,,,,,,,,
,,5ba4d6c929629d00014e6c28,35,male,2024-04-19_18h39.42.507,stockport_simplified,2022.2.4,Win32,60.0240096,661e456ee6de07e70aa9ef7b,66229d99094ac4f56051407c,,,,,,,,,,,,,,,,,,,,,,,,,,,,,,,,,,,,,,,,,,,,,,,,,,,,,,,,1,20,80,44,1,B,X,N,o2_image,stimuli/out2.png,stimuli/out1.png,stimuli/correct_out2.png,,,,,,,,,,,,,,,,,,,,,,,,,,,,,,,,,,,,,,
,,5ba4d6c929629d00014e6c28,35,male,2024-04-19_18h39.42.507,stockport_simplified,2022.2.4,Win32,60.0240096,661e456ee6de07e70aa9ef7b,66229d99094ac4f56051407c,,,,,,,,,,,,,,,,,,,,,,,,,,,,,,,,,,492.059,496.136,"[6,3,5,1,4,8,2,7]","[[0.3,0.2],[-0.3,0.2]]","[[0.125,-0.2],[-0.125,-0.2]]",-0.065972222,-0.210648148,1,0,0,3.566,o2_image,496.138,1,496.635,496.635,498.635,0,0,0,0,1,,,,,,,,,,,,,,,,,,,,,,,,,,,,,,,,,,,,,,,,,,,,,,,,,,
,,5ba4d6c929629d00014e6c28,35,male,2024-04-19_18h39.42.507,stockport_simplified,2022.2.4,Win32,60.0240096,661e456ee6de07e70aa9ef7b,66229d99094ac4f56051407c,,,,,,,,,,,,,,,,,,,,,,,,,,,,,,,,,,,,,,,,,,,,,,,,,,,,,,,,1,21,81,43,1,B,X,N,o2_image,stimuli/out2.png,stimuli/out1.png,stimuli/correct_out2.png,,,,,,,,,,,,,,,,,,,,,,,,,,,,,,,,,,,,,,
,,5ba4d6c929629d00014e6c28,35,male,2024-04-19_18h39.42.507,stockport_simplified,2022.2.4,Win32,60.0240096,661e456ee6de07e70aa9ef7b,66229d99094ac4f56051407c,,,,,,,,,,,,,,,,,,,,,,,,,,,,,,,,,,498.637,501.634,"[6,3,5,1,4,8,2,7]","[[-0.3,0.2],[0.3,0.2]]","[[0.125,-0.2],[-0.125,-0.2]]",-0.065972222,-0.210648148,1,0,0,2.483,o2_image,501.638,1,502.134,502.134,504.132,0,0,0,0,1,,,,,,,,,,,,,,,,,,,,,,,,,,,,,,,,,,,,,,,,,,,,,,,,,,
,,5ba4d6c929629d00014e6c28,35,male,2024-04-19_18h39.42.507,stockport_simplified,2022.2.4,Win32,60.0240096,661e456ee6de07e70aa9ef7b,66229d99094ac4f56051407c,,,,,,,,,,,,,,,,,,,,,,,,,,,,,,,,,,,,,,,,,,,,,,,,,,,,,,,,1,22,82,47,1,B,Y,N,o2_image,stimuli/out2.png,stimuli/out1.png,stimuli/correct_out2.png,,,,,,,,,,,,,,,,,,,,,,,,,,,,,,,,,,,,,,
,,5ba4d6c929629d00014e6c28,35,male,2024-04-19_18h39.42.507,stockport_simplified,2022.2.4,Win32,60.0240096,661e456ee6de07e70aa9ef7b,66229d99094ac4f56051407c,,,,,,,,,,,,,,,,,,,,,,,,,,,,,,,,,,504.136,507.115,"[6,3,5,1,4,8,2,7]","[[-0.3,0.2],[0.3,0.2]]","[[0.125,-0.2],[-0.125,-0.2]]",0.135416667,-0.196759259,1,0,0,2.465,o1_image,507.119,1,507.615,507.615,509.615,0,0,0,0,1,,,,,,,,,,,,,,,,,,,,,,,,,,,,,,,,,,,,,,,,,,,,,,,,,,
,,5ba4d6c929629d00014e6c28,35,male,2024-04-19_18h39.42.507,stockport_simplified,2022.2.4,Win32,60.0240096,661e456ee6de07e70aa9ef7b,66229d99094ac4f56051407c,,,,,,,,,,,,,,,,,,,,,,,,,,,,,,,,,,,,,,,,,,,,,,,,,,,,,,,,1,23,83,5,1,A,Y,N,o1_image,stimuli/out1.png,stimuli/correct_out1.png,stimuli/out2.png,,,,,,,,,,,,,,,,,,,,,,,,,,,,,,,,,,,,,,
,,5ba4d6c929629d00014e6c28,35,male,2024-04-19_18h39.42.507,stockport_simplified,2022.2.4,Win32,60.0240096,661e456ee6de07e70aa9ef7b,66229d99094ac4f56051407c,,,,,,,,,,,,,,,,,,,,,,,,,,,,,,,,,,509.619,511.78,"[6,3,5,1,4,8,2,7]","[[-0.3,0.2],[0.3,0.2]]","[[-0.125,-0.2],[0.125,-0.2]]",0.133101852,-0.177083333,1,0,0,1.648,o2_image,511.783,1,512.28,512.28,514.279,0,0,0,0,1,,,,,,,,,,,,,,,,,,,,,,,,,,,,,,,,,,,,,,,,,,,,,,,,,,
,,5ba4d6c929629d00014e6c28,35,male,2024-04-19_18h39.42.507,stockport_simplified,2022.2.4,Win32,60.0240096,661e456ee6de07e70aa9ef7b,66229d99094ac4f56051407c,,,,,,,,,,,,,,,,,,,,,,,,,,,,,,,,,,,,,,,,,,,,,,,,,,,,,,,,1,24,84,14,1,B,X,N,o2_image,stimuli/out2.png,stimuli/out1.png,stimuli/correct_out2.png,,,,,,,,,,,,,,,,,,,,,,,,,,,,,,,,,,,,,,
,,5ba4d6c929629d00014e6c28,35,male,2024-04-19_18h39.42.507,stockport_simplified,2022.2.4,Win32,60.0240096,661e456ee6de07e70aa9ef7b,66229d99094ac4f56051407c,,,,,,,,,,,,,,,,,,,,,,,,,,,,,,,,,,514.279,518.028,"[6,3,5,1,4,8,2,7]","[[0.3,0.2],[-0.3,0.2]]","[[-0.125,-0.2],[0.125,-0.2]]",0.119212963,-0.174768519,1,0,0,3.248,o2_image,518.032,1,518.528,518.528,520.527,0,0,0,0,1,,,,,,,,,,,,,,,,,,,,,,,,,,,,,,,,,,,,,,,,,,,,,,,,,,
,,5ba4d6c929629d00014e6c28,35,male,2024-04-19_18h39.42.507,stockport_simplified,2022.2.4,Win32,60.0240096,661e456ee6de07e70aa9ef7b,66229d99094ac4f56051407c,,,,,,,,,,,,,,,,,,,,,,,,,,,,,,,,,,,,,,,,,,,,,,,,,,,,,,,,1,25,85,19,1,B,Y,N,o2_image,stimuli/out2.png,stimuli/out1.png,stimuli/correct_out2.png,,,,,,,,,,,,,,,,,,,,,,,,,,,,,,,,,,,,,,
,,5ba4d6c929629d00014e6c28,35,male,2024-04-19_18h39.42.507,stockport_simplified,2022.2.4,Win32,60.0240096,661e456ee6de07e70aa9ef7b,66229d99094ac4f56051407c,,,,,,,,,,,,,,,,,,,,,,,,,,,,,,,,,,520.528,522.996,"[6,3,5,1,4,8,2,7]","[[0.3,0.2],[-0.3,0.2]]","[[0.125,-0.2],[-0.125,-0.2]]",0.131944444,-0.167824074,1,0,0,1.949,o1_image,523.001,1,523.493,523.493,525.493,0,0,0,0,1,,,,,,,,,,,,,,,,,,,,,,,,,,,,,,,,,,,,,,,,,,,,,,,,,,
,,5ba4d6c929629d00014e6c28,35,male,2024-04-19_18h39.42.507,stockport_simplified,2022.2.4,Win32,60.0240096,661e456ee6de07e70aa9ef7b,66229d99094ac4f56051407c,,,,,,,,,,,,,,,,,,,,,,,,,,,,,,,,,,,,,,,,,,,,,,,,,,,,,,,,1,26,86,22,1,N,M,C,o1_image,stimuli/out1.png,stimuli/correct_out1.png,stimuli/out2.png,,,,,,,,,,,,,,,,,,,,,,,,,,,,,,,,,,,,,,
,,5ba4d6c929629d00014e6c28,35,male,2024-04-19_18h39.42.507,stockport_simplified,2022.2.4,Win32,60.0240096,661e456ee6de07e70aa9ef7b,66229d99094ac4f56051407c,,,,,,,,,,,,,,,,,,,,,,,,,,,,,,,,,,525.494,530.824,"[6,3,5,1,4,8,2,7]","[[-0.3,0.2],[0.3,0.2]]","[[0.125,-0.2],[-0.125,-0.2]]",0.125,-0.177083333,1,0,0,4.812,o1_image,530.828,1,531.324,531.324,533.323,0,0,0,0,1,,,,,,,,,,,,,,,,,,,,,,,,,,,,,,,,,,,,,,,,,,,,,,,,,,
,,5ba4d6c929629d00014e6c28,35,male,2024-04-19_18h39.42.507,stockport_simplified,2022.2.4,Win32,60.0240096,661e456ee6de07e70aa9ef7b,66229d99094ac4f56051407c,,,,,,,,,,,,,,,,,,,,,,,,,,,,,,,,,,,,,,,,,,,,,,,,,,,,,,,,1,27,87,6,1,A,Y,N,o1_image,stimuli/out1.png,stimuli/correct_out1.png,stimuli/out2.png,,,,,,,,,,,,,,,,,,,,,,,,,,,,,,,,,,,,,,
,,5ba4d6c929629d00014e6c28,35,male,2024-04-19_18h39.42.507,stockport_simplified,2022.2.4,Win32,60.0240096,661e456ee6de07e70aa9ef7b,66229d99094ac4f56051407c,,,,,,,,,,,,,,,,,,,,,,,,,,,,,,,,,,533.323,535.655,"[6,3,5,1,4,8,2,7]","[[0.3,0.2],[-0.3,0.2]]","[[0.125,-0.2],[-0.125,-0.2]]",0.175925926,-0.149305556,1,0,0,1.816,o1_image,535.657,1,536.155,536.155,538.154,0,0,0,0,1,,,,,,,,,,,,,,,,,,,,,,,,,,,,,,,,,,,,,,,,,,,,,,,,,,
,,5ba4d6c929629d00014e6c28,35,male,2024-04-19_18h39.42.507,stockport_simplified,2022.2.4,Win32,60.0240096,661e456ee6de07e70aa9ef7b,66229d99094ac4f56051407c,,,,,,,,,,,,,,,,,,,,,,,,,,,,,,,,,,,,,,,,,,,,,,,,,,,,,,,,1,28,88,9,1,A,Y,N,o1_image,stimuli/out1.png,stimuli/correct_out1.png,stimuli/out2.png,,,,,,,,,,,,,,,,,,,,,,,,,,,,,,,,,,,,,,
,,5ba4d6c929629d00014e6c28,35,male,2024-04-19_18h39.42.507,stockport_simplified,2022.2.4,Win32,60.0240096,661e456ee6de07e70aa9ef7b,66229d99094ac4f56051407c,,,,,,,,,,,,,,,,,,,,,,,,,,,,,,,,,,538.155,540.904,"[6,3,5,1,4,8,2,7]","[[0.3,0.2],[-0.3,0.2]]","[[0.125,-0.2],[-0.125,-0.2]]",-0.104166667,-0.167824074,1,0,0,2.233,o2_image,540.908,1,541.403,541.403,543.403,0,0,0,0,1,,,,,,,,,,,,,,,,,,,,,,,,,,,,,,,,,,,,,,,,,,,,,,,,,,
,,5ba4d6c929629d00014e6c28,35,male,2024-04-19_18h39.42.507,stockport_simplified,2022.2.4,Win32,60.0240096,661e456ee6de07e70aa9ef7b,66229d99094ac4f56051407c,,,,,,,,,,,,,,,,,,,,,,,,,,,,,,,,,,,,,,,,,,,,,,,,,,,,,,,,1,29,89,26,1,N,M,D,o2_image,stimuli/out2.png,stimuli/out1.png,stimuli/correct_out2.png,,,,,,,,,,,,,,,,,,,,,,,,,,,,,,,,,,,,,,
,,5ba4d6c929629d00014e6c28,35,male,2024-04-19_18h39.42.507,stockport_simplified,2022.2.4,Win32,60.0240096,661e456ee6de07e70aa9ef7b,66229d99094ac4f56051407c,,,,,,,,,,,,,,,,,,,,,,,,,,,,,,,,,,543.403,547.318,"[6,3,5,1,4,8,2,7]","[[-0.3,0.2],[0.3,0.2]]","[[-0.125,-0.2],[0.125,-0.2]]",-0.127314815,-0.172453704,1,0,0,3.415,o1_image,547.322,1,547.818,547.818,549.817,0,0,0,0,1,,,,,,,,,,,,,,,,,,,,,,,,,,,,,,,,,,,,,,,,,,,,,,,,,,
,,5ba4d6c929629d00014e6c28,35,male,2024-04-19_18h39.42.507,stockport_simplified,2022.2.4,Win32,60.0240096,661e456ee6de07e70aa9ef7b,66229d99094ac4f56051407c,,,,,,,,,,,,,,,,,,,,,,,,,,,,,,,,,,,,,,,,,,,,,,,,,,,,,,,,1,30,90,39,1,A,Y,N,o1_image,stimuli/out1.png,stimuli/correct_out1.png,stimuli/out2.png,,,,,,,,,,,,,,,,,,,,,,,,,,,,,,,,,,,,,,
,,5ba4d6c929629d00014e6c28,35,male,2024-04-19_18h39.42.507,stockport_simplified,2022.2.4,Win32,60.0240096,661e456ee6de07e70aa9ef7b,66229d99094ac4f56051407c,,,,,,,,,,,,,,,,,,,,,,,,,,,,,,,,,,549.818,552.818,"[6,3,5,1,4,8,2,7]","[[-0.3,0.2],[0.3,0.2]]","[[-0.125,-0.2],[0.125,-0.2]]",-0.121527778,-0.179398148,1,0,0,2.482,o1_image,552.823,1,553.316,553.316,555.315,0,0,0,0,1,,,,,,,,,,,,,,,,,,,,,,,,,,,,,,,,,,,,,,,,,,,,,,,,,,
,,5ba4d6c929629d00014e6c28,35,male,2024-04-19_18h39.42.507,stockport_simplified,2022.2.4,Win32,60.0240096,661e456ee6de07e70aa9ef7b,66229d99094ac4f56051407c,,,,,,,,,,,,,,,,,,,,,,,,,,,,,,,,,,,,,,,,,,,,,,,,,,,,,,,,1,31,91,24,1,N,M,C,o1_image,stimuli/out1.png,stimuli/correct_out1.png,stimuli/out2.png,,,,,,,,,,,,,,,,,,,,,,,,,,,,,,,,,,,,,,
,,5ba4d6c929629d00014e6c28,35,male,2024-04-19_18h39.42.507,stockport_simplified,2022.2.4,Win32,60.0240096,661e456ee6de07e70aa9ef7b,66229d99094ac4f56051407c,,,,,,,,,,,,,,,,,,,,,,,,,,,,,,,,,,555.316,558.332,"[6,3,5,1,4,8,2,7]","[[0.3,0.2],[-0.3,0.2]]","[[-0.125,-0.2],[0.125,-0.2]]",-0.09837963,-0.202546296,1,0,0,2.495,o1_image,558.336,1,558.831,558.831,560.83,0,0,0,0,1,,,,,,,,,,,,,,,,,,,,,,,,,,,,,,,,,,,,,,,,,,,,,,,,,,
,,5ba4d6c929629d00014e6c28,35,male,2024-04-19_18h39.42.507,stockport_simplified,2022.2.4,Win32,60.0240096,661e456ee6de07e70aa9ef7b,66229d99094ac4f56051407c,,,,,,,,,,,,,,,,,,,,,,,,,,,,,,,,,,,,,,,,,,,,,,,,,,,,,,,,1,32,92,4,1,A,X,N,o1_image,stimuli/out1.png,stimuli/correct_out1.png,stimuli/out2.png,,,,,,,,,,,,,,,,,,,,,,,,,,,,,,,,,,,,,,
,,5ba4d6c929629d00014e6c28,35,male,2024-04-19_18h39.42.507,stockport_simplified,2022.2.4,Win32,60.0240096,661e456ee6de07e70aa9ef7b,66229d99094ac4f56051407c,,,,,,,,,,,,,,,,,,,,,,,,,,,,,,,,,,560.831,563.729,"[6,3,5,1,4,8,2,7]","[[-0.3,0.2],[0.3,0.2]]","[[0.125,-0.2],[-0.125,-0.2]]",0.112268519,-0.164351852,1,0,0,2.382,o1_image,563.731,1,564.229,564.229,566.228,0,0,0,0,1,,,,,,,,,,,,,,,,,,,,,,,,,,,,,,,,,,,,,,,,,,,,,,,,,,
,,5ba4d6c929629d00014e6c28,35,male,2024-04-19_18h39.42.507,stockport_simplified,2022.2.4,Win32,60.0240096,661e456ee6de07e70aa9ef7b,66229d99094ac4f56051407c,,,,,,,,,,,,,,,,,,,,,,,,,,,,,,,,,,,,,,,,,,,,,,,,,,,,,,,,1,33,93,8,1,A,Y,N,o1_image,stimuli/out1.png,stimuli/correct_out1.png,stimuli/out2.png,,,,,,,,,,,,,,,,,,,,,,,,,,,,,,,,,,,,,,
,,5ba4d6c929629d00014e6c28,35,male,2024-04-19_18h39.42.507,stockport_simplified,2022.2.4,Win32,60.0240096,661e456ee6de07e70aa9ef7b,66229d99094ac4f56051407c,,,,,,,,,,,,,,,,,,,,,,,,,,,,,,,,,,566.228,568.61,"[6,3,5,1,4,8,2,7]","[[0.3,0.2],[-0.3,0.2]]","[[0.125,-0.2],[-0.125,-0.2]]",-0.087962963,-0.170138889,1,0,0,1.882,o2_image,568.612,1,569.11,569.11,571.11,0,0,0,0,1,,,,,,,,,,,,,,,,,,,,,,,,,,,,,,,,,,,,,,,,,,,,,,,,,,
,,5ba4d6c929629d00014e6c28,35,male,2024-04-19_18h39.42.507,stockport_simplified,2022.2.4,Win32,60.0240096,661e456ee6de07e70aa9ef7b,66229d99094ac4f56051407c,,,,,,,,,,,,,,,,,,,,,,,,,,,,,,,,,,,,,,,,,,,,,,,,,,,,,,,,1,34,94,18,1,B,Y,N,o2_image,stimuli/out2.png,stimuli/out1.png,stimuli/correct_out2.png,,,,,,,,,,,,,,,,,,,,,,,,,,,,,,,,,,,,,,
,,5ba4d6c929629d00014e6c28,35,male,2024-04-19_18h39.42.507,stockport_simplified,2022.2.4,Win32,60.0240096,661e456ee6de07e70aa9ef7b,66229d99094ac4f56051407c,,,,,,,,,,,,,,,,,,,,,,,,,,,,,,,,,,571.11,575.124,"[6,3,5,1,4,8,2,7]","[[-0.3,0.2],[0.3,0.2]]","[[0.125,-0.2],[-0.125,-0.2]]",0.118055556,-0.178240741,1,0,0,3.496,o1_image,575.127,1,575.625,575.625,577.624,0,0,0,0,1,,,,,,,,,,,,,,,,,,,,,,,,,,,,,,,,,,,,,,,,,,,,,,,,,,
,,5ba4d6c929629d00014e6c28,35,male,2024-04-19_18h39.42.507,stockport_simplified,2022.2.4,Win32,60.0240096,661e456ee6de07e70aa9ef7b,66229d99094ac4f56051407c,,,,,,,,,,,,,,,,,,,,,,,,,,,,,,,,,,,,,,,,,,,,,,,,,,,,,,,,1,35,95,2,1,A,X,N,o1_image,stimuli/out1.png,stimuli/correct_out1.png,stimuli/out2.png,,,,,,,,,,,,,,,,,,,,,,,,,,,,,,,,,,,,,,
,,5ba4d6c929629d00014e6c28,35,male,2024-04-19_18h39.42.507,stockport_simplified,2022.2.4,Win32,60.0240096,661e456ee6de07e70aa9ef7b,66229d99094ac4f56051407c,,,,,,,,,,,,,,,,,,,,,,,,,,,,,,,,,,577.625,583.124,"[6,3,5,1,4,8,2,7]","[[-0.3,0.2],[0.3,0.2]]","[[-0.125,-0.2],[0.125,-0.2]]",0.184027778,-0.123842593,1,0,0,4.981,o2_image,583.13,1,583.622,583.622,585.621,0,0,0,0,1,,,,,,,,,,,,,,,,,,,,,,,,,,,,,,,,,,,,,,,,,,,,,,,,,,
,,5ba4d6c929629d00014e6c28,35,male,2024-04-19_18h39.42.507,stockport_simplified,2022.2.4,Win32,60.0240096,661e456ee6de07e70aa9ef7b,66229d99094ac4f56051407c,,,,,,,,,,,,,,,,,,,,,,,,,,,,,,,,,,,,,,,,,,,,,,,,,,,,,,,,1,36,96,15,1,B,Y,N,o2_image,stimuli/out2.png,stimuli/out1.png,stimuli/correct_out2.png,,,,,,,,,,,,,,,,,,,,,,,,,,,,,,,,,,,,,,
,,5ba4d6c929629d00014e6c28,35,male,2024-04-19_18h39.42.507,stockport_simplified,2022.2.4,Win32,60.0240096,661e456ee6de07e70aa9ef7b,66229d99094ac4f56051407c,,,,,,,,,,,,,,,,,,,,,,,,,,,,,,,,,,585.623,588.055,"[6,3,5,1,4,8,2,7]","[[0.3,0.2],[-0.3,0.2]]","[[-0.125,-0.2],[0.125,-0.2]]",-0.081018519,-0.199074074,1,0,0,1.915,o1_image,588.059,1,588.554,588.554,590.554,0,0,0,0,1,,,,,,,,,,,,,,,,,,,,,,,,,,,,,,,,,,,,,,,,,,,,,,,,,,
,,5ba4d6c929629d00014e6c28,35,male,2024-04-19_18h39.42.507,stockport_simplified,2022.2.4,Win32,60.0240096,661e456ee6de07e70aa9ef7b,66229d99094ac4f56051407c,,,,,,,,,,,,,,,,,,,,,,,,,,,,,,,,,,,,,,,,,,,,,,,,,,,,,,,,1,37,97,30,1,A,X,N,o1_image,stimuli/out1.png,stimuli/correct_out1.png,stimuli/out2.png,,,,,,,,,,,,,,,,,,,,,,,,,,,,,,,,,,,,,,
,,5ba4d6c929629d00014e6c28,35,male,2024-04-19_18h39.42.507,stockport_simplified,2022.2.4,Win32,60.0240096,661e456ee6de07e70aa9ef7b,66229d99094ac4f56051407c,,,,,,,,,,,,,,,,,,,,,,,,,,,,,,,,,,590.554,592.919,"[6,3,5,1,4,8,2,7]","[[0.3,0.2],[-0.3,0.2]]","[[-0.125,-0.2],[0.125,-0.2]]",-0.081018519,-0.199074074,1,0,0,1.85,o1_image,592.923,1,593.419,593.419,595.418,0,0,0,0,1,,,,,,,,,,,,,,,,,,,,,,,,,,,,,,,,,,,,,,,,,,,,,,,,,,
,,5ba4d6c929629d00014e6c28,35,male,2024-04-19_18h39.42.507,stockport_simplified,2022.2.4,Win32,60.0240096,661e456ee6de07e70aa9ef7b,66229d99094ac4f56051407c,,,,,,,,,,,,,,,,,,,,,,,,,,,,,,,,,,,,,,,,,,,,,,,,,,,,,,,,1,38,98,34,1,A,X,N,o1_image,stimuli/out1.png,stimuli/correct_out1.png,stimuli/out2.png,,,,,,,,,,,,,,,,,,,,,,,,,,,,,,,,,,,,,,
,,5ba4d6c929629d00014e6c28,35,male,2024-04-19_18h39.42.507,stockport_simplified,2022.2.4,Win32,60.0240096,661e456ee6de07e70aa9ef7b,66229d99094ac4f56051407c,,,,,,,,,,,,,,,,,,,,,,,,,,,,,,,,,,595.419,598.967,"[6,3,5,1,4,8,2,7]","[[-0.3,0.2],[0.3,0.2]]","[[-0.125,-0.2],[0.125,-0.2]]",-0.081018519,-0.199074074,1,0,0,3.032,o1_image,598.969,1,599.467,599.467,601.466,0,0,0,0,1,,,,,,,,,,,,,,,,,,,,,,,,,,,,,,,,,,,,,,,,,,,,,,,,,,
,,5ba4d6c929629d00014e6c28,35,male,2024-04-19_18h39.42.507,stockport_simplified,2022.2.4,Win32,60.0240096,661e456ee6de07e70aa9ef7b,66229d99094ac4f56051407c,,,,,,,,,,,,,,,,,,,,,,,,,,,,,,,,,,,,,,,,,,,,,,,,,,,,,,,,1,39,99,0,1,A,X,N,o1_image,stimuli/out1.png,stimuli/correct_out1.png,stimuli/out2.png,,,,,,,,,,,,,,,,,,,,,,,,,,,,,,,,,,,,,,
,,5ba4d6c929629d00014e6c28,35,male,2024-04-19_18h39.42.507,stockport_simplified,2022.2.4,Win32,60.0240096,661e456ee6de07e70aa9ef7b,66229d99094ac4f56051407c,,,,,,,,,,,,,,,,,,,,,,,,,,,,,,,,,,601.467,605.315,"[6,3,5,1,4,8,2,7]","[[0.3,0.2],[-0.3,0.2]]","[[0.125,-0.2],[-0.125,-0.2]]",-0.128472222,-0.210648148,1,0,0,3.331,o2_image,605.317,1,605.814,605.814,607.814,0,0,0,0,1,,,,,,,,,,,,,,,,,,,,,,,,,,,,,,,,,,,,,,,,,,,,,,,,,,
,,5ba4d6c929629d00014e6c28,35,male,2024-04-19_18h39.42.507,stockport_simplified,2022.2.4,Win32,60.0240096,661e456ee6de07e70aa9ef7b,66229d99094ac4f56051407c,,,,,,,,,,,,,,,,,,,,,,,,,,,,,,,,,,,,,,,,,,,,,,,,,,,,,,,,1,40,100,45,1,B,Y,N,o2_image,stimuli/out2.png,stimuli/out1.png,stimuli/correct_out2.png,,,,,,,,,,,,,,,,,,,,,,,,,,,,,,,,,,,,,,
,,5ba4d6c929629d00014e6c28,35,male,2024-04-19_18h39.42.507,stockport_simplified,2022.2.4,Win32,60.0240096,661e456ee6de07e70aa9ef7b,66229d99094ac4f56051407c,,,,,,,,,,,,,,,,,,,,,,,,,,,,,,,,,,607.815,611.929,"[6,3,5,1,4,8,2,7]","[[0.3,0.2],[-0.3,0.2]]","[[-0.125,-0.2],[0.125,-0.2]]",-0.128472222,-0.210648148,1,0,0,3.598,o1_image,611.933,0,612.429,612.429,614.43,0,0,0,0,1,,,,,,,,,,,,,,,,,,,,,,,,,,,,,,,,,,,,,,,,,,,,,,,,,,
,,5ba4d6c929629d00014e6c28,35,male,2024-04-19_18h39.42.507,stockport_simplified,2022.2.4,Win32,60.0240096,661e456ee6de07e70aa9ef7b,66229d99094ac4f56051407c,,,,,,,,,,,,,,,,,,,,,,,,,,,,,,,,,,,,,,,,,,,,,,,,,,,,,,,,1,41,101,42,1,B,X,N,o2_image,stimuli/out2.png,stimuli/out1.png,stimuli/correct_out2.png,,,,,,,,,,,,,,,,,,,,,,,,,,,,,,,,,,,,,,
,,5ba4d6c929629d00014e6c28,35,male,2024-04-19_18h39.42.507,stockport_simplified,2022.2.4,Win32,60.0240096,661e456ee6de07e70aa9ef7b,66229d99094ac4f56051407c,,,,,,,,,,,,,,,,,,,,,,,,,,,,,,,,,,614.433,617.744,"[6,3,5,1,4,8,2,7]","[[0.3,0.2],[-0.3,0.2]]","[[0.125,-0.2],[-0.125,-0.2]]",0.135416667,-0.179398148,1,0,0,2.794,o1_image,617.749,1,618.244,618.244,620.243,0,0,0,0,1,,,,,,,,,,,,,,,,,,,,,,,,,,,,,,,,,,,,,,,,,,,,,,,,,,
,,5ba4d6c929629d00014e6c28,35,male,2024-04-19_18h39.42.507,stockport_simplified,2022.2.4,Win32,60.0240096,661e456ee6de07e70aa9ef7b,66229d99094ac4f56051407c,,,,,,,,,,,,,,,,,,,,,,,,,,,,,,,,,,,,,,,,,,,,,,,,,,,,,,,,1,42,102,52,1,N,M,C,o1_image,stimuli/out1.png,stimuli/correct_out1.png,stimuli/out2.png,,,,,,,,,,,,,,,,,,,,,,,,,,,,,,,,,,,,,,
,,5ba4d6c929629d00014e6c28,35,male,2024-04-19_18h39.42.507,stockport_simplified,2022.2.4,Win32,60.0240096,661e456ee6de07e70aa9ef7b,66229d99094ac4f56051407c,,,,,,,,,,,,,,,,,,,,,,,,,,,,,,,,,,620.247,623.359,"[6,3,5,1,4,8,2,7]","[[-0.3,0.2],[0.3,0.2]]","[[0.125,-0.2],[-0.125,-0.2]]",-0.100694444,-0.206018519,1,0,0,2.599,o2_image,623.362,1,623.858,623.858,625.857,0,0,0,0,1,,,,,,,,,,,,,,,,,,,,,,,,,,,,,,,,,,,,,,,,,,,,,,,,,,
,,5ba4d6c929629d00014e6c28,35,male,2024-04-19_18h39.42.507,stockport_simplified,2022.2.4,Win32,60.0240096,661e456ee6de07e70aa9ef7b,66229d99094ac4f56051407c,,,,,,,,,,,,,,,,,,,,,,,,,,,,,,,,,,,,,,,,,,,,,,,,,,,,,,,,1,43,103,13,1,B,X,N,o2_image,stimuli/out2.png,stimuli/out1.png,stimuli/correct_out2.png,,,,,,,,,,,,,,,,,,,,,,,,,,,,,,,,,,,,,,
,,5ba4d6c929629d00014e6c28,35,male,2024-04-19_18h39.42.507,stockport_simplified,2022.2.4,Win32,60.0240096,661e456ee6de07e70aa9ef7b,66229d99094ac4f56051407c,,,,,,,,,,,,,,,,,,,,,,,,,,,,,,,,,,625.861,628.024,"[6,3,5,1,4,8,2,7]","[[0.3,0.2],[-0.3,0.2]]","[[0.125,-0.2],[-0.125,-0.2]]",-0.100694444,-0.206018519,1,0,0,1.649,o2_image,628.027,1,628.524,628.524,630.522,0,0,0,0,1,,,,,,,,,,,,,,,,,,,,,,,,,,,,,,,,,,,,,,,,,,,,,,,,,,
,,5ba4d6c929629d00014e6c28,35,male,2024-04-19_18h39.42.507,stockport_simplified,2022.2.4,Win32,60.0240096,661e456ee6de07e70aa9ef7b,66229d99094ac4f56051407c,,,,,,,,,,,,,,,,,,,,,,,,,,,,,,,,,,,,,,,,,,,,,,,,,,,,,,,,1,44,104,40,1,B,X,N,o2_image,stimuli/out2.png,stimuli/out1.png,stimuli/correct_out2.png,,,,,,,,,,,,,,,,,,,,,,,,,,,,,,,,,,,,,,
,,5ba4d6c929629d00014e6c28,35,male,2024-04-19_18h39.42.507,stockport_simplified,2022.2.4,Win32,60.0240096,661e456ee6de07e70aa9ef7b,66229d99094ac4f56051407c,,,,,,,,,,,,,,,,,,,,,,,,,,,,,,,,,,630.523,633.438,"[6,3,5,1,4,8,2,7]","[[0.3,0.2],[-0.3,0.2]]","[[0.125,-0.2],[-0.125,-0.2]]",-0.100694444,-0.206018519,1,0,0,2.397,o2_image,633.441,1,633.938,633.938,635.937,0,0,0,0,1,,,,,,,,,,,,,,,,,,,,,,,,,,,,,,,,,,,,,,,,,,,,,,,,,,
,,5ba4d6c929629d00014e6c28,35,male,2024-04-19_18h39.42.507,stockport_simplified,2022.2.4,Win32,60.0240096,661e456ee6de07e70aa9ef7b,66229d99094ac4f56051407c,,,,,,,,,,,,,,,,,,,,,,,,,,,,,,,,,,,,,,,,,,,,,,,,,,,,,,,,1,45,105,58,1,N,M,D,o2_image,stimuli/out2.png,stimuli/out1.png,stimuli/correct_out2.png,,,,,,,,,,,,,,,,,,,,,,,,,,,,,,,,,,,,,,
,,5ba4d6c929629d00014e6c28,35,male,2024-04-19_18h39.42.507,stockport_simplified,2022.2.4,Win32,60.0240096,661e456ee6de07e70aa9ef7b,66229d99094ac4f56051407c,,,,,,,,,,,,,,,,,,,,,,,,,,,,,,,,,,635.938,638.787,"[6,3,5,1,4,8,2,7]","[[0.3,0.2],[-0.3,0.2]]","[[0.125,-0.2],[-0.125,-0.2]]",0.126157407,-0.178240741,1,0,0,2.332,o1_image,638.789,1,639.287,639.287,641.286,0,0,0,0,1,,,,,,,,,,,,,,,,,,,,,,,,,,,,,,,,,,,,,,,,,,,,,,,,,,
,,5ba4d6c929629d00014e6c28,35,male,2024-04-19_18h39.42.507,stockport_simplified,2022.2.4,Win32,60.0240096,661e456ee6de07e70aa9ef7b,66229d99094ac4f56051407c,,,,,,,,,,,,,,,,,,,,,,,,,,,,,,,,,,,,,,,,,,,,,,,,,,,,,,,,1,46,106,3,1,A,X,N,o1_image,stimuli/out1.png,stimuli/correct_out1.png,stimuli/out2.png,,,,,,,,,,,,,,,,,,,,,,,,,,,,,,,,,,,,,,
,,5ba4d6c929629d00014e6c28,35,male,2024-04-19_18h39.42.507,stockport_simplified,2022.2.4,Win32,60.0240096,661e456ee6de07e70aa9ef7b,66229d99094ac4f56051407c,,,,,,,,,,,,,,,,,,,,,,,,,,,,,,,,,,641.286,643.569,"[6,3,5,1,4,8,2,7]","[[-0.3,0.2],[0.3,0.2]]","[[-0.125,-0.2],[0.125,-0.2]]",0.150462963,-0.172453704,1,0,0,1.782,o2_image,643.571,1,644.069,644.07,646.068,0,0,0,0,1,,,,,,,,,,,,,,,,,,,,,,,,,,,,,,,,,,,,,,,,,,,,,,,,,,
,,5ba4d6c929629d00014e6c28,35,male,2024-04-19_18h39.42.507,stockport_simplified,2022.2.4,Win32,60.0240096,661e456ee6de07e70aa9ef7b,66229d99094ac4f56051407c,,,,,,,,,,,,,,,,,,,,,,,,,,,,,,,,,,,,,,,,,,,,,,,,,,,,,,,,1,47,107,10,1,B,X,N,o2_image,stimuli/out2.png,stimuli/out1.png,stimuli/correct_out2.png,,,,,,,,,,,,,,,,,,,,,,,,,,,,,,,,,,,,,,
,,5ba4d6c929629d00014e6c28,35,male,2024-04-19_18h39.42.507,stockport_simplified,2022.2.4,Win32,60.0240096,661e456ee6de07e70aa9ef7b,66229d99094ac4f56051407c,,,,,,,,,,,,,,,,,,,,,,,,,,,,,,,,,,646.071,648.85,"[6,3,5,1,4,8,2,7]","[[0.3,0.2],[-0.3,0.2]]","[[0.125,-0.2],[-0.125,-0.2]]",0.175925926,-0.174768519,1,0,0,2.264,o1_image,648.855,1,649.35,649.35,651.349,0,0,0,0,1,,,,,,,,,,,,,,,,,,,,,,,,,,,,,,,,,,,,,,,,,,,,,,,,,,
,,5ba4d6c929629d00014e6c28,35,male,2024-04-19_18h39.42.507,stockport_simplified,2022.2.4,Win32,60.0240096,661e456ee6de07e70aa9ef7b,66229d99094ac4f56051407c,,,,,,,,,,,,,,,,,,,,,,,,,,,,,,,,,,,,,,,,,,,,,,,,,,,,,,,,1,48,108,32,1,A,X,N,o1_image,stimuli/out1.png,stimuli/correct_out1.png,stimuli/out2.png,,,,,,,,,,,,,,,,,,,,,,,,,,,,,,,,,,,,,,
,,5ba4d6c929629d00014e6c28,35,male,2024-04-19_18h39.42.507,stockport_simplified,2022.2.4,Win32,60.0240096,661e456ee6de07e70aa9ef7b,66229d99094ac4f56051407c,,,,,,,,,,,,,,,,,,,,,,,,,,,,,,,,,,651.351,654.648,"[6,3,5,1,4,8,2,7]","[[0.3,0.2],[-0.3,0.2]]","[[-0.125,-0.2],[0.125,-0.2]]",0.164351852,-0.152777778,1,0,0,2.782,o2_image,654.651,1,655.147,655.147,657.147,0,0,0,0,1,,,,,,,,,,,,,,,,,,,,,,,,,,,,,,,,,,,,,,,,,,,,,,,,,,
,,5ba4d6c929629d00014e6c28,35,male,2024-04-19_18h39.42.507,stockport_simplified,2022.2.4,Win32,60.0240096,661e456ee6de07e70aa9ef7b,66229d99094ac4f56051407c,,,,,,,,,,,,,,,,,,,,,,,,,,,,,,,,,,,,,,,,,,,,,,,,,,,,,,,,1,49,109,41,1,B,X,N,o2_image,stimuli/out2.png,stimuli/out1.png,stimuli/correct_out2.png,,,,,,,,,,,,,,,,,,,,,,,,,,,,,,,,,,,,,,
,,5ba4d6c929629d00014e6c28,35,male,2024-04-19_18h39.42.507,stockport_simplified,2022.2.4,Win32,60.0240096,661e456ee6de07e70aa9ef7b,66229d99094ac4f56051407c,,,,,,,,,,,,,,,,,,,,,,,,,,,,,,,,,,657.148,659.18,"[6,3,5,1,4,8,2,7]","[[0.3,0.2],[-0.3,0.2]]","[[0.125,-0.2],[-0.125,-0.2]]",-0.135416667,-0.217592593,1,0,0,1.516,o2_image,659.182,1,659.679,659.679,661.679,0,0,0,0,1,,,,,,,,,,,,,,,,,,,,,,,,,,,,,,,,,,,,,,,,,,,,,,,,,,
,,5ba4d6c929629d00014e6c28,35,male,2024-04-19_18h39.42.507,stockport_simplified,2022.2.4,Win32,60.0240096,661e456ee6de07e70aa9ef7b,66229d99094ac4f56051407c,,,,,,,,,,,,,,,,,,,,,,,,,,,,,,,,,,,,,,,,,,,,,,,,,,,,,,,,1,50,110,29,1,N,M,D,o2_image,stimuli/out2.png,stimuli/out1.png,stimuli/correct_out2.png,,,,,,,,,,,,,,,,,,,,,,,,,,,,,,,,,,,,,,
,,5ba4d6c929629d00014e6c28,35,male,2024-04-19_18h39.42.507,stockport_simplified,2022.2.4,Win32,60.0240096,661e456ee6de07e70aa9ef7b,66229d99094ac4f56051407c,,,,,,,,,,,,,,,,,,,,,,,,,,,,,,,,,,661.679,664.695,"[6,3,5,1,4,8,2,7]","[[-0.3,0.2],[0.3,0.2]]","[[-0.125,-0.2],[0.125,-0.2]]",-0.108796296,-0.206018519,1,0,0,2.515,o1_image,664.697,1,665.195,665.195,667.194,0,0,0,0,1,,,,,,,,,,,,,,,,,,,,,,,,,,,,,,,,,,,,,,,,,,,,,,,,,,
,,5ba4d6c929629d00014e6c28,35,male,2024-04-19_18h39.42.507,stockport_simplified,2022.2.4,Win32,60.0240096,661e456ee6de07e70aa9ef7b,66229d99094ac4f56051407c,,,,,,,,,,,,,,,,,,,,,,,,,,,,,,,,,,,,,,,,,,,,,,,,,,,,,,,,1,51,111,36,1,A,Y,N,o1_image,stimuli/out1.png,stimuli/correct_out1.png,stimuli/out2.png,,,,,,,,,,,,,,,,,,,,,,,,,,,,,,,,,,,,,,
,,5ba4d6c929629d00014e6c28,35,male,2024-04-19_18h39.42.507,stockport_simplified,2022.2.4,Win32,60.0240096,661e456ee6de07e70aa9ef7b,66229d99094ac4f56051407c,,,,,,,,,,,,,,,,,,,,,,,,,,,,,,,,,,667.194,669.276,"[6,3,5,1,4,8,2,7]","[[-0.3,0.2],[0.3,0.2]]","[[-0.125,-0.2],[0.125,-0.2]]",-0.108796296,-0.206018519,1,0,0,1.566,o1_image,669.28,1,669.776,669.776,671.775,0,0,0,0,1,,,,,,,,,,,,,,,,,,,,,,,,,,,,,,,,,,,,,,,,,,,,,,,,,,
,,5ba4d6c929629d00014e6c28,35,male,2024-04-19_18h39.42.507,stockport_simplified,2022.2.4,Win32,60.0240096,661e456ee6de07e70aa9ef7b,66229d99094ac4f56051407c,,,,,,,,,,,,,,,,,,,,,,,,,,,,,,,,,,,,,,,,,,,,,,,,,,,,,,,,1,52,112,7,1,A,Y,N,o1_image,stimuli/out1.png,stimuli/correct_out1.png,stimuli/out2.png,,,,,,,,,,,,,,,,,,,,,,,,,,,,,,,,,,,,,,
,,5ba4d6c929629d00014e6c28,35,male,2024-04-19_18h39.42.507,stockport_simplified,2022.2.4,Win32,60.0240096,661e456ee6de07e70aa9ef7b,66229d99094ac4f56051407c,,,,,,,,,,,,,,,,,,,,,,,,,,,,,,,,,,671.776,674.474,"[6,3,5,1,4,8,2,7]","[[0.3,0.2],[-0.3,0.2]]","[[0.125,-0.2],[-0.125,-0.2]]",0.157407407,-0.166666667,1,0,0,2.182,o1_image,674.478,1,674.974,674.974,676.974,0,0,0,0,1,,,,,,,,,,,,,,,,,,,,,,,,,,,,,,,,,,,,,,,,,,,,,,,,,,
,,5ba4d6c929629d00014e6c28,35,male,2024-04-19_18h39.42.507,stockport_simplified,2022.2.4,Win32,60.0240096,661e456ee6de07e70aa9ef7b,66229d99094ac4f56051407c,,,,,,,,,,,,,,,,,,,,,,,,,,,,,,,,,,,,,,,,,,,,,,,,,,,,,,,,1,53,113,23,1,N,M,C,o1_image,stimuli/out1.png,stimuli/correct_out1.png,stimuli/out2.png,,,,,,,,,,,,,,,,,,,,,,,,,,,,,,,,,,,,,,
,,5ba4d6c929629d00014e6c28,35,male,2024-04-19_18h39.42.507,stockport_simplified,2022.2.4,Win32,60.0240096,661e456ee6de07e70aa9ef7b,66229d99094ac4f56051407c,,,,,,,,,,,,,,,,,,,,,,,,,,,,,,,,,,676.974,680.29,"[6,3,5,1,4,8,2,7]","[[0.3,0.2],[-0.3,0.2]]","[[-0.125,-0.2],[0.125,-0.2]]",-0.074074074,-0.166666667,1,0,0,2.815,o1_image,680.297,1,680.789,680.789,682.788,0,0,0,0,1,,,,,,,,,,,,,,,,,,,,,,,,,,,,,,,,,,,,,,,,,,,,,,,,,,
,,5ba4d6c929629d00014e6c28,35,male,2024-04-19_18h39.42.507,stockport_simplified,2022.2.4,Win32,60.0240096,661e456ee6de07e70aa9ef7b,66229d99094ac4f56051407c,,,,,,,,,,,,,,,,,,,,,,,,,,,,,,,,,,,,,,,,,,,,,,,,,,,,,,,,1,54,114,35,1,A,Y,N,o1_image,stimuli/out1.png,stimuli/correct_out1.png,stimuli/out2.png,,,,,,,,,,,,,,,,,,,,,,,,,,,,,,,,,,,,,,
,,5ba4d6c929629d00014e6c28,35,male,2024-04-19_18h39.42.507,stockport_simplified,2022.2.4,Win32,60.0240096,661e456ee6de07e70aa9ef7b,66229d99094ac4f56051407c,,,,,,,,,,,,,,,,,,,,,,,,,,,,,,,,,,682.79,686.004,"[6,3,5,1,4,8,2,7]","[[0.3,0.2],[-0.3,0.2]]","[[-0.125,-0.2],[0.125,-0.2]]",0.078703704,-0.173611111,1,0,0,2.697,o2_image,686.008,1,686.503,686.503,688.503,0,0,0,0,1,,,,,,,,,,,,,,,,,,,,,,,,,,,,,,,,,,,,,,,,,,,,,,,,,,
,,5ba4d6c929629d00014e6c28,35,male,2024-04-19_18h39.42.507,stockport_simplified,2022.2.4,Win32,60.0240096,661e456ee6de07e70aa9ef7b,66229d99094ac4f56051407c,,,,,,,,,,,,,,,,,,,,,,,,,,,,,,,,,,,,,,,,,,,,,,,,,,,,,,,,1,55,115,16,1,B,Y,N,o2_image,stimuli/out2.png,stimuli/out1.png,stimuli/correct_out2.png,,,,,,,,,,,,,,,,,,,,,,,,,,,,,,,,,,,,,,
,,5ba4d6c929629d00014e6c28,35,male,2024-04-19_18h39.42.507,stockport_simplified,2022.2.4,Win32,60.0240096,661e456ee6de07e70aa9ef7b,66229d99094ac4f56051407c,,,,,,,,,,,,,,,,,,,,,,,,,,,,,,,,,,688.505,690.485,"[6,3,5,1,4,8,2,7]","[[0.3,0.2],[-0.3,0.2]]","[[0.125,-0.2],[-0.125,-0.2]]",-0.122685185,-0.207175926,1,0,0,1.465,o2_image,690.487,1,690.986,690.986,692.985,0,0,0,0,1,,,,,,,,,,,,,,,,,,,,,,,,,,,,,,,,,,,,,,,,,,,,,,,,,,
,,5ba4d6c929629d00014e6c28,35,male,2024-04-19_18h39.42.507,stockport_simplified,2022.2.4,Win32,60.0240096,661e456ee6de07e70aa9ef7b,66229d99094ac4f56051407c,,,,,,,,,,,,,,,,,,,,,,,,,,,,,,,,,,,,,,,,,,,,,,,,,,,,,,,,1,56,116,27,1,N,M,D,o2_image,stimuli/out2.png,stimuli/out1.png,stimuli/correct_out2.png,,,,,,,,,,,,,,,,,,,,,,,,,,,,,,,,,,,,,,
,,5ba4d6c929629d00014e6c28,35,male,2024-04-19_18h39.42.507,stockport_simplified,2022.2.4,Win32,60.0240096,661e456ee6de07e70aa9ef7b,66229d99094ac4f56051407c,,,,,,,,,,,,,,,,,,,,,,,,,,,,,,,,,,692.986,694.601,"[6,3,5,1,4,8,2,7]","[[0.3,0.2],[-0.3,0.2]]","[[-0.125,-0.2],[0.125,-0.2]]",-0.122685185,-0.207175926,1,0,0,1.1,o1_image,694.606,1,695.101,695.101,697.1,0,0,0,0,1,,,,,,,,,,,,,,,,,,,,,,,,,,,,,,,,,,,,,,,,,,,,,,,,,,
,,5ba4d6c929629d00014e6c28,35,male,2024-04-19_18h39.42.507,stockport_simplified,2022.2.4,Win32,60.0240096,661e456ee6de07e70aa9ef7b,66229d99094ac4f56051407c,,,,,,,,,,,,,,,,,,,,,,,,,,,,,,,,,,,,,,,,,,,,,,,,,,,,,,,,1,57,117,53,1,N,M,C,o1_image,stimuli/out1.png,stimuli/correct_out1.png,stimuli/out2.png,,,,,,,,,,,,,,,,,,,,,,,,,,,,,,,,,,,,,,
,,5ba4d6c929629d00014e6c28,35,male,2024-04-19_18h39.42.507,stockport_simplified,2022.2.4,Win32,60.0240096,661e456ee6de07e70aa9ef7b,66229d99094ac4f56051407c,,,,,,,,,,,,,,,,,,,,,,,,,,,,,,,,,,697.101,699.949,"[6,3,5,1,4,8,2,7]","[[0.3,0.2],[-0.3,0.2]]","[[0.125,-0.2],[-0.125,-0.2]]",0.064814815,-0.190972222,1,0,0,2.331,o1_image,699.951,1,700.449,700.449,702.448,0,0,0,0,1,,,,,,,,,,,,,,,,,,,,,,,,,,,,,,,,,,,,,,,,,,,,,,,,,,
,,5ba4d6c929629d00014e6c28,35,male,2024-04-19_18h39.42.507,stockport_simplified,2022.2.4,Win32,60.0240096,661e456ee6de07e70aa9ef7b,66229d99094ac4f56051407c,,,,,,,,,,,,,,,,,,,,,,,,,,,,,,,,,,,,,,,,,,,,,,,,,,,,,,,,1,58,118,1,1,A,X,N,o1_image,stimuli/out1.png,stimuli/correct_out1.png,stimuli/out2.png,,,,,,,,,,,,,,,,,,,,,,,,,,,,,,,,,,,,,,
,,5ba4d6c929629d00014e6c28,35,male,2024-04-19_18h39.42.507,stockport_simplified,2022.2.4,Win32,60.0240096,661e456ee6de07e70aa9ef7b,66229d99094ac4f56051407c,,,,,,,,,,,,,,,,,,,,,,,,,,,,,,,,,,702.449,706.63,"[6,3,5,1,4,8,2,7]","[[-0.3,0.2],[0.3,0.2]]","[[-0.125,-0.2],[0.125,-0.2]]",0.133101852,-0.188657407,1,0,0,3.665,o2_image,706.633,1,707.13,707.13,709.13,0,0,0,0,1,,,,,,,,,,,,,,,,,,,,,,,,,,,,,,,,,,,,,,,,,,,,,,,,,,
,,5ba4d6c929629d00014e6c28,35,male,2024-04-19_18h39.42.507,stockport_simplified,2022.2.4,Win32,60.0240096,661e456ee6de07e70aa9ef7b,66229d99094ac4f56051407c,,,,,,,,,,,,,,,,,,,,,,,,,,,,,,,,,,,,,,,,,,,,,,,,,,,,,,,,1,59,119,55,1,N,M,D,o2_image,stimuli/out2.png,stimuli/out1.png,stimuli/correct_out2.png,,,,,,,,,,,,,,,,,,,,,,,,,,,,,,,,,,,,,,
,,5ba4d6c929629d00014e6c28,35,male,2024-04-19_18h39.42.507,stockport_simplified,2022.2.4,Win32,60.0240096,661e456ee6de07e70aa9ef7b,66229d99094ac4f56051407c,,,,,,,,,,,,,,,,,,,,,,,,,,,,,,,,,,709.144,711.563,"[6,3,5,1,4,8,2,7]","[[-0.3,0.2],[0.3,0.2]]","[[0.125,-0.2],[-0.125,-0.2]]",-0.103009259,-0.178240741,1,0,0,1.917,o2_image,711.568,1,712.061,712.062,714.061,,,,,,,,,,,,,,,,,,0,0,0,0,1,,,,,,,,,,,,,,,,,,,,,,,,,,,,,,,,,
,,5ba4d6c929629d00014e6c28,35,male,2024-04-19_18h39.42.507,stockport_simplified,2022.2.4,Win32,60.0240096,661e456ee6de07e70aa9ef7b,66229d99094ac4f56051407c,,,,,,,,,,,,,,,,,,,,,,,,,,,,,,,,,,,,,,,,,,,,,,,,,,,,,,,,,,,,,N,M,D,o2_image,stimuli/out2.png,stimuli/out1.png,stimuli/correct_out2.png,,,,,,0,0,0,50,1,,,,,,,,,,,,,,,,,,,,,,,,,,,,
,,5ba4d6c929629d00014e6c28,35,male,2024-04-19_18h39.42.507,stockport_simplified,2022.2.4,Win32,60.0240096,661e456ee6de07e70aa9ef7b,66229d99094ac4f56051407c,,,,,,,,,,,,,,,,,,,,,,,,,,,,,,,,,,714.063,718.176,"[6,3,5,1,4,8,2,7]","[[0.3,0.2],[-0.3,0.2]]","[[-0.125,-0.2],[0.125,-0.2]]",0.09837963,-0.173611111,1,0,0,3.599,o2_image,718.181,1,718.676,718.676,720.675,,,,,,,,,,,,,,,,,,0,0,0,0,1,,,,,,,,,,,,,,,,,,,,,,,,,,,,,,,,,
,,5ba4d6c929629d00014e6c28,35,male,2024-04-19_18h39.42.507,stockport_simplified,2022.2.4,Win32,60.0240096,661e456ee6de07e70aa9ef7b,66229d99094ac4f56051407c,,,,,,,,,,,,,,,,,,,,,,,,,,,,,,,,,,,,,,,,,,,,,,,,,,,,,,,,,,,,,N,M,D,o2_image,stimuli/out2.png,stimuli/out1.png,stimuli/correct_out2.png,,,,,,0,1,1,52,1,,,,,,,,,,,,,,,,,,,,,,,,,,,,
,,5ba4d6c929629d00014e6c28,35,male,2024-04-19_18h39.42.507,stockport_simplified,2022.2.4,Win32,60.0240096,661e456ee6de07e70aa9ef7b,66229d99094ac4f56051407c,,,,,,,,,,,,,,,,,,,,,,,,,,,,,,,,,,720.676,722.242,"[6,3,5,1,4,8,2,7]","[[0.3,0.2],[-0.3,0.2]]","[[-0.125,-0.2],[0.125,-0.2]]",0.09837963,-0.173611111,1,0,0,1.049,o2_image,722.245,1,722.742,722.742,724.741,,,,,,,,,,,,,,,,,,0,0,0,0,1,,,,,,,,,,,,,,,,,,,,,,,,,,,,,,,,,
,,5ba4d6c929629d00014e6c28,35,male,2024-04-19_18h39.42.507,stockport_simplified,2022.2.4,Win32,60.0240096,661e456ee6de07e70aa9ef7b,66229d99094ac4f56051407c,,,,,,,,,,,,,,,,,,,,,,,,,,,,,,,,,,,,,,,,,,,,,,,,,,,,,,,,,,,,,N,M,D,o2_image,stimuli/out2.png,stimuli/out1.png,stimuli/correct_out2.png,,,,,,0,2,2,51,1,,,,,,,,,,,,,,,,,,,,,,,,,,,,
,,5ba4d6c929629d00014e6c28,35,male,2024-04-19_18h39.42.507,stockport_simplified,2022.2.4,Win32,60.0240096,661e456ee6de07e70aa9ef7b,66229d99094ac4f56051407c,,,,,,,,,,,,,,,,,,,,,,,,,,,,,,,,,,724.742,726.856,"[6,3,5,1,4,8,2,7]","[[-0.3,0.2],[0.3,0.2]]","[[-0.125,-0.2],[0.125,-0.2]]",0.09837963,-0.173611111,1,0,0,1.597,o2_image,726.86,0,727.356,727.356,729.356,,,,,,,,,,,,,,,,,,0,0,0,0,1,,,,,,,,,,,,,,,,,,,,,,,,,,,,,,,,,
,,5ba4d6c929629d00014e6c28,35,male,2024-04-19_18h39.42.507,stockport_simplified,2022.2.4,Win32,60.0240096,661e456ee6de07e70aa9ef7b,66229d99094ac4f56051407c,,,,,,,,,,,,,,,,,,,,,,,,,,,,,,,,,,,,,,,,,,,,,,,,,,,,,,,,,,,,,B,X,N,o1_image,stimuli/out1.png,stimuli/correct_out1.png,stimuli/out2.png,,,,,,0,3,3,25,1,,,,,,,,,,,,,,,,,,,,,,,,,,,,
,,5ba4d6c929629d00014e6c28,35,male,2024-04-19_18h39.42.507,stockport_simplified,2022.2.4,Win32,60.0240096,661e456ee6de07e70aa9ef7b,66229d99094ac4f56051407c,,,,,,,,,,,,,,,,,,,,,,,,,,,,,,,,,,729.356,732.304,"[6,3,5,1,4,8,2,7]","[[0.3,0.2],[-0.3,0.2]]","[[0.125,-0.2],[-0.125,-0.2]]",0.135416667,-0.189814815,1,0,0,2.431,o1_image,732.308,1,732.804,732.804,734.804,,,,,,,,,,,,,,,,,,0,0,0,0,1,,,,,,,,,,,,,,,,,,,,,,,,,,,,,,,,,
,,5ba4d6c929629d00014e6c28,35,male,2024-04-19_18h39.42.507,stockport_simplified,2022.2.4,Win32,60.0240096,661e456ee6de07e70aa9ef7b,66229d99094ac4f56051407c,,,,,,,,,,,,,,,,,,,,,,,,,,,,,,,,,,,,,,,,,,,,,,,,,,,,,,,,,,,,,A,Y,N,o1_image,stimuli/out1.png,stimuli/correct_out1.png,stimuli/out2.png,,,,,,0,4,4,12,1,,,,,,,,,,,,,,,,,,,,,,,,,,,,
,,5ba4d6c929629d00014e6c28,35,male,2024-04-19_18h39.42.507,stockport_simplified,2022.2.4,Win32,60.0240096,661e456ee6de07e70aa9ef7b,66229d99094ac4f56051407c,,,,,,,,,,,,,,,,,,,,,,,,,,,,,,,,,,734.805,736.553,"[6,3,5,1,4,8,2,7]","[[0.3,0.2],[-0.3,0.2]]","[[0.125,-0.2],[-0.125,-0.2]]",0.135416667,-0.189814815,1,0,0,1.232,o1_image,736.556,0,737.053,737.053,739.052,,,,,,,,,,,,,,,,,,0,0,0,0,1,,,,,,,,,,,,,,,,,,,,,,,,,,,,,,,,,
,,5ba4d6c929629d00014e6c28,35,male,2024-04-19_18h39.42.507,stockport_simplified,2022.2.4,Win32,60.0240096,661e456ee6de07e70aa9ef7b,66229d99094ac4f56051407c,,,,,,,,,,,,,,,,,,,,,,,,,,,,,,,,,,,,,,,,,,,,,,,,,,,,,,,,,,,,,A,X,N,o2_image,stimuli/out2.png,stimuli/out1.png,stimuli/correct_out2.png,,,,,,0,5,5,9,1,,,,,,,,,,,,,,,,,,,,,,,,,,,,
