counterbalance_2.started,counterbalance_2.stopped,participant,age,gender,date,expName,psychopyVersion,OS,frameRate,STUDY_ID,SESSION_ID,information_2.started,information_2.stopped,information_loop.thisRepN,information_loop.thisTrialN,information_loop.thisN,information_loop.thisIndex,information_loop.ran,information,consent_2.started,consent_2.stopped,slider_1.response,slider_2.response,slider_3.response,slider_4.response,slider_5.response,slider_6.response,instructions.started,instructions.stopped,task1_instr.thisRepN,task1_instr.thisTrialN,task1_instr.thisN,task1_instr.thisIndex,task1_instr.ran,task1,comprehension1_2.started,comprehension1_2.stopped,comp1_mouse.x,comp1_mouse.y,comp1_mouse.leftButton,comp1_mouse.midButton,comp1_mouse.rightButton,comp1_mouse.time,comp1_mouse.clicked_name,cue_o__trial_2.started,cue_o__trial_2.stopped,order,cue_order,out_order,cue_o_mouse.x,cue_o_mouse.y,cue_o_mouse.leftButton,cue_o_mouse.midButton,cue_o_mouse.rightButton,cue_o_mouse.time,cue_o_mouse.clicked_name,cue_selection_2.started,correct_answer,cue_selection_2.stopped,feedback_2.started,feedback_2.stopped,feedback_loop.thisRepN,feedback_loop.thisTrialN,feedback_loop.thisN,feedback_loop.thisIndex,feedback_loop.ran,stage1_trials.thisRepN,stage1_trials.thisTrialN,stage1_trials.thisN,stage1_trials.thisIndex,stage1_trials.ran,cue1,cue2,cue3,outcome,correct_out,o1_feedback,o2_feedback,stage2_feedback_loop.thisRepN,stage2_feedback_loop.thisTrialN,stage2_feedback_loop.thisN,stage2_feedback_loop.thisIndex,stage2_feedback_loop.ran,stage2_trials.thisRepN,stage2_trials.thisTrialN,stage2_trials.thisN,stage2_trials.thisIndex,stage2_trials.ran,stage3_feedback_loop.thisRepN,stage3_feedback_loop.thisTrialN,stage3_feedback_loop.thisN,stage3_feedback_loop.thisIndex,stage3_feedback_loop.ran,stage3_trials.thisRepN,stage3_trials.thisTrialN,stage3_trials.thisN,stage3_trials.thisIndex,stage3_trials.ran,debrief_2.started,debrief_2.stopped,debrief_loop.thisRepN,debrief_loop.thisTrialN,debrief_loop.thisN,debrief_loop.thisIndex,debrief_loop.ran,debrief_img,compr1_completed.thisRepN,compr1_completed.thisTrialN,compr1_completed.thisN,compr1_completed.thisIndex,compr1_completed.ran,consent_loop.thisRepN,consent_loop.thisTrialN,consent_loop.thisN,consent_loop.thisIndex,consent_loop.ran
0.0003,0.0005,5ecd2230b3956a034ebcc660,24,male,2024-04-19_18h37.14.665,stockport_simplified,2022.2.4,Win32,75.18796992,661e456ee6de07e70aa9ef7b,66229da66d0e3a5d98290f45,,,,,,,,,,,,,,,,,,,,,,,,,,,,,,,,,,,,,,,,,,,,,,,,,,,,,,,,,,,,,,,,,,,,,,,,,,,,,,,,,,,,,,,,,,,,,,,,,,,,,,,,,
,,5ecd2230b3956a034ebcc660,24,male,2024-04-19_18h37.14.665,stockport_simplified,2022.2.4,Win32,75.18796992,661e456ee6de07e70aa9ef7b,66229da66d0e3a5d98290f45,0.0258,11.0379,0,0,0,0,1,instructions/info1.png,,,,,,,,,,,,,,,,,,,,,,,,,,,,,,,,,,,,,,,,,,,,,,,,,,,,,,,,,,,,,,,,,,,,,,,,,,,,,,,,,,,,,,,,,,,,,,,,,
,,5ecd2230b3956a034ebcc660,24,male,2024-04-19_18h37.14.665,stockport_simplified,2022.2.4,Win32,75.18796992,661e456ee6de07e70aa9ef7b,66229da66d0e3a5d98290f45,11.039,13.2099,0,1,1,1,1,instructions/info2.png,,,,,,,,,,,,,,,,,,,,,,,,,,,,,,,,,,,,,,,,,,,,,,,,,,,,,,,,,,,,,,,,,,,,,,,,,,,,,,,,,,,,,,,,,,,,,,,,,
,,5ecd2230b3956a034ebcc660,24,male,2024-04-19_18h37.14.665,stockport_simplified,2022.2.4,Win32,75.18796992,661e456ee6de07e70aa9ef7b,66229da66d0e3a5d98290f45,13.2102,14.3833,0,2,2,2,1,instructions/info3.png,,,,,,,,,,,,,,,,,,,,,,,,,,,,,,,,,,,,,,,,,,,,,,,,,,,,,,,,,,,,,,,,,,,,,,,,,,,,,,,,,,,,,,,,,,,,,,,,,
,,5ecd2230b3956a034ebcc660,24,male,2024-04-19_18h37.14.665,stockport_simplified,2022.2.4,Win32,75.18796992,661e456ee6de07e70aa9ef7b,66229da66d0e3a5d98290f45,,,,,,,,,14.3838,24.7233,1,1,1,1,1,1,,,,,,,,,,,,,,,,,,,,,,,,,,,,,,,,,,,,,,,,,,,,,,,,,,,,,,,,,,,,,,,,,,,,,,,,,,,,,,,,,,,,,,,,,
,,5ecd2230b3956a034ebcc660,24,male,2024-04-19_18h37.14.665,stockport_simplified,2022.2.4,Win32,75.18796992,661e456ee6de07e70aa9ef7b,66229da66d0e3a5d98290f45,,,,,,,,,,,,,,,,,24.7279,36.1034,0,0,0,0,1,instructions/task1_1.png,,,,,,,,,,,,,,,,,,,,,,,,,,,,,,,,,,,,,,,,,,,,,,,,,,,,,,,,,,,,,,,,,,,,,,,,,,,,,,,,,
,,5ecd2230b3956a034ebcc660,24,male,2024-04-19_18h37.14.665,stockport_simplified,2022.2.4,Win32,75.18796992,661e456ee6de07e70aa9ef7b,66229da66d0e3a5d98290f45,,,,,,,,,,,,,,,,,36.1037,45.5832,0,1,1,1,1,instructions/task1_2.png,,,,,,,,,,,,,,,,,,,,,,,,,,,,,,,,,,,,,,,,,,,,,,,,,,,,,,,,,,,,,,,,,,,,,,,,,,,,,,,,,
,,5ecd2230b3956a034ebcc660,24,male,2024-04-19_18h37.14.665,stockport_simplified,2022.2.4,Win32,75.18796992,661e456ee6de07e70aa9ef7b,66229da66d0e3a5d98290f45,,,,,,,,,,,,,,,,,45.5838,53.8099,0,2,2,2,1,instructions/task1_3.png,,,,,,,,,,,,,,,,,,,,,,,,,,,,,,,,,,,,,,,,,,,,,,,,,,,,,,,,,,,,,,,,,,,,,,,,,,,,,,,,,
,,5ecd2230b3956a034ebcc660,24,male,2024-04-19_18h37.14.665,stockport_simplified,2022.2.4,Win32,75.18796992,661e456ee6de07e70aa9ef7b,66229da66d0e3a5d98290f45,,,,,,,,,,,,,,,,,,,,,,,,,53.8104,57.1311,-0.112037037,-0.318518519,1,0,0,3.3195,comp1_resp1,57.1483,59.2901,"[3,5,8,2,6,7,4,1]","[[-0.3,0.2],[0.3,0.2]]","[[-0.125,-0.2],[0.125,-0.2]]",-0.134259259,-0.176851852,1,0,0,1.6394,o1_image,59.2909,0,59.7835,59.7836,61.7833,0,0,0,0,1,,,,,,,,,,,,,,,,,,,,,,,,,,,,,,,,,,,,,,,,,,,,,,,,,,
,,5ecd2230b3956a034ebcc660,24,male,2024-04-19_18h37.14.665,stockport_simplified,2022.2.4,Win32,75.18796992,661e456ee6de07e70aa9ef7b,66229da66d0e3a5d98290f45,,,,,,,,,,,,,,,,,,,,,,,,,,,,,,,,,,,,,,,,,,,,,,,,,,,,,,,,0,0,0,18,1,B,Y,N,o2_image,stimuli/out2.png,stimuli/out1.png,stimuli/correct_out2.png,,,,,,,,,,,,,,,,,,,,,,,,,,,,,,,,,,,,,,
,,5ecd2230b3956a034ebcc660,24,male,2024-04-19_18h37.14.665,stockport_simplified,2022.2.4,Win32,75.18796992,661e456ee6de07e70aa9ef7b,66229da66d0e3a5d98290f45,,,,,,,,,,,,,,,,,,,,,,,,,,,,,,,,,,61.7836,64.0898,"[3,5,8,2,6,7,4,1]","[[0.3,0.2],[-0.3,0.2]]","[[0.125,-0.2],[-0.125,-0.2]]",-0.114814815,-0.162962963,1,0,0,1.7997,o2_image,64.0903,1,64.5832,64.5832,66.5833,0,0,0,0,1,,,,,,,,,,,,,,,,,,,,,,,,,,,,,,,,,,,,,,,,,,,,,,,,,,
,,5ecd2230b3956a034ebcc660,24,male,2024-04-19_18h37.14.665,stockport_simplified,2022.2.4,Win32,75.18796992,661e456ee6de07e70aa9ef7b,66229da66d0e3a5d98290f45,,,,,,,,,,,,,,,,,,,,,,,,,,,,,,,,,,,,,,,,,,,,,,,,,,,,,,,,0,1,1,17,1,B,Y,N,o2_image,stimuli/out2.png,stimuli/out1.png,stimuli/correct_out2.png,,,,,,,,,,,,,,,,,,,,,,,,,,,,,,,,,,,,,,
,,5ecd2230b3956a034ebcc660,24,male,2024-04-19_18h37.14.665,stockport_simplified,2022.2.4,Win32,75.18796992,661e456ee6de07e70aa9ef7b,66229da66d0e3a5d98290f45,,,,,,,,,,,,,,,,,,,,,,,,,,,,,,,,,,66.5835,69.2366,"[3,5,8,2,6,7,4,1]","[[0.3,0.2],[-0.3,0.2]]","[[0.125,-0.2],[-0.125,-0.2]]",-0.137962963,-0.223148148,1,0,0,2.1464,o2_image,69.2369,1,69.7301,69.7301,71.7302,0,0,0,0,1,,,,,,,,,,,,,,,,,,,,,,,,,,,,,,,,,,,,,,,,,,,,,,,,,,
,,5ecd2230b3956a034ebcc660,24,male,2024-04-19_18h37.14.665,stockport_simplified,2022.2.4,Win32,75.18796992,661e456ee6de07e70aa9ef7b,66229da66d0e3a5d98290f45,,,,,,,,,,,,,,,,,,,,,,,,,,,,,,,,,,,,,,,,,,,,,,,,,,,,,,,,0,2,2,19,1,B,Y,N,o2_image,stimuli/out2.png,stimuli/out1.png,stimuli/correct_out2.png,,,,,,,,,,,,,,,,,,,,,,,,,,,,,,,,,,,,,,
,,5ecd2230b3956a034ebcc660,24,male,2024-04-19_18h37.14.665,stockport_simplified,2022.2.4,Win32,75.18796992,661e456ee6de07e70aa9ef7b,66229da66d0e3a5d98290f45,,,,,,,,,,,,,,,,,,,,,,,,,,,,,,,,,,71.7303,75.3032,"[3,5,8,2,6,7,4,1]","[[0.3,0.2],[-0.3,0.2]]","[[0.125,-0.2],[-0.125,-0.2]]",0.125925926,-0.207407407,1,0,0,3.0662,o1_image,75.3108,1,75.8099,75.8099,77.8099,0,0,0,0,1,,,,,,,,,,,,,,,,,,,,,,,,,,,,,,,,,,,,,,,,,,,,,,,,,,
,,5ecd2230b3956a034ebcc660,24,male,2024-04-19_18h37.14.665,stockport_simplified,2022.2.4,Win32,75.18796992,661e456ee6de07e70aa9ef7b,66229da66d0e3a5d98290f45,,,,,,,,,,,,,,,,,,,,,,,,,,,,,,,,,,,,,,,,,,,,,,,,,,,,,,,,0,3,3,51,1,N,M,C,o1_image,stimuli/out1.png,stimuli/correct_out1.png,stimuli/out2.png,,,,,,,,,,,,,,,,,,,,,,,,,,,,,,,,,,,,,,
,,5ecd2230b3956a034ebcc660,24,male,2024-04-19_18h37.14.665,stockport_simplified,2022.2.4,Win32,75.18796992,661e456ee6de07e70aa9ef7b,66229da66d0e3a5d98290f45,,,,,,,,,,,,,,,,,,,,,,,,,,,,,,,,,,77.8105,81.8498,"[3,5,8,2,6,7,4,1]","[[0.3,0.2],[-0.3,0.2]]","[[-0.125,-0.2],[0.125,-0.2]]",-0.148148148,-0.2,1,0,0,3.5328,o1_image,81.8571,1,82.3566,82.3566,84.3565,0,0,0,0,1,,,,,,,,,,,,,,,,,,,,,,,,,,,,,,,,,,,,,,,,,,,,,,,,,,
,,5ecd2230b3956a034ebcc660,24,male,2024-04-19_18h37.14.665,stockport_simplified,2022.2.4,Win32,75.18796992,661e456ee6de07e70aa9ef7b,66229da66d0e3a5d98290f45,,,,,,,,,,,,,,,,,,,,,,,,,,,,,,,,,,,,,,,,,,,,,,,,,,,,,,,,0,4,4,4,1,A,X,N,o1_image,stimuli/out1.png,stimuli/correct_out1.png,stimuli/out2.png,,,,,,,,,,,,,,,,,,,,,,,,,,,,,,,,,,,,,,
,,5ecd2230b3956a034ebcc660,24,male,2024-04-19_18h37.14.665,stockport_simplified,2022.2.4,Win32,75.18796992,661e456ee6de07e70aa9ef7b,66229da66d0e3a5d98290f45,,,,,,,,,,,,,,,,,,,,,,,,,,,,,,,,,,84.3567,87.8233,"[3,5,8,2,6,7,4,1]","[[0.3,0.2],[-0.3,0.2]]","[[0.125,-0.2],[-0.125,-0.2]]",-0.108333333,-0.239814815,1,0,0,2.9597,o2_image,87.8244,1,88.3167,88.3168,90.3164,0,0,0,0,1,,,,,,,,,,,,,,,,,,,,,,,,,,,,,,,,,,,,,,,,,,,,,,,,,,
,,5ecd2230b3956a034ebcc660,24,male,2024-04-19_18h37.14.665,stockport_simplified,2022.2.4,Win32,75.18796992,661e456ee6de07e70aa9ef7b,66229da66d0e3a5d98290f45,,,,,,,,,,,,,,,,,,,,,,,,,,,,,,,,,,,,,,,,,,,,,,,,,,,,,,,,0,5,5,55,1,N,M,D,o2_image,stimuli/out2.png,stimuli/out1.png,stimuli/correct_out2.png,,,,,,,,,,,,,,,,,,,,,,,,,,,,,,,,,,,,,,
,,5ecd2230b3956a034ebcc660,24,male,2024-04-19_18h37.14.665,stockport_simplified,2022.2.4,Win32,75.18796992,661e456ee6de07e70aa9ef7b,66229da66d0e3a5d98290f45,,,,,,,,,,,,,,,,,,,,,,,,,,,,,,,,,,90.3167,91.8898,"[3,5,8,2,6,7,4,1]","[[0.3,0.2],[-0.3,0.2]]","[[-0.125,-0.2],[0.125,-0.2]]",0.102777778,-0.211111111,1,0,0,1.0665,o2_image,91.8901,1,92.3833,92.3833,94.3832,0,0,0,0,1,,,,,,,,,,,,,,,,,,,,,,,,,,,,,,,,,,,,,,,,,,,,,,,,,,
,,5ecd2230b3956a034ebcc660,24,male,2024-04-19_18h37.14.665,stockport_simplified,2022.2.4,Win32,75.18796992,661e456ee6de07e70aa9ef7b,66229da66d0e3a5d98290f45,,,,,,,,,,,,,,,,,,,,,,,,,,,,,,,,,,,,,,,,,,,,,,,,,,,,,,,,0,6,6,59,1,N,M,D,o2_image,stimuli/out2.png,stimuli/out1.png,stimuli/correct_out2.png,,,,,,,,,,,,,,,,,,,,,,,,,,,,,,,,,,,,,,
,,5ecd2230b3956a034ebcc660,24,male,2024-04-19_18h37.14.665,stockport_simplified,2022.2.4,Win32,75.18796992,661e456ee6de07e70aa9ef7b,66229da66d0e3a5d98290f45,,,,,,,,,,,,,,,,,,,,,,,,,,,,,,,,,,94.3834,99.2898,"[3,5,8,2,6,7,4,1]","[[-0.3,0.2],[0.3,0.2]]","[[-0.125,-0.2],[0.125,-0.2]]",0.14537037,-0.2,1,0,0,4.3992,o2_image,99.297,0,99.7899,99.7899,101.7831,0,0,0,0,1,,,,,,,,,,,,,,,,,,,,,,,,,,,,,,,,,,,,,,,,,,,,,,,,,,
,,5ecd2230b3956a034ebcc660,24,male,2024-04-19_18h37.14.665,stockport_simplified,2022.2.4,Win32,75.18796992,661e456ee6de07e70aa9ef7b,66229da66d0e3a5d98290f45,,,,,,,,,,,,,,,,,,,,,,,,,,,,,,,,,,,,,,,,,,,,,,,,,,,,,,,,0,7,7,39,1,A,Y,N,o1_image,stimuli/out1.png,stimuli/correct_out1.png,stimuli/out2.png,,,,,,,,,,,,,,,,,,,,,,,,,,,,,,,,,,,,,,
,,5ecd2230b3956a034ebcc660,24,male,2024-04-19_18h37.14.665,stockport_simplified,2022.2.4,Win32,75.18796992,661e456ee6de07e70aa9ef7b,66229da66d0e3a5d98290f45,,,,,,,,,,,,,,,,,,,,,,,,,,,,,,,,,,101.7835,103.5567,"[3,5,8,2,6,7,4,1]","[[0.3,0.2],[-0.3,0.2]]","[[-0.125,-0.2],[0.125,-0.2]]",-0.147222222,-0.228703704,1,0,0,1.2665,o1_image,103.557,0,104.0499,104.0499,106.0498,0,0,0,0,1,,,,,,,,,,,,,,,,,,,,,,,,,,,,,,,,,,,,,,,,,,,,,,,,,,
,,5ecd2230b3956a034ebcc660,24,male,2024-04-19_18h37.14.665,stockport_simplified,2022.2.4,Win32,75.18796992,661e456ee6de07e70aa9ef7b,66229da66d0e3a5d98290f45,,,,,,,,,,,,,,,,,,,,,,,,,,,,,,,,,,,,,,,,,,,,,,,,,,,,,,,,0,8,8,48,1,B,Y,N,o2_image,stimuli/out2.png,stimuli/out1.png,stimuli/correct_out2.png,,,,,,,,,,,,,,,,,,,,,,,,,,,,,,,,,,,,,,
,,5ecd2230b3956a034ebcc660,24,male,2024-04-19_18h37.14.665,stockport_simplified,2022.2.4,Win32,75.18796992,661e456ee6de07e70aa9ef7b,66229da66d0e3a5d98290f45,,,,,,,,,,,,,,,,,,,,,,,,,,,,,,,,,,106.05,109.7833,"[3,5,8,2,6,7,4,1]","[[-0.3,0.2],[0.3,0.2]]","[[-0.125,-0.2],[0.125,-0.2]]",0.04537037,-0.211111111,1,0,0,3.2266,o2_image,109.7909,0,110.2898,110.2898,112.2904,0,0,0,0,1,,,,,,,,,,,,,,,,,,,,,,,,,,,,,,,,,,,,,,,,,,,,,,,,,,
,,5ecd2230b3956a034ebcc660,24,male,2024-04-19_18h37.14.665,stockport_simplified,2022.2.4,Win32,75.18796992,661e456ee6de07e70aa9ef7b,66229da66d0e3a5d98290f45,,,,,,,,,,,,,,,,,,,,,,,,,,,,,,,,,,,,,,,,,,,,,,,,,,,,,,,,0,9,9,34,1,A,X,N,o1_image,stimuli/out1.png,stimuli/correct_out1.png,stimuli/out2.png,,,,,,,,,,,,,,,,,,,,,,,,,,,,,,,,,,,,,,
,,5ecd2230b3956a034ebcc660,24,male,2024-04-19_18h37.14.665,stockport_simplified,2022.2.4,Win32,75.18796992,661e456ee6de07e70aa9ef7b,66229da66d0e3a5d98290f45,,,,,,,,,,,,,,,,,,,,,,,,,,,,,,,,,,112.2913,114.7965,"[3,5,8,2,6,7,4,1]","[[0.3,0.2],[-0.3,0.2]]","[[-0.125,-0.2],[0.125,-0.2]]",0.088888889,-0.223148148,1,0,0,1.9999,o2_image,114.7977,1,115.2897,115.2897,117.2899,0,0,0,0,1,,,,,,,,,,,,,,,,,,,,,,,,,,,,,,,,,,,,,,,,,,,,,,,,,,
,,5ecd2230b3956a034ebcc660,24,male,2024-04-19_18h37.14.665,stockport_simplified,2022.2.4,Win32,75.18796992,661e456ee6de07e70aa9ef7b,66229da66d0e3a5d98290f45,,,,,,,,,,,,,,,,,,,,,,,,,,,,,,,,,,,,,,,,,,,,,,,,,,,,,,,,0,10,10,13,1,B,X,N,o2_image,stimuli/out2.png,stimuli/out1.png,stimuli/correct_out2.png,,,,,,,,,,,,,,,,,,,,,,,,,,,,,,,,,,,,,,
,,5ecd2230b3956a034ebcc660,24,male,2024-04-19_18h37.14.665,stockport_simplified,2022.2.4,Win32,75.18796992,661e456ee6de07e70aa9ef7b,66229da66d0e3a5d98290f45,,,,,,,,,,,,,,,,,,,,,,,,,,,,,,,,,,117.2908,119.6231,"[3,5,8,2,6,7,4,1]","[[0.3,0.2],[-0.3,0.2]]","[[-0.125,-0.2],[0.125,-0.2]]",-0.101851852,-0.201851852,1,0,0,1.8259,o1_image,119.6234,1,120.1164,120.1164,122.1168,0,0,0,0,1,,,,,,,,,,,,,,,,,,,,,,,,,,,,,,,,,,,,,,,,,,,,,,,,,,
,,5ecd2230b3956a034ebcc660,24,male,2024-04-19_18h37.14.665,stockport_simplified,2022.2.4,Win32,75.18796992,661e456ee6de07e70aa9ef7b,66229da66d0e3a5d98290f45,,,,,,,,,,,,,,,,,,,,,,,,,,,,,,,,,,,,,,,,,,,,,,,,,,,,,,,,0,11,11,52,1,N,M,C,o1_image,stimuli/out1.png,stimuli/correct_out1.png,stimuli/out2.png,,,,,,,,,,,,,,,,,,,,,,,,,,,,,,,,,,,,,,
,,5ecd2230b3956a034ebcc660,24,male,2024-04-19_18h37.14.665,stockport_simplified,2022.2.4,Win32,75.18796992,661e456ee6de07e70aa9ef7b,66229da66d0e3a5d98290f45,,,,,,,,,,,,,,,,,,,,,,,,,,,,,,,,,,122.117,124.6231,"[3,5,8,2,6,7,4,1]","[[0.3,0.2],[-0.3,0.2]]","[[0.125,-0.2],[-0.125,-0.2]]",0.14537037,-0.22962963,1,0,0,1.9995,o1_image,124.6303,0,125.1304,125.1305,127.1299,0,0,0,0,1,,,,,,,,,,,,,,,,,,,,,,,,,,,,,,,,,,,,,,,,,,,,,,,,,,
,,5ecd2230b3956a034ebcc660,24,male,2024-04-19_18h37.14.665,stockport_simplified,2022.2.4,Win32,75.18796992,661e456ee6de07e70aa9ef7b,66229da66d0e3a5d98290f45,,,,,,,,,,,,,,,,,,,,,,,,,,,,,,,,,,,,,,,,,,,,,,,,,,,,,,,,0,12,12,25,1,N,M,D,o2_image,stimuli/out2.png,stimuli/out1.png,stimuli/correct_out2.png,,,,,,,,,,,,,,,,,,,,,,,,,,,,,,,,,,,,,,
,,5ecd2230b3956a034ebcc660,24,male,2024-04-19_18h37.14.665,stockport_simplified,2022.2.4,Win32,75.18796992,661e456ee6de07e70aa9ef7b,66229da66d0e3a5d98290f45,,,,,,,,,,,,,,,,,,,,,,,,,,,,,,,,,,127.1308,130.2232,"[3,5,8,2,6,7,4,1]","[[-0.3,0.2],[0.3,0.2]]","[[-0.125,-0.2],[0.125,-0.2]]",0.034259259,-0.239814815,1,0,0,1.9184,o2_image,130.2244,1,130.7166,130.7166,132.7165,0,0,0,0,1,,,,,,,,,,,,,,,,,,,,,,,,,,,,,,,,,,,,,,,,,,,,,,,,,,
,,5ecd2230b3956a034ebcc660,24,male,2024-04-19_18h37.14.665,stockport_simplified,2022.2.4,Win32,75.18796992,661e456ee6de07e70aa9ef7b,66229da66d0e3a5d98290f45,,,,,,,,,,,,,,,,,,,,,,,,,,,,,,,,,,,,,,,,,,,,,,,,,,,,,,,,0,13,13,47,1,B,Y,N,o2_image,stimuli/out2.png,stimuli/out1.png,stimuli/correct_out2.png,,,,,,,,,,,,,,,,,,,,,,,,,,,,,,,,,,,,,,
,,5ecd2230b3956a034ebcc660,24,male,2024-04-19_18h37.14.665,stockport_simplified,2022.2.4,Win32,75.18796992,661e456ee6de07e70aa9ef7b,66229da66d0e3a5d98290f45,,,,,,,,,,,,,,,,,,,,,,,,,,,,,,,,,,132.7168,134.3965,"[3,5,8,2,6,7,4,1]","[[0.3,0.2],[-0.3,0.2]]","[[0.125,-0.2],[-0.125,-0.2]]",-0.162037037,-0.2,1,0,0,1.173,o2_image,134.3969,1,134.89,134.89,136.89,0,0,0,0,1,,,,,,,,,,,,,,,,,,,,,,,,,,,,,,,,,,,,,,,,,,,,,,,,,,
,,5ecd2230b3956a034ebcc660,24,male,2024-04-19_18h37.14.665,stockport_simplified,2022.2.4,Win32,75.18796992,661e456ee6de07e70aa9ef7b,66229da66d0e3a5d98290f45,,,,,,,,,,,,,,,,,,,,,,,,,,,,,,,,,,,,,,,,,,,,,,,,,,,,,,,,0,14,14,57,1,N,M,D,o2_image,stimuli/out2.png,stimuli/out1.png,stimuli/correct_out2.png,,,,,,,,,,,,,,,,,,,,,,,,,,,,,,,,,,,,,,
,,5ecd2230b3956a034ebcc660,24,male,2024-04-19_18h37.14.665,stockport_simplified,2022.2.4,Win32,75.18796992,661e456ee6de07e70aa9ef7b,66229da66d0e3a5d98290f45,,,,,,,,,,,,,,,,,,,,,,,,,,,,,,,,,,136.8903,140.3431,"[3,5,8,2,6,7,4,1]","[[0.3,0.2],[-0.3,0.2]]","[[-0.125,-0.2],[0.125,-0.2]]",0.089814815,-0.20462963,1,0,0,2.9462,o2_image,140.3501,0,140.8498,140.8498,142.8498,0,0,0,0,1,,,,,,,,,,,,,,,,,,,,,,,,,,,,,,,,,,,,,,,,,,,,,,,,,,
,,5ecd2230b3956a034ebcc660,24,male,2024-04-19_18h37.14.665,stockport_simplified,2022.2.4,Win32,75.18796992,661e456ee6de07e70aa9ef7b,66229da66d0e3a5d98290f45,,,,,,,,,,,,,,,,,,,,,,,,,,,,,,,,,,,,,,,,,,,,,,,,,,,,,,,,0,15,15,7,1,A,Y,N,o1_image,stimuli/out1.png,stimuli/correct_out1.png,stimuli/out2.png,,,,,,,,,,,,,,,,,,,,,,,,,,,,,,,,,,,,,,
,,5ecd2230b3956a034ebcc660,24,male,2024-04-19_18h37.14.665,stockport_simplified,2022.2.4,Win32,75.18796992,661e456ee6de07e70aa9ef7b,66229da66d0e3a5d98290f45,,,,,,,,,,,,,,,,,,,,,,,,,,,,,,,,,,142.8501,145.6231,"[3,5,8,2,6,7,4,1]","[[0.3,0.2],[-0.3,0.2]]","[[0.125,-0.2],[-0.125,-0.2]]",-0.125,-0.214814815,1,0,0,2.2662,o2_image,145.6234,0,146.1164,146.1164,148.1166,0,0,0,0,1,,,,,,,,,,,,,,,,,,,,,,,,,,,,,,,,,,,,,,,,,,,,,,,,,,
,,5ecd2230b3956a034ebcc660,24,male,2024-04-19_18h37.14.665,stockport_simplified,2022.2.4,Win32,75.18796992,661e456ee6de07e70aa9ef7b,66229da66d0e3a5d98290f45,,,,,,,,,,,,,,,,,,,,,,,,,,,,,,,,,,,,,,,,,,,,,,,,,,,,,,,,0,16,16,2,1,A,X,N,o1_image,stimuli/out1.png,stimuli/correct_out1.png,stimuli/out2.png,,,,,,,,,,,,,,,,,,,,,,,,,,,,,,,,,,,,,,
,,5ecd2230b3956a034ebcc660,24,male,2024-04-19_18h37.14.665,stockport_simplified,2022.2.4,Win32,75.18796992,661e456ee6de07e70aa9ef7b,66229da66d0e3a5d98290f45,,,,,,,,,,,,,,,,,,,,,,,,,,,,,,,,,,148.1167,151.1963,"[3,5,8,2,6,7,4,1]","[[-0.3,0.2],[0.3,0.2]]","[[-0.125,-0.2],[0.125,-0.2]]",-0.051851852,-0.192592593,1,0,0,2.5728,o1_image,151.2034,1,151.7031,151.7031,153.7032,0,0,0,0,1,,,,,,,,,,,,,,,,,,,,,,,,,,,,,,,,,,,,,,,,,,,,,,,,,,
,,5ecd2230b3956a034ebcc660,24,male,2024-04-19_18h37.14.665,stockport_simplified,2022.2.4,Win32,75.18796992,661e456ee6de07e70aa9ef7b,66229da66d0e3a5d98290f45,,,,,,,,,,,,,,,,,,,,,,,,,,,,,,,,,,,,,,,,,,,,,,,,,,,,,,,,0,17,17,22,1,N,M,C,o1_image,stimuli/out1.png,stimuli/correct_out1.png,stimuli/out2.png,,,,,,,,,,,,,,,,,,,,,,,,,,,,,,,,,,,,,,
,,5ecd2230b3956a034ebcc660,24,male,2024-04-19_18h37.14.665,stockport_simplified,2022.2.4,Win32,75.18796992,661e456ee6de07e70aa9ef7b,66229da66d0e3a5d98290f45,,,,,,,,,,,,,,,,,,,,,,,,,,,,,,,,,,153.7039,156.2897,"[3,5,8,2,6,7,4,1]","[[0.3,0.2],[-0.3,0.2]]","[[-0.125,-0.2],[0.125,-0.2]]",0.058333333,-0.219444444,1,0,0,2.0797,o2_image,156.29,1,156.7831,156.7831,158.7832,0,0,0,0,1,,,,,,,,,,,,,,,,,,,,,,,,,,,,,,,,,,,,,,,,,,,,,,,,,,
,,5ecd2230b3956a034ebcc660,24,male,2024-04-19_18h37.14.665,stockport_simplified,2022.2.4,Win32,75.18796992,661e456ee6de07e70aa9ef7b,66229da66d0e3a5d98290f45,,,,,,,,,,,,,,,,,,,,,,,,,,,,,,,,,,,,,,,,,,,,,,,,,,,,,,,,0,18,18,42,1,B,X,N,o2_image,stimuli/out2.png,stimuli/out1.png,stimuli/correct_out2.png,,,,,,,,,,,,,,,,,,,,,,,,,,,,,,,,,,,,,,
,,5ecd2230b3956a034ebcc660,24,male,2024-04-19_18h37.14.665,stockport_simplified,2022.2.4,Win32,75.18796992,661e456ee6de07e70aa9ef7b,66229da66d0e3a5d98290f45,,,,,,,,,,,,,,,,,,,,,,,,,,,,,,,,,,158.7834,162.1565,"[3,5,8,2,6,7,4,1]","[[0.3,0.2],[-0.3,0.2]]","[[0.125,-0.2],[-0.125,-0.2]]",0.100925926,-0.201851852,1,0,0,2.8666,o1_image,162.1575,1,162.6507,162.6507,164.6498,0,0,0,0,1,,,,,,,,,,,,,,,,,,,,,,,,,,,,,,,,,,,,,,,,,,,,,,,,,,
,,5ecd2230b3956a034ebcc660,24,male,2024-04-19_18h37.14.665,stockport_simplified,2022.2.4,Win32,75.18796992,661e456ee6de07e70aa9ef7b,66229da66d0e3a5d98290f45,,,,,,,,,,,,,,,,,,,,,,,,,,,,,,,,,,,,,,,,,,,,,,,,,,,,,,,,0,19,19,35,1,A,Y,N,o1_image,stimuli/out1.png,stimuli/correct_out1.png,stimuli/out2.png,,,,,,,,,,,,,,,,,,,,,,,,,,,,,,,,,,,,,,
,,5ecd2230b3956a034ebcc660,24,male,2024-04-19_18h37.14.665,stockport_simplified,2022.2.4,Win32,75.18796992,661e456ee6de07e70aa9ef7b,66229da66d0e3a5d98290f45,,,,,,,,,,,,,,,,,,,,,,,,,,,,,,,,,,164.6499,167.0496,"[3,5,8,2,6,7,4,1]","[[-0.3,0.2],[0.3,0.2]]","[[-0.125,-0.2],[0.125,-0.2]]",0.097222222,-0.194444444,1,0,0,1.8931,o2_image,167.05,1,167.5431,167.5431,169.543,0,0,0,0,1,,,,,,,,,,,,,,,,,,,,,,,,,,,,,,,,,,,,,,,,,,,,,,,,,,
,,5ecd2230b3956a034ebcc660,24,male,2024-04-19_18h37.14.665,stockport_simplified,2022.2.4,Win32,75.18796992,661e456ee6de07e70aa9ef7b,66229da66d0e3a5d98290f45,,,,,,,,,,,,,,,,,,,,,,,,,,,,,,,,,,,,,,,,,,,,,,,,,,,,,,,,0,20,20,16,1,B,Y,N,o2_image,stimuli/out2.png,stimuli/out1.png,stimuli/correct_out2.png,,,,,,,,,,,,,,,,,,,,,,,,,,,,,,,,,,,,,,
,,5ecd2230b3956a034ebcc660,24,male,2024-04-19_18h37.14.665,stockport_simplified,2022.2.4,Win32,75.18796992,661e456ee6de07e70aa9ef7b,66229da66d0e3a5d98290f45,,,,,,,,,,,,,,,,,,,,,,,,,,,,,,,,,,169.5432,173.7965,"[3,5,8,2,6,7,4,1]","[[-0.3,0.2],[0.3,0.2]]","[[-0.125,-0.2],[0.125,-0.2]]",0.17037037,-0.197222222,1,0,0,3.7464,o2_image,173.8043,0,174.3032,174.3032,176.3031,0,0,0,0,1,,,,,,,,,,,,,,,,,,,,,,,,,,,,,,,,,,,,,,,,,,,,,,,,,,
,,5ecd2230b3956a034ebcc660,24,male,2024-04-19_18h37.14.665,stockport_simplified,2022.2.4,Win32,75.18796992,661e456ee6de07e70aa9ef7b,66229da66d0e3a5d98290f45,,,,,,,,,,,,,,,,,,,,,,,,,,,,,,,,,,,,,,,,,,,,,,,,,,,,,,,,0,21,21,0,1,A,X,N,o1_image,stimuli/out1.png,stimuli/correct_out1.png,stimuli/out2.png,,,,,,,,,,,,,,,,,,,,,,,,,,,,,,,,,,,,,,
,,5ecd2230b3956a034ebcc660,24,male,2024-04-19_18h37.14.665,stockport_simplified,2022.2.4,Win32,75.18796992,661e456ee6de07e70aa9ef7b,66229da66d0e3a5d98290f45,,,,,,,,,,,,,,,,,,,,,,,,,,,,,,,,,,176.3038,179.8764,"[3,5,8,2,6,7,4,1]","[[-0.3,0.2],[0.3,0.2]]","[[0.125,-0.2],[-0.125,-0.2]]",-0.09537037,-0.219444444,1,0,0,3.0662,o2_image,179.884,1,180.3832,180.3833,182.3831,0,0,0,0,1,,,,,,,,,,,,,,,,,,,,,,,,,,,,,,,,,,,,,,,,,,,,,,,,,,
,,5ecd2230b3956a034ebcc660,24,male,2024-04-19_18h37.14.665,stockport_simplified,2022.2.4,Win32,75.18796992,661e456ee6de07e70aa9ef7b,66229da66d0e3a5d98290f45,,,,,,,,,,,,,,,,,,,,,,,,,,,,,,,,,,,,,,,,,,,,,,,,,,,,,,,,0,22,22,43,1,B,X,N,o2_image,stimuli/out2.png,stimuli/out1.png,stimuli/correct_out2.png,,,,,,,,,,,,,,,,,,,,,,,,,,,,,,,,,,,,,,
,,5ecd2230b3956a034ebcc660,24,male,2024-04-19_18h37.14.665,stockport_simplified,2022.2.4,Win32,75.18796992,661e456ee6de07e70aa9ef7b,66229da66d0e3a5d98290f45,,,,,,,,,,,,,,,,,,,,,,,,,,,,,,,,,,182.3837,184.8097,"[3,5,8,2,6,7,4,1]","[[-0.3,0.2],[0.3,0.2]]","[[-0.125,-0.2],[0.125,-0.2]]",0.125,-0.182407407,1,0,0,1.9196,o2_image,184.8105,0,185.3097,185.3097,187.3096,0,0,0,0,1,,,,,,,,,,,,,,,,,,,,,,,,,,,,,,,,,,,,,,,,,,,,,,,,,,
,,5ecd2230b3956a034ebcc660,24,male,2024-04-19_18h37.14.665,stockport_simplified,2022.2.4,Win32,75.18796992,661e456ee6de07e70aa9ef7b,66229da66d0e3a5d98290f45,,,,,,,,,,,,,,,,,,,,,,,,,,,,,,,,,,,,,,,,,,,,,,,,,,,,,,,,0,23,23,6,1,A,Y,N,o1_image,stimuli/out1.png,stimuli/correct_out1.png,stimuli/out2.png,,,,,,,,,,,,,,,,,,,,,,,,,,,,,,,,,,,,,,
,,5ecd2230b3956a034ebcc660,24,male,2024-04-19_18h37.14.665,stockport_simplified,2022.2.4,Win32,75.18796992,661e456ee6de07e70aa9ef7b,66229da66d0e3a5d98290f45,,,,,,,,,,,,,,,,,,,,,,,,,,,,,,,,,,187.3099,191.1564,"[3,5,8,2,6,7,4,1]","[[0.3,0.2],[-0.3,0.2]]","[[0.125,-0.2],[-0.125,-0.2]]",-0.137037037,-0.205555556,1,0,0,3.3327,o2_image,191.164,1,191.6631,191.6632,193.6632,0,0,0,0,1,,,,,,,,,,,,,,,,,,,,,,,,,,,,,,,,,,,,,,,,,,,,,,,,,,
,,5ecd2230b3956a034ebcc660,24,male,2024-04-19_18h37.14.665,stockport_simplified,2022.2.4,Win32,75.18796992,661e456ee6de07e70aa9ef7b,66229da66d0e3a5d98290f45,,,,,,,,,,,,,,,,,,,,,,,,,,,,,,,,,,,,,,,,,,,,,,,,,,,,,,,,0,24,24,11,1,B,X,N,o2_image,stimuli/out2.png,stimuli/out1.png,stimuli/correct_out2.png,,,,,,,,,,,,,,,,,,,,,,,,,,,,,,,,,,,,,,
,,5ecd2230b3956a034ebcc660,24,male,2024-04-19_18h37.14.665,stockport_simplified,2022.2.4,Win32,75.18796992,661e456ee6de07e70aa9ef7b,66229da66d0e3a5d98290f45,,,,,,,,,,,,,,,,,,,,,,,,,,,,,,,,,,193.6639,198.1296,"[3,5,8,2,6,7,4,1]","[[-0.3,0.2],[0.3,0.2]]","[[-0.125,-0.2],[0.125,-0.2]]",-0.072222222,-0.176851852,1,0,0,3.9538,o1_image,198.1367,1,198.6365,198.6365,200.6366,0,0,0,0,1,,,,,,,,,,,,,,,,,,,,,,,,,,,,,,,,,,,,,,,,,,,,,,,,,,
,,5ecd2230b3956a034ebcc660,24,male,2024-04-19_18h37.14.665,stockport_simplified,2022.2.4,Win32,75.18796992,661e456ee6de07e70aa9ef7b,66229da66d0e3a5d98290f45,,,,,,,,,,,,,,,,,,,,,,,,,,,,,,,,,,,,,,,,,,,,,,,,,,,,,,,,0,25,25,53,1,N,M,C,o1_image,stimuli/out1.png,stimuli/correct_out1.png,stimuli/out2.png,,,,,,,,,,,,,,,,,,,,,,,,,,,,,,,,,,,,,,
,,5ecd2230b3956a034ebcc660,24,male,2024-04-19_18h37.14.665,stockport_simplified,2022.2.4,Win32,75.18796992,661e456ee6de07e70aa9ef7b,66229da66d0e3a5d98290f45,,,,,,,,,,,,,,,,,,,,,,,,,,,,,,,,,,200.6368,203.663,"[3,5,8,2,6,7,4,1]","[[0.3,0.2],[-0.3,0.2]]","[[-0.125,-0.2],[0.125,-0.2]]",-0.216666667,-0.175925926,1,0,0,2.1598,o1_image,203.6633,0,204.1564,204.1565,206.1565,0,0,0,0,1,,,,,,,,,,,,,,,,,,,,,,,,,,,,,,,,,,,,,,,,,,,,,,,,,,
,,5ecd2230b3956a034ebcc660,24,male,2024-04-19_18h37.14.665,stockport_simplified,2022.2.4,Win32,75.18796992,661e456ee6de07e70aa9ef7b,66229da66d0e3a5d98290f45,,,,,,,,,,,,,,,,,,,,,,,,,,,,,,,,,,,,,,,,,,,,,,,,,,,,,,,,0,26,26,29,1,N,M,D,o2_image,stimuli/out2.png,stimuli/out1.png,stimuli/correct_out2.png,,,,,,,,,,,,,,,,,,,,,,,,,,,,,,,,,,,,,,
,,5ecd2230b3956a034ebcc660,24,male,2024-04-19_18h37.14.665,stockport_simplified,2022.2.4,Win32,75.18796992,661e456ee6de07e70aa9ef7b,66229da66d0e3a5d98290f45,,,,,,,,,,,,,,,,,,,,,,,,,,,,,,,,,,206.1576,209.103,"[3,5,8,2,6,7,4,1]","[[0.3,0.2],[-0.3,0.2]]","[[0.125,-0.2],[-0.125,-0.2]]",-0.125,-0.192592593,1,0,0,2.4394,o2_image,209.1106,0,209.6097,209.6097,211.6097,0,0,0,0,1,,,,,,,,,,,,,,,,,,,,,,,,,,,,,,,,,,,,,,,,,,,,,,,,,,
,,5ecd2230b3956a034ebcc660,24,male,2024-04-19_18h37.14.665,stockport_simplified,2022.2.4,Win32,75.18796992,661e456ee6de07e70aa9ef7b,66229da66d0e3a5d98290f45,,,,,,,,,,,,,,,,,,,,,,,,,,,,,,,,,,,,,,,,,,,,,,,,,,,,,,,,0,27,27,37,1,A,Y,N,o1_image,stimuli/out1.png,stimuli/correct_out1.png,stimuli/out2.png,,,,,,,,,,,,,,,,,,,,,,,,,,,,,,,,,,,,,,
,,5ecd2230b3956a034ebcc660,24,male,2024-04-19_18h37.14.665,stockport_simplified,2022.2.4,Win32,75.18796992,661e456ee6de07e70aa9ef7b,66229da66d0e3a5d98290f45,,,,,,,,,,,,,,,,,,,,,,,,,,,,,,,,,,211.6102,213.9163,"[3,5,8,2,6,7,4,1]","[[-0.3,0.2],[0.3,0.2]]","[[0.125,-0.2],[-0.125,-0.2]]",-0.137962963,-0.219444444,1,0,0,1.794,o2_image,213.9167,1,214.4104,214.4105,216.4097,0,0,0,0,1,,,,,,,,,,,,,,,,,,,,,,,,,,,,,,,,,,,,,,,,,,,,,,,,,,
,,5ecd2230b3956a034ebcc660,24,male,2024-04-19_18h37.14.665,stockport_simplified,2022.2.4,Win32,75.18796992,661e456ee6de07e70aa9ef7b,66229da66d0e3a5d98290f45,,,,,,,,,,,,,,,,,,,,,,,,,,,,,,,,,,,,,,,,,,,,,,,,,,,,,,,,0,28,28,41,1,B,X,N,o2_image,stimuli/out2.png,stimuli/out1.png,stimuli/correct_out2.png,,,,,,,,,,,,,,,,,,,,,,,,,,,,,,,,,,,,,,
,,5ecd2230b3956a034ebcc660,24,male,2024-04-19_18h37.14.665,stockport_simplified,2022.2.4,Win32,75.18796992,661e456ee6de07e70aa9ef7b,66229da66d0e3a5d98290f45,,,,,,,,,,,,,,,,,,,,,,,,,,,,,,,,,,216.4099,218.2495,"[3,5,8,2,6,7,4,1]","[[-0.3,0.2],[0.3,0.2]]","[[0.125,-0.2],[-0.125,-0.2]]",-0.093518519,-0.177777778,1,0,0,1.3331,o2_image,218.25,1,218.7431,218.7431,220.7429,0,0,0,0,1,,,,,,,,,,,,,,,,,,,,,,,,,,,,,,,,,,,,,,,,,,,,,,,,,,
,,5ecd2230b3956a034ebcc660,24,male,2024-04-19_18h37.14.665,stockport_simplified,2022.2.4,Win32,75.18796992,661e456ee6de07e70aa9ef7b,66229da66d0e3a5d98290f45,,,,,,,,,,,,,,,,,,,,,,,,,,,,,,,,,,,,,,,,,,,,,,,,,,,,,,,,0,29,29,45,1,B,Y,N,o2_image,stimuli/out2.png,stimuli/out1.png,stimuli/correct_out2.png,,,,,,,,,,,,,,,,,,,,,,,,,,,,,,,,,,,,,,
,,5ecd2230b3956a034ebcc660,24,male,2024-04-19_18h37.14.665,stockport_simplified,2022.2.4,Win32,75.18796992,661e456ee6de07e70aa9ef7b,66229da66d0e3a5d98290f45,,,,,,,,,,,,,,,,,,,,,,,,,,,,,,,,,,220.7432,222.6629,"[3,5,8,2,6,7,4,1]","[[-0.3,0.2],[0.3,0.2]]","[[0.125,-0.2],[-0.125,-0.2]]",0.103703704,-0.193518519,1,0,0,1.4128,o1_image,222.6633,0,223.1564,223.1565,225.1563,0,0,0,0,1,,,,,,,,,,,,,,,,,,,,,,,,,,,,,,,,,,,,,,,,,,,,,,,,,,
,,5ecd2230b3956a034ebcc660,24,male,2024-04-19_18h37.14.665,stockport_simplified,2022.2.4,Win32,75.18796992,661e456ee6de07e70aa9ef7b,66229da66d0e3a5d98290f45,,,,,,,,,,,,,,,,,,,,,,,,,,,,,,,,,,,,,,,,,,,,,,,,,,,,,,,,0,30,30,58,1,N,M,D,o2_image,stimuli/out2.png,stimuli/out1.png,stimuli/correct_out2.png,,,,,,,,,,,,,,,,,,,,,,,,,,,,,,,,,,,,,,
,,5ecd2230b3956a034ebcc660,24,male,2024-04-19_18h37.14.665,stockport_simplified,2022.2.4,Win32,75.18796992,661e456ee6de07e70aa9ef7b,66229da66d0e3a5d98290f45,,,,,,,,,,,,,,,,,,,,,,,,,,,,,,,,,,225.1565,228.0363,"[3,5,8,2,6,7,4,1]","[[0.3,0.2],[-0.3,0.2]]","[[-0.125,-0.2],[0.125,-0.2]]",-0.12962963,-0.207407407,1,0,0,2.373,o1_image,228.0366,1,228.5296,228.5296,230.5297,0,0,0,0,1,,,,,,,,,,,,,,,,,,,,,,,,,,,,,,,,,,,,,,,,,,,,,,,,,,
,,5ecd2230b3956a034ebcc660,24,male,2024-04-19_18h37.14.665,stockport_simplified,2022.2.4,Win32,75.18796992,661e456ee6de07e70aa9ef7b,66229da66d0e3a5d98290f45,,,,,,,,,,,,,,,,,,,,,,,,,,,,,,,,,,,,,,,,,,,,,,,,,,,,,,,,0,31,31,31,1,A,X,N,o1_image,stimuli/out1.png,stimuli/correct_out1.png,stimuli/out2.png,,,,,,,,,,,,,,,,,,,,,,,,,,,,,,,,,,,,,,
,,5ecd2230b3956a034ebcc660,24,male,2024-04-19_18h37.14.665,stockport_simplified,2022.2.4,Win32,75.18796992,661e456ee6de07e70aa9ef7b,66229da66d0e3a5d98290f45,,,,,,,,,,,,,,,,,,,,,,,,,,,,,,,,,,230.5302,232.823,"[3,5,8,2,6,7,4,1]","[[0.3,0.2],[-0.3,0.2]]","[[0.125,-0.2],[-0.125,-0.2]]",-0.084259259,-0.208333333,1,0,0,1.7866,o2_image,232.824,1,233.3163,233.3163,235.3163,0,0,0,0,1,,,,,,,,,,,,,,,,,,,,,,,,,,,,,,,,,,,,,,,,,,,,,,,,,,
,,5ecd2230b3956a034ebcc660,24,male,2024-04-19_18h37.14.665,stockport_simplified,2022.2.4,Win32,75.18796992,661e456ee6de07e70aa9ef7b,66229da66d0e3a5d98290f45,,,,,,,,,,,,,,,,,,,,,,,,,,,,,,,,,,,,,,,,,,,,,,,,,,,,,,,,0,32,32,14,1,B,X,N,o2_image,stimuli/out2.png,stimuli/out1.png,stimuli/correct_out2.png,,,,,,,,,,,,,,,,,,,,,,,,,,,,,,,,,,,,,,
,,5ecd2230b3956a034ebcc660,24,male,2024-04-19_18h37.14.665,stockport_simplified,2022.2.4,Win32,75.18796992,661e456ee6de07e70aa9ef7b,66229da66d0e3a5d98290f45,,,,,,,,,,,,,,,,,,,,,,,,,,,,,,,,,,235.3166,237.3963,"[3,5,8,2,6,7,4,1]","[[0.3,0.2],[-0.3,0.2]]","[[0.125,-0.2],[-0.125,-0.2]]",-0.094444444,-0.175,1,0,0,1.5729,o2_image,237.3966,0,237.8896,237.8896,239.8896,0,0,0,0,1,,,,,,,,,,,,,,,,,,,,,,,,,,,,,,,,,,,,,,,,,,,,,,,,,,
,,5ecd2230b3956a034ebcc660,24,male,2024-04-19_18h37.14.665,stockport_simplified,2022.2.4,Win32,75.18796992,661e456ee6de07e70aa9ef7b,66229da66d0e3a5d98290f45,,,,,,,,,,,,,,,,,,,,,,,,,,,,,,,,,,,,,,,,,,,,,,,,,,,,,,,,0,33,33,21,1,N,M,C,o1_image,stimuli/out1.png,stimuli/correct_out1.png,stimuli/out2.png,,,,,,,,,,,,,,,,,,,,,,,,,,,,,,,,,,,,,,
,,5ecd2230b3956a034ebcc660,24,male,2024-04-19_18h37.14.665,stockport_simplified,2022.2.4,Win32,75.18796992,661e456ee6de07e70aa9ef7b,66229da66d0e3a5d98290f45,,,,,,,,,,,,,,,,,,,,,,,,,,,,,,,,,,239.8898,241.903,"[3,5,8,2,6,7,4,1]","[[0.3,0.2],[-0.3,0.2]]","[[-0.125,-0.2],[0.125,-0.2]]",-0.118518519,-0.20462963,1,0,0,1.5063,o1_image,241.9033,0,242.3964,242.3964,244.3962,0,0,0,0,1,,,,,,,,,,,,,,,,,,,,,,,,,,,,,,,,,,,,,,,,,,,,,,,,,,
,,5ecd2230b3956a034ebcc660,24,male,2024-04-19_18h37.14.665,stockport_simplified,2022.2.4,Win32,75.18796992,661e456ee6de07e70aa9ef7b,66229da66d0e3a5d98290f45,,,,,,,,,,,,,,,,,,,,,,,,,,,,,,,,,,,,,,,,,,,,,,,,,,,,,,,,0,34,34,15,1,B,Y,N,o2_image,stimuli/out2.png,stimuli/out1.png,stimuli/correct_out2.png,,,,,,,,,,,,,,,,,,,,,,,,,,,,,,,,,,,,,,
,,5ecd2230b3956a034ebcc660,24,male,2024-04-19_18h37.14.665,stockport_simplified,2022.2.4,Win32,75.18796992,661e456ee6de07e70aa9ef7b,66229da66d0e3a5d98290f45,,,,,,,,,,,,,,,,,,,,,,,,,,,,,,,,,,244.3964,246.7429,"[3,5,8,2,6,7,4,1]","[[0.3,0.2],[-0.3,0.2]]","[[-0.125,-0.2],[0.125,-0.2]]",0.17037037,-0.19537037,1,0,0,1.8397,o2_image,246.7506,0,247.2498,247.2498,249.2496,0,0,0,0,1,,,,,,,,,,,,,,,,,,,,,,,,,,,,,,,,,,,,,,,,,,,,,,,,,,
,,5ecd2230b3956a034ebcc660,24,male,2024-04-19_18h37.14.665,stockport_simplified,2022.2.4,Win32,75.18796992,661e456ee6de07e70aa9ef7b,66229da66d0e3a5d98290f45,,,,,,,,,,,,,,,,,,,,,,,,,,,,,,,,,,,,,,,,,,,,,,,,,,,,,,,,0,35,35,33,1,A,X,N,o1_image,stimuli/out1.png,stimuli/correct_out1.png,stimuli/out2.png,,,,,,,,,,,,,,,,,,,,,,,,,,,,,,,,,,,,,,
,,5ecd2230b3956a034ebcc660,24,male,2024-04-19_18h37.14.665,stockport_simplified,2022.2.4,Win32,75.18796992,661e456ee6de07e70aa9ef7b,66229da66d0e3a5d98290f45,,,,,,,,,,,,,,,,,,,,,,,,,,,,,,,,,,249.2502,252.0229,"[3,5,8,2,6,7,4,1]","[[0.3,0.2],[-0.3,0.2]]","[[-0.125,-0.2],[0.125,-0.2]]",-0.097222222,-0.205555556,1,0,0,2.2662,o1_image,252.0232,1,252.5164,252.5164,254.5163,0,0,0,0,1,,,,,,,,,,,,,,,,,,,,,,,,,,,,,,,,,,,,,,,,,,,,,,,,,,
,,5ecd2230b3956a034ebcc660,24,male,2024-04-19_18h37.14.665,stockport_simplified,2022.2.4,Win32,75.18796992,661e456ee6de07e70aa9ef7b,66229da66d0e3a5d98290f45,,,,,,,,,,,,,,,,,,,,,,,,,,,,,,,,,,,,,,,,,,,,,,,,,,,,,,,,0,36,36,54,1,N,M,C,o1_image,stimuli/out1.png,stimuli/correct_out1.png,stimuli/out2.png,,,,,,,,,,,,,,,,,,,,,,,,,,,,,,,,,,,,,,
,,5ecd2230b3956a034ebcc660,24,male,2024-04-19_18h37.14.665,stockport_simplified,2022.2.4,Win32,75.18796992,661e456ee6de07e70aa9ef7b,66229da66d0e3a5d98290f45,,,,,,,,,,,,,,,,,,,,,,,,,,,,,,,,,,254.5166,256.3296,"[3,5,8,2,6,7,4,1]","[[-0.3,0.2],[0.3,0.2]]","[[0.125,-0.2],[-0.125,-0.2]]",0.113888889,-0.215740741,1,0,0,1.3063,o1_image,256.3299,0,256.823,256.823,258.8229,0,0,0,0,1,,,,,,,,,,,,,,,,,,,,,,,,,,,,,,,,,,,,,,,,,,,,,,,,,,
,,5ecd2230b3956a034ebcc660,24,male,2024-04-19_18h37.14.665,stockport_simplified,2022.2.4,Win32,75.18796992,661e456ee6de07e70aa9ef7b,66229da66d0e3a5d98290f45,,,,,,,,,,,,,,,,,,,,,,,,,,,,,,,,,,,,,,,,,,,,,,,,,,,,,,,,0,37,37,49,1,B,Y,N,o2_image,stimuli/out2.png,stimuli/out1.png,stimuli/correct_out2.png,,,,,,,,,,,,,,,,,,,,,,,,,,,,,,,,,,,,,,
,,5ecd2230b3956a034ebcc660,24,male,2024-04-19_18h37.14.665,stockport_simplified,2022.2.4,Win32,75.18796992,661e456ee6de07e70aa9ef7b,66229da66d0e3a5d98290f45,,,,,,,,,,,,,,,,,,,,,,,,,,,,,,,,,,258.8231,262.3962,"[3,5,8,2,6,7,4,1]","[[-0.3,0.2],[0.3,0.2]]","[[0.125,-0.2],[-0.125,-0.2]]",0.097222222,-0.202777778,1,0,0,3.0664,o1_image,262.3965,1,262.8897,262.8898,264.8962,0,0,0,0,1,,,,,,,,,,,,,,,,,,,,,,,,,,,,,,,,,,,,,,,,,,,,,,,,,,
,,5ecd2230b3956a034ebcc660,24,male,2024-04-19_18h37.14.665,stockport_simplified,2022.2.4,Win32,75.18796992,661e456ee6de07e70aa9ef7b,66229da66d0e3a5d98290f45,,,,,,,,,,,,,,,,,,,,,,,,,,,,,,,,,,,,,,,,,,,,,,,,,,,,,,,,0,38,38,9,1,A,Y,N,o1_image,stimuli/out1.png,stimuli/correct_out1.png,stimuli/out2.png,,,,,,,,,,,,,,,,,,,,,,,,,,,,,,,,,,,,,,
,,5ecd2230b3956a034ebcc660,24,male,2024-04-19_18h37.14.665,stockport_simplified,2022.2.4,Win32,75.18796992,661e456ee6de07e70aa9ef7b,66229da66d0e3a5d98290f45,,,,,,,,,,,,,,,,,,,,,,,,,,,,,,,,,,264.8965,270.1829,"[3,5,8,2,6,7,4,1]","[[0.3,0.2],[-0.3,0.2]]","[[-0.125,-0.2],[0.125,-0.2]]",0.124074074,-0.188888889,1,0,0,4.7727,o2_image,270.1906,0,270.6897,270.6897,272.6896,0,0,0,0,1,,,,,,,,,,,,,,,,,,,,,,,,,,,,,,,,,,,,,,,,,,,,,,,,,,
,,5ecd2230b3956a034ebcc660,24,male,2024-04-19_18h37.14.665,stockport_simplified,2022.2.4,Win32,75.18796992,661e456ee6de07e70aa9ef7b,66229da66d0e3a5d98290f45,,,,,,,,,,,,,,,,,,,,,,,,,,,,,,,,,,,,,,,,,,,,,,,,,,,,,,,,0,39,39,38,1,A,Y,N,o1_image,stimuli/out1.png,stimuli/correct_out1.png,stimuli/out2.png,,,,,,,,,,,,,,,,,,,,,,,,,,,,,,,,,,,,,,
,,5ecd2230b3956a034ebcc660,24,male,2024-04-19_18h37.14.665,stockport_simplified,2022.2.4,Win32,75.18796992,661e456ee6de07e70aa9ef7b,66229da66d0e3a5d98290f45,,,,,,,,,,,,,,,,,,,,,,,,,,,,,,,,,,272.6902,275.9561,"[3,5,8,2,6,7,4,1]","[[-0.3,0.2],[0.3,0.2]]","[[0.125,-0.2],[-0.125,-0.2]]",0.111111111,-0.213888889,1,0,0,2.7592,o1_image,275.9566,1,276.4496,276.4496,278.4497,0,0,0,0,1,,,,,,,,,,,,,,,,,,,,,,,,,,,,,,,,,,,,,,,,,,,,,,,,,,
,,5ecd2230b3956a034ebcc660,24,male,2024-04-19_18h37.14.665,stockport_simplified,2022.2.4,Win32,75.18796992,661e456ee6de07e70aa9ef7b,66229da66d0e3a5d98290f45,,,,,,,,,,,,,,,,,,,,,,,,,,,,,,,,,,,,,,,,,,,,,,,,,,,,,,,,0,40,40,20,1,N,M,C,o1_image,stimuli/out1.png,stimuli/correct_out1.png,stimuli/out2.png,,,,,,,,,,,,,,,,,,,,,,,,,,,,,,,,,,,,,,
,,5ecd2230b3956a034ebcc660,24,male,2024-04-19_18h37.14.665,stockport_simplified,2022.2.4,Win32,75.18796992,661e456ee6de07e70aa9ef7b,66229da66d0e3a5d98290f45,,,,,,,,,,,,,,,,,,,,,,,,,,,,,,,,,,278.45,280.7829,"[3,5,8,2,6,7,4,1]","[[-0.3,0.2],[0.3,0.2]]","[[0.125,-0.2],[-0.125,-0.2]]",-0.09537037,-0.203703704,1,0,0,1.8261,o2_image,280.7901,1,281.2896,281.2896,283.2897,0,0,0,0,1,,,,,,,,,,,,,,,,,,,,,,,,,,,,,,,,,,,,,,,,,,,,,,,,,,
,,5ecd2230b3956a034ebcc660,24,male,2024-04-19_18h37.14.665,stockport_simplified,2022.2.4,Win32,75.18796992,661e456ee6de07e70aa9ef7b,66229da66d0e3a5d98290f45,,,,,,,,,,,,,,,,,,,,,,,,,,,,,,,,,,,,,,,,,,,,,,,,,,,,,,,,0,41,41,40,1,B,X,N,o2_image,stimuli/out2.png,stimuli/out1.png,stimuli/correct_out2.png,,,,,,,,,,,,,,,,,,,,,,,,,,,,,,,,,,,,,,
,,5ecd2230b3956a034ebcc660,24,male,2024-04-19_18h37.14.665,stockport_simplified,2022.2.4,Win32,75.18796992,661e456ee6de07e70aa9ef7b,66229da66d0e3a5d98290f45,,,,,,,,,,,,,,,,,,,,,,,,,,,,,,,,,,283.2905,285.4628,"[3,5,8,2,6,7,4,1]","[[0.3,0.2],[-0.3,0.2]]","[[0.125,-0.2],[-0.125,-0.2]]",0.12962963,-0.208333333,1,0,0,1.6658,o1_image,285.4633,1,285.9562,285.9563,287.9563,0,0,0,0,1,,,,,,,,,,,,,,,,,,,,,,,,,,,,,,,,,,,,,,,,,,,,,,,,,,
,,5ecd2230b3956a034ebcc660,24,male,2024-04-19_18h37.14.665,stockport_simplified,2022.2.4,Win32,75.18796992,661e456ee6de07e70aa9ef7b,66229da66d0e3a5d98290f45,,,,,,,,,,,,,,,,,,,,,,,,,,,,,,,,,,,,,,,,,,,,,,,,,,,,,,,,0,42,42,50,1,N,M,C,o1_image,stimuli/out1.png,stimuli/correct_out1.png,stimuli/out2.png,,,,,,,,,,,,,,,,,,,,,,,,,,,,,,,,,,,,,,
,,5ecd2230b3956a034ebcc660,24,male,2024-04-19_18h37.14.665,stockport_simplified,2022.2.4,Win32,75.18796992,661e456ee6de07e70aa9ef7b,66229da66d0e3a5d98290f45,,,,,,,,,,,,,,,,,,,,,,,,,,,,,,,,,,287.9565,290.183,"[3,5,8,2,6,7,4,1]","[[0.3,0.2],[-0.3,0.2]]","[[0.125,-0.2],[-0.125,-0.2]]",0.110185185,-0.22962963,1,0,0,1.7198,o1_image,290.1835,1,290.6761,290.6761,292.6762,0,0,0,0,1,,,,,,,,,,,,,,,,,,,,,,,,,,,,,,,,,,,,,,,,,,,,,,,,,,
,,5ecd2230b3956a034ebcc660,24,male,2024-04-19_18h37.14.665,stockport_simplified,2022.2.4,Win32,75.18796992,661e456ee6de07e70aa9ef7b,66229da66d0e3a5d98290f45,,,,,,,,,,,,,,,,,,,,,,,,,,,,,,,,,,,,,,,,,,,,,,,,,,,,,,,,0,43,43,36,1,A,Y,N,o1_image,stimuli/out1.png,stimuli/correct_out1.png,stimuli/out2.png,,,,,,,,,,,,,,,,,,,,,,,,,,,,,,,,,,,,,,
,,5ecd2230b3956a034ebcc660,24,male,2024-04-19_18h37.14.665,stockport_simplified,2022.2.4,Win32,75.18796992,661e456ee6de07e70aa9ef7b,66229da66d0e3a5d98290f45,,,,,,,,,,,,,,,,,,,,,,,,,,,,,,,,,,292.6764,294.7029,"[3,5,8,2,6,7,4,1]","[[-0.3,0.2],[0.3,0.2]]","[[-0.125,-0.2],[0.125,-0.2]]",-0.14537037,-0.209259259,1,0,0,1.5196,o1_image,294.7032,1,295.1962,295.1963,297.1962,0,0,0,0,1,,,,,,,,,,,,,,,,,,,,,,,,,,,,,,,,,,,,,,,,,,,,,,,,,,
,,5ecd2230b3956a034ebcc660,24,male,2024-04-19_18h37.14.665,stockport_simplified,2022.2.4,Win32,75.18796992,661e456ee6de07e70aa9ef7b,66229da66d0e3a5d98290f45,,,,,,,,,,,,,,,,,,,,,,,,,,,,,,,,,,,,,,,,,,,,,,,,,,,,,,,,0,44,44,3,1,A,X,N,o1_image,stimuli/out1.png,stimuli/correct_out1.png,stimuli/out2.png,,,,,,,,,,,,,,,,,,,,,,,,,,,,,,,,,,,,,,
,,5ecd2230b3956a034ebcc660,24,male,2024-04-19_18h37.14.665,stockport_simplified,2022.2.4,Win32,75.18796992,661e456ee6de07e70aa9ef7b,66229da66d0e3a5d98290f45,,,,,,,,,,,,,,,,,,,,,,,,,,,,,,,,,,297.1963,299.3161,"[3,5,8,2,6,7,4,1]","[[-0.3,0.2],[0.3,0.2]]","[[0.125,-0.2],[-0.125,-0.2]]",0.136111111,-0.215740741,1,0,0,1.6131,o1_image,299.3165,1,299.8097,299.8097,301.8096,0,0,0,0,1,,,,,,,,,,,,,,,,,,,,,,,,,,,,,,,,,,,,,,,,,,,,,,,,,,
,,5ecd2230b3956a034ebcc660,24,male,2024-04-19_18h37.14.665,stockport_simplified,2022.2.4,Win32,75.18796992,661e456ee6de07e70aa9ef7b,66229da66d0e3a5d98290f45,,,,,,,,,,,,,,,,,,,,,,,,,,,,,,,,,,,,,,,,,,,,,,,,,,,,,,,,0,45,45,32,1,A,X,N,o1_image,stimuli/out1.png,stimuli/correct_out1.png,stimuli/out2.png,,,,,,,,,,,,,,,,,,,,,,,,,,,,,,,,,,,,,,
,,5ecd2230b3956a034ebcc660,24,male,2024-04-19_18h37.14.665,stockport_simplified,2022.2.4,Win32,75.18796992,661e456ee6de07e70aa9ef7b,66229da66d0e3a5d98290f45,,,,,,,,,,,,,,,,,,,,,,,,,,,,,,,,,,301.8098,305.2361,"[3,5,8,2,6,7,4,1]","[[0.3,0.2],[-0.3,0.2]]","[[0.125,-0.2],[-0.125,-0.2]]",-0.110185185,-0.211111111,1,0,0,2.9198,o2_image,305.2433,1,305.7429,305.7429,307.7362,0,0,0,0,1,,,,,,,,,,,,,,,,,,,,,,,,,,,,,,,,,,,,,,,,,,,,,,,,,,
,,5ecd2230b3956a034ebcc660,24,male,2024-04-19_18h37.14.665,stockport_simplified,2022.2.4,Win32,75.18796992,661e456ee6de07e70aa9ef7b,66229da66d0e3a5d98290f45,,,,,,,,,,,,,,,,,,,,,,,,,,,,,,,,,,,,,,,,,,,,,,,,,,,,,,,,0,46,46,12,1,B,X,N,o2_image,stimuli/out2.png,stimuli/out1.png,stimuli/correct_out2.png,,,,,,,,,,,,,,,,,,,,,,,,,,,,,,,,,,,,,,
,,5ecd2230b3956a034ebcc660,24,male,2024-04-19_18h37.14.665,stockport_simplified,2022.2.4,Win32,75.18796992,661e456ee6de07e70aa9ef7b,66229da66d0e3a5d98290f45,,,,,,,,,,,,,,,,,,,,,,,,,,,,,,,,,,307.7365,309.6362,"[3,5,8,2,6,7,4,1]","[[0.3,0.2],[-0.3,0.2]]","[[-0.125,-0.2],[0.125,-0.2]]",0.140740741,-0.226851852,1,0,0,1.3862,o2_image,309.6371,0,310.1295,310.1296,312.1295,0,0,0,0,1,,,,,,,,,,,,,,,,,,,,,,,,,,,,,,,,,,,,,,,,,,,,,,,,,,
,,5ecd2230b3956a034ebcc660,24,male,2024-04-19_18h37.14.665,stockport_simplified,2022.2.4,Win32,75.18796992,661e456ee6de07e70aa9ef7b,66229da66d0e3a5d98290f45,,,,,,,,,,,,,,,,,,,,,,,,,,,,,,,,,,,,,,,,,,,,,,,,,,,,,,,,0,47,47,30,1,A,X,N,o1_image,stimuli/out1.png,stimuli/correct_out1.png,stimuli/out2.png,,,,,,,,,,,,,,,,,,,,,,,,,,,,,,,,,,,,,,
,,5ecd2230b3956a034ebcc660,24,male,2024-04-19_18h37.14.665,stockport_simplified,2022.2.4,Win32,75.18796992,661e456ee6de07e70aa9ef7b,66229da66d0e3a5d98290f45,,,,,,,,,,,,,,,,,,,,,,,,,,,,,,,,,,312.1302,315.8895,"[3,5,8,2,6,7,4,1]","[[-0.3,0.2],[0.3,0.2]]","[[-0.125,-0.2],[0.125,-0.2]]",0.134259259,-0.247222222,1,0,0,3.2471,o2_image,315.8971,1,316.3897,316.3897,318.3829,0,0,0,0,1,,,,,,,,,,,,,,,,,,,,,,,,,,,,,,,,,,,,,,,,,,,,,,,,,,
,,5ecd2230b3956a034ebcc660,24,male,2024-04-19_18h37.14.665,stockport_simplified,2022.2.4,Win32,75.18796992,661e456ee6de07e70aa9ef7b,66229da66d0e3a5d98290f45,,,,,,,,,,,,,,,,,,,,,,,,,,,,,,,,,,,,,,,,,,,,,,,,,,,,,,,,0,48,48,26,1,N,M,D,o2_image,stimuli/out2.png,stimuli/out1.png,stimuli/correct_out2.png,,,,,,,,,,,,,,,,,,,,,,,,,,,,,,,,,,,,,,
,,5ecd2230b3956a034ebcc660,24,male,2024-04-19_18h37.14.665,stockport_simplified,2022.2.4,Win32,75.18796992,661e456ee6de07e70aa9ef7b,66229da66d0e3a5d98290f45,,,,,,,,,,,,,,,,,,,,,,,,,,,,,,,,,,318.3832,320.7961,"[3,5,8,2,6,7,4,1]","[[0.3,0.2],[-0.3,0.2]]","[[-0.125,-0.2],[0.125,-0.2]]",0.084259259,-0.215740741,1,0,0,1.9062,o2_image,320.8033,1,321.3101,321.3101,323.303,0,0,0,0,1,,,,,,,,,,,,,,,,,,,,,,,,,,,,,,,,,,,,,,,,,,,,,,,,,,
,,5ecd2230b3956a034ebcc660,24,male,2024-04-19_18h37.14.665,stockport_simplified,2022.2.4,Win32,75.18796992,661e456ee6de07e70aa9ef7b,66229da66d0e3a5d98290f45,,,,,,,,,,,,,,,,,,,,,,,,,,,,,,,,,,,,,,,,,,,,,,,,,,,,,,,,0,49,49,46,1,B,Y,N,o2_image,stimuli/out2.png,stimuli/out1.png,stimuli/correct_out2.png,,,,,,,,,,,,,,,,,,,,,,,,,,,,,,,,,,,,,,
,,5ecd2230b3956a034ebcc660,24,male,2024-04-19_18h37.14.665,stockport_simplified,2022.2.4,Win32,75.18796992,661e456ee6de07e70aa9ef7b,66229da66d0e3a5d98290f45,,,,,,,,,,,,,,,,,,,,,,,,,,,,,,,,,,323.3031,325.9961,"[3,5,8,2,6,7,4,1]","[[-0.3,0.2],[0.3,0.2]]","[[-0.125,-0.2],[0.125,-0.2]]",-0.173148148,-0.197222222,1,0,0,2.1863,o1_image,325.9965,1,326.4897,326.4898,328.4897,0,0,0,0,1,,,,,,,,,,,,,,,,,,,,,,,,,,,,,,,,,,,,,,,,,,,,,,,,,,
,,5ecd2230b3956a034ebcc660,24,male,2024-04-19_18h37.14.665,stockport_simplified,2022.2.4,Win32,75.18796992,661e456ee6de07e70aa9ef7b,66229da66d0e3a5d98290f45,,,,,,,,,,,,,,,,,,,,,,,,,,,,,,,,,,,,,,,,,,,,,,,,,,,,,,,,0,50,50,8,1,A,Y,N,o1_image,stimuli/out1.png,stimuli/correct_out1.png,stimuli/out2.png,,,,,,,,,,,,,,,,,,,,,,,,,,,,,,,,,,,,,,
,,5ecd2230b3956a034ebcc660,24,male,2024-04-19_18h37.14.665,stockport_simplified,2022.2.4,Win32,75.18796992,661e456ee6de07e70aa9ef7b,66229da66d0e3a5d98290f45,,,,,,,,,,,,,,,,,,,,,,,,,,,,,,,,,,328.4901,330.6361,"[3,5,8,2,6,7,4,1]","[[0.3,0.2],[-0.3,0.2]]","[[-0.125,-0.2],[0.125,-0.2]]",0.091666667,-0.213888889,1,0,0,1.6393,o2_image,330.6432,1,331.1367,331.1367,333.1302,0,0,0,0,1,,,,,,,,,,,,,,,,,,,,,,,,,,,,,,,,,,,,,,,,,,,,,,,,,,
,,5ecd2230b3956a034ebcc660,24,male,2024-04-19_18h37.14.665,stockport_simplified,2022.2.4,Win32,75.18796992,661e456ee6de07e70aa9ef7b,66229da66d0e3a5d98290f45,,,,,,,,,,,,,,,,,,,,,,,,,,,,,,,,,,,,,,,,,,,,,,,,,,,,,,,,0,51,51,56,1,N,M,D,o2_image,stimuli/out2.png,stimuli/out1.png,stimuli/correct_out2.png,,,,,,,,,,,,,,,,,,,,,,,,,,,,,,,,,,,,,,
,,5ecd2230b3956a034ebcc660,24,male,2024-04-19_18h37.14.665,stockport_simplified,2022.2.4,Win32,75.18796992,661e456ee6de07e70aa9ef7b,66229da66d0e3a5d98290f45,,,,,,,,,,,,,,,,,,,,,,,,,,,,,,,,,,333.1309,336.0361,"[3,5,8,2,6,7,4,1]","[[0.3,0.2],[-0.3,0.2]]","[[-0.125,-0.2],[0.125,-0.2]]",0.148148148,-0.206481481,1,0,0,2.3934,o2_image,336.0365,1,336.5295,336.5295,338.5295,0,0,0,0,1,,,,,,,,,,,,,,,,,,,,,,,,,,,,,,,,,,,,,,,,,,,,,,,,,,
,,5ecd2230b3956a034ebcc660,24,male,2024-04-19_18h37.14.665,stockport_simplified,2022.2.4,Win32,75.18796992,661e456ee6de07e70aa9ef7b,66229da66d0e3a5d98290f45,,,,,,,,,,,,,,,,,,,,,,,,,,,,,,,,,,,,,,,,,,,,,,,,,,,,,,,,0,52,52,10,1,B,X,N,o2_image,stimuli/out2.png,stimuli/out1.png,stimuli/correct_out2.png,,,,,,,,,,,,,,,,,,,,,,,,,,,,,,,,,,,,,,
,,5ecd2230b3956a034ebcc660,24,male,2024-04-19_18h37.14.665,stockport_simplified,2022.2.4,Win32,75.18796992,661e456ee6de07e70aa9ef7b,66229da66d0e3a5d98290f45,,,,,,,,,,,,,,,,,,,,,,,,,,,,,,,,,,338.5298,340.8895,"[3,5,8,2,6,7,4,1]","[[0.3,0.2],[-0.3,0.2]]","[[0.125,-0.2],[-0.125,-0.2]]",0.114814815,-0.210185185,1,0,0,1.8531,o1_image,340.8966,0,341.3963,341.3963,343.396,0,0,0,0,1,,,,,,,,,,,,,,,,,,,,,,,,,,,,,,,,,,,,,,,,,,,,,,,,,,
,,5ecd2230b3956a034ebcc660,24,male,2024-04-19_18h37.14.665,stockport_simplified,2022.2.4,Win32,75.18796992,661e456ee6de07e70aa9ef7b,66229da66d0e3a5d98290f45,,,,,,,,,,,,,,,,,,,,,,,,,,,,,,,,,,,,,,,,,,,,,,,,,,,,,,,,0,53,53,44,1,B,X,N,o2_image,stimuli/out2.png,stimuli/out1.png,stimuli/correct_out2.png,,,,,,,,,,,,,,,,,,,,,,,,,,,,,,,,,,,,,,
,,5ecd2230b3956a034ebcc660,24,male,2024-04-19_18h37.14.665,stockport_simplified,2022.2.4,Win32,75.18796992,661e456ee6de07e70aa9ef7b,66229da66d0e3a5d98290f45,,,,,,,,,,,,,,,,,,,,,,,,,,,,,,,,,,343.3963,346.2227,"[3,5,8,2,6,7,4,1]","[[0.3,0.2],[-0.3,0.2]]","[[-0.125,-0.2],[0.125,-0.2]]",-0.117592593,-0.211111111,1,0,0,2.3196,o1_image,346.2236,1,346.7161,346.7162,348.7162,0,0,0,0,1,,,,,,,,,,,,,,,,,,,,,,,,,,,,,,,,,,,,,,,,,,,,,,,,,,
,,5ecd2230b3956a034ebcc660,24,male,2024-04-19_18h37.14.665,stockport_simplified,2022.2.4,Win32,75.18796992,661e456ee6de07e70aa9ef7b,66229da66d0e3a5d98290f45,,,,,,,,,,,,,,,,,,,,,,,,,,,,,,,,,,,,,,,,,,,,,,,,,,,,,,,,0,54,54,5,1,A,Y,N,o1_image,stimuli/out1.png,stimuli/correct_out1.png,stimuli/out2.png,,,,,,,,,,,,,,,,,,,,,,,,,,,,,,,,,,,,,,
,,5ecd2230b3956a034ebcc660,24,male,2024-04-19_18h37.14.665,stockport_simplified,2022.2.4,Win32,75.18796992,661e456ee6de07e70aa9ef7b,66229da66d0e3a5d98290f45,,,,,,,,,,,,,,,,,,,,,,,,,,,,,,,,,,348.7164,350.7027,"[3,5,8,2,6,7,4,1]","[[-0.3,0.2],[0.3,0.2]]","[[-0.125,-0.2],[0.125,-0.2]]",0.153703704,-0.246296296,1,0,0,1.4797,o2_image,350.7031,1,351.1961,351.1961,353.1962,0,0,0,0,1,,,,,,,,,,,,,,,,,,,,,,,,,,,,,,,,,,,,,,,,,,,,,,,,,,
,,5ecd2230b3956a034ebcc660,24,male,2024-04-19_18h37.14.665,stockport_simplified,2022.2.4,Win32,75.18796992,661e456ee6de07e70aa9ef7b,66229da66d0e3a5d98290f45,,,,,,,,,,,,,,,,,,,,,,,,,,,,,,,,,,,,,,,,,,,,,,,,,,,,,,,,0,55,55,27,1,N,M,D,o2_image,stimuli/out2.png,stimuli/out1.png,stimuli/correct_out2.png,,,,,,,,,,,,,,,,,,,,,,,,,,,,,,,,,,,,,,
,,5ecd2230b3956a034ebcc660,24,male,2024-04-19_18h37.14.665,stockport_simplified,2022.2.4,Win32,75.18796992,661e456ee6de07e70aa9ef7b,66229da66d0e3a5d98290f45,,,,,,,,,,,,,,,,,,,,,,,,,,,,,,,,,,353.1963,357.0628,"[3,5,8,2,6,7,4,1]","[[-0.3,0.2],[0.3,0.2]]","[[0.125,-0.2],[-0.125,-0.2]]",-0.075,-0.15,1,0,0,3.3599,o2_image,357.0698,1,357.5694,357.5694,359.5695,0,0,0,0,1,,,,,,,,,,,,,,,,,,,,,,,,,,,,,,,,,,,,,,,,,,,,,,,,,,
,,5ecd2230b3956a034ebcc660,24,male,2024-04-19_18h37.14.665,stockport_simplified,2022.2.4,Win32,75.18796992,661e456ee6de07e70aa9ef7b,66229da66d0e3a5d98290f45,,,,,,,,,,,,,,,,,,,,,,,,,,,,,,,,,,,,,,,,,,,,,,,,,,,,,,,,0,56,56,28,1,N,M,D,o2_image,stimuli/out2.png,stimuli/out1.png,stimuli/correct_out2.png,,,,,,,,,,,,,,,,,,,,,,,,,,,,,,,,,,,,,,
,,5ecd2230b3956a034ebcc660,24,male,2024-04-19_18h37.14.665,stockport_simplified,2022.2.4,Win32,75.18796992,661e456ee6de07e70aa9ef7b,66229da66d0e3a5d98290f45,,,,,,,,,,,,,,,,,,,,,,,,,,,,,,,,,,359.5696,362.1161,"[3,5,8,2,6,7,4,1]","[[-0.3,0.2],[0.3,0.2]]","[[-0.125,-0.2],[0.125,-0.2]]",-0.090740741,-0.183333333,1,0,0,1.9919,o1_image,362.117,1,362.6095,362.6095,364.6095,0,0,0,0,1,,,,,,,,,,,,,,,,,,,,,,,,,,,,,,,,,,,,,,,,,,,,,,,,,,
,,5ecd2230b3956a034ebcc660,24,male,2024-04-19_18h37.14.665,stockport_simplified,2022.2.4,Win32,75.18796992,661e456ee6de07e70aa9ef7b,66229da66d0e3a5d98290f45,,,,,,,,,,,,,,,,,,,,,,,,,,,,,,,,,,,,,,,,,,,,,,,,,,,,,,,,0,57,57,24,1,N,M,C,o1_image,stimuli/out1.png,stimuli/correct_out1.png,stimuli/out2.png,,,,,,,,,,,,,,,,,,,,,,,,,,,,,,,,,,,,,,
,,5ecd2230b3956a034ebcc660,24,male,2024-04-19_18h37.14.665,stockport_simplified,2022.2.4,Win32,75.18796992,661e456ee6de07e70aa9ef7b,66229da66d0e3a5d98290f45,,,,,,,,,,,,,,,,,,,,,,,,,,,,,,,,,,364.6098,367.1961,"[3,5,8,2,6,7,4,1]","[[0.3,0.2],[-0.3,0.2]]","[[-0.125,-0.2],[0.125,-0.2]]",0.151851852,-0.150925926,1,0,0,2.0799,o2_image,367.2037,0,367.7027,367.7028,369.7028,0,0,0,0,1,,,,,,,,,,,,,,,,,,,,,,,,,,,,,,,,,,,,,,,,,,,,,,,,,,
,,5ecd2230b3956a034ebcc660,24,male,2024-04-19_18h37.14.665,stockport_simplified,2022.2.4,Win32,75.18796992,661e456ee6de07e70aa9ef7b,66229da66d0e3a5d98290f45,,,,,,,,,,,,,,,,,,,,,,,,,,,,,,,,,,,,,,,,,,,,,,,,,,,,,,,,0,58,58,23,1,N,M,C,o1_image,stimuli/out1.png,stimuli/correct_out1.png,stimuli/out2.png,,,,,,,,,,,,,,,,,,,,,,,,,,,,,,,,,,,,,,
,,5ecd2230b3956a034ebcc660,24,male,2024-04-19_18h37.14.665,stockport_simplified,2022.2.4,Win32,75.18796992,661e456ee6de07e70aa9ef7b,66229da66d0e3a5d98290f45,,,,,,,,,,,,,,,,,,,,,,,,,,,,,,,,,,369.7033,372.9561,"[3,5,8,2,6,7,4,1]","[[-0.3,0.2],[0.3,0.2]]","[[0.125,-0.2],[-0.125,-0.2]]",0.073148148,-0.205555556,1,0,0,2.7461,o1_image,372.9631,1,373.4627,373.4628,375.4627,0,0,0,0,1,,,,,,,,,,,,,,,,,,,,,,,,,,,,,,,,,,,,,,,,,,,,,,,,,,
,,5ecd2230b3956a034ebcc660,24,male,2024-04-19_18h37.14.665,stockport_simplified,2022.2.4,Win32,75.18796992,661e456ee6de07e70aa9ef7b,66229da66d0e3a5d98290f45,,,,,,,,,,,,,,,,,,,,,,,,,,,,,,,,,,,,,,,,,,,,,,,,,,,,,,,,0,59,59,1,1,A,X,N,o1_image,stimuli/out1.png,stimuli/correct_out1.png,stimuli/out2.png,,,,,,,,,,,,,,,,,,,,,,,,,,,,,,,,,,,,,,
,,5ecd2230b3956a034ebcc660,24,male,2024-04-19_18h37.14.665,stockport_simplified,2022.2.4,Win32,75.18796992,661e456ee6de07e70aa9ef7b,66229da66d0e3a5d98290f45,,,,,,,,,,,,,,,,,,,,,,,,,,,,,,,,,,375.4629,378.9428,"[3,5,8,2,6,7,4,1]","[[-0.3,0.2],[0.3,0.2]]","[[0.125,-0.2],[-0.125,-0.2]]",0.114160263,-0.270581778,1,0,0,2.9767,o1_image,378.9507,1,379.4496,379.4497,381.4498,0,0,0,0,1,,,,,,,,,,,,,,,,,,,,,,,,,,,,,,,,,,,,,,,,,,,,,,,,,,
,,5ecd2230b3956a034ebcc660,24,male,2024-04-19_18h37.14.665,stockport_simplified,2022.2.4,Win32,75.18796992,661e456ee6de07e70aa9ef7b,66229da66d0e3a5d98290f45,,,,,,,,,,,,,,,,,,,,,,,,,,,,,,,,,,,,,,,,,,,,,,,,,,,,,,,,1,0,60,4,1,A,X,N,o1_image,stimuli/out1.png,stimuli/correct_out1.png,stimuli/out2.png,,,,,,,,,,,,,,,,,,,,,,,,,,,,,,,,,,,,,,
,,5ecd2230b3956a034ebcc660,24,male,2024-04-19_18h37.14.665,stockport_simplified,2022.2.4,Win32,75.18796992,661e456ee6de07e70aa9ef7b,66229da66d0e3a5d98290f45,,,,,,,,,,,,,,,,,,,,,,,,,,,,,,,,,,381.4504,384.8628,"[3,5,8,2,6,7,4,1]","[[-0.3,0.2],[0.3,0.2]]","[[0.125,-0.2],[-0.125,-0.2]]",0.179317932,-0.209570957,1,0,0,2.9062,o1_image,384.87,1,385.3695,385.3695,387.3694,0,0,0,0,1,,,,,,,,,,,,,,,,,,,,,,,,,,,,,,,,,,,,,,,,,,,,,,,,,,
,,5ecd2230b3956a034ebcc660,24,male,2024-04-19_18h37.14.665,stockport_simplified,2022.2.4,Win32,75.18796992,661e456ee6de07e70aa9ef7b,66229da66d0e3a5d98290f45,,,,,,,,,,,,,,,,,,,,,,,,,,,,,,,,,,,,,,,,,,,,,,,,,,,,,,,,1,1,61,52,1,N,M,C,o1_image,stimuli/out1.png,stimuli/correct_out1.png,stimuli/out2.png,,,,,,,,,,,,,,,,,,,,,,,,,,,,,,,,,,,,,,
,,5ecd2230b3956a034ebcc660,24,male,2024-04-19_18h37.14.665,stockport_simplified,2022.2.4,Win32,75.18796992,661e456ee6de07e70aa9ef7b,66229da66d0e3a5d98290f45,,,,,,,,,,,,,,,,,,,,,,,,,,,,,,,,,,387.3696,391.196,"[3,5,8,2,6,7,4,1]","[[0.3,0.2],[-0.3,0.2]]","[[-0.125,-0.2],[0.125,-0.2]]",-0.203520352,-0.189768977,1,0,0,3.3198,o1_image,391.2032,1,391.7027,391.7027,393.7028,0,0,0,0,1,,,,,,,,,,,,,,,,,,,,,,,,,,,,,,,,,,,,,,,,,,,,,,,,,,
,,5ecd2230b3956a034ebcc660,24,male,2024-04-19_18h37.14.665,stockport_simplified,2022.2.4,Win32,75.18796992,661e456ee6de07e70aa9ef7b,66229da66d0e3a5d98290f45,,,,,,,,,,,,,,,,,,,,,,,,,,,,,,,,,,,,,,,,,,,,,,,,,,,,,,,,1,2,62,31,1,A,X,N,o1_image,stimuli/out1.png,stimuli/correct_out1.png,stimuli/out2.png,,,,,,,,,,,,,,,,,,,,,,,,,,,,,,,,,,,,,,
,,5ecd2230b3956a034ebcc660,24,male,2024-04-19_18h37.14.665,stockport_simplified,2022.2.4,Win32,75.18796992,661e456ee6de07e70aa9ef7b,66229da66d0e3a5d98290f45,,,,,,,,,,,,,,,,,,,,,,,,,,,,,,,,,,393.7029,396.7827,"[3,5,8,2,6,7,4,1]","[[0.3,0.2],[-0.3,0.2]]","[[-0.125,-0.2],[0.125,-0.2]]",0.100110011,-0.174367437,1,0,0,2.5731,o2_image,396.7899,1,397.2895,397.2896,399.2897,0,0,0,0,1,,,,,,,,,,,,,,,,,,,,,,,,,,,,,,,,,,,,,,,,,,,,,,,,,,
,,5ecd2230b3956a034ebcc660,24,male,2024-04-19_18h37.14.665,stockport_simplified,2022.2.4,Win32,75.18796992,661e456ee6de07e70aa9ef7b,66229da66d0e3a5d98290f45,,,,,,,,,,,,,,,,,,,,,,,,,,,,,,,,,,,,,,,,,,,,,,,,,,,,,,,,1,3,63,18,1,B,Y,N,o2_image,stimuli/out2.png,stimuli/out1.png,stimuli/correct_out2.png,,,,,,,,,,,,,,,,,,,,,,,,,,,,,,,,,,,,,,
,,5ecd2230b3956a034ebcc660,24,male,2024-04-19_18h37.14.665,stockport_simplified,2022.2.4,Win32,75.18796992,661e456ee6de07e70aa9ef7b,66229da66d0e3a5d98290f45,,,,,,,,,,,,,,,,,,,,,,,,,,,,,,,,,,399.29,404.4628,"[3,5,8,2,6,7,4,1]","[[-0.3,0.2],[0.3,0.2]]","[[-0.125,-0.2],[0.125,-0.2]]",-0.04180418,-0.215071507,1,0,0,4.1861,o1_image,404.4699,0,404.9695,404.9695,406.9695,0,0,0,0,1,,,,,,,,,,,,,,,,,,,,,,,,,,,,,,,,,,,,,,,,,,,,,,,,,,
,,5ecd2230b3956a034ebcc660,24,male,2024-04-19_18h37.14.665,stockport_simplified,2022.2.4,Win32,75.18796992,661e456ee6de07e70aa9ef7b,66229da66d0e3a5d98290f45,,,,,,,,,,,,,,,,,,,,,,,,,,,,,,,,,,,,,,,,,,,,,,,,,,,,,,,,1,4,64,10,1,B,X,N,o2_image,stimuli/out2.png,stimuli/out1.png,stimuli/correct_out2.png,,,,,,,,,,,,,,,,,,,,,,,,,,,,,,,,,,,,,,
,,5ecd2230b3956a034ebcc660,24,male,2024-04-19_18h37.14.665,stockport_simplified,2022.2.4,Win32,75.18796992,661e456ee6de07e70aa9ef7b,66229da66d0e3a5d98290f45,,,,,,,,,,,,,,,,,,,,,,,,,,,,,,,,,,406.9697,409.4627,"[3,5,8,2,6,7,4,1]","[[-0.3,0.2],[0.3,0.2]]","[[-0.125,-0.2],[0.125,-0.2]]",0.121012101,-0.182068207,1,0,0,1.9864,o2_image,409.4632,1,409.9561,409.9561,411.956,0,0,0,0,1,,,,,,,,,,,,,,,,,,,,,,,,,,,,,,,,,,,,,,,,,,,,,,,,,,
,,5ecd2230b3956a034ebcc660,24,male,2024-04-19_18h37.14.665,stockport_simplified,2022.2.4,Win32,75.18796992,661e456ee6de07e70aa9ef7b,66229da66d0e3a5d98290f45,,,,,,,,,,,,,,,,,,,,,,,,,,,,,,,,,,,,,,,,,,,,,,,,,,,,,,,,1,5,65,48,1,B,Y,N,o2_image,stimuli/out2.png,stimuli/out1.png,stimuli/correct_out2.png,,,,,,,,,,,,,,,,,,,,,,,,,,,,,,,,,,,,,,
,,5ecd2230b3956a034ebcc660,24,male,2024-04-19_18h37.14.665,stockport_simplified,2022.2.4,Win32,75.18796992,661e456ee6de07e70aa9ef7b,66229da66d0e3a5d98290f45,,,,,,,,,,,,,,,,,,,,,,,,,,,,,,,,,,411.9563,414.8093,"[3,5,8,2,6,7,4,1]","[[0.3,0.2],[-0.3,0.2]]","[[-0.125,-0.2],[0.125,-0.2]]",-0.122112211,-0.204070407,1,0,0,2.3462,o1_image,414.8164,0,415.3163,415.3163,417.3168,0,0,0,0,1,,,,,,,,,,,,,,,,,,,,,,,,,,,,,,,,,,,,,,,,,,,,,,,,,,
,,5ecd2230b3956a034ebcc660,24,male,2024-04-19_18h37.14.665,stockport_simplified,2022.2.4,Win32,75.18796992,661e456ee6de07e70aa9ef7b,66229da66d0e3a5d98290f45,,,,,,,,,,,,,,,,,,,,,,,,,,,,,,,,,,,,,,,,,,,,,,,,,,,,,,,,1,6,66,25,1,N,M,D,o2_image,stimuli/out2.png,stimuli/out1.png,stimuli/correct_out2.png,,,,,,,,,,,,,,,,,,,,,,,,,,,,,,,,,,,,,,
,,5ecd2230b3956a034ebcc660,24,male,2024-04-19_18h37.14.665,stockport_simplified,2022.2.4,Win32,75.18796992,661e456ee6de07e70aa9ef7b,66229da66d0e3a5d98290f45,,,,,,,,,,,,,,,,,,,,,,,,,,,,,,,,,,417.3172,419.8227,"[3,5,8,2,6,7,4,1]","[[-0.3,0.2],[0.3,0.2]]","[[-0.125,-0.2],[0.125,-0.2]]",0.108910891,-0.213971397,1,0,0,1.9995,o2_image,419.8233,0,420.316,420.316,422.3162,0,0,0,0,1,,,,,,,,,,,,,,,,,,,,,,,,,,,,,,,,,,,,,,,,,,,,,,,,,,
,,5ecd2230b3956a034ebcc660,24,male,2024-04-19_18h37.14.665,stockport_simplified,2022.2.4,Win32,75.18796992,661e456ee6de07e70aa9ef7b,66229da66d0e3a5d98290f45,,,,,,,,,,,,,,,,,,,,,,,,,,,,,,,,,,,,,,,,,,,,,,,,,,,,,,,,1,7,67,36,1,A,Y,N,o1_image,stimuli/out1.png,stimuli/correct_out1.png,stimuli/out2.png,,,,,,,,,,,,,,,,,,,,,,,,,,,,,,,,,,,,,,
,,5ecd2230b3956a034ebcc660,24,male,2024-04-19_18h37.14.665,stockport_simplified,2022.2.4,Win32,75.18796992,661e456ee6de07e70aa9ef7b,66229da66d0e3a5d98290f45,,,,,,,,,,,,,,,,,,,,,,,,,,,,,,,,,,422.3165,424.0362,"[3,5,8,2,6,7,4,1]","[[-0.3,0.2],[0.3,0.2]]","[[-0.125,-0.2],[0.125,-0.2]]",0.070407041,-0.158965897,1,0,0,1.2129,o2_image,424.0369,1,424.5296,424.5296,426.5297,0,0,0,0,1,,,,,,,,,,,,,,,,,,,,,,,,,,,,,,,,,,,,,,,,,,,,,,,,,,
,,5ecd2230b3956a034ebcc660,24,male,2024-04-19_18h37.14.665,stockport_simplified,2022.2.4,Win32,75.18796992,661e456ee6de07e70aa9ef7b,66229da66d0e3a5d98290f45,,,,,,,,,,,,,,,,,,,,,,,,,,,,,,,,,,,,,,,,,,,,,,,,,,,,,,,,1,8,68,19,1,B,Y,N,o2_image,stimuli/out2.png,stimuli/out1.png,stimuli/correct_out2.png,,,,,,,,,,,,,,,,,,,,,,,,,,,,,,,,,,,,,,
,,5ecd2230b3956a034ebcc660,24,male,2024-04-19_18h37.14.665,stockport_simplified,2022.2.4,Win32,75.18796992,661e456ee6de07e70aa9ef7b,66229da66d0e3a5d98290f45,,,,,,,,,,,,,,,,,,,,,,,,,,,,,,,,,,426.53,430.5427,"[3,5,8,2,6,7,4,1]","[[0.3,0.2],[-0.3,0.2]]","[[0.125,-0.2],[-0.125,-0.2]]",0.148514851,-0.204070407,1,0,0,3.506,o1_image,430.55,1,431.0494,431.0495,433.0494,0,0,0,0,1,,,,,,,,,,,,,,,,,,,,,,,,,,,,,,,,,,,,,,,,,,,,,,,,,,
,,5ecd2230b3956a034ebcc660,24,male,2024-04-19_18h37.14.665,stockport_simplified,2022.2.4,Win32,75.18796992,661e456ee6de07e70aa9ef7b,66229da66d0e3a5d98290f45,,,,,,,,,,,,,,,,,,,,,,,,,,,,,,,,,,,,,,,,,,,,,,,,,,,,,,,,1,9,69,23,1,N,M,C,o1_image,stimuli/out1.png,stimuli/correct_out1.png,stimuli/out2.png,,,,,,,,,,,,,,,,,,,,,,,,,,,,,,,,,,,,,,
,,5ecd2230b3956a034ebcc660,24,male,2024-04-19_18h37.14.665,stockport_simplified,2022.2.4,Win32,75.18796992,661e456ee6de07e70aa9ef7b,66229da66d0e3a5d98290f45,,,,,,,,,,,,,,,,,,,,,,,,,,,,,,,,,,433.0497,434.6093,"[3,5,8,2,6,7,4,1]","[[0.3,0.2],[-0.3,0.2]]","[[0.125,-0.2],[-0.125,-0.2]]",0.128712871,-0.211771177,1,0,0,1.0534,o1_image,434.6096,1,435.1027,435.1027,437.1028,0,0,0,0,1,,,,,,,,,,,,,,,,,,,,,,,,,,,,,,,,,,,,,,,,,,,,,,,,,,
,,5ecd2230b3956a034ebcc660,24,male,2024-04-19_18h37.14.665,stockport_simplified,2022.2.4,Win32,75.18796992,661e456ee6de07e70aa9ef7b,66229da66d0e3a5d98290f45,,,,,,,,,,,,,,,,,,,,,,,,,,,,,,,,,,,,,,,,,,,,,,,,,,,,,,,,1,10,70,24,1,N,M,C,o1_image,stimuli/out1.png,stimuli/correct_out1.png,stimuli/out2.png,,,,,,,,,,,,,,,,,,,,,,,,,,,,,,,,,,,,,,
,,5ecd2230b3956a034ebcc660,24,male,2024-04-19_18h37.14.665,stockport_simplified,2022.2.4,Win32,75.18796992,661e456ee6de07e70aa9ef7b,66229da66d0e3a5d98290f45,,,,,,,,,,,,,,,,,,,,,,,,,,,,,,,,,,437.103,439.3427,"[3,5,8,2,6,7,4,1]","[[0.3,0.2],[-0.3,0.2]]","[[0.125,-0.2],[-0.125,-0.2]]",-0.096809681,-0.217271727,1,0,0,1.7329,o2_image,439.343,1,439.8363,439.8363,441.836,0,0,0,0,1,,,,,,,,,,,,,,,,,,,,,,,,,,,,,,,,,,,,,,,,,,,,,,,,,,
,,5ecd2230b3956a034ebcc660,24,male,2024-04-19_18h37.14.665,stockport_simplified,2022.2.4,Win32,75.18796992,661e456ee6de07e70aa9ef7b,66229da66d0e3a5d98290f45,,,,,,,,,,,,,,,,,,,,,,,,,,,,,,,,,,,,,,,,,,,,,,,,,,,,,,,,1,11,71,16,1,B,Y,N,o2_image,stimuli/out2.png,stimuli/out1.png,stimuli/correct_out2.png,,,,,,,,,,,,,,,,,,,,,,,,,,,,,,,,,,,,,,
,,5ecd2230b3956a034ebcc660,24,male,2024-04-19_18h37.14.665,stockport_simplified,2022.2.4,Win32,75.18796992,661e456ee6de07e70aa9ef7b,66229da66d0e3a5d98290f45,,,,,,,,,,,,,,,,,,,,,,,,,,,,,,,,,,441.8362,444.4092,"[3,5,8,2,6,7,4,1]","[[-0.3,0.2],[0.3,0.2]]","[[-0.125,-0.2],[0.125,-0.2]]",0.071507151,-0.211771177,1,0,0,2.0662,o2_image,444.4096,1,444.9027,444.9028,446.9026,0,0,0,0,1,,,,,,,,,,,,,,,,,,,,,,,,,,,,,,,,,,,,,,,,,,,,,,,,,,
,,5ecd2230b3956a034ebcc660,24,male,2024-04-19_18h37.14.665,stockport_simplified,2022.2.4,Win32,75.18796992,661e456ee6de07e70aa9ef7b,66229da66d0e3a5d98290f45,,,,,,,,,,,,,,,,,,,,,,,,,,,,,,,,,,,,,,,,,,,,,,,,,,,,,,,,1,12,72,29,1,N,M,D,o2_image,stimuli/out2.png,stimuli/out1.png,stimuli/correct_out2.png,,,,,,,,,,,,,,,,,,,,,,,,,,,,,,,,,,,,,,
,,5ecd2230b3956a034ebcc660,24,male,2024-04-19_18h37.14.665,stockport_simplified,2022.2.4,Win32,75.18796992,661e456ee6de07e70aa9ef7b,66229da66d0e3a5d98290f45,,,,,,,,,,,,,,,,,,,,,,,,,,,,,,,,,,446.9029,449.2093,"[3,5,8,2,6,7,4,1]","[[-0.3,0.2],[0.3,0.2]]","[[0.125,-0.2],[-0.125,-0.2]]",0.085808581,-0.212871287,1,0,0,1.7998,o1_image,449.2097,1,449.703,449.703,451.7027,0,0,0,0,1,,,,,,,,,,,,,,,,,,,,,,,,,,,,,,,,,,,,,,,,,,,,,,,,,,
,,5ecd2230b3956a034ebcc660,24,male,2024-04-19_18h37.14.665,stockport_simplified,2022.2.4,Win32,75.18796992,661e456ee6de07e70aa9ef7b,66229da66d0e3a5d98290f45,,,,,,,,,,,,,,,,,,,,,,,,,,,,,,,,,,,,,,,,,,,,,,,,,,,,,,,,1,13,73,50,1,N,M,C,o1_image,stimuli/out1.png,stimuli/correct_out1.png,stimuli/out2.png,,,,,,,,,,,,,,,,,,,,,,,,,,,,,,,,,,,,,,
,,5ecd2230b3956a034ebcc660,24,male,2024-04-19_18h37.14.665,stockport_simplified,2022.2.4,Win32,75.18796992,661e456ee6de07e70aa9ef7b,66229da66d0e3a5d98290f45,,,,,,,,,,,,,,,,,,,,,,,,,,,,,,,,,,451.7029,453.9159,"[3,5,8,2,6,7,4,1]","[[-0.3,0.2],[0.3,0.2]]","[[0.125,-0.2],[-0.125,-0.2]]",-0.072607261,-0.223872387,1,0,0,1.7061,o2_image,453.9163,1,454.4093,454.4093,456.4094,0,0,0,0,1,,,,,,,,,,,,,,,,,,,,,,,,,,,,,,,,,,,,,,,,,,,,,,,,,,
,,5ecd2230b3956a034ebcc660,24,male,2024-04-19_18h37.14.665,stockport_simplified,2022.2.4,Win32,75.18796992,661e456ee6de07e70aa9ef7b,66229da66d0e3a5d98290f45,,,,,,,,,,,,,,,,,,,,,,,,,,,,,,,,,,,,,,,,,,,,,,,,,,,,,,,,1,14,74,45,1,B,Y,N,o2_image,stimuli/out2.png,stimuli/out1.png,stimuli/correct_out2.png,,,,,,,,,,,,,,,,,,,,,,,,,,,,,,,,,,,,,,
,,5ecd2230b3956a034ebcc660,24,male,2024-04-19_18h37.14.665,stockport_simplified,2022.2.4,Win32,75.18796992,661e456ee6de07e70aa9ef7b,66229da66d0e3a5d98290f45,,,,,,,,,,,,,,,,,,,,,,,,,,,,,,,,,,456.4095,458.7026,"[3,5,8,2,6,7,4,1]","[[-0.3,0.2],[0.3,0.2]]","[[0.125,-0.2],[-0.125,-0.2]]",0.102310231,-0.194169417,1,0,0,1.7865,o1_image,458.7098,0,459.2098,459.2099,461.2092,0,0,0,0,1,,,,,,,,,,,,,,,,,,,,,,,,,,,,,,,,,,,,,,,,,,,,,,,,,,
,,5ecd2230b3956a034ebcc660,24,male,2024-04-19_18h37.14.665,stockport_simplified,2022.2.4,Win32,75.18796992,661e456ee6de07e70aa9ef7b,66229da66d0e3a5d98290f45,,,,,,,,,,,,,,,,,,,,,,,,,,,,,,,,,,,,,,,,,,,,,,,,,,,,,,,,1,15,75,56,1,N,M,D,o2_image,stimuli/out2.png,stimuli/out1.png,stimuli/correct_out2.png,,,,,,,,,,,,,,,,,,,,,,,,,,,,,,,,,,,,,,
,,5ecd2230b3956a034ebcc660,24,male,2024-04-19_18h37.14.665,stockport_simplified,2022.2.4,Win32,75.18796992,661e456ee6de07e70aa9ef7b,66229da66d0e3a5d98290f45,,,,,,,,,,,,,,,,,,,,,,,,,,,,,,,,,,461.2095,464.5427,"[3,5,8,2,6,7,4,1]","[[-0.3,0.2],[0.3,0.2]]","[[-0.125,-0.2],[0.125,-0.2]]",-0.069306931,-0.197469747,1,0,0,2.8264,o1_image,464.543,1,465.0361,465.0361,467.036,0,0,0,0,1,,,,,,,,,,,,,,,,,,,,,,,,,,,,,,,,,,,,,,,,,,,,,,,,,,
,,5ecd2230b3956a034ebcc660,24,male,2024-04-19_18h37.14.665,stockport_simplified,2022.2.4,Win32,75.18796992,661e456ee6de07e70aa9ef7b,66229da66d0e3a5d98290f45,,,,,,,,,,,,,,,,,,,,,,,,,,,,,,,,,,,,,,,,,,,,,,,,,,,,,,,,1,16,76,7,1,A,Y,N,o1_image,stimuli/out1.png,stimuli/correct_out1.png,stimuli/out2.png,,,,,,,,,,,,,,,,,,,,,,,,,,,,,,,,,,,,,,
,,5ecd2230b3956a034ebcc660,24,male,2024-04-19_18h37.14.665,stockport_simplified,2022.2.4,Win32,75.18796992,661e456ee6de07e70aa9ef7b,66229da66d0e3a5d98290f45,,,,,,,,,,,,,,,,,,,,,,,,,,,,,,,,,,467.0362,468.5959,"[3,5,8,2,6,7,4,1]","[[0.3,0.2],[-0.3,0.2]]","[[-0.125,-0.2],[0.125,-0.2]]",0.119911991,-0.183168317,1,0,0,1.0531,o2_image,468.5964,1,469.0895,469.0896,471.0896,0,0,0,0,1,,,,,,,,,,,,,,,,,,,,,,,,,,,,,,,,,,,,,,,,,,,,,,,,,,
,,5ecd2230b3956a034ebcc660,24,male,2024-04-19_18h37.14.665,stockport_simplified,2022.2.4,Win32,75.18796992,661e456ee6de07e70aa9ef7b,66229da66d0e3a5d98290f45,,,,,,,,,,,,,,,,,,,,,,,,,,,,,,,,,,,,,,,,,,,,,,,,,,,,,,,,1,17,77,49,1,B,Y,N,o2_image,stimuli/out2.png,stimuli/out1.png,stimuli/correct_out2.png,,,,,,,,,,,,,,,,,,,,,,,,,,,,,,,,,,,,,,
,,5ecd2230b3956a034ebcc660,24,male,2024-04-19_18h37.14.665,stockport_simplified,2022.2.4,Win32,75.18796992,661e456ee6de07e70aa9ef7b,66229da66d0e3a5d98290f45,,,,,,,,,,,,,,,,,,,,,,,,,,,,,,,,,,471.0899,473.556,"[3,5,8,2,6,7,4,1]","[[0.3,0.2],[-0.3,0.2]]","[[0.125,-0.2],[-0.125,-0.2]]",0.091309131,-0.186468647,1,0,0,1.9596,o1_image,473.5564,1,474.0493,474.0493,476.0494,0,0,0,0,1,,,,,,,,,,,,,,,,,,,,,,,,,,,,,,,,,,,,,,,,,,,,,,,,,,
,,5ecd2230b3956a034ebcc660,24,male,2024-04-19_18h37.14.665,stockport_simplified,2022.2.4,Win32,75.18796992,661e456ee6de07e70aa9ef7b,66229da66d0e3a5d98290f45,,,,,,,,,,,,,,,,,,,,,,,,,,,,,,,,,,,,,,,,,,,,,,,,,,,,,,,,1,18,78,34,1,A,X,N,o1_image,stimuli/out1.png,stimuli/correct_out1.png,stimuli/out2.png,,,,,,,,,,,,,,,,,,,,,,,,,,,,,,,,,,,,,,
,,5ecd2230b3956a034ebcc660,24,male,2024-04-19_18h37.14.665,stockport_simplified,2022.2.4,Win32,75.18796992,661e456ee6de07e70aa9ef7b,66229da66d0e3a5d98290f45,,,,,,,,,,,,,,,,,,,,,,,,,,,,,,,,,,476.0496,478.5161,"[3,5,8,2,6,7,4,1]","[[0.3,0.2],[-0.3,0.2]]","[[0.125,-0.2],[-0.125,-0.2]]",0.121012101,-0.216171617,1,0,0,1.96,o1_image,478.5165,1,479.0095,479.0096,485.7716,0,0,0,0,1,,,,,,,,,,,,,,,,,,,,,,,,,,,,,,,,,,,,,,,,,,,,,,,,,,
,,5ecd2230b3956a034ebcc660,24,male,2024-04-19_18h37.14.665,stockport_simplified,2022.2.4,Win32,75.18796992,661e456ee6de07e70aa9ef7b,66229da66d0e3a5d98290f45,,,,,,,,,,,,,,,,,,,,,,,,,,,,,,,,,,,,,,,,,,,,,,,,,,,,,,,,1,19,79,0,1,A,X,N,o1_image,stimuli/out1.png,stimuli/correct_out1.png,stimuli/out2.png,,,,,,,,,,,,,,,,,,,,,,,,,,,,,,,,,,,,,,
,,5ecd2230b3956a034ebcc660,24,male,2024-04-19_18h37.14.665,stockport_simplified,2022.2.4,Win32,75.18796992,661e456ee6de07e70aa9ef7b,66229da66d0e3a5d98290f45,,,,,,,,,,,,,,,,,,,,,,,,,,,,,,,,,,485.7783,488.7698,"[3,5,8,2,6,7,4,1]","[[0.3,0.2],[-0.3,0.2]]","[[-0.125,-0.2],[0.125,-0.2]]",-0.122112211,-0.186468647,1,0,0,2.4797,o1_image,488.7773,1,489.2763,489.2763,491.2762,0,0,0,0,1,,,,,,,,,,,,,,,,,,,,,,,,,,,,,,,,,,,,,,,,,,,,,,,,,,
,,5ecd2230b3956a034ebcc660,24,male,2024-04-19_18h37.14.665,stockport_simplified,2022.2.4,Win32,75.18796992,661e456ee6de07e70aa9ef7b,66229da66d0e3a5d98290f45,,,,,,,,,,,,,,,,,,,,,,,,,,,,,,,,,,,,,,,,,,,,,,,,,,,,,,,,1,20,80,5,1,A,Y,N,o1_image,stimuli/out1.png,stimuli/correct_out1.png,stimuli/out2.png,,,,,,,,,,,,,,,,,,,,,,,,,,,,,,,,,,,,,,
,,5ecd2230b3956a034ebcc660,24,male,2024-04-19_18h37.14.665,stockport_simplified,2022.2.4,Win32,75.18796992,661e456ee6de07e70aa9ef7b,66229da66d0e3a5d98290f45,,,,,,,,,,,,,,,,,,,,,,,,,,,,,,,,,,491.2764,494.1961,"[3,5,8,2,6,7,4,1]","[[0.3,0.2],[-0.3,0.2]]","[[0.125,-0.2],[-0.125,-0.2]]",-0.091309131,-0.238173817,1,0,0,2.413,o2_image,494.1966,1,494.6893,494.6894,496.6894,0,0,0,0,1,,,,,,,,,,,,,,,,,,,,,,,,,,,,,,,,,,,,,,,,,,,,,,,,,,
,,5ecd2230b3956a034ebcc660,24,male,2024-04-19_18h37.14.665,stockport_simplified,2022.2.4,Win32,75.18796992,661e456ee6de07e70aa9ef7b,66229da66d0e3a5d98290f45,,,,,,,,,,,,,,,,,,,,,,,,,,,,,,,,,,,,,,,,,,,,,,,,,,,,,,,,1,21,81,57,1,N,M,D,o2_image,stimuli/out2.png,stimuli/out1.png,stimuli/correct_out2.png,,,,,,,,,,,,,,,,,,,,,,,,,,,,,,,,,,,,,,
,,5ecd2230b3956a034ebcc660,24,male,2024-04-19_18h37.14.665,stockport_simplified,2022.2.4,Win32,75.18796992,661e456ee6de07e70aa9ef7b,66229da66d0e3a5d98290f45,,,,,,,,,,,,,,,,,,,,,,,,,,,,,,,,,,496.6896,499.4627,"[3,5,8,2,6,7,4,1]","[[-0.3,0.2],[0.3,0.2]]","[[-0.125,-0.2],[0.125,-0.2]]",0.182618262,-0.177667767,1,0,0,2.2664,o2_image,499.4697,1,499.9693,499.9693,501.9692,0,0,0,0,1,,,,,,,,,,,,,,,,,,,,,,,,,,,,,,,,,,,,,,,,,,,,,,,,,,
,,5ecd2230b3956a034ebcc660,24,male,2024-04-19_18h37.14.665,stockport_simplified,2022.2.4,Win32,75.18796992,661e456ee6de07e70aa9ef7b,66229da66d0e3a5d98290f45,,,,,,,,,,,,,,,,,,,,,,,,,,,,,,,,,,,,,,,,,,,,,,,,,,,,,,,,1,22,82,13,1,B,X,N,o2_image,stimuli/out2.png,stimuli/out1.png,stimuli/correct_out2.png,,,,,,,,,,,,,,,,,,,,,,,,,,,,,,,,,,,,,,
,,5ecd2230b3956a034ebcc660,24,male,2024-04-19_18h37.14.665,stockport_simplified,2022.2.4,Win32,75.18796992,661e456ee6de07e70aa9ef7b,66229da66d0e3a5d98290f45,,,,,,,,,,,,,,,,,,,,,,,,,,,,,,,,,,501.9694,504.1292,"[3,5,8,2,6,7,4,1]","[[0.3,0.2],[-0.3,0.2]]","[[0.125,-0.2],[-0.125,-0.2]]",0.068206821,-0.205170517,1,0,0,1.6531,o1_image,504.1295,1,504.6226,504.6226,506.6226,0,0,0,0,1,,,,,,,,,,,,,,,,,,,,,,,,,,,,,,,,,,,,,,,,,,,,,,,,,,
,,5ecd2230b3956a034ebcc660,24,male,2024-04-19_18h37.14.665,stockport_simplified,2022.2.4,Win32,75.18796992,661e456ee6de07e70aa9ef7b,66229da66d0e3a5d98290f45,,,,,,,,,,,,,,,,,,,,,,,,,,,,,,,,,,,,,,,,,,,,,,,,,,,,,,,,1,23,83,20,1,N,M,C,o1_image,stimuli/out1.png,stimuli/correct_out1.png,stimuli/out2.png,,,,,,,,,,,,,,,,,,,,,,,,,,,,,,,,,,,,,,
,,5ecd2230b3956a034ebcc660,24,male,2024-04-19_18h37.14.665,stockport_simplified,2022.2.4,Win32,75.18796992,661e456ee6de07e70aa9ef7b,66229da66d0e3a5d98290f45,,,,,,,,,,,,,,,,,,,,,,,,,,,,,,,,,,506.6228,508.8626,"[3,5,8,2,6,7,4,1]","[[0.3,0.2],[-0.3,0.2]]","[[-0.125,-0.2],[0.125,-0.2]]",-0.089108911,-0.215071507,1,0,0,1.7333,o1_image,508.8699,1,509.3694,509.3694,511.3693,0,0,0,0,1,,,,,,,,,,,,,,,,,,,,,,,,,,,,,,,,,,,,,,,,,,,,,,,,,,
,,5ecd2230b3956a034ebcc660,24,male,2024-04-19_18h37.14.665,stockport_simplified,2022.2.4,Win32,75.18796992,661e456ee6de07e70aa9ef7b,66229da66d0e3a5d98290f45,,,,,,,,,,,,,,,,,,,,,,,,,,,,,,,,,,,,,,,,,,,,,,,,,,,,,,,,1,24,84,1,1,A,X,N,o1_image,stimuli/out1.png,stimuli/correct_out1.png,stimuli/out2.png,,,,,,,,,,,,,,,,,,,,,,,,,,,,,,,,,,,,,,
,,5ecd2230b3956a034ebcc660,24,male,2024-04-19_18h37.14.665,stockport_simplified,2022.2.4,Win32,75.18796992,661e456ee6de07e70aa9ef7b,66229da66d0e3a5d98290f45,,,,,,,,,,,,,,,,,,,,,,,,,,,,,,,,,,511.3694,513.9693,"[3,5,8,2,6,7,4,1]","[[0.3,0.2],[-0.3,0.2]]","[[-0.125,-0.2],[0.125,-0.2]]",-0.075907591,-0.201870187,1,0,0,2.0933,o1_image,513.9698,1,514.4626,514.4626,516.4627,0,0,0,0,1,,,,,,,,,,,,,,,,,,,,,,,,,,,,,,,,,,,,,,,,,,,,,,,,,,
,,5ecd2230b3956a034ebcc660,24,male,2024-04-19_18h37.14.665,stockport_simplified,2022.2.4,Win32,75.18796992,661e456ee6de07e70aa9ef7b,66229da66d0e3a5d98290f45,,,,,,,,,,,,,,,,,,,,,,,,,,,,,,,,,,,,,,,,,,,,,,,,,,,,,,,,1,25,85,35,1,A,Y,N,o1_image,stimuli/out1.png,stimuli/correct_out1.png,stimuli/out2.png,,,,,,,,,,,,,,,,,,,,,,,,,,,,,,,,,,,,,,
,,5ecd2230b3956a034ebcc660,24,male,2024-04-19_18h37.14.665,stockport_simplified,2022.2.4,Win32,75.18796992,661e456ee6de07e70aa9ef7b,66229da66d0e3a5d98290f45,,,,,,,,,,,,,,,,,,,,,,,,,,,,,,,,,,516.463,518.7959,"[3,5,8,2,6,7,4,1]","[[-0.3,0.2],[0.3,0.2]]","[[0.125,-0.2],[-0.125,-0.2]]",0.150715072,-0.228272827,1,0,0,1.8264,o1_image,518.8028,0,519.3029,519.3029,521.3026,0,0,0,0,1,,,,,,,,,,,,,,,,,,,,,,,,,,,,,,,,,,,,,,,,,,,,,,,,,,
,,5ecd2230b3956a034ebcc660,24,male,2024-04-19_18h37.14.665,stockport_simplified,2022.2.4,Win32,75.18796992,661e456ee6de07e70aa9ef7b,66229da66d0e3a5d98290f45,,,,,,,,,,,,,,,,,,,,,,,,,,,,,,,,,,,,,,,,,,,,,,,,,,,,,,,,1,26,86,27,1,N,M,D,o2_image,stimuli/out2.png,stimuli/out1.png,stimuli/correct_out2.png,,,,,,,,,,,,,,,,,,,,,,,,,,,,,,,,,,,,,,
,,5ecd2230b3956a034ebcc660,24,male,2024-04-19_18h37.14.665,stockport_simplified,2022.2.4,Win32,75.18796992,661e456ee6de07e70aa9ef7b,66229da66d0e3a5d98290f45,,,,,,,,,,,,,,,,,,,,,,,,,,,,,,,,,,521.303,523.4759,"[3,5,8,2,6,7,4,1]","[[0.3,0.2],[-0.3,0.2]]","[[-0.125,-0.2],[0.125,-0.2]]",-0.179317932,-0.196369637,1,0,0,1.6662,o1_image,523.4763,1,523.9692,523.9692,525.9694,0,0,0,0,1,,,,,,,,,,,,,,,,,,,,,,,,,,,,,,,,,,,,,,,,,,,,,,,,,,
,,5ecd2230b3956a034ebcc660,24,male,2024-04-19_18h37.14.665,stockport_simplified,2022.2.4,Win32,75.18796992,661e456ee6de07e70aa9ef7b,66229da66d0e3a5d98290f45,,,,,,,,,,,,,,,,,,,,,,,,,,,,,,,,,,,,,,,,,,,,,,,,,,,,,,,,1,27,87,39,1,A,Y,N,o1_image,stimuli/out1.png,stimuli/correct_out1.png,stimuli/out2.png,,,,,,,,,,,,,,,,,,,,,,,,,,,,,,,,,,,,,,
,,5ecd2230b3956a034ebcc660,24,male,2024-04-19_18h37.14.665,stockport_simplified,2022.2.4,Win32,75.18796992,661e456ee6de07e70aa9ef7b,66229da66d0e3a5d98290f45,,,,,,,,,,,,,,,,,,,,,,,,,,,,,,,,,,525.9697,528.0626,"[3,5,8,2,6,7,4,1]","[[0.3,0.2],[-0.3,0.2]]","[[-0.125,-0.2],[0.125,-0.2]]",0.064906491,-0.184268427,1,0,0,1.5862,o2_image,528.0631,1,528.5559,528.5559,530.5559,0,0,0,0,1,,,,,,,,,,,,,,,,,,,,,,,,,,,,,,,,,,,,,,,,,,,,,,,,,,
,,5ecd2230b3956a034ebcc660,24,male,2024-04-19_18h37.14.665,stockport_simplified,2022.2.4,Win32,75.18796992,661e456ee6de07e70aa9ef7b,66229da66d0e3a5d98290f45,,,,,,,,,,,,,,,,,,,,,,,,,,,,,,,,,,,,,,,,,,,,,,,,,,,,,,,,1,28,88,47,1,B,Y,N,o2_image,stimuli/out2.png,stimuli/out1.png,stimuli/correct_out2.png,,,,,,,,,,,,,,,,,,,,,,,,,,,,,,,,,,,,,,
,,5ecd2230b3956a034ebcc660,24,male,2024-04-19_18h37.14.665,stockport_simplified,2022.2.4,Win32,75.18796992,661e456ee6de07e70aa9ef7b,66229da66d0e3a5d98290f45,,,,,,,,,,,,,,,,,,,,,,,,,,,,,,,,,,530.5562,532.6092,"[3,5,8,2,6,7,4,1]","[[-0.3,0.2],[0.3,0.2]]","[[0.125,-0.2],[-0.125,-0.2]]",-0.097909791,-0.207370737,1,0,0,1.5464,o2_image,532.6096,1,533.1026,533.1026,535.1025,0,0,0,0,1,,,,,,,,,,,,,,,,,,,,,,,,,,,,,,,,,,,,,,,,,,,,,,,,,,
,,5ecd2230b3956a034ebcc660,24,male,2024-04-19_18h37.14.665,stockport_simplified,2022.2.4,Win32,75.18796992,661e456ee6de07e70aa9ef7b,66229da66d0e3a5d98290f45,,,,,,,,,,,,,,,,,,,,,,,,,,,,,,,,,,,,,,,,,,,,,,,,,,,,,,,,1,29,89,55,1,N,M,D,o2_image,stimuli/out2.png,stimuli/out1.png,stimuli/correct_out2.png,,,,,,,,,,,,,,,,,,,,,,,,,,,,,,,,,,,,,,
,,5ecd2230b3956a034ebcc660,24,male,2024-04-19_18h37.14.665,stockport_simplified,2022.2.4,Win32,75.18796992,661e456ee6de07e70aa9ef7b,66229da66d0e3a5d98290f45,,,,,,,,,,,,,,,,,,,,,,,,,,,,,,,,,,535.1027,536.7425,"[3,5,8,2,6,7,4,1]","[[-0.3,0.2],[0.3,0.2]]","[[-0.125,-0.2],[0.125,-0.2]]",0.094609461,-0.171067107,1,0,0,1.1332,o2_image,536.7428,1,537.236,537.236,539.2359,0,0,0,0,1,,,,,,,,,,,,,,,,,,,,,,,,,,,,,,,,,,,,,,,,,,,,,,,,,,
,,5ecd2230b3956a034ebcc660,24,male,2024-04-19_18h37.14.665,stockport_simplified,2022.2.4,Win32,75.18796992,661e456ee6de07e70aa9ef7b,66229da66d0e3a5d98290f45,,,,,,,,,,,,,,,,,,,,,,,,,,,,,,,,,,,,,,,,,,,,,,,,,,,,,,,,1,30,90,28,1,N,M,D,o2_image,stimuli/out2.png,stimuli/out1.png,stimuli/correct_out2.png,,,,,,,,,,,,,,,,,,,,,,,,,,,,,,,,,,,,,,
,,5ecd2230b3956a034ebcc660,24,male,2024-04-19_18h37.14.665,stockport_simplified,2022.2.4,Win32,75.18796992,661e456ee6de07e70aa9ef7b,66229da66d0e3a5d98290f45,,,,,,,,,,,,,,,,,,,,,,,,,,,,,,,,,,539.2362,541.5026,"[3,5,8,2,6,7,4,1]","[[0.3,0.2],[-0.3,0.2]]","[[0.125,-0.2],[-0.125,-0.2]]",0.097909791,-0.188668867,1,0,0,1.7596,o1_image,541.5031,1,541.996,541.996,543.996,0,0,0,0,1,,,,,,,,,,,,,,,,,,,,,,,,,,,,,,,,,,,,,,,,,,,,,,,,,,
,,5ecd2230b3956a034ebcc660,24,male,2024-04-19_18h37.14.665,stockport_simplified,2022.2.4,Win32,75.18796992,661e456ee6de07e70aa9ef7b,66229da66d0e3a5d98290f45,,,,,,,,,,,,,,,,,,,,,,,,,,,,,,,,,,,,,,,,,,,,,,,,,,,,,,,,1,31,91,54,1,N,M,C,o1_image,stimuli/out1.png,stimuli/correct_out1.png,stimuli/out2.png,,,,,,,,,,,,,,,,,,,,,,,,,,,,,,,,,,,,,,
,,5ecd2230b3956a034ebcc660,24,male,2024-04-19_18h37.14.665,stockport_simplified,2022.2.4,Win32,75.18796992,661e456ee6de07e70aa9ef7b,66229da66d0e3a5d98290f45,,,,,,,,,,,,,,,,,,,,,,,,,,,,,,,,,,543.9963,547.0225,"[3,5,8,2,6,7,4,1]","[[-0.3,0.2],[0.3,0.2]]","[[-0.125,-0.2],[0.125,-0.2]]",-0.123212321,-0.186468647,1,0,0,2.5197,o1_image,547.0294,1,547.5292,547.5292,549.5292,0,0,0,0,1,,,,,,,,,,,,,,,,,,,,,,,,,,,,,,,,,,,,,,,,,,,,,,,,,,
,,5ecd2230b3956a034ebcc660,24,male,2024-04-19_18h37.14.665,stockport_simplified,2022.2.4,Win32,75.18796992,661e456ee6de07e70aa9ef7b,66229da66d0e3a5d98290f45,,,,,,,,,,,,,,,,,,,,,,,,,,,,,,,,,,,,,,,,,,,,,,,,,,,,,,,,1,32,92,38,1,A,Y,N,o1_image,stimuli/out1.png,stimuli/correct_out1.png,stimuli/out2.png,,,,,,,,,,,,,,,,,,,,,,,,,,,,,,,,,,,,,,
,,5ecd2230b3956a034ebcc660,24,male,2024-04-19_18h37.14.665,stockport_simplified,2022.2.4,Win32,75.18796992,661e456ee6de07e70aa9ef7b,66229da66d0e3a5d98290f45,,,,,,,,,,,,,,,,,,,,,,,,,,,,,,,,,,549.5294,551.4358,"[3,5,8,2,6,7,4,1]","[[-0.3,0.2],[0.3,0.2]]","[[-0.125,-0.2],[0.125,-0.2]]",-0.151815182,-0.173267327,1,0,0,1.4,o1_image,551.4361,1,551.9293,551.9293,553.9292,0,0,0,0,1,,,,,,,,,,,,,,,,,,,,,,,,,,,,,,,,,,,,,,,,,,,,,,,,,,
,,5ecd2230b3956a034ebcc660,24,male,2024-04-19_18h37.14.665,stockport_simplified,2022.2.4,Win32,75.18796992,661e456ee6de07e70aa9ef7b,66229da66d0e3a5d98290f45,,,,,,,,,,,,,,,,,,,,,,,,,,,,,,,,,,,,,,,,,,,,,,,,,,,,,,,,1,33,93,9,1,A,Y,N,o1_image,stimuli/out1.png,stimuli/correct_out1.png,stimuli/out2.png,,,,,,,,,,,,,,,,,,,,,,,,,,,,,,,,,,,,,,
,,5ecd2230b3956a034ebcc660,24,male,2024-04-19_18h37.14.665,stockport_simplified,2022.2.4,Win32,75.18796992,661e456ee6de07e70aa9ef7b,66229da66d0e3a5d98290f45,,,,,,,,,,,,,,,,,,,,,,,,,,,,,,,,,,553.9295,555.6225,"[3,5,8,2,6,7,4,1]","[[-0.3,0.2],[0.3,0.2]]","[[0.125,-0.2],[-0.125,-0.2]]",0.086908691,-0.168866887,1,0,0,1.1862,o1_image,555.6228,1,556.116,556.116,558.1158,0,0,0,0,1,,,,,,,,,,,,,,,,,,,,,,,,,,,,,,,,,,,,,,,,,,,,,,,,,,
,,5ecd2230b3956a034ebcc660,24,male,2024-04-19_18h37.14.665,stockport_simplified,2022.2.4,Win32,75.18796992,661e456ee6de07e70aa9ef7b,66229da66d0e3a5d98290f45,,,,,,,,,,,,,,,,,,,,,,,,,,,,,,,,,,,,,,,,,,,,,,,,,,,,,,,,1,34,94,21,1,N,M,C,o1_image,stimuli/out1.png,stimuli/correct_out1.png,stimuli/out2.png,,,,,,,,,,,,,,,,,,,,,,,,,,,,,,,,,,,,,,
,,5ecd2230b3956a034ebcc660,24,male,2024-04-19_18h37.14.665,stockport_simplified,2022.2.4,Win32,75.18796992,661e456ee6de07e70aa9ef7b,66229da66d0e3a5d98290f45,,,,,,,,,,,,,,,,,,,,,,,,,,,,,,,,,,558.116,560.1958,"[3,5,8,2,6,7,4,1]","[[-0.3,0.2],[0.3,0.2]]","[[0.125,-0.2],[-0.125,-0.2]]",0.067106711,-0.163366337,1,0,0,1.5732,o1_image,560.1963,1,560.6892,560.6892,562.6891,0,0,0,0,1,,,,,,,,,,,,,,,,,,,,,,,,,,,,,,,,,,,,,,,,,,,,,,,,,,
,,5ecd2230b3956a034ebcc660,24,male,2024-04-19_18h37.14.665,stockport_simplified,2022.2.4,Win32,75.18796992,661e456ee6de07e70aa9ef7b,66229da66d0e3a5d98290f45,,,,,,,,,,,,,,,,,,,,,,,,,,,,,,,,,,,,,,,,,,,,,,,,,,,,,,,,1,35,95,33,1,A,X,N,o1_image,stimuli/out1.png,stimuli/correct_out1.png,stimuli/out2.png,,,,,,,,,,,,,,,,,,,,,,,,,,,,,,,,,,,,,,
,,5ecd2230b3956a034ebcc660,24,male,2024-04-19_18h37.14.665,stockport_simplified,2022.2.4,Win32,75.18796992,661e456ee6de07e70aa9ef7b,66229da66d0e3a5d98290f45,,,,,,,,,,,,,,,,,,,,,,,,,,,,,,,,,,562.6893,564.9159,"[3,5,8,2,6,7,4,1]","[[0.3,0.2],[-0.3,0.2]]","[[-0.125,-0.2],[0.125,-0.2]]",-0.061606161,-0.190869087,1,0,0,1.7198,o1_image,564.9229,1,565.4226,565.4226,567.4225,0,0,0,0,1,,,,,,,,,,,,,,,,,,,,,,,,,,,,,,,,,,,,,,,,,,,,,,,,,,
,,5ecd2230b3956a034ebcc660,24,male,2024-04-19_18h37.14.665,stockport_simplified,2022.2.4,Win32,75.18796992,661e456ee6de07e70aa9ef7b,66229da66d0e3a5d98290f45,,,,,,,,,,,,,,,,,,,,,,,,,,,,,,,,,,,,,,,,,,,,,,,,,,,,,,,,1,36,96,51,1,N,M,C,o1_image,stimuli/out1.png,stimuli/correct_out1.png,stimuli/out2.png,,,,,,,,,,,,,,,,,,,,,,,,,,,,,,,,,,,,,,
,,5ecd2230b3956a034ebcc660,24,male,2024-04-19_18h37.14.665,stockport_simplified,2022.2.4,Win32,75.18796992,661e456ee6de07e70aa9ef7b,66229da66d0e3a5d98290f45,,,,,,,,,,,,,,,,,,,,,,,,,,,,,,,,,,567.4227,569.8492,"[3,5,8,2,6,7,4,1]","[[0.3,0.2],[-0.3,0.2]]","[[-0.125,-0.2],[0.125,-0.2]]",0.151815182,-0.176567657,1,0,0,1.9198,o2_image,569.8496,1,570.3426,570.3426,572.3424,0,0,0,0,1,,,,,,,,,,,,,,,,,,,,,,,,,,,,,,,,,,,,,,,,,,,,,,,,,,
,,5ecd2230b3956a034ebcc660,24,male,2024-04-19_18h37.14.665,stockport_simplified,2022.2.4,Win32,75.18796992,661e456ee6de07e70aa9ef7b,66229da66d0e3a5d98290f45,,,,,,,,,,,,,,,,,,,,,,,,,,,,,,,,,,,,,,,,,,,,,,,,,,,,,,,,1,37,97,42,1,B,X,N,o2_image,stimuli/out2.png,stimuli/out1.png,stimuli/correct_out2.png,,,,,,,,,,,,,,,,,,,,,,,,,,,,,,,,,,,,,,
,,5ecd2230b3956a034ebcc660,24,male,2024-04-19_18h37.14.665,stockport_simplified,2022.2.4,Win32,75.18796992,661e456ee6de07e70aa9ef7b,66229da66d0e3a5d98290f45,,,,,,,,,,,,,,,,,,,,,,,,,,,,,,,,,,572.3426,575.0759,"[3,5,8,2,6,7,4,1]","[[0.3,0.2],[-0.3,0.2]]","[[-0.125,-0.2],[0.125,-0.2]]",0.123212321,-0.240374037,1,0,0,2.2266,o2_image,575.0829,1,575.5826,575.5826,577.5825,0,0,0,0,1,,,,,,,,,,,,,,,,,,,,,,,,,,,,,,,,,,,,,,,,,,,,,,,,,,
,,5ecd2230b3956a034ebcc660,24,male,2024-04-19_18h37.14.665,stockport_simplified,2022.2.4,Win32,75.18796992,661e456ee6de07e70aa9ef7b,66229da66d0e3a5d98290f45,,,,,,,,,,,,,,,,,,,,,,,,,,,,,,,,,,,,,,,,,,,,,,,,,,,,,,,,1,38,98,17,1,B,Y,N,o2_image,stimuli/out2.png,stimuli/out1.png,stimuli/correct_out2.png,,,,,,,,,,,,,,,,,,,,,,,,,,,,,,,,,,,,,,
,,5ecd2230b3956a034ebcc660,24,male,2024-04-19_18h37.14.665,stockport_simplified,2022.2.4,Win32,75.18796992,661e456ee6de07e70aa9ef7b,66229da66d0e3a5d98290f45,,,,,,,,,,,,,,,,,,,,,,,,,,,,,,,,,,577.5827,579.2359,"[3,5,8,2,6,7,4,1]","[[-0.3,0.2],[0.3,0.2]]","[[0.125,-0.2],[-0.125,-0.2]]",-0.091309131,-0.185368537,1,0,0,1.1465,o2_image,579.2363,0,579.7292,579.7292,581.7292,0,0,0,0,1,,,,,,,,,,,,,,,,,,,,,,,,,,,,,,,,,,,,,,,,,,,,,,,,,,
,,5ecd2230b3956a034ebcc660,24,male,2024-04-19_18h37.14.665,stockport_simplified,2022.2.4,Win32,75.18796992,661e456ee6de07e70aa9ef7b,66229da66d0e3a5d98290f45,,,,,,,,,,,,,,,,,,,,,,,,,,,,,,,,,,,,,,,,,,,,,,,,,,,,,,,,1,39,99,30,1,A,X,N,o1_image,stimuli/out1.png,stimuli/correct_out1.png,stimuli/out2.png,,,,,,,,,,,,,,,,,,,,,,,,,,,,,,,,,,,,,,
,,5ecd2230b3956a034ebcc660,24,male,2024-04-19_18h37.14.665,stockport_simplified,2022.2.4,Win32,75.18796992,661e456ee6de07e70aa9ef7b,66229da66d0e3a5d98290f45,,,,,,,,,,,,,,,,,,,,,,,,,,,,,,,,,,581.7295,583.9026,"[3,5,8,2,6,7,4,1]","[[-0.3,0.2],[0.3,0.2]]","[[-0.125,-0.2],[0.125,-0.2]]",-0.113311331,-0.180968097,1,0,0,1.6664,o1_image,583.903,1,584.3959,584.3959,586.3959,0,0,0,0,1,,,,,,,,,,,,,,,,,,,,,,,,,,,,,,,,,,,,,,,,,,,,,,,,,,
,,5ecd2230b3956a034ebcc660,24,male,2024-04-19_18h37.14.665,stockport_simplified,2022.2.4,Win32,75.18796992,661e456ee6de07e70aa9ef7b,66229da66d0e3a5d98290f45,,,,,,,,,,,,,,,,,,,,,,,,,,,,,,,,,,,,,,,,,,,,,,,,,,,,,,,,1,40,100,37,1,A,Y,N,o1_image,stimuli/out1.png,stimuli/correct_out1.png,stimuli/out2.png,,,,,,,,,,,,,,,,,,,,,,,,,,,,,,,,,,,,,,
,,5ecd2230b3956a034ebcc660,24,male,2024-04-19_18h37.14.665,stockport_simplified,2022.2.4,Win32,75.18796992,661e456ee6de07e70aa9ef7b,66229da66d0e3a5d98290f45,,,,,,,,,,,,,,,,,,,,,,,,,,,,,,,,,,586.3961,589.1825,"[3,5,8,2,6,7,4,1]","[[-0.3,0.2],[0.3,0.2]]","[[-0.125,-0.2],[0.125,-0.2]]",0.106710671,-0.215071507,1,0,0,2.2798,o2_image,589.1897,1,589.6892,589.6892,591.6892,0,0,0,0,1,,,,,,,,,,,,,,,,,,,,,,,,,,,,,,,,,,,,,,,,,,,,,,,,,,
,,5ecd2230b3956a034ebcc660,24,male,2024-04-19_18h37.14.665,stockport_simplified,2022.2.4,Win32,75.18796992,661e456ee6de07e70aa9ef7b,66229da66d0e3a5d98290f45,,,,,,,,,,,,,,,,,,,,,,,,,,,,,,,,,,,,,,,,,,,,,,,,,,,,,,,,1,41,101,11,1,B,X,N,o2_image,stimuli/out2.png,stimuli/out1.png,stimuli/correct_out2.png,,,,,,,,,,,,,,,,,,,,,,,,,,,,,,,,,,,,,,
,,5ecd2230b3956a034ebcc660,24,male,2024-04-19_18h37.14.665,stockport_simplified,2022.2.4,Win32,75.18796992,661e456ee6de07e70aa9ef7b,66229da66d0e3a5d98290f45,,,,,,,,,,,,,,,,,,,,,,,,,,,,,,,,,,591.6895,594.3425,"[3,5,8,2,6,7,4,1]","[[0.3,0.2],[-0.3,0.2]]","[[0.125,-0.2],[-0.125,-0.2]]",0.0440044,-0.188668867,1,0,0,1.6662,o1_image,594.343,1,594.8359,594.8359,596.836,0,0,0,0,1,,,,,,,,,,,,,,,,,,,,,,,,,,,,,,,,,,,,,,,,,,,,,,,,,,
,,5ecd2230b3956a034ebcc660,24,male,2024-04-19_18h37.14.665,stockport_simplified,2022.2.4,Win32,75.18796992,661e456ee6de07e70aa9ef7b,66229da66d0e3a5d98290f45,,,,,,,,,,,,,,,,,,,,,,,,,,,,,,,,,,,,,,,,,,,,,,,,,,,,,,,,1,42,102,8,1,A,Y,N,o1_image,stimuli/out1.png,stimuli/correct_out1.png,stimuli/out2.png,,,,,,,,,,,,,,,,,,,,,,,,,,,,,,,,,,,,,,
,,5ecd2230b3956a034ebcc660,24,male,2024-04-19_18h37.14.665,stockport_simplified,2022.2.4,Win32,75.18796992,661e456ee6de07e70aa9ef7b,66229da66d0e3a5d98290f45,,,,,,,,,,,,,,,,,,,,,,,,,,,,,,,,,,596.8364,598.9424,"[3,5,8,2,6,7,4,1]","[[0.3,0.2],[-0.3,0.2]]","[[-0.125,-0.2],[0.125,-0.2]]",0.078107811,-0.196369637,1,0,0,1.5996,o2_image,598.9428,1,599.4361,599.4361,601.4358,0,0,0,0,1,,,,,,,,,,,,,,,,,,,,,,,,,,,,,,,,,,,,,,,,,,,,,,,,,,
,,5ecd2230b3956a034ebcc660,24,male,2024-04-19_18h37.14.665,stockport_simplified,2022.2.4,Win32,75.18796992,661e456ee6de07e70aa9ef7b,66229da66d0e3a5d98290f45,,,,,,,,,,,,,,,,,,,,,,,,,,,,,,,,,,,,,,,,,,,,,,,,,,,,,,,,1,43,103,26,1,N,M,D,o2_image,stimuli/out2.png,stimuli/out1.png,stimuli/correct_out2.png,,,,,,,,,,,,,,,,,,,,,,,,,,,,,,,,,,,,,,
,,5ecd2230b3956a034ebcc660,24,male,2024-04-19_18h37.14.665,stockport_simplified,2022.2.4,Win32,75.18796992,661e456ee6de07e70aa9ef7b,66229da66d0e3a5d98290f45,,,,,,,,,,,,,,,,,,,,,,,,,,,,,,,,,,601.4361,603.9025,"[3,5,8,2,6,7,4,1]","[[0.3,0.2],[-0.3,0.2]]","[[-0.125,-0.2],[0.125,-0.2]]",0.145214521,-0.221672167,1,0,0,1.9596,o2_image,603.9028,1,604.3958,604.3959,606.3958,0,0,0,0,1,,,,,,,,,,,,,,,,,,,,,,,,,,,,,,,,,,,,,,,,,,,,,,,,,,
,,5ecd2230b3956a034ebcc660,24,male,2024-04-19_18h37.14.665,stockport_simplified,2022.2.4,Win32,75.18796992,661e456ee6de07e70aa9ef7b,66229da66d0e3a5d98290f45,,,,,,,,,,,,,,,,,,,,,,,,,,,,,,,,,,,,,,,,,,,,,,,,,,,,,,,,1,44,104,14,1,B,X,N,o2_image,stimuli/out2.png,stimuli/out1.png,stimuli/correct_out2.png,,,,,,,,,,,,,,,,,,,,,,,,,,,,,,,,,,,,,,
,,5ecd2230b3956a034ebcc660,24,male,2024-04-19_18h37.14.665,stockport_simplified,2022.2.4,Win32,75.18796992,661e456ee6de07e70aa9ef7b,66229da66d0e3a5d98290f45,,,,,,,,,,,,,,,,,,,,,,,,,,,,,,,,,,606.396,608.4757,"[3,5,8,2,6,7,4,1]","[[0.3,0.2],[-0.3,0.2]]","[[-0.125,-0.2],[0.125,-0.2]]",0.088008801,-0.172167217,1,0,0,1.5733,o2_image,608.4761,1,608.9692,608.9692,610.9692,0,0,0,0,1,,,,,,,,,,,,,,,,,,,,,,,,,,,,,,,,,,,,,,,,,,,,,,,,,,
,,5ecd2230b3956a034ebcc660,24,male,2024-04-19_18h37.14.665,stockport_simplified,2022.2.4,Win32,75.18796992,661e456ee6de07e70aa9ef7b,66229da66d0e3a5d98290f45,,,,,,,,,,,,,,,,,,,,,,,,,,,,,,,,,,,,,,,,,,,,,,,,,,,,,,,,1,45,105,43,1,B,X,N,o2_image,stimuli/out2.png,stimuli/out1.png,stimuli/correct_out2.png,,,,,,,,,,,,,,,,,,,,,,,,,,,,,,,,,,,,,,
,,5ecd2230b3956a034ebcc660,24,male,2024-04-19_18h37.14.665,stockport_simplified,2022.2.4,Win32,75.18796992,661e456ee6de07e70aa9ef7b,66229da66d0e3a5d98290f45,,,,,,,,,,,,,,,,,,,,,,,,,,,,,,,,,,610.9693,612.9823,"[3,5,8,2,6,7,4,1]","[[-0.3,0.2],[0.3,0.2]]","[[0.125,-0.2],[-0.125,-0.2]]",0.108910891,-0.206270627,1,0,0,1.5063,o1_image,612.9827,1,613.4761,613.4761,615.4758,0,0,0,0,1,,,,,,,,,,,,,,,,,,,,,,,,,,,,,,,,,,,,,,,,,,,,,,,,,,
,,5ecd2230b3956a034ebcc660,24,male,2024-04-19_18h37.14.665,stockport_simplified,2022.2.4,Win32,75.18796992,661e456ee6de07e70aa9ef7b,66229da66d0e3a5d98290f45,,,,,,,,,,,,,,,,,,,,,,,,,,,,,,,,,,,,,,,,,,,,,,,,,,,,,,,,1,46,106,53,1,N,M,C,o1_image,stimuli/out1.png,stimuli/correct_out1.png,stimuli/out2.png,,,,,,,,,,,,,,,,,,,,,,,,,,,,,,,,,,,,,,
,,5ecd2230b3956a034ebcc660,24,male,2024-04-19_18h37.14.665,stockport_simplified,2022.2.4,Win32,75.18796992,661e456ee6de07e70aa9ef7b,66229da66d0e3a5d98290f45,,,,,,,,,,,,,,,,,,,,,,,,,,,,,,,,,,615.476,617.409,"[3,5,8,2,6,7,4,1]","[[-0.3,0.2],[0.3,0.2]]","[[-0.125,-0.2],[0.125,-0.2]]",0.078107811,-0.174367437,1,0,0,1.4263,o2_image,617.4094,1,617.9024,617.9024,619.9024,0,0,0,0,1,,,,,,,,,,,,,,,,,,,,,,,,,,,,,,,,,,,,,,,,,,,,,,,,,,
,,5ecd2230b3956a034ebcc660,24,male,2024-04-19_18h37.14.665,stockport_simplified,2022.2.4,Win32,75.18796992,661e456ee6de07e70aa9ef7b,66229da66d0e3a5d98290f45,,,,,,,,,,,,,,,,,,,,,,,,,,,,,,,,,,,,,,,,,,,,,,,,,,,,,,,,1,47,107,40,1,B,X,N,o2_image,stimuli/out2.png,stimuli/out1.png,stimuli/correct_out2.png,,,,,,,,,,,,,,,,,,,,,,,,,,,,,,,,,,,,,,
,,5ecd2230b3956a034ebcc660,24,male,2024-04-19_18h37.14.665,stockport_simplified,2022.2.4,Win32,75.18796992,661e456ee6de07e70aa9ef7b,66229da66d0e3a5d98290f45,,,,,,,,,,,,,,,,,,,,,,,,,,,,,,,,,,619.9026,621.7557,"[3,5,8,2,6,7,4,1]","[[-0.3,0.2],[0.3,0.2]]","[[-0.125,-0.2],[0.125,-0.2]]",-0.129812981,-0.200770077,1,0,0,1.3464,o1_image,621.756,1,622.2493,622.2493,624.2491,0,0,0,0,1,,,,,,,,,,,,,,,,,,,,,,,,,,,,,,,,,,,,,,,,,,,,,,,,,,
,,5ecd2230b3956a034ebcc660,24,male,2024-04-19_18h37.14.665,stockport_simplified,2022.2.4,Win32,75.18796992,661e456ee6de07e70aa9ef7b,66229da66d0e3a5d98290f45,,,,,,,,,,,,,,,,,,,,,,,,,,,,,,,,,,,,,,,,,,,,,,,,,,,,,,,,1,48,108,32,1,A,X,N,o1_image,stimuli/out1.png,stimuli/correct_out1.png,stimuli/out2.png,,,,,,,,,,,,,,,,,,,,,,,,,,,,,,,,,,,,,,
,,5ecd2230b3956a034ebcc660,24,male,2024-04-19_18h37.14.665,stockport_simplified,2022.2.4,Win32,75.18796992,661e456ee6de07e70aa9ef7b,66229da66d0e3a5d98290f45,,,,,,,,,,,,,,,,,,,,,,,,,,,,,,,,,,624.2494,626.1291,"[3,5,8,2,6,7,4,1]","[[0.3,0.2],[-0.3,0.2]]","[[-0.125,-0.2],[0.125,-0.2]]",-0.102310231,-0.189768977,1,0,0,1.3728,o1_image,626.1293,1,626.6225,626.6225,628.6224,0,0,0,0,1,,,,,,,,,,,,,,,,,,,,,,,,,,,,,,,,,,,,,,,,,,,,,,,,,,
,,5ecd2230b3956a034ebcc660,24,male,2024-04-19_18h37.14.665,stockport_simplified,2022.2.4,Win32,75.18796992,661e456ee6de07e70aa9ef7b,66229da66d0e3a5d98290f45,,,,,,,,,,,,,,,,,,,,,,,,,,,,,,,,,,,,,,,,,,,,,,,,,,,,,,,,1,49,109,22,1,N,M,C,o1_image,stimuli/out1.png,stimuli/correct_out1.png,stimuli/out2.png,,,,,,,,,,,,,,,,,,,,,,,,,,,,,,,,,,,,,,
,,5ecd2230b3956a034ebcc660,24,male,2024-04-19_18h37.14.665,stockport_simplified,2022.2.4,Win32,75.18796992,661e456ee6de07e70aa9ef7b,66229da66d0e3a5d98290f45,,,,,,,,,,,,,,,,,,,,,,,,,,,,,,,,,,628.6226,632.1558,"[3,5,8,2,6,7,4,1]","[[0.3,0.2],[-0.3,0.2]]","[[-0.125,-0.2],[0.125,-0.2]]",0.115511551,-0.204070407,1,0,0,3.0266,o2_image,632.1629,1,632.6627,632.6627,634.6624,0,0,0,0,1,,,,,,,,,,,,,,,,,,,,,,,,,,,,,,,,,,,,,,,,,,,,,,,,,,
,,5ecd2230b3956a034ebcc660,24,male,2024-04-19_18h37.14.665,stockport_simplified,2022.2.4,Win32,75.18796992,661e456ee6de07e70aa9ef7b,66229da66d0e3a5d98290f45,,,,,,,,,,,,,,,,,,,,,,,,,,,,,,,,,,,,,,,,,,,,,,,,,,,,,,,,1,50,110,15,1,B,Y,N,o2_image,stimuli/out2.png,stimuli/out1.png,stimuli/correct_out2.png,,,,,,,,,,,,,,,,,,,,,,,,,,,,,,,,,,,,,,
,,5ecd2230b3956a034ebcc660,24,male,2024-04-19_18h37.14.665,stockport_simplified,2022.2.4,Win32,75.18796992,661e456ee6de07e70aa9ef7b,66229da66d0e3a5d98290f45,,,,,,,,,,,,,,,,,,,,,,,,,,,,,,,,,,634.6625,636.7025,"[3,5,8,2,6,7,4,1]","[[0.3,0.2],[-0.3,0.2]]","[[-0.125,-0.2],[0.125,-0.2]]",0.097909791,-0.204070407,1,0,0,1.5331,o2_image,636.7028,1,637.1959,637.1959,639.1958,0,0,0,0,1,,,,,,,,,,,,,,,,,,,,,,,,,,,,,,,,,,,,,,,,,,,,,,,,,,
,,5ecd2230b3956a034ebcc660,24,male,2024-04-19_18h37.14.665,stockport_simplified,2022.2.4,Win32,75.18796992,661e456ee6de07e70aa9ef7b,66229da66d0e3a5d98290f45,,,,,,,,,,,,,,,,,,,,,,,,,,,,,,,,,,,,,,,,,,,,,,,,,,,,,,,,1,51,111,59,1,N,M,D,o2_image,stimuli/out2.png,stimuli/out1.png,stimuli/correct_out2.png,,,,,,,,,,,,,,,,,,,,,,,,,,,,,,,,,,,,,,
,,5ecd2230b3956a034ebcc660,24,male,2024-04-19_18h37.14.665,stockport_simplified,2022.2.4,Win32,75.18796992,661e456ee6de07e70aa9ef7b,66229da66d0e3a5d98290f45,,,,,,,,,,,,,,,,,,,,,,,,,,,,,,,,,,639.1961,641.329,"[3,5,8,2,6,7,4,1]","[[0.3,0.2],[-0.3,0.2]]","[[-0.125,-0.2],[0.125,-0.2]]",-0.126512651,-0.201870187,1,0,0,1.6264,o1_image,641.3293,1,641.8224,641.8225,643.8223,0,0,0,0,1,,,,,,,,,,,,,,,,,,,,,,,,,,,,,,,,,,,,,,,,,,,,,,,,,,
,,5ecd2230b3956a034ebcc660,24,male,2024-04-19_18h37.14.665,stockport_simplified,2022.2.4,Win32,75.18796992,661e456ee6de07e70aa9ef7b,66229da66d0e3a5d98290f45,,,,,,,,,,,,,,,,,,,,,,,,,,,,,,,,,,,,,,,,,,,,,,,,,,,,,,,,1,52,112,6,1,A,Y,N,o1_image,stimuli/out1.png,stimuli/correct_out1.png,stimuli/out2.png,,,,,,,,,,,,,,,,,,,,,,,,,,,,,,,,,,,,,,
,,5ecd2230b3956a034ebcc660,24,male,2024-04-19_18h37.14.665,stockport_simplified,2022.2.4,Win32,75.18796992,661e456ee6de07e70aa9ef7b,66229da66d0e3a5d98290f45,,,,,,,,,,,,,,,,,,,,,,,,,,,,,,,,,,643.8225,646.2757,"[3,5,8,2,6,7,4,1]","[[-0.3,0.2],[0.3,0.2]]","[[-0.125,-0.2],[0.125,-0.2]]",0.184818482,-0.265676568,1,0,0,1.9464,o2_image,646.2761,1,646.7693,646.7694,648.7691,0,0,0,0,1,,,,,,,,,,,,,,,,,,,,,,,,,,,,,,,,,,,,,,,,,,,,,,,,,,
,,5ecd2230b3956a034ebcc660,24,male,2024-04-19_18h37.14.665,stockport_simplified,2022.2.4,Win32,75.18796992,661e456ee6de07e70aa9ef7b,66229da66d0e3a5d98290f45,,,,,,,,,,,,,,,,,,,,,,,,,,,,,,,,,,,,,,,,,,,,,,,,,,,,,,,,1,53,113,41,1,B,X,N,o2_image,stimuli/out2.png,stimuli/out1.png,stimuli/correct_out2.png,,,,,,,,,,,,,,,,,,,,,,,,,,,,,,,,,,,,,,
,,5ecd2230b3956a034ebcc660,24,male,2024-04-19_18h37.14.665,stockport_simplified,2022.2.4,Win32,75.18796992,661e456ee6de07e70aa9ef7b,66229da66d0e3a5d98290f45,,,,,,,,,,,,,,,,,,,,,,,,,,,,,,,,,,648.7694,650.9291,"[3,5,8,2,6,7,4,1]","[[-0.3,0.2],[0.3,0.2]]","[[-0.125,-0.2],[0.125,-0.2]]",0.187018702,-0.224972497,1,0,0,1.6533,o2_image,650.9363,1,651.436,651.436,653.4358,0,0,0,0,1,,,,,,,,,,,,,,,,,,,,,,,,,,,,,,,,,,,,,,,,,,,,,,,,,,
,,5ecd2230b3956a034ebcc660,24,male,2024-04-19_18h37.14.665,stockport_simplified,2022.2.4,Win32,75.18796992,661e456ee6de07e70aa9ef7b,66229da66d0e3a5d98290f45,,,,,,,,,,,,,,,,,,,,,,,,,,,,,,,,,,,,,,,,,,,,,,,,,,,,,,,,1,54,114,12,1,B,X,N,o2_image,stimuli/out2.png,stimuli/out1.png,stimuli/correct_out2.png,,,,,,,,,,,,,,,,,,,,,,,,,,,,,,,,,,,,,,
,,5ecd2230b3956a034ebcc660,24,male,2024-04-19_18h37.14.665,stockport_simplified,2022.2.4,Win32,75.18796992,661e456ee6de07e70aa9ef7b,66229da66d0e3a5d98290f45,,,,,,,,,,,,,,,,,,,,,,,,,,,,,,,,,,653.436,655.3158,"[3,5,8,2,6,7,4,1]","[[-0.3,0.2],[0.3,0.2]]","[[0.125,-0.2],[-0.125,-0.2]]",0.123212321,-0.182068207,1,0,0,1.3732,o1_image,655.3162,0,655.8093,655.8094,657.8091,0,0,0,0,1,,,,,,,,,,,,,,,,,,,,,,,,,,,,,,,,,,,,,,,,,,,,,,,,,,
,,5ecd2230b3956a034ebcc660,24,male,2024-04-19_18h37.14.665,stockport_simplified,2022.2.4,Win32,75.18796992,661e456ee6de07e70aa9ef7b,66229da66d0e3a5d98290f45,,,,,,,,,,,,,,,,,,,,,,,,,,,,,,,,,,,,,,,,,,,,,,,,,,,,,,,,1,55,115,44,1,B,X,N,o2_image,stimuli/out2.png,stimuli/out1.png,stimuli/correct_out2.png,,,,,,,,,,,,,,,,,,,,,,,,,,,,,,,,,,,,,,
,,5ecd2230b3956a034ebcc660,24,male,2024-04-19_18h37.14.665,stockport_simplified,2022.2.4,Win32,75.18796992,661e456ee6de07e70aa9ef7b,66229da66d0e3a5d98290f45,,,,,,,,,,,,,,,,,,,,,,,,,,,,,,,,,,657.8093,659.2757,"[3,5,8,2,6,7,4,1]","[[-0.3,0.2],[0.3,0.2]]","[[-0.125,-0.2],[0.125,-0.2]]",-0.04840484,-0.177667767,1,0,0,0.9597,o1_image,659.2761,1,659.769,659.769,661.7691,0,0,0,0,1,,,,,,,,,,,,,,,,,,,,,,,,,,,,,,,,,,,,,,,,,,,,,,,,,,
,,5ecd2230b3956a034ebcc660,24,male,2024-04-19_18h37.14.665,stockport_simplified,2022.2.4,Win32,75.18796992,661e456ee6de07e70aa9ef7b,66229da66d0e3a5d98290f45,,,,,,,,,,,,,,,,,,,,,,,,,,,,,,,,,,,,,,,,,,,,,,,,,,,,,,,,1,56,116,2,1,A,X,N,o1_image,stimuli/out1.png,stimuli/correct_out1.png,stimuli/out2.png,,,,,,,,,,,,,,,,,,,,,,,,,,,,,,,,,,,,,,
,,5ecd2230b3956a034ebcc660,24,male,2024-04-19_18h37.14.665,stockport_simplified,2022.2.4,Win32,75.18796992,661e456ee6de07e70aa9ef7b,66229da66d0e3a5d98290f45,,,,,,,,,,,,,,,,,,,,,,,,,,,,,,,,,,661.7693,663.7157,"[3,5,8,2,6,7,4,1]","[[-0.3,0.2],[0.3,0.2]]","[[-0.125,-0.2],[0.125,-0.2]]",0.075907591,-0.224972497,1,0,0,1.4397,o2_image,663.7161,1,664.209,664.209,666.209,0,0,0,0,1,,,,,,,,,,,,,,,,,,,,,,,,,,,,,,,,,,,,,,,,,,,,,,,,,,
,,5ecd2230b3956a034ebcc660,24,male,2024-04-19_18h37.14.665,stockport_simplified,2022.2.4,Win32,75.18796992,661e456ee6de07e70aa9ef7b,66229da66d0e3a5d98290f45,,,,,,,,,,,,,,,,,,,,,,,,,,,,,,,,,,,,,,,,,,,,,,,,,,,,,,,,1,57,117,58,1,N,M,D,o2_image,stimuli/out2.png,stimuli/out1.png,stimuli/correct_out2.png,,,,,,,,,,,,,,,,,,,,,,,,,,,,,,,,,,,,,,
,,5ecd2230b3956a034ebcc660,24,male,2024-04-19_18h37.14.665,stockport_simplified,2022.2.4,Win32,75.18796992,661e456ee6de07e70aa9ef7b,66229da66d0e3a5d98290f45,,,,,,,,,,,,,,,,,,,,,,,,,,,,,,,,,,666.2092,667.9156,"[3,5,8,2,6,7,4,1]","[[-0.3,0.2],[0.3,0.2]]","[[0.125,-0.2],[-0.125,-0.2]]",0.062706271,-0.191969197,1,0,0,1.1996,o1_image,667.9159,1,668.4091,668.4091,670.409,0,0,0,0,1,,,,,,,,,,,,,,,,,,,,,,,,,,,,,,,,,,,,,,,,,,,,,,,,,,
,,5ecd2230b3956a034ebcc660,24,male,2024-04-19_18h37.14.665,stockport_simplified,2022.2.4,Win32,75.18796992,661e456ee6de07e70aa9ef7b,66229da66d0e3a5d98290f45,,,,,,,,,,,,,,,,,,,,,,,,,,,,,,,,,,,,,,,,,,,,,,,,,,,,,,,,1,58,118,3,1,A,X,N,o1_image,stimuli/out1.png,stimuli/correct_out1.png,stimuli/out2.png,,,,,,,,,,,,,,,,,,,,,,,,,,,,,,,,,,,,,,
,,5ecd2230b3956a034ebcc660,24,male,2024-04-19_18h37.14.665,stockport_simplified,2022.2.4,Win32,75.18796992,661e456ee6de07e70aa9ef7b,66229da66d0e3a5d98290f45,,,,,,,,,,,,,,,,,,,,,,,,,,,,,,,,,,670.4092,672.4624,"[3,5,8,2,6,7,4,1]","[[0.3,0.2],[-0.3,0.2]]","[[-0.125,-0.2],[0.125,-0.2]]",0.093509351,-0.220572057,1,0,0,1.5465,o2_image,672.4627,1,672.9557,672.9557,674.9557,0,0,0,0,1,,,,,,,,,,,,,,,,,,,,,,,,,,,,,,,,,,,,,,,,,,,,,,,,,,
,,5ecd2230b3956a034ebcc660,24,male,2024-04-19_18h37.14.665,stockport_simplified,2022.2.4,Win32,75.18796992,661e456ee6de07e70aa9ef7b,66229da66d0e3a5d98290f45,,,,,,,,,,,,,,,,,,,,,,,,,,,,,,,,,,,,,,,,,,,,,,,,,,,,,,,,1,59,119,46,1,B,Y,N,o2_image,stimuli/out2.png,stimuli/out1.png,stimuli/correct_out2.png,,,,,,,,,,,,,,,,,,,,,,,,,,,,,,,,,,,,,,
,,5ecd2230b3956a034ebcc660,24,male,2024-04-19_18h37.14.665,stockport_simplified,2022.2.4,Win32,75.18796992,661e456ee6de07e70aa9ef7b,66229da66d0e3a5d98290f45,,,,,,,,,,,,,,,,,,,,,,,,,,,,,,,,,,674.9655,676.5157,"[3,5,8,2,6,7,4,1]","[[0.3,0.2],[-0.3,0.2]]","[[0.125,-0.2],[-0.125,-0.2]]",-0.138613861,-0.143564356,1,0,0,1.0397,o2_image,676.5162,1,677.0091,677.0092,679.0091,,,,,,,,,,,,,,,,,,0,0,0,0,1,,,,,,,,,,,,,,,,,,,,,,,,,,,,,,,,,
,,5ecd2230b3956a034ebcc660,24,male,2024-04-19_18h37.14.665,stockport_simplified,2022.2.4,Win32,75.18796992,661e456ee6de07e70aa9ef7b,66229da66d0e3a5d98290f45,,,,,,,,,,,,,,,,,,,,,,,,,,,,,,,,,,,,,,,,,,,,,,,,,,,,,,,,,,,,,N,M,D,o2_image,stimuli/out2.png,stimuli/out1.png,stimuli/correct_out2.png,,,,,,0,0,0,53,1,,,,,,,,,,,,,,,,,,,,,,,,,,,,
,,5ecd2230b3956a034ebcc660,24,male,2024-04-19_18h37.14.665,stockport_simplified,2022.2.4,Win32,75.18796992,661e456ee6de07e70aa9ef7b,66229da66d0e3a5d98290f45,,,,,,,,,,,,,,,,,,,,,,,,,,,,,,,,,,679.0096,681.449,"[3,5,8,2,6,7,4,1]","[[0.3,0.2],[-0.3,0.2]]","[[-0.125,-0.2],[0.125,-0.2]]",-0.112211221,-0.228272827,1,0,0,1.933,o1_image,681.4493,1,681.9426,681.9426,683.93,,,,,,,,,,,,,,,,,,0,0,0,0,1,,,,,,,,,,,,,,,,,,,,,,,,,,,,,,,,,
,,5ecd2230b3956a034ebcc660,24,male,2024-04-19_18h37.14.665,stockport_simplified,2022.2.4,Win32,75.18796992,661e456ee6de07e70aa9ef7b,66229da66d0e3a5d98290f45,,,,,,,,,,,,,,,,,,,,,,,,,,,,,,,,,,,,,,,,,,,,,,,,,,,,,,,,,,,,,A,X,N,o1_image,stimuli/out1.png,stimuli/correct_out1.png,stimuli/out2.png,,,,,,0,1,1,0,1,,,,,,,,,,,,,,,,,,,,,,,,,,,,
,,5ecd2230b3956a034ebcc660,24,male,2024-04-19_18h37.14.665,stockport_simplified,2022.2.4,Win32,75.18796992,661e456ee6de07e70aa9ef7b,66229da66d0e3a5d98290f45,,,,,,,,,,,,,,,,,,,,,,,,,,,,,,,,,,683.9307,685.9424,"[3,5,8,2,6,7,4,1]","[[-0.3,0.2],[0.3,0.2]]","[[-0.125,-0.2],[0.125,-0.2]]",-0.081408141,-0.198569857,1,0,0,1.5063,o1_image,685.9427,1,686.4357,686.4357,688.7166,,,,,,,,,,,,,,,,,,0,0,0,0,1,,,,,,,,,,,,,,,,,,,,,,,,,,,,,,,,,
,,5ecd2230b3956a034ebcc660,24,male,2024-04-19_18h37.14.665,stockport_simplified,2022.2.4,Win32,75.18796992,661e456ee6de07e70aa9ef7b,66229da66d0e3a5d98290f45,,,,,,,,,,,,,,,,,,,,,,,,,,,,,,,,,,,,,,,,,,,,,,,,,,,,,,,,,,,,,A,Y,N,o1_image,stimuli/out1.png,stimuli/correct_out1.png,stimuli/out2.png,,,,,,0,2,2,16,1,,,,,,,,,,,,,,,,,,,,,,,,,,,,
,,5ecd2230b3956a034ebcc660,24,male,2024-04-19_18h37.14.665,stockport_simplified,2022.2.4,Win32,75.18796992,661e456ee6de07e70aa9ef7b,66229da66d0e3a5d98290f45,,,,,,,,,,,,,,,,,,,,,,,,,,,,,,,,,,688.7171,691.2223,"[3,5,8,2,6,7,4,1]","[[-0.3,0.2],[0.3,0.2]]","[[0.125,-0.2],[-0.125,-0.2]]",0.135313531,-0.227172717,1,0,0,1.9999,o1_image,691.2295,1,691.7291,691.7291,693.7665,,,,,,,,,,,,,,,,,,0,0,0,0,1,,,,,,,,,,,,,,,,,,,,,,,,,,,,,,,,,
,,5ecd2230b3956a034ebcc660,24,male,2024-04-19_18h37.14.665,stockport_simplified,2022.2.4,Win32,75.18796992,661e456ee6de07e70aa9ef7b,66229da66d0e3a5d98290f45,,,,,,,,,,,,,,,,,,,,,,,,,,,,,,,,,,,,,,,,,,,,,,,,,,,,,,,,,,,,,A,X,N,o1_image,stimuli/out1.png,stimuli/correct_out1.png,stimuli/out2.png,,,,,,0,3,3,1,1,,,,,,,,,,,,,,,,,,,,,,,,,,,,
,,5ecd2230b3956a034ebcc660,24,male,2024-04-19_18h37.14.665,stockport_simplified,2022.2.4,Win32,75.18796992,661e456ee6de07e70aa9ef7b,66229da66d0e3a5d98290f45,,,,,,,,,,,,,,,,,,,,,,,,,,,,,,,,,,693.7668,696.3958,"[3,5,8,2,6,7,4,1]","[[-0.3,0.2],[0.3,0.2]]","[[0.125,-0.2],[-0.125,-0.2]]",-0.069306931,-0.218371837,1,0,0,2.1192,o2_image,696.3963,1,696.8892,696.8892,698.8892,,,,,,,,,,,,,,,,,,0,0,0,0,1,,,,,,,,,,,,,,,,,,,,,,,,,,,,,,,,,
