counterbalance_2.started,counterbalance_2.stopped,participant,age,gender,date,expName,psychopyVersion,OS,frameRate,STUDY_ID,SESSION_ID,information_2.started,information_2.stopped,information_loop.thisRepN,information_loop.thisTrialN,information_loop.thisN,information_loop.thisIndex,information_loop.ran,information,consent_2.started,consent_2.stopped,slider_1.response,slider_2.response,slider_3.response,slider_4.response,slider_5.response,slider_6.response,instructions.started,instructions.stopped,task1_instr.thisRepN,task1_instr.thisTrialN,task1_instr.thisN,task1_instr.thisIndex,task1_instr.ran,task1,comprehension1_2.started,comprehension1_2.stopped,comp1_mouse.x,comp1_mouse.y,comp1_mouse.leftButton,comp1_mouse.midButton,comp1_mouse.rightButton,comp1_mouse.time,comp1_mouse.clicked_name,cue_o__trial_2.started,cue_o__trial_2.stopped,order,cue_order,out_order,cue_o_mouse.x,cue_o_mouse.y,cue_o_mouse.leftButton,cue_o_mouse.midButton,cue_o_mouse.rightButton,cue_o_mouse.time,cue_o_mouse.clicked_name,cue_selection_2.started,correct_answer,cue_selection_2.stopped,feedback_2.started,feedback_2.stopped,feedback_loop.thisRepN,feedback_loop.thisTrialN,feedback_loop.thisN,feedback_loop.thisIndex,feedback_loop.ran,stage1_trials.thisRepN,stage1_trials.thisTrialN,stage1_trials.thisN,stage1_trials.thisIndex,stage1_trials.ran,cue1,cue2,cue3,outcome,correct_out,o1_feedback,o2_feedback,stage2_feedback_loop.thisRepN,stage2_feedback_loop.thisTrialN,stage2_feedback_loop.thisN,stage2_feedback_loop.thisIndex,stage2_feedback_loop.ran,stage2_trials.thisRepN,stage2_trials.thisTrialN,stage2_trials.thisN,stage2_trials.thisIndex,stage2_trials.ran,stage3_feedback_loop.thisRepN,stage3_feedback_loop.thisTrialN,stage3_feedback_loop.thisN,stage3_feedback_loop.thisIndex,stage3_feedback_loop.ran,stage3_trials.thisRepN,stage3_trials.thisTrialN,stage3_trials.thisN,stage3_trials.thisIndex,stage3_trials.ran,debrief_2.started,debrief_2.stopped,debrief_loop.thisRepN,debrief_loop.thisTrialN,debrief_loop.thisN,debrief_loop.thisIndex,debrief_loop.ran,debrief_img,compr1_completed.thisRepN,compr1_completed.thisTrialN,compr1_completed.thisN,compr1_completed.thisIndex,compr1_completed.ran,consent_loop.thisRepN,consent_loop.thisTrialN,consent_loop.thisN,consent_loop.thisIndex,consent_loop.ran
0.0003,0.0005,60bab50bcdd5d7ad3ee97479,21,female,2024-04-19_17h37.33.725,stockport_simplified,2022.2.4,Win32,60.97560976,661e456ee6de07e70aa9ef7b,66229d9fcb8db5d56b9611ee,,,,,,,,,,,,,,,,,,,,,,,,,,,,,,,,,,,,,,,,,,,,,,,,,,,,,,,,,,,,,,,,,,,,,,,,,,,,,,,,,,,,,,,,,,,,,,,,,,,,,,,,,
,,60bab50bcdd5d7ad3ee97479,21,female,2024-04-19_17h37.33.725,stockport_simplified,2022.2.4,Win32,60.97560976,661e456ee6de07e70aa9ef7b,66229d9fcb8db5d56b9611ee,0.0171,25.5004,0,0,0,0,1,instructions/info1.png,,,,,,,,,,,,,,,,,,,,,,,,,,,,,,,,,,,,,,,,,,,,,,,,,,,,,,,,,,,,,,,,,,,,,,,,,,,,,,,,,,,,,,,,,,,,,,,,,
,,60bab50bcdd5d7ad3ee97479,21,female,2024-04-19_17h37.33.725,stockport_simplified,2022.2.4,Win32,60.97560976,661e456ee6de07e70aa9ef7b,66229d9fcb8db5d56b9611ee,25.5015,26.9157,0,1,1,1,1,instructions/info2.png,,,,,,,,,,,,,,,,,,,,,,,,,,,,,,,,,,,,,,,,,,,,,,,,,,,,,,,,,,,,,,,,,,,,,,,,,,,,,,,,,,,,,,,,,,,,,,,,,
,,60bab50bcdd5d7ad3ee97479,21,female,2024-04-19_17h37.33.725,stockport_simplified,2022.2.4,Win32,60.97560976,661e456ee6de07e70aa9ef7b,66229d9fcb8db5d56b9611ee,26.9167,28.797,0,2,2,2,1,instructions/info3.png,,,,,,,,,,,,,,,,,,,,,,,,,,,,,,,,,,,,,,,,,,,,,,,,,,,,,,,,,,,,,,,,,,,,,,,,,,,,,,,,,,,,,,,,,,,,,,,,,
,,60bab50bcdd5d7ad3ee97479,21,female,2024-04-19_17h37.33.725,stockport_simplified,2022.2.4,Win32,60.97560976,661e456ee6de07e70aa9ef7b,66229d9fcb8db5d56b9611ee,,,,,,,,,28.7981,43.8119,1,1,1,1,1,1,,,,,,,,,,,,,,,,,,,,,,,,,,,,,,,,,,,,,,,,,,,,,,,,,,,,,,,,,,,,,,,,,,,,,,,,,,,,,,,,,,,,,,,,,
,,60bab50bcdd5d7ad3ee97479,21,female,2024-04-19_17h37.33.725,stockport_simplified,2022.2.4,Win32,60.97560976,661e456ee6de07e70aa9ef7b,66229d9fcb8db5d56b9611ee,,,,,,,,,,,,,,,,,43.8403,86.864,0,0,0,0,1,instructions/task1_1.png,,,,,,,,,,,,,,,,,,,,,,,,,,,,,,,,,,,,,,,,,,,,,,,,,,,,,,,,,,,,,,,,,,,,,,,,,,,,,,,,,
,,60bab50bcdd5d7ad3ee97479,21,female,2024-04-19_17h37.33.725,stockport_simplified,2022.2.4,Win32,60.97560976,661e456ee6de07e70aa9ef7b,66229d9fcb8db5d56b9611ee,,,,,,,,,,,,,,,,,86.8836,101.9561,0,1,1,1,1,instructions/task1_2.png,,,,,,,,,,,,,,,,,,,,,,,,,,,,,,,,,,,,,,,,,,,,,,,,,,,,,,,,,,,,,,,,,,,,,,,,,,,,,,,,,
,,60bab50bcdd5d7ad3ee97479,21,female,2024-04-19_17h37.33.725,stockport_simplified,2022.2.4,Win32,60.97560976,661e456ee6de07e70aa9ef7b,66229d9fcb8db5d56b9611ee,,,,,,,,,,,,,,,,,101.9696,126.8313,0,2,2,2,1,instructions/task1_3.png,,,,,,,,,,,,,,,,,,,,,,,,,,,,,,,,,,,,,,,,,,,,,,,,,,,,,,,,,,,,,,,,,,,,,,,,,,,,,,,,,
,,60bab50bcdd5d7ad3ee97479,21,female,2024-04-19_17h37.33.725,stockport_simplified,2022.2.4,Win32,60.97560976,661e456ee6de07e70aa9ef7b,66229d9fcb8db5d56b9611ee,,,,,,,,,,,,,,,,,,,,,,,,,126.8322,152.173,-0.020370314,-0.316666667,1,0,0,25.3399,comp1_resp1,152.2024,159.4039,"[7,2,5,3,8,1,6,4]","[[-0.3,0.2],[0.3,0.2]]","[[0.125,-0.2],[-0.125,-0.2]]",-0.294444444,0.209259245,1,0,0,3.7634,o2_image,159.4224,1,159.9193,159.9194,161.9109,0,0,0,0,1,,,,,,,,,,,,,,,,,,,,,,,,,,,,,,,,,,,,,,,,,,,,,,,,,,
,,60bab50bcdd5d7ad3ee97479,21,female,2024-04-19_17h37.33.725,stockport_simplified,2022.2.4,Win32,60.97560976,661e456ee6de07e70aa9ef7b,66229d9fcb8db5d56b9611ee,,,,,,,,,,,,,,,,,,,,,,,,,,,,,,,,,,,,,,,,,,,,,,,,,,,,,,,,0,0,0,44,1,B,X,N,o2_image,stimuli/out2.png,stimuli/out1.png,stimuli/correct_out2.png,,,,,,,,,,,,,,,,,,,,,,,,,,,,,,,,,,,,,,
,,60bab50bcdd5d7ad3ee97479,21,female,2024-04-19_17h37.33.725,stockport_simplified,2022.2.4,Win32,60.97560976,661e456ee6de07e70aa9ef7b,66229d9fcb8db5d56b9611ee,,,,,,,,,,,,,,,,,,,,,,,,,,,,,,,,,,161.9122,164.5583,"[7,2,5,3,8,1,6,4]","[[-0.3,0.2],[0.3,0.2]]","[[0.125,-0.2],[-0.125,-0.2]]",-0.112962935,-0.193518533,1,0,0,2.1335,o2_image,164.5816,1,165.0853,165.0853,167.0844,0,0,0,0,1,,,,,,,,,,,,,,,,,,,,,,,,,,,,,,,,,,,,,,,,,,,,,,,,,,
,,60bab50bcdd5d7ad3ee97479,21,female,2024-04-19_17h37.33.725,stockport_simplified,2022.2.4,Win32,60.97560976,661e456ee6de07e70aa9ef7b,66229d9fcb8db5d56b9611ee,,,,,,,,,,,,,,,,,,,,,,,,,,,,,,,,,,,,,,,,,,,,,,,,,,,,,,,,0,1,1,40,1,B,X,N,o2_image,stimuli/out2.png,stimuli/out1.png,stimuli/correct_out2.png,,,,,,,,,,,,,,,,,,,,,,,,,,,,,,,,,,,,,,
,,60bab50bcdd5d7ad3ee97479,21,female,2024-04-19_17h37.33.725,stockport_simplified,2022.2.4,Win32,60.97560976,661e456ee6de07e70aa9ef7b,66229d9fcb8db5d56b9611ee,,,,,,,,,,,,,,,,,,,,,,,,,,,,,,,,,,167.0853,170.4994,"[7,2,5,3,8,1,6,4]","[[0.3,0.2],[-0.3,0.2]]","[[0.125,-0.2],[-0.125,-0.2]]",-0.104629601,-0.210185199,1,0,0,2.8985,o2_image,170.5206,1,171.0166,171.0167,173.015,0,0,0,0,1,,,,,,,,,,,,,,,,,,,,,,,,,,,,,,,,,,,,,,,,,,,,,,,,,,
,,60bab50bcdd5d7ad3ee97479,21,female,2024-04-19_17h37.33.725,stockport_simplified,2022.2.4,Win32,60.97560976,661e456ee6de07e70aa9ef7b,66229d9fcb8db5d56b9611ee,,,,,,,,,,,,,,,,,,,,,,,,,,,,,,,,,,,,,,,,,,,,,,,,,,,,,,,,0,2,2,11,1,B,X,N,o2_image,stimuli/out2.png,stimuli/out1.png,stimuli/correct_out2.png,,,,,,,,,,,,,,,,,,,,,,,,,,,,,,,,,,,,,,
,,60bab50bcdd5d7ad3ee97479,21,female,2024-04-19_17h37.33.725,stockport_simplified,2022.2.4,Win32,60.97560976,661e456ee6de07e70aa9ef7b,66229d9fcb8db5d56b9611ee,,,,,,,,,,,,,,,,,,,,,,,,,,,,,,,,,,173.0157,176.0809,"[7,2,5,3,8,1,6,4]","[[-0.3,0.2],[0.3,0.2]]","[[-0.125,-0.2],[0.125,-0.2]]",0.111111111,-0.18148151,1,0,0,2.5471,o2_image,176.0825,0,176.5811,176.5813,178.5878,0,0,0,0,1,,,,,,,,,,,,,,,,,,,,,,,,,,,,,,,,,,,,,,,,,,,,,,,,,,
,,60bab50bcdd5d7ad3ee97479,21,female,2024-04-19_17h37.33.725,stockport_simplified,2022.2.4,Win32,60.97560976,661e456ee6de07e70aa9ef7b,66229d9fcb8db5d56b9611ee,,,,,,,,,,,,,,,,,,,,,,,,,,,,,,,,,,,,,,,,,,,,,,,,,,,,,,,,0,3,3,21,1,N,M,C,o1_image,stimuli/out1.png,stimuli/correct_out1.png,stimuli/out2.png,,,,,,,,,,,,,,,,,,,,,,,,,,,,,,,,,,,,,,
,,60bab50bcdd5d7ad3ee97479,21,female,2024-04-19_17h37.33.725,stockport_simplified,2022.2.4,Win32,60.97560976,661e456ee6de07e70aa9ef7b,66229d9fcb8db5d56b9611ee,,,,,,,,,,,,,,,,,,,,,,,,,,,,,,,,,,178.5887,181.5962,"[7,2,5,3,8,1,6,4]","[[-0.3,0.2],[0.3,0.2]]","[[0.125,-0.2],[-0.125,-0.2]]",-0.113888889,-0.188888889,1,0,0,2.4965,o2_image,181.5985,1,182.0954,182.0955,184.0953,0,0,0,0,1,,,,,,,,,,,,,,,,,,,,,,,,,,,,,,,,,,,,,,,,,,,,,,,,,,
,,60bab50bcdd5d7ad3ee97479,21,female,2024-04-19_17h37.33.725,stockport_simplified,2022.2.4,Win32,60.97560976,661e456ee6de07e70aa9ef7b,66229d9fcb8db5d56b9611ee,,,,,,,,,,,,,,,,,,,,,,,,,,,,,,,,,,,,,,,,,,,,,,,,,,,,,,,,0,4,4,43,1,B,X,N,o2_image,stimuli/out2.png,stimuli/out1.png,stimuli/correct_out2.png,,,,,,,,,,,,,,,,,,,,,,,,,,,,,,,,,,,,,,
,,60bab50bcdd5d7ad3ee97479,21,female,2024-04-19_17h37.33.725,stockport_simplified,2022.2.4,Win32,60.97560976,661e456ee6de07e70aa9ef7b,66229d9fcb8db5d56b9611ee,,,,,,,,,,,,,,,,,,,,,,,,,,,,,,,,,,184.0964,186.6283,"[7,2,5,3,8,1,6,4]","[[-0.3,0.2],[0.3,0.2]]","[[-0.125,-0.2],[0.125,-0.2]]",-0.137962935,-0.186111111,1,0,0,2.0143,o1_image,186.6518,0,187.1444,187.1444,189.1458,0,0,0,0,1,,,,,,,,,,,,,,,,,,,,,,,,,,,,,,,,,,,,,,,,,,,,,,,,,,
,,60bab50bcdd5d7ad3ee97479,21,female,2024-04-19_17h37.33.725,stockport_simplified,2022.2.4,Win32,60.97560976,661e456ee6de07e70aa9ef7b,66229d9fcb8db5d56b9611ee,,,,,,,,,,,,,,,,,,,,,,,,,,,,,,,,,,,,,,,,,,,,,,,,,,,,,,,,0,5,5,55,1,N,M,D,o2_image,stimuli/out2.png,stimuli/out1.png,stimuli/correct_out2.png,,,,,,,,,,,,,,,,,,,,,,,,,,,,,,,,,,,,,,
,,60bab50bcdd5d7ad3ee97479,21,female,2024-04-19_17h37.33.725,stockport_simplified,2022.2.4,Win32,60.97560976,661e456ee6de07e70aa9ef7b,66229d9fcb8db5d56b9611ee,,,,,,,,,,,,,,,,,,,,,,,,,,,,,,,,,,189.147,192.7257,"[7,2,5,3,8,1,6,4]","[[0.3,0.2],[-0.3,0.2]]","[[0.125,-0.2],[-0.125,-0.2]]",0.101851908,-0.193518533,1,0,0,3.0638,o1_image,192.7453,1,193.2422,193.2423,195.2413,0,0,0,0,1,,,,,,,,,,,,,,,,,,,,,,,,,,,,,,,,,,,,,,,,,,,,,,,,,,
,,60bab50bcdd5d7ad3ee97479,21,female,2024-04-19_17h37.33.725,stockport_simplified,2022.2.4,Win32,60.97560976,661e456ee6de07e70aa9ef7b,66229d9fcb8db5d56b9611ee,,,,,,,,,,,,,,,,,,,,,,,,,,,,,,,,,,,,,,,,,,,,,,,,,,,,,,,,0,6,6,8,1,A,Y,N,o1_image,stimuli/out1.png,stimuli/correct_out1.png,stimuli/out2.png,,,,,,,,,,,,,,,,,,,,,,,,,,,,,,,,,,,,,,
,,60bab50bcdd5d7ad3ee97479,21,female,2024-04-19_17h37.33.725,stockport_simplified,2022.2.4,Win32,60.97560976,661e456ee6de07e70aa9ef7b,66229d9fcb8db5d56b9611ee,,,,,,,,,,,,,,,,,,,,,,,,,,,,,,,,,,195.2424,197.3572,"[7,2,5,3,8,1,6,4]","[[0.3,0.2],[-0.3,0.2]]","[[0.125,-0.2],[-0.125,-0.2]]",0.094444444,-0.191666667,1,0,0,1.5971,o1_image,197.3583,0,197.8574,197.8575,199.8567,0,0,0,0,1,,,,,,,,,,,,,,,,,,,,,,,,,,,,,,,,,,,,,,,,,,,,,,,,,,
,,60bab50bcdd5d7ad3ee97479,21,female,2024-04-19_17h37.33.725,stockport_simplified,2022.2.4,Win32,60.97560976,661e456ee6de07e70aa9ef7b,66229d9fcb8db5d56b9611ee,,,,,,,,,,,,,,,,,,,,,,,,,,,,,,,,,,,,,,,,,,,,,,,,,,,,,,,,0,7,7,41,1,B,X,N,o2_image,stimuli/out2.png,stimuli/out1.png,stimuli/correct_out2.png,,,,,,,,,,,,,,,,,,,,,,,,,,,,,,,,,,,,,,
,,60bab50bcdd5d7ad3ee97479,21,female,2024-04-19_17h37.33.725,stockport_simplified,2022.2.4,Win32,60.97560976,661e456ee6de07e70aa9ef7b,66229d9fcb8db5d56b9611ee,,,,,,,,,,,,,,,,,,,,,,,,,,,,,,,,,,199.8575,202.0892,"[7,2,5,3,8,1,6,4]","[[0.3,0.2],[-0.3,0.2]]","[[0.125,-0.2],[-0.125,-0.2]]",-0.115740712,-0.187962977,1,0,0,1.7141,o2_image,202.0908,0,202.589,202.5891,204.5886,0,0,0,0,1,,,,,,,,,,,,,,,,,,,,,,,,,,,,,,,,,,,,,,,,,,,,,,,,,,
,,60bab50bcdd5d7ad3ee97479,21,female,2024-04-19_17h37.33.725,stockport_simplified,2022.2.4,Win32,60.97560976,661e456ee6de07e70aa9ef7b,66229d9fcb8db5d56b9611ee,,,,,,,,,,,,,,,,,,,,,,,,,,,,,,,,,,,,,,,,,,,,,,,,,,,,,,,,0,8,8,51,1,N,M,C,o1_image,stimuli/out1.png,stimuli/correct_out1.png,stimuli/out2.png,,,,,,,,,,,,,,,,,,,,,,,,,,,,,,,,,,,,,,
,,60bab50bcdd5d7ad3ee97479,21,female,2024-04-19_17h37.33.725,stockport_simplified,2022.2.4,Win32,60.97560976,661e456ee6de07e70aa9ef7b,66229d9fcb8db5d56b9611ee,,,,,,,,,,,,,,,,,,,,,,,,,,,,,,,,,,204.5898,208.3539,"[7,2,5,3,8,1,6,4]","[[0.3,0.2],[-0.3,0.2]]","[[-0.125,-0.2],[0.125,-0.2]]",-0.115740712,-0.187962977,1,0,0,3.2484,o1_image,208.373,0,208.8701,208.8701,210.8701,0,0,0,0,1,,,,,,,,,,,,,,,,,,,,,,,,,,,,,,,,,,,,,,,,,,,,,,,,,,
,,60bab50bcdd5d7ad3ee97479,21,female,2024-04-19_17h37.33.725,stockport_simplified,2022.2.4,Win32,60.97560976,661e456ee6de07e70aa9ef7b,66229d9fcb8db5d56b9611ee,,,,,,,,,,,,,,,,,,,,,,,,,,,,,,,,,,,,,,,,,,,,,,,,,,,,,,,,0,9,9,46,1,B,Y,N,o2_image,stimuli/out2.png,stimuli/out1.png,stimuli/correct_out2.png,,,,,,,,,,,,,,,,,,,,,,,,,,,,,,,,,,,,,,
,,60bab50bcdd5d7ad3ee97479,21,female,2024-04-19_17h37.33.725,stockport_simplified,2022.2.4,Win32,60.97560976,661e456ee6de07e70aa9ef7b,66229d9fcb8db5d56b9611ee,,,,,,,,,,,,,,,,,,,,,,,,,,,,,,,,,,210.8716,215.5007,"[7,2,5,3,8,1,6,4]","[[0.3,0.2],[-0.3,0.2]]","[[-0.125,-0.2],[0.125,-0.2]]",0.091666667,-0.190740755,1,0,0,4.1143,o2_image,215.5213,1,216.0178,216.0179,218.0173,0,0,0,0,1,,,,,,,,,,,,,,,,,,,,,,,,,,,,,,,,,,,,,,,,,,,,,,,,,,
,,60bab50bcdd5d7ad3ee97479,21,female,2024-04-19_17h37.33.725,stockport_simplified,2022.2.4,Win32,60.97560976,661e456ee6de07e70aa9ef7b,66229d9fcb8db5d56b9611ee,,,,,,,,,,,,,,,,,,,,,,,,,,,,,,,,,,,,,,,,,,,,,,,,,,,,,,,,0,10,10,19,1,B,Y,N,o2_image,stimuli/out2.png,stimuli/out1.png,stimuli/correct_out2.png,,,,,,,,,,,,,,,,,,,,,,,,,,,,,,,,,,,,,,
,,60bab50bcdd5d7ad3ee97479,21,female,2024-04-19_17h37.33.725,stockport_simplified,2022.2.4,Win32,60.97560976,661e456ee6de07e70aa9ef7b,66229d9fcb8db5d56b9611ee,,,,,,,,,,,,,,,,,,,,,,,,,,,,,,,,,,218.0189,222.5157,"[7,2,5,3,8,1,6,4]","[[-0.3,0.2],[0.3,0.2]]","[[0.125,-0.2],[-0.125,-0.2]]",-0.117592536,-0.191666667,1,0,0,3.9799,o2_image,222.5323,0,223.0331,223.0332,225.0321,0,0,0,0,1,,,,,,,,,,,,,,,,,,,,,,,,,,,,,,,,,,,,,,,,,,,,,,,,,,
,,60bab50bcdd5d7ad3ee97479,21,female,2024-04-19_17h37.33.725,stockport_simplified,2022.2.4,Win32,60.97560976,661e456ee6de07e70aa9ef7b,66229d9fcb8db5d56b9611ee,,,,,,,,,,,,,,,,,,,,,,,,,,,,,,,,,,,,,,,,,,,,,,,,,,,,,,,,0,11,11,1,1,A,X,N,o1_image,stimuli/out1.png,stimuli/correct_out1.png,stimuli/out2.png,,,,,,,,,,,,,,,,,,,,,,,,,,,,,,,,,,,,,,
,,60bab50bcdd5d7ad3ee97479,21,female,2024-04-19_17h37.33.725,stockport_simplified,2022.2.4,Win32,60.97560976,661e456ee6de07e70aa9ef7b,66229d9fcb8db5d56b9611ee,,,,,,,,,,,,,,,,,,,,,,,,,,,,,,,,,,225.0329,228.5466,"[7,2,5,3,8,1,6,4]","[[0.3,0.2],[-0.3,0.2]]","[[0.125,-0.2],[-0.125,-0.2]]",0.139814843,-0.195370399,1,0,0,2.999,o1_image,228.5646,1,229.0639,229.064,231.0632,0,0,0,0,1,,,,,,,,,,,,,,,,,,,,,,,,,,,,,,,,,,,,,,,,,,,,,,,,,,
,,60bab50bcdd5d7ad3ee97479,21,female,2024-04-19_17h37.33.725,stockport_simplified,2022.2.4,Win32,60.97560976,661e456ee6de07e70aa9ef7b,66229d9fcb8db5d56b9611ee,,,,,,,,,,,,,,,,,,,,,,,,,,,,,,,,,,,,,,,,,,,,,,,,,,,,,,,,0,12,12,30,1,A,X,N,o1_image,stimuli/out1.png,stimuli/correct_out1.png,stimuli/out2.png,,,,,,,,,,,,,,,,,,,,,,,,,,,,,,,,,,,,,,
,,60bab50bcdd5d7ad3ee97479,21,female,2024-04-19_17h37.33.725,stockport_simplified,2022.2.4,Win32,60.97560976,661e456ee6de07e70aa9ef7b,66229d9fcb8db5d56b9611ee,,,,,,,,,,,,,,,,,,,,,,,,,,,,,,,,,,231.0644,234.0447,"[7,2,5,3,8,1,6,4]","[[-0.3,0.2],[0.3,0.2]]","[[0.125,-0.2],[-0.125,-0.2]]",-0.099074046,-0.184259288,1,0,0,2.4637,o2_image,234.0457,1,234.5358,234.5358,236.5278,0,0,0,0,1,,,,,,,,,,,,,,,,,,,,,,,,,,,,,,,,,,,,,,,,,,,,,,,,,,
,,60bab50bcdd5d7ad3ee97479,21,female,2024-04-19_17h37.33.725,stockport_simplified,2022.2.4,Win32,60.97560976,661e456ee6de07e70aa9ef7b,66229d9fcb8db5d56b9611ee,,,,,,,,,,,,,,,,,,,,,,,,,,,,,,,,,,,,,,,,,,,,,,,,,,,,,,,,0,13,13,45,1,B,Y,N,o2_image,stimuli/out2.png,stimuli/out1.png,stimuli/correct_out2.png,,,,,,,,,,,,,,,,,,,,,,,,,,,,,,,,,,,,,,
,,60bab50bcdd5d7ad3ee97479,21,female,2024-04-19_17h37.33.725,stockport_simplified,2022.2.4,Win32,60.97560976,661e456ee6de07e70aa9ef7b,66229d9fcb8db5d56b9611ee,,,,,,,,,,,,,,,,,,,,,,,,,,,,,,,,,,236.5285,238.5605,"[7,2,5,3,8,1,6,4]","[[0.3,0.2],[-0.3,0.2]]","[[0.125,-0.2],[-0.125,-0.2]]",-0.099074046,-0.184259288,1,0,0,1.5161,o2_image,238.5619,1,239.0601,239.0601,241.0594,0,0,0,0,1,,,,,,,,,,,,,,,,,,,,,,,,,,,,,,,,,,,,,,,,,,,,,,,,,,
,,60bab50bcdd5d7ad3ee97479,21,female,2024-04-19_17h37.33.725,stockport_simplified,2022.2.4,Win32,60.97560976,661e456ee6de07e70aa9ef7b,66229d9fcb8db5d56b9611ee,,,,,,,,,,,,,,,,,,,,,,,,,,,,,,,,,,,,,,,,,,,,,,,,,,,,,,,,0,14,14,48,1,B,Y,N,o2_image,stimuli/out2.png,stimuli/out1.png,stimuli/correct_out2.png,,,,,,,,,,,,,,,,,,,,,,,,,,,,,,,,,,,,,,
,,60bab50bcdd5d7ad3ee97479,21,female,2024-04-19_17h37.33.725,stockport_simplified,2022.2.4,Win32,60.97560976,661e456ee6de07e70aa9ef7b,66229d9fcb8db5d56b9611ee,,,,,,,,,,,,,,,,,,,,,,,,,,,,,,,,,,241.0602,244.6579,"[7,2,5,3,8,1,6,4]","[[-0.3,0.2],[0.3,0.2]]","[[-0.125,-0.2],[0.125,-0.2]]",-0.111111111,-0.197222222,1,0,0,3.0811,o1_image,244.6735,1,245.1748,245.175,247.1738,0,0,0,0,1,,,,,,,,,,,,,,,,,,,,,,,,,,,,,,,,,,,,,,,,,,,,,,,,,,
,,60bab50bcdd5d7ad3ee97479,21,female,2024-04-19_17h37.33.725,stockport_simplified,2022.2.4,Win32,60.97560976,661e456ee6de07e70aa9ef7b,66229d9fcb8db5d56b9611ee,,,,,,,,,,,,,,,,,,,,,,,,,,,,,,,,,,,,,,,,,,,,,,,,,,,,,,,,0,15,15,22,1,N,M,C,o1_image,stimuli/out1.png,stimuli/correct_out1.png,stimuli/out2.png,,,,,,,,,,,,,,,,,,,,,,,,,,,,,,,,,,,,,,
,,60bab50bcdd5d7ad3ee97479,21,female,2024-04-19_17h37.33.725,stockport_simplified,2022.2.4,Win32,60.97560976,661e456ee6de07e70aa9ef7b,66229d9fcb8db5d56b9611ee,,,,,,,,,,,,,,,,,,,,,,,,,,,,,,,,,,247.1744,249.4567,"[7,2,5,3,8,1,6,4]","[[-0.3,0.2],[0.3,0.2]]","[[0.125,-0.2],[-0.125,-0.2]]",-0.094444444,-0.183333333,1,0,0,1.766,o2_image,249.4581,1,249.9565,249.9566,251.9466,0,0,0,0,1,,,,,,,,,,,,,,,,,,,,,,,,,,,,,,,,,,,,,,,,,,,,,,,,,,
,,60bab50bcdd5d7ad3ee97479,21,female,2024-04-19_17h37.33.725,stockport_simplified,2022.2.4,Win32,60.97560976,661e456ee6de07e70aa9ef7b,66229d9fcb8db5d56b9611ee,,,,,,,,,,,,,,,,,,,,,,,,,,,,,,,,,,,,,,,,,,,,,,,,,,,,,,,,0,16,16,49,1,B,Y,N,o2_image,stimuli/out2.png,stimuli/out1.png,stimuli/correct_out2.png,,,,,,,,,,,,,,,,,,,,,,,,,,,,,,,,,,,,,,
,,60bab50bcdd5d7ad3ee97479,21,female,2024-04-19_17h37.33.725,stockport_simplified,2022.2.4,Win32,60.97560976,661e456ee6de07e70aa9ef7b,66229d9fcb8db5d56b9611ee,,,,,,,,,,,,,,,,,,,,,,,,,,,,,,,,,,251.9474,255.1219,"[7,2,5,3,8,1,6,4]","[[-0.3,0.2],[0.3,0.2]]","[[0.125,-0.2],[-0.125,-0.2]]",-0.112962935,-0.193518533,1,0,0,2.6649,o2_image,255.1426,0,255.6374,255.6375,257.6371,0,0,0,0,1,,,,,,,,,,,,,,,,,,,,,,,,,,,,,,,,,,,,,,,,,,,,,,,,,,
,,60bab50bcdd5d7ad3ee97479,21,female,2024-04-19_17h37.33.725,stockport_simplified,2022.2.4,Win32,60.97560976,661e456ee6de07e70aa9ef7b,66229d9fcb8db5d56b9611ee,,,,,,,,,,,,,,,,,,,,,,,,,,,,,,,,,,,,,,,,,,,,,,,,,,,,,,,,0,17,17,9,1,A,Y,N,o1_image,stimuli/out1.png,stimuli/correct_out1.png,stimuli/out2.png,,,,,,,,,,,,,,,,,,,,,,,,,,,,,,,,,,,,,,
,,60bab50bcdd5d7ad3ee97479,21,female,2024-04-19_17h37.33.725,stockport_simplified,2022.2.4,Win32,60.97560976,661e456ee6de07e70aa9ef7b,66229d9fcb8db5d56b9611ee,,,,,,,,,,,,,,,,,,,,,,,,,,,,,,,,,,257.6378,261.4193,"[7,2,5,3,8,1,6,4]","[[-0.3,0.2],[0.3,0.2]]","[[0.125,-0.2],[-0.125,-0.2]]",-0.11851849,-0.180555556,1,0,0,3.2637,o2_image,261.4375,1,261.9357,261.9357,263.9351,0,0,0,0,1,,,,,,,,,,,,,,,,,,,,,,,,,,,,,,,,,,,,,,,,,,,,,,,,,,
,,60bab50bcdd5d7ad3ee97479,21,female,2024-04-19_17h37.33.725,stockport_simplified,2022.2.4,Win32,60.97560976,661e456ee6de07e70aa9ef7b,66229d9fcb8db5d56b9611ee,,,,,,,,,,,,,,,,,,,,,,,,,,,,,,,,,,,,,,,,,,,,,,,,,,,,,,,,0,18,18,27,1,N,M,D,o2_image,stimuli/out2.png,stimuli/out1.png,stimuli/correct_out2.png,,,,,,,,,,,,,,,,,,,,,,,,,,,,,,,,,,,,,,
,,60bab50bcdd5d7ad3ee97479,21,female,2024-04-19_17h37.33.725,stockport_simplified,2022.2.4,Win32,60.97560976,661e456ee6de07e70aa9ef7b,66229d9fcb8db5d56b9611ee,,,,,,,,,,,,,,,,,,,,,,,,,,,,,,,,,,263.9364,266.9842,"[7,2,5,3,8,1,6,4]","[[-0.3,0.2],[0.3,0.2]]","[[0.125,-0.2],[-0.125,-0.2]]",0.136111111,-0.178703732,1,0,0,2.5301,o1_image,267.0036,1,267.5008,267.5009,269.4998,0,0,0,0,1,,,,,,,,,,,,,,,,,,,,,,,,,,,,,,,,,,,,,,,,,,,,,,,,,,
,,60bab50bcdd5d7ad3ee97479,21,female,2024-04-19_17h37.33.725,stockport_simplified,2022.2.4,Win32,60.97560976,661e456ee6de07e70aa9ef7b,66229d9fcb8db5d56b9611ee,,,,,,,,,,,,,,,,,,,,,,,,,,,,,,,,,,,,,,,,,,,,,,,,,,,,,,,,0,19,19,37,1,A,Y,N,o1_image,stimuli/out1.png,stimuli/correct_out1.png,stimuli/out2.png,,,,,,,,,,,,,,,,,,,,,,,,,,,,,,,,,,,,,,
,,60bab50bcdd5d7ad3ee97479,21,female,2024-04-19_17h37.33.725,stockport_simplified,2022.2.4,Win32,60.97560976,661e456ee6de07e70aa9ef7b,66229d9fcb8db5d56b9611ee,,,,,,,,,,,,,,,,,,,,,,,,,,,,,,,,,,269.5006,272.2322,"[7,2,5,3,8,1,6,4]","[[-0.3,0.2],[0.3,0.2]]","[[0.125,-0.2],[-0.125,-0.2]]",-0.104629601,-0.161111111,1,0,0,2.2292,o2_image,272.2346,1,272.7319,272.7319,274.7309,0,0,0,0,1,,,,,,,,,,,,,,,,,,,,,,,,,,,,,,,,,,,,,,,,,,,,,,,,,,
,,60bab50bcdd5d7ad3ee97479,21,female,2024-04-19_17h37.33.725,stockport_simplified,2022.2.4,Win32,60.97560976,661e456ee6de07e70aa9ef7b,66229d9fcb8db5d56b9611ee,,,,,,,,,,,,,,,,,,,,,,,,,,,,,,,,,,,,,,,,,,,,,,,,,,,,,,,,0,20,20,10,1,B,X,N,o2_image,stimuli/out2.png,stimuli/out1.png,stimuli/correct_out2.png,,,,,,,,,,,,,,,,,,,,,,,,,,,,,,,,,,,,,,
,,60bab50bcdd5d7ad3ee97479,21,female,2024-04-19_17h37.33.725,stockport_simplified,2022.2.4,Win32,60.97560976,661e456ee6de07e70aa9ef7b,66229d9fcb8db5d56b9611ee,,,,,,,,,,,,,,,,,,,,,,,,,,,,,,,,,,274.7314,277.3307,"[7,2,5,3,8,1,6,4]","[[-0.3,0.2],[0.3,0.2]]","[[0.125,-0.2],[-0.125,-0.2]]",0.13148151,-0.191666667,1,0,0,2.0819,o1_image,277.3338,1,277.8302,277.8303,279.8299,0,0,0,0,1,,,,,,,,,,,,,,,,,,,,,,,,,,,,,,,,,,,,,,,,,,,,,,,,,,
,,60bab50bcdd5d7ad3ee97479,21,female,2024-04-19_17h37.33.725,stockport_simplified,2022.2.4,Win32,60.97560976,661e456ee6de07e70aa9ef7b,66229d9fcb8db5d56b9611ee,,,,,,,,,,,,,,,,,,,,,,,,,,,,,,,,,,,,,,,,,,,,,,,,,,,,,,,,0,21,21,7,1,A,Y,N,o1_image,stimuli/out1.png,stimuli/correct_out1.png,stimuli/out2.png,,,,,,,,,,,,,,,,,,,,,,,,,,,,,,,,,,,,,,
,,60bab50bcdd5d7ad3ee97479,21,female,2024-04-19_17h37.33.725,stockport_simplified,2022.2.4,Win32,60.97560976,661e456ee6de07e70aa9ef7b,66229d9fcb8db5d56b9611ee,,,,,,,,,,,,,,,,,,,,,,,,,,,,,,,,,,279.8309,281.9124,"[7,2,5,3,8,1,6,4]","[[0.3,0.2],[-0.3,0.2]]","[[-0.125,-0.2],[0.125,-0.2]]",-0.110185157,-0.200925954,1,0,0,1.5649,o1_image,281.9145,0,282.4119,282.4119,284.4114,0,0,0,0,1,,,,,,,,,,,,,,,,,,,,,,,,,,,,,,,,,,,,,,,,,,,,,,,,,,
,,60bab50bcdd5d7ad3ee97479,21,female,2024-04-19_17h37.33.725,stockport_simplified,2022.2.4,Win32,60.97560976,661e456ee6de07e70aa9ef7b,66229d9fcb8db5d56b9611ee,,,,,,,,,,,,,,,,,,,,,,,,,,,,,,,,,,,,,,,,,,,,,,,,,,,,,,,,0,22,22,42,1,B,X,N,o2_image,stimuli/out2.png,stimuli/out1.png,stimuli/correct_out2.png,,,,,,,,,,,,,,,,,,,,,,,,,,,,,,,,,,,,,,
,,60bab50bcdd5d7ad3ee97479,21,female,2024-04-19_17h37.33.725,stockport_simplified,2022.2.4,Win32,60.97560976,661e456ee6de07e70aa9ef7b,66229d9fcb8db5d56b9611ee,,,,,,,,,,,,,,,,,,,,,,,,,,,,,,,,,,284.4123,287.2598,"[7,2,5,3,8,1,6,4]","[[-0.3,0.2],[0.3,0.2]]","[[-0.125,-0.2],[0.125,-0.2]]",-0.116666667,-0.198148176,1,0,0,2.3316,o1_image,287.2608,1,287.7603,287.7604,289.7596,0,0,0,0,1,,,,,,,,,,,,,,,,,,,,,,,,,,,,,,,,,,,,,,,,,,,,,,,,,,
,,60bab50bcdd5d7ad3ee97479,21,female,2024-04-19_17h37.33.725,stockport_simplified,2022.2.4,Win32,60.97560976,661e456ee6de07e70aa9ef7b,66229d9fcb8db5d56b9611ee,,,,,,,,,,,,,,,,,,,,,,,,,,,,,,,,,,,,,,,,,,,,,,,,,,,,,,,,0,23,23,34,1,A,X,N,o1_image,stimuli/out1.png,stimuli/correct_out1.png,stimuli/out2.png,,,,,,,,,,,,,,,,,,,,,,,,,,,,,,,,,,,,,,
,,60bab50bcdd5d7ad3ee97479,21,female,2024-04-19_17h37.33.725,stockport_simplified,2022.2.4,Win32,60.97560976,661e456ee6de07e70aa9ef7b,66229d9fcb8db5d56b9611ee,,,,,,,,,,,,,,,,,,,,,,,,,,,,,,,,,,289.7608,293.058,"[7,2,5,3,8,1,6,4]","[[-0.3,0.2],[0.3,0.2]]","[[0.125,-0.2],[-0.125,-0.2]]",0.110185242,-0.200925954,1,0,0,2.78,o1_image,293.0722,1,293.575,293.575,295.5743,0,0,0,0,1,,,,,,,,,,,,,,,,,,,,,,,,,,,,,,,,,,,,,,,,,,,,,,,,,,
,,60bab50bcdd5d7ad3ee97479,21,female,2024-04-19_17h37.33.725,stockport_simplified,2022.2.4,Win32,60.97560976,661e456ee6de07e70aa9ef7b,66229d9fcb8db5d56b9611ee,,,,,,,,,,,,,,,,,,,,,,,,,,,,,,,,,,,,,,,,,,,,,,,,,,,,,,,,0,24,24,20,1,N,M,C,o1_image,stimuli/out1.png,stimuli/correct_out1.png,stimuli/out2.png,,,,,,,,,,,,,,,,,,,,,,,,,,,,,,,,,,,,,,
,,60bab50bcdd5d7ad3ee97479,21,female,2024-04-19_17h37.33.725,stockport_simplified,2022.2.4,Win32,60.97560976,661e456ee6de07e70aa9ef7b,66229d9fcb8db5d56b9611ee,,,,,,,,,,,,,,,,,,,,,,,,,,,,,,,,,,295.5753,298.773,"[7,2,5,3,8,1,6,4]","[[-0.3,0.2],[0.3,0.2]]","[[-0.125,-0.2],[0.125,-0.2]]",-0.113888889,-0.203703732,1,0,0,2.6821,o1_image,298.7885,1,299.2895,299.2896,301.289,0,0,0,0,1,,,,,,,,,,,,,,,,,,,,,,,,,,,,,,,,,,,,,,,,,,,,,,,,,,
,,60bab50bcdd5d7ad3ee97479,21,female,2024-04-19_17h37.33.725,stockport_simplified,2022.2.4,Win32,60.97560976,661e456ee6de07e70aa9ef7b,66229d9fcb8db5d56b9611ee,,,,,,,,,,,,,,,,,,,,,,,,,,,,,,,,,,,,,,,,,,,,,,,,,,,,,,,,0,25,25,52,1,N,M,C,o1_image,stimuli/out1.png,stimuli/correct_out1.png,stimuli/out2.png,,,,,,,,,,,,,,,,,,,,,,,,,,,,,,,,,,,,,,
,,60bab50bcdd5d7ad3ee97479,21,female,2024-04-19_17h37.33.725,stockport_simplified,2022.2.4,Win32,60.97560976,661e456ee6de07e70aa9ef7b,66229d9fcb8db5d56b9611ee,,,,,,,,,,,,,,,,,,,,,,,,,,,,,,,,,,301.2898,304.9543,"[7,2,5,3,8,1,6,4]","[[0.3,0.2],[-0.3,0.2]]","[[0.125,-0.2],[-0.125,-0.2]]",0.092592621,-0.191666667,1,0,0,3.1477,o1_image,304.9739,1,305.4707,305.4707,307.4698,0,0,0,0,1,,,,,,,,,,,,,,,,,,,,,,,,,,,,,,,,,,,,,,,,,,,,,,,,,,
,,60bab50bcdd5d7ad3ee97479,21,female,2024-04-19_17h37.33.725,stockport_simplified,2022.2.4,Win32,60.97560976,661e456ee6de07e70aa9ef7b,66229d9fcb8db5d56b9611ee,,,,,,,,,,,,,,,,,,,,,,,,,,,,,,,,,,,,,,,,,,,,,,,,,,,,,,,,0,26,26,32,1,A,X,N,o1_image,stimuli/out1.png,stimuli/correct_out1.png,stimuli/out2.png,,,,,,,,,,,,,,,,,,,,,,,,,,,,,,,,,,,,,,
,,60bab50bcdd5d7ad3ee97479,21,female,2024-04-19_17h37.33.725,stockport_simplified,2022.2.4,Win32,60.97560976,661e456ee6de07e70aa9ef7b,66229d9fcb8db5d56b9611ee,,,,,,,,,,,,,,,,,,,,,,,,,,,,,,,,,,307.4703,309.6026,"[7,2,5,3,8,1,6,4]","[[-0.3,0.2],[0.3,0.2]]","[[0.125,-0.2],[-0.125,-0.2]]",0.058333333,-0.194444444,1,0,0,1.6156,o1_image,309.6033,1,310.1021,310.1021,312.1021,0,0,0,0,1,,,,,,,,,,,,,,,,,,,,,,,,,,,,,,,,,,,,,,,,,,,,,,,,,,
,,60bab50bcdd5d7ad3ee97479,21,female,2024-04-19_17h37.33.725,stockport_simplified,2022.2.4,Win32,60.97560976,661e456ee6de07e70aa9ef7b,66229d9fcb8db5d56b9611ee,,,,,,,,,,,,,,,,,,,,,,,,,,,,,,,,,,,,,,,,,,,,,,,,,,,,,,,,0,27,27,3,1,A,X,N,o1_image,stimuli/out1.png,stimuli/correct_out1.png,stimuli/out2.png,,,,,,,,,,,,,,,,,,,,,,,,,,,,,,,,,,,,,,
,,60bab50bcdd5d7ad3ee97479,21,female,2024-04-19_17h37.33.725,stockport_simplified,2022.2.4,Win32,60.97560976,661e456ee6de07e70aa9ef7b,66229d9fcb8db5d56b9611ee,,,,,,,,,,,,,,,,,,,,,,,,,,,,,,,,,,312.1029,315.0175,"[7,2,5,3,8,1,6,4]","[[0.3,0.2],[-0.3,0.2]]","[[-0.125,-0.2],[0.125,-0.2]]",0.072222222,-0.187037065,1,0,0,2.3986,o2_image,315.0347,0,315.5347,315.5348,317.5335,0,0,0,0,1,,,,,,,,,,,,,,,,,,,,,,,,,,,,,,,,,,,,,,,,,,,,,,,,,,
,,60bab50bcdd5d7ad3ee97479,21,female,2024-04-19_17h37.33.725,stockport_simplified,2022.2.4,Win32,60.97560976,661e456ee6de07e70aa9ef7b,66229d9fcb8db5d56b9611ee,,,,,,,,,,,,,,,,,,,,,,,,,,,,,,,,,,,,,,,,,,,,,,,,,,,,,,,,0,28,28,0,1,A,X,N,o1_image,stimuli/out1.png,stimuli/correct_out1.png,stimuli/out2.png,,,,,,,,,,,,,,,,,,,,,,,,,,,,,,,,,,,,,,
,,60bab50bcdd5d7ad3ee97479,21,female,2024-04-19_17h37.33.725,stockport_simplified,2022.2.4,Win32,60.97560976,661e456ee6de07e70aa9ef7b,66229d9fcb8db5d56b9611ee,,,,,,,,,,,,,,,,,,,,,,,,,,,,,,,,,,317.5342,319.5663,"[7,2,5,3,8,1,6,4]","[[0.3,0.2],[-0.3,0.2]]","[[-0.125,-0.2],[0.125,-0.2]]",0.140740797,-0.197222222,1,0,0,1.5162,o2_image,319.5678,1,320.0661,320.0661,322.0652,0,0,0,0,1,,,,,,,,,,,,,,,,,,,,,,,,,,,,,,,,,,,,,,,,,,,,,,,,,,
,,60bab50bcdd5d7ad3ee97479,21,female,2024-04-19_17h37.33.725,stockport_simplified,2022.2.4,Win32,60.97560976,661e456ee6de07e70aa9ef7b,66229d9fcb8db5d56b9611ee,,,,,,,,,,,,,,,,,,,,,,,,,,,,,,,,,,,,,,,,,,,,,,,,,,,,,,,,0,29,29,18,1,B,Y,N,o2_image,stimuli/out2.png,stimuli/out1.png,stimuli/correct_out2.png,,,,,,,,,,,,,,,,,,,,,,,,,,,,,,,,,,,,,,
,,60bab50bcdd5d7ad3ee97479,21,female,2024-04-19_17h37.33.725,stockport_simplified,2022.2.4,Win32,60.97560976,661e456ee6de07e70aa9ef7b,66229d9fcb8db5d56b9611ee,,,,,,,,,,,,,,,,,,,,,,,,,,,,,,,,,,322.066,324.1808,"[7,2,5,3,8,1,6,4]","[[-0.3,0.2],[0.3,0.2]]","[[-0.125,-0.2],[0.125,-0.2]]",-0.081481425,-0.183333333,1,0,0,1.5976,o1_image,324.1823,1,324.6811,324.6812,326.6805,0,0,0,0,1,,,,,,,,,,,,,,,,,,,,,,,,,,,,,,,,,,,,,,,,,,,,,,,,,,
,,60bab50bcdd5d7ad3ee97479,21,female,2024-04-19_17h37.33.725,stockport_simplified,2022.2.4,Win32,60.97560976,661e456ee6de07e70aa9ef7b,66229d9fcb8db5d56b9611ee,,,,,,,,,,,,,,,,,,,,,,,,,,,,,,,,,,,,,,,,,,,,,,,,,,,,,,,,0,30,30,54,1,N,M,C,o1_image,stimuli/out1.png,stimuli/correct_out1.png,stimuli/out2.png,,,,,,,,,,,,,,,,,,,,,,,,,,,,,,,,,,,,,,
,,60bab50bcdd5d7ad3ee97479,21,female,2024-04-19_17h37.33.725,stockport_simplified,2022.2.4,Win32,60.97560976,661e456ee6de07e70aa9ef7b,66229d9fcb8db5d56b9611ee,,,,,,,,,,,,,,,,,,,,,,,,,,,,,,,,,,326.6815,329.4294,"[7,2,5,3,8,1,6,4]","[[0.3,0.2],[-0.3,0.2]]","[[-0.125,-0.2],[0.125,-0.2]]",-0.082407379,-0.187962977,1,0,0,2.2318,o1_image,329.4313,1,329.9295,329.9296,331.9288,0,0,0,0,1,,,,,,,,,,,,,,,,,,,,,,,,,,,,,,,,,,,,,,,,,,,,,,,,,,
,,60bab50bcdd5d7ad3ee97479,21,female,2024-04-19_17h37.33.725,stockport_simplified,2022.2.4,Win32,60.97560976,661e456ee6de07e70aa9ef7b,66229d9fcb8db5d56b9611ee,,,,,,,,,,,,,,,,,,,,,,,,,,,,,,,,,,,,,,,,,,,,,,,,,,,,,,,,0,31,31,23,1,N,M,C,o1_image,stimuli/out1.png,stimuli/correct_out1.png,stimuli/out2.png,,,,,,,,,,,,,,,,,,,,,,,,,,,,,,,,,,,,,,
,,60bab50bcdd5d7ad3ee97479,21,female,2024-04-19_17h37.33.725,stockport_simplified,2022.2.4,Win32,60.97560976,661e456ee6de07e70aa9ef7b,66229d9fcb8db5d56b9611ee,,,,,,,,,,,,,,,,,,,,,,,,,,,,,,,,,,331.9299,335.4945,"[7,2,5,3,8,1,6,4]","[[-0.3,0.2],[0.3,0.2]]","[[-0.125,-0.2],[0.125,-0.2]]",0.087037065,-0.199074088,1,0,0,3.048,o2_image,335.5155,1,336.0107,336.0107,338.0125,0,0,0,0,1,,,,,,,,,,,,,,,,,,,,,,,,,,,,,,,,,,,,,,,,,,,,,,,,,,
,,60bab50bcdd5d7ad3ee97479,21,female,2024-04-19_17h37.33.725,stockport_simplified,2022.2.4,Win32,60.97560976,661e456ee6de07e70aa9ef7b,66229d9fcb8db5d56b9611ee,,,,,,,,,,,,,,,,,,,,,,,,,,,,,,,,,,,,,,,,,,,,,,,,,,,,,,,,0,32,32,56,1,N,M,D,o2_image,stimuli/out2.png,stimuli/out1.png,stimuli/correct_out2.png,,,,,,,,,,,,,,,,,,,,,,,,,,,,,,,,,,,,,,
,,60bab50bcdd5d7ad3ee97479,21,female,2024-04-19_17h37.33.725,stockport_simplified,2022.2.4,Win32,60.97560976,661e456ee6de07e70aa9ef7b,66229d9fcb8db5d56b9611ee,,,,,,,,,,,,,,,,,,,,,,,,,,,,,,,,,,338.0134,340.4589,"[7,2,5,3,8,1,6,4]","[[0.3,0.2],[-0.3,0.2]]","[[0.125,-0.2],[-0.125,-0.2]]",-0.187962935,-0.204629644,1,0,0,1.9434,o2_image,340.48,1,340.9761,340.9761,342.9742,0,0,0,0,1,,,,,,,,,,,,,,,,,,,,,,,,,,,,,,,,,,,,,,,,,,,,,,,,,,
,,60bab50bcdd5d7ad3ee97479,21,female,2024-04-19_17h37.33.725,stockport_simplified,2022.2.4,Win32,60.97560976,661e456ee6de07e70aa9ef7b,66229d9fcb8db5d56b9611ee,,,,,,,,,,,,,,,,,,,,,,,,,,,,,,,,,,,,,,,,,,,,,,,,,,,,,,,,0,33,33,47,1,B,Y,N,o2_image,stimuli/out2.png,stimuli/out1.png,stimuli/correct_out2.png,,,,,,,,,,,,,,,,,,,,,,,,,,,,,,,,,,,,,,
,,60bab50bcdd5d7ad3ee97479,21,female,2024-04-19_17h37.33.725,stockport_simplified,2022.2.4,Win32,60.97560976,661e456ee6de07e70aa9ef7b,66229d9fcb8db5d56b9611ee,,,,,,,,,,,,,,,,,,,,,,,,,,,,,,,,,,342.9746,346.3564,"[7,2,5,3,8,1,6,4]","[[-0.3,0.2],[0.3,0.2]]","[[0.125,-0.2],[-0.125,-0.2]]",-0.100925869,-0.177777778,1,0,0,2.8645,o2_image,346.3575,0,346.8562,346.8562,348.8564,0,0,0,0,1,,,,,,,,,,,,,,,,,,,,,,,,,,,,,,,,,,,,,,,,,,,,,,,,,,
,,60bab50bcdd5d7ad3ee97479,21,female,2024-04-19_17h37.33.725,stockport_simplified,2022.2.4,Win32,60.97560976,661e456ee6de07e70aa9ef7b,66229d9fcb8db5d56b9611ee,,,,,,,,,,,,,,,,,,,,,,,,,,,,,,,,,,,,,,,,,,,,,,,,,,,,,,,,0,34,34,36,1,A,Y,N,o1_image,stimuli/out1.png,stimuli/correct_out1.png,stimuli/out2.png,,,,,,,,,,,,,,,,,,,,,,,,,,,,,,,,,,,,,,
,,60bab50bcdd5d7ad3ee97479,21,female,2024-04-19_17h37.33.725,stockport_simplified,2022.2.4,Win32,60.97560976,661e456ee6de07e70aa9ef7b,66229d9fcb8db5d56b9611ee,,,,,,,,,,,,,,,,,,,,,,,,,,,,,,,,,,348.8575,350.9718,"[7,2,5,3,8,1,6,4]","[[0.3,0.2],[-0.3,0.2]]","[[-0.125,-0.2],[0.125,-0.2]]",-0.078703647,-0.2,1,0,0,1.5988,o1_image,350.9727,1,351.4722,351.4722,353.4717,0,0,0,0,1,,,,,,,,,,,,,,,,,,,,,,,,,,,,,,,,,,,,,,,,,,,,,,,,,,
,,60bab50bcdd5d7ad3ee97479,21,female,2024-04-19_17h37.33.725,stockport_simplified,2022.2.4,Win32,60.97560976,661e456ee6de07e70aa9ef7b,66229d9fcb8db5d56b9611ee,,,,,,,,,,,,,,,,,,,,,,,,,,,,,,,,,,,,,,,,,,,,,,,,,,,,,,,,0,35,35,33,1,A,X,N,o1_image,stimuli/out1.png,stimuli/correct_out1.png,stimuli/out2.png,,,,,,,,,,,,,,,,,,,,,,,,,,,,,,,,,,,,,,
,,60bab50bcdd5d7ad3ee97479,21,female,2024-04-19_17h37.33.725,stockport_simplified,2022.2.4,Win32,60.97560976,661e456ee6de07e70aa9ef7b,66229d9fcb8db5d56b9611ee,,,,,,,,,,,,,,,,,,,,,,,,,,,,,,,,,,353.4733,358.0766,"[7,2,5,3,8,1,6,4]","[[-0.3,0.2],[0.3,0.2]]","[[0.125,-0.2],[-0.125,-0.2]]",-0.101851824,-0.207407422,1,0,0,4.0877,o2_image,358.0943,1,358.5864,358.5865,360.585,0,0,0,0,1,,,,,,,,,,,,,,,,,,,,,,,,,,,,,,,,,,,,,,,,,,,,,,,,,,
,,60bab50bcdd5d7ad3ee97479,21,female,2024-04-19_17h37.33.725,stockport_simplified,2022.2.4,Win32,60.97560976,661e456ee6de07e70aa9ef7b,66229d9fcb8db5d56b9611ee,,,,,,,,,,,,,,,,,,,,,,,,,,,,,,,,,,,,,,,,,,,,,,,,,,,,,,,,0,36,36,12,1,B,X,N,o2_image,stimuli/out2.png,stimuli/out1.png,stimuli/correct_out2.png,,,,,,,,,,,,,,,,,,,,,,,,,,,,,,,,,,,,,,
,,60bab50bcdd5d7ad3ee97479,21,female,2024-04-19_17h37.33.725,stockport_simplified,2022.2.4,Win32,60.97560976,661e456ee6de07e70aa9ef7b,66229d9fcb8db5d56b9611ee,,,,,,,,,,,,,,,,,,,,,,,,,,,,,,,,,,360.5856,363.2676,"[7,2,5,3,8,1,6,4]","[[-0.3,0.2],[0.3,0.2]]","[[-0.125,-0.2],[0.125,-0.2]]",0.141666667,-0.190740755,1,0,0,2.1655,o2_image,363.2688,1,363.7673,363.7674,365.7583,0,0,0,0,1,,,,,,,,,,,,,,,,,,,,,,,,,,,,,,,,,,,,,,,,,,,,,,,,,,
,,60bab50bcdd5d7ad3ee97479,21,female,2024-04-19_17h37.33.725,stockport_simplified,2022.2.4,Win32,60.97560976,661e456ee6de07e70aa9ef7b,66229d9fcb8db5d56b9611ee,,,,,,,,,,,,,,,,,,,,,,,,,,,,,,,,,,,,,,,,,,,,,,,,,,,,,,,,0,37,37,16,1,B,Y,N,o2_image,stimuli/out2.png,stimuli/out1.png,stimuli/correct_out2.png,,,,,,,,,,,,,,,,,,,,,,,,,,,,,,,,,,,,,,
,,60bab50bcdd5d7ad3ee97479,21,female,2024-04-19_17h37.33.725,stockport_simplified,2022.2.4,Win32,60.97560976,661e456ee6de07e70aa9ef7b,66229d9fcb8db5d56b9611ee,,,,,,,,,,,,,,,,,,,,,,,,,,,,,,,,,,365.7591,369.5321,"[7,2,5,3,8,1,6,4]","[[-0.3,0.2],[0.3,0.2]]","[[0.125,-0.2],[-0.125,-0.2]]",0.166666667,-0.20648151,1,0,0,3.2639,o1_image,369.5475,1,370.0487,370.0487,372.0482,0,0,0,0,1,,,,,,,,,,,,,,,,,,,,,,,,,,,,,,,,,,,,,,,,,,,,,,,,,,
,,60bab50bcdd5d7ad3ee97479,21,female,2024-04-19_17h37.33.725,stockport_simplified,2022.2.4,Win32,60.97560976,661e456ee6de07e70aa9ef7b,66229d9fcb8db5d56b9611ee,,,,,,,,,,,,,,,,,,,,,,,,,,,,,,,,,,,,,,,,,,,,,,,,,,,,,,,,0,38,38,6,1,A,Y,N,o1_image,stimuli/out1.png,stimuli/correct_out1.png,stimuli/out2.png,,,,,,,,,,,,,,,,,,,,,,,,,,,,,,,,,,,,,,
,,60bab50bcdd5d7ad3ee97479,21,female,2024-04-19_17h37.33.725,stockport_simplified,2022.2.4,Win32,60.97560976,661e456ee6de07e70aa9ef7b,66229d9fcb8db5d56b9611ee,,,,,,,,,,,,,,,,,,,,,,,,,,,,,,,,,,372.0491,374.4144,"[7,2,5,3,8,1,6,4]","[[0.3,0.2],[-0.3,0.2]]","[[-0.125,-0.2],[0.125,-0.2]]",-0.129629601,-0.19629631,1,0,0,1.8469,o1_image,374.4168,0,374.9137,374.9138,376.9142,0,0,0,0,1,,,,,,,,,,,,,,,,,,,,,,,,,,,,,,,,,,,,,,,,,,,,,,,,,,
,,60bab50bcdd5d7ad3ee97479,21,female,2024-04-19_17h37.33.725,stockport_simplified,2022.2.4,Win32,60.97560976,661e456ee6de07e70aa9ef7b,66229d9fcb8db5d56b9611ee,,,,,,,,,,,,,,,,,,,,,,,,,,,,,,,,,,,,,,,,,,,,,,,,,,,,,,,,0,39,39,58,1,N,M,D,o2_image,stimuli/out2.png,stimuli/out1.png,stimuli/correct_out2.png,,,,,,,,,,,,,,,,,,,,,,,,,,,,,,,,,,,,,,
,,60bab50bcdd5d7ad3ee97479,21,female,2024-04-19_17h37.33.725,stockport_simplified,2022.2.4,Win32,60.97560976,661e456ee6de07e70aa9ef7b,66229d9fcb8db5d56b9611ee,,,,,,,,,,,,,,,,,,,,,,,,,,,,,,,,,,376.9158,382.0618,"[7,2,5,3,8,1,6,4]","[[-0.3,0.2],[0.3,0.2]]","[[-0.125,-0.2],[0.125,-0.2]]",0.139814843,-0.194444444,1,0,0,4.63,o2_image,382.0758,0,382.5784,382.5784,384.5774,0,0,0,0,1,,,,,,,,,,,,,,,,,,,,,,,,,,,,,,,,,,,,,,,,,,,,,,,,,,
,,60bab50bcdd5d7ad3ee97479,21,female,2024-04-19_17h37.33.725,stockport_simplified,2022.2.4,Win32,60.97560976,661e456ee6de07e70aa9ef7b,66229d9fcb8db5d56b9611ee,,,,,,,,,,,,,,,,,,,,,,,,,,,,,,,,,,,,,,,,,,,,,,,,,,,,,,,,0,40,40,31,1,A,X,N,o1_image,stimuli/out1.png,stimuli/correct_out1.png,stimuli/out2.png,,,,,,,,,,,,,,,,,,,,,,,,,,,,,,,,,,,,,,
,,60bab50bcdd5d7ad3ee97479,21,female,2024-04-19_17h37.33.725,stockport_simplified,2022.2.4,Win32,60.97560976,661e456ee6de07e70aa9ef7b,66229d9fcb8db5d56b9611ee,,,,,,,,,,,,,,,,,,,,,,,,,,,,,,,,,,384.5783,388.3258,"[7,2,5,3,8,1,6,4]","[[0.3,0.2],[-0.3,0.2]]","[[0.125,-0.2],[-0.125,-0.2]]",0.136111111,-0.194444444,1,0,0,3.2314,o1_image,388.327,1,388.8264,388.8264,390.8247,0,0,0,0,1,,,,,,,,,,,,,,,,,,,,,,,,,,,,,,,,,,,,,,,,,,,,,,,,,,
,,60bab50bcdd5d7ad3ee97479,21,female,2024-04-19_17h37.33.725,stockport_simplified,2022.2.4,Win32,60.97560976,661e456ee6de07e70aa9ef7b,66229d9fcb8db5d56b9611ee,,,,,,,,,,,,,,,,,,,,,,,,,,,,,,,,,,,,,,,,,,,,,,,,,,,,,,,,0,41,41,24,1,N,M,C,o1_image,stimuli/out1.png,stimuli/correct_out1.png,stimuli/out2.png,,,,,,,,,,,,,,,,,,,,,,,,,,,,,,,,,,,,,,
,,60bab50bcdd5d7ad3ee97479,21,female,2024-04-19_17h37.33.725,stockport_simplified,2022.2.4,Win32,60.97560976,661e456ee6de07e70aa9ef7b,66229d9fcb8db5d56b9611ee,,,,,,,,,,,,,,,,,,,,,,,,,,,,,,,,,,390.8261,393.8913,"[7,2,5,3,8,1,6,4]","[[0.3,0.2],[-0.3,0.2]]","[[-0.125,-0.2],[0.125,-0.2]]",-0.124074046,-0.170370399,1,0,0,2.5475,o1_image,393.8928,1,394.391,394.391,396.3901,0,0,0,0,1,,,,,,,,,,,,,,,,,,,,,,,,,,,,,,,,,,,,,,,,,,,,,,,,,,
,,60bab50bcdd5d7ad3ee97479,21,female,2024-04-19_17h37.33.725,stockport_simplified,2022.2.4,Win32,60.97560976,661e456ee6de07e70aa9ef7b,66229d9fcb8db5d56b9611ee,,,,,,,,,,,,,,,,,,,,,,,,,,,,,,,,,,,,,,,,,,,,,,,,,,,,,,,,0,42,42,5,1,A,Y,N,o1_image,stimuli/out1.png,stimuli/correct_out1.png,stimuli/out2.png,,,,,,,,,,,,,,,,,,,,,,,,,,,,,,,,,,,,,,
,,60bab50bcdd5d7ad3ee97479,21,female,2024-04-19_17h37.33.725,stockport_simplified,2022.2.4,Win32,60.97560976,661e456ee6de07e70aa9ef7b,66229d9fcb8db5d56b9611ee,,,,,,,,,,,,,,,,,,,,,,,,,,,,,,,,,,396.3909,399.0397,"[7,2,5,3,8,1,6,4]","[[0.3,0.2],[-0.3,0.2]]","[[-0.125,-0.2],[0.125,-0.2]]",0.125925954,-0.215740797,1,0,0,2.1315,o2_image,399.059,1,399.556,399.5561,401.5563,0,0,0,0,1,,,,,,,,,,,,,,,,,,,,,,,,,,,,,,,,,,,,,,,,,,,,,,,,,,
,,60bab50bcdd5d7ad3ee97479,21,female,2024-04-19_17h37.33.725,stockport_simplified,2022.2.4,Win32,60.97560976,661e456ee6de07e70aa9ef7b,66229d9fcb8db5d56b9611ee,,,,,,,,,,,,,,,,,,,,,,,,,,,,,,,,,,,,,,,,,,,,,,,,,,,,,,,,0,43,43,29,1,N,M,D,o2_image,stimuli/out2.png,stimuli/out1.png,stimuli/correct_out2.png,,,,,,,,,,,,,,,,,,,,,,,,,,,,,,,,,,,,,,
,,60bab50bcdd5d7ad3ee97479,21,female,2024-04-19_17h37.33.725,stockport_simplified,2022.2.4,Win32,60.97560976,661e456ee6de07e70aa9ef7b,66229d9fcb8db5d56b9611ee,,,,,,,,,,,,,,,,,,,,,,,,,,,,,,,,,,401.5579,404.2543,"[7,2,5,3,8,1,6,4]","[[-0.3,0.2],[0.3,0.2]]","[[0.125,-0.2],[-0.125,-0.2]]",-0.073148092,-0.202777778,1,0,0,2.1809,o2_image,404.256,1,404.7537,404.7537,406.7607,0,0,0,0,1,,,,,,,,,,,,,,,,,,,,,,,,,,,,,,,,,,,,,,,,,,,,,,,,,,
,,60bab50bcdd5d7ad3ee97479,21,female,2024-04-19_17h37.33.725,stockport_simplified,2022.2.4,Win32,60.97560976,661e456ee6de07e70aa9ef7b,66229d9fcb8db5d56b9611ee,,,,,,,,,,,,,,,,,,,,,,,,,,,,,,,,,,,,,,,,,,,,,,,,,,,,,,,,0,44,44,15,1,B,Y,N,o2_image,stimuli/out2.png,stimuli/out1.png,stimuli/correct_out2.png,,,,,,,,,,,,,,,,,,,,,,,,,,,,,,,,,,,,,,
,,60bab50bcdd5d7ad3ee97479,21,female,2024-04-19_17h37.33.725,stockport_simplified,2022.2.4,Win32,60.97560976,661e456ee6de07e70aa9ef7b,66229d9fcb8db5d56b9611ee,,,,,,,,,,,,,,,,,,,,,,,,,,,,,,,,,,406.7615,409.7857,"[7,2,5,3,8,1,6,4]","[[0.3,0.2],[-0.3,0.2]]","[[0.125,-0.2],[-0.125,-0.2]]",-0.102777778,-0.183333333,1,0,0,2.5154,o2_image,409.7871,0,410.285,410.285,412.2846,0,0,0,0,1,,,,,,,,,,,,,,,,,,,,,,,,,,,,,,,,,,,,,,,,,,,,,,,,,,
,,60bab50bcdd5d7ad3ee97479,21,female,2024-04-19_17h37.33.725,stockport_simplified,2022.2.4,Win32,60.97560976,661e456ee6de07e70aa9ef7b,66229d9fcb8db5d56b9611ee,,,,,,,,,,,,,,,,,,,,,,,,,,,,,,,,,,,,,,,,,,,,,,,,,,,,,,,,0,45,45,53,1,N,M,C,o1_image,stimuli/out1.png,stimuli/correct_out1.png,stimuli/out2.png,,,,,,,,,,,,,,,,,,,,,,,,,,,,,,,,,,,,,,
,,60bab50bcdd5d7ad3ee97479,21,female,2024-04-19_17h37.33.725,stockport_simplified,2022.2.4,Win32,60.97560976,661e456ee6de07e70aa9ef7b,66229d9fcb8db5d56b9611ee,,,,,,,,,,,,,,,,,,,,,,,,,,,,,,,,,,412.2853,414.2846,"[7,2,5,3,8,1,6,4]","[[0.3,0.2],[-0.3,0.2]]","[[0.125,-0.2],[-0.125,-0.2]]",-0.102777778,-0.183333333,1,0,0,1.4825,o2_image,414.2865,1,414.784,414.7841,416.7834,0,0,0,0,1,,,,,,,,,,,,,,,,,,,,,,,,,,,,,,,,,,,,,,,,,,,,,,,,,,
,,60bab50bcdd5d7ad3ee97479,21,female,2024-04-19_17h37.33.725,stockport_simplified,2022.2.4,Win32,60.97560976,661e456ee6de07e70aa9ef7b,66229d9fcb8db5d56b9611ee,,,,,,,,,,,,,,,,,,,,,,,,,,,,,,,,,,,,,,,,,,,,,,,,,,,,,,,,0,46,46,59,1,N,M,D,o2_image,stimuli/out2.png,stimuli/out1.png,stimuli/correct_out2.png,,,,,,,,,,,,,,,,,,,,,,,,,,,,,,,,,,,,,,
,,60bab50bcdd5d7ad3ee97479,21,female,2024-04-19_17h37.33.725,stockport_simplified,2022.2.4,Win32,60.97560976,661e456ee6de07e70aa9ef7b,66229d9fcb8db5d56b9611ee,,,,,,,,,,,,,,,,,,,,,,,,,,,,,,,,,,416.7845,418.7988,"[7,2,5,3,8,1,6,4]","[[0.3,0.2],[-0.3,0.2]]","[[0.125,-0.2],[-0.125,-0.2]]",0.138888889,-0.207407422,1,0,0,1.4969,o1_image,418.7997,1,419.2995,419.2996,421.2983,0,0,0,0,1,,,,,,,,,,,,,,,,,,,,,,,,,,,,,,,,,,,,,,,,,,,,,,,,,,
,,60bab50bcdd5d7ad3ee97479,21,female,2024-04-19_17h37.33.725,stockport_simplified,2022.2.4,Win32,60.97560976,661e456ee6de07e70aa9ef7b,66229d9fcb8db5d56b9611ee,,,,,,,,,,,,,,,,,,,,,,,,,,,,,,,,,,,,,,,,,,,,,,,,,,,,,,,,0,47,47,4,1,A,X,N,o1_image,stimuli/out1.png,stimuli/correct_out1.png,stimuli/out2.png,,,,,,,,,,,,,,,,,,,,,,,,,,,,,,,,,,,,,,
,,60bab50bcdd5d7ad3ee97479,21,female,2024-04-19_17h37.33.725,stockport_simplified,2022.2.4,Win32,60.97560976,661e456ee6de07e70aa9ef7b,66229d9fcb8db5d56b9611ee,,,,,,,,,,,,,,,,,,,,,,,,,,,,,,,,,,421.2992,423.1805,"[7,2,5,3,8,1,6,4]","[[-0.3,0.2],[0.3,0.2]]","[[-0.125,-0.2],[0.125,-0.2]]",0.086111111,-0.216666667,1,0,0,1.3654,o2_image,423.1817,1,423.6801,423.6801,425.6795,0,0,0,0,1,,,,,,,,,,,,,,,,,,,,,,,,,,,,,,,,,,,,,,,,,,,,,,,,,,
,,60bab50bcdd5d7ad3ee97479,21,female,2024-04-19_17h37.33.725,stockport_simplified,2022.2.4,Win32,60.97560976,661e456ee6de07e70aa9ef7b,66229d9fcb8db5d56b9611ee,,,,,,,,,,,,,,,,,,,,,,,,,,,,,,,,,,,,,,,,,,,,,,,,,,,,,,,,0,48,48,26,1,N,M,D,o2_image,stimuli/out2.png,stimuli/out1.png,stimuli/correct_out2.png,,,,,,,,,,,,,,,,,,,,,,,,,,,,,,,,,,,,,,
,,60bab50bcdd5d7ad3ee97479,21,female,2024-04-19_17h37.33.725,stockport_simplified,2022.2.4,Win32,60.97560976,661e456ee6de07e70aa9ef7b,66229d9fcb8db5d56b9611ee,,,,,,,,,,,,,,,,,,,,,,,,,,,,,,,,,,425.6799,428.0124,"[7,2,5,3,8,1,6,4]","[[0.3,0.2],[-0.3,0.2]]","[[-0.125,-0.2],[0.125,-0.2]]",0.111111111,-0.199074088,1,0,0,1.8154,o2_image,428.0133,1,428.5125,428.5126,430.5122,0,0,0,0,1,,,,,,,,,,,,,,,,,,,,,,,,,,,,,,,,,,,,,,,,,,,,,,,,,,
,,60bab50bcdd5d7ad3ee97479,21,female,2024-04-19_17h37.33.725,stockport_simplified,2022.2.4,Win32,60.97560976,661e456ee6de07e70aa9ef7b,66229d9fcb8db5d56b9611ee,,,,,,,,,,,,,,,,,,,,,,,,,,,,,,,,,,,,,,,,,,,,,,,,,,,,,,,,0,49,49,17,1,B,Y,N,o2_image,stimuli/out2.png,stimuli/out1.png,stimuli/correct_out2.png,,,,,,,,,,,,,,,,,,,,,,,,,,,,,,,,,,,,,,
,,60bab50bcdd5d7ad3ee97479,21,female,2024-04-19_17h37.33.725,stockport_simplified,2022.2.4,Win32,60.97560976,661e456ee6de07e70aa9ef7b,66229d9fcb8db5d56b9611ee,,,,,,,,,,,,,,,,,,,,,,,,,,,,,,,,,,430.5133,432.9447,"[7,2,5,3,8,1,6,4]","[[0.3,0.2],[-0.3,0.2]]","[[0.125,-0.2],[-0.125,-0.2]]",-0.081481425,-0.187037065,1,0,0,1.9138,o2_image,432.9613,1,433.4612,433.4613,435.4605,0,0,0,0,1,,,,,,,,,,,,,,,,,,,,,,,,,,,,,,,,,,,,,,,,,,,,,,,,,,
,,60bab50bcdd5d7ad3ee97479,21,female,2024-04-19_17h37.33.725,stockport_simplified,2022.2.4,Win32,60.97560976,661e456ee6de07e70aa9ef7b,66229d9fcb8db5d56b9611ee,,,,,,,,,,,,,,,,,,,,,,,,,,,,,,,,,,,,,,,,,,,,,,,,,,,,,,,,0,50,50,57,1,N,M,D,o2_image,stimuli/out2.png,stimuli/out1.png,stimuli/correct_out2.png,,,,,,,,,,,,,,,,,,,,,,,,,,,,,,,,,,,,,,
,,60bab50bcdd5d7ad3ee97479,21,female,2024-04-19_17h37.33.725,stockport_simplified,2022.2.4,Win32,60.97560976,661e456ee6de07e70aa9ef7b,66229d9fcb8db5d56b9611ee,,,,,,,,,,,,,,,,,,,,,,,,,,,,,,,,,,435.4613,437.1258,"[7,2,5,3,8,1,6,4]","[[-0.3,0.2],[0.3,0.2]]","[[-0.125,-0.2],[0.125,-0.2]]",0.130555556,-0.2,1,0,0,1.1493,o2_image,437.1269,1,437.6265,437.6265,439.6254,0,0,0,0,1,,,,,,,,,,,,,,,,,,,,,,,,,,,,,,,,,,,,,,,,,,,,,,,,,,
,,60bab50bcdd5d7ad3ee97479,21,female,2024-04-19_17h37.33.725,stockport_simplified,2022.2.4,Win32,60.97560976,661e456ee6de07e70aa9ef7b,66229d9fcb8db5d56b9611ee,,,,,,,,,,,,,,,,,,,,,,,,,,,,,,,,,,,,,,,,,,,,,,,,,,,,,,,,0,51,51,28,1,N,M,D,o2_image,stimuli/out2.png,stimuli/out1.png,stimuli/correct_out2.png,,,,,,,,,,,,,,,,,,,,,,,,,,,,,,,,,,,,,,
,,60bab50bcdd5d7ad3ee97479,21,female,2024-04-19_17h37.33.725,stockport_simplified,2022.2.4,Win32,60.97560976,661e456ee6de07e70aa9ef7b,66229d9fcb8db5d56b9611ee,,,,,,,,,,,,,,,,,,,,,,,,,,,,,,,,,,439.6259,442.7412,"[7,2,5,3,8,1,6,4]","[[0.3,0.2],[-0.3,0.2]]","[[-0.125,-0.2],[0.125,-0.2]]",0.080555556,-0.202777778,1,0,0,2.5982,o2_image,442.761,1,443.2574,443.2575,445.257,0,0,0,0,1,,,,,,,,,,,,,,,,,,,,,,,,,,,,,,,,,,,,,,,,,,,,,,,,,,
,,60bab50bcdd5d7ad3ee97479,21,female,2024-04-19_17h37.33.725,stockport_simplified,2022.2.4,Win32,60.97560976,661e456ee6de07e70aa9ef7b,66229d9fcb8db5d56b9611ee,,,,,,,,,,,,,,,,,,,,,,,,,,,,,,,,,,,,,,,,,,,,,,,,,,,,,,,,0,52,52,13,1,B,X,N,o2_image,stimuli/out2.png,stimuli/out1.png,stimuli/correct_out2.png,,,,,,,,,,,,,,,,,,,,,,,,,,,,,,,,,,,,,,
,,60bab50bcdd5d7ad3ee97479,21,female,2024-04-19_17h37.33.725,stockport_simplified,2022.2.4,Win32,60.97560976,661e456ee6de07e70aa9ef7b,66229d9fcb8db5d56b9611ee,,,,,,,,,,,,,,,,,,,,,,,,,,,,,,,,,,445.2576,448.0731,"[7,2,5,3,8,1,6,4]","[[-0.3,0.2],[0.3,0.2]]","[[0.125,-0.2],[-0.125,-0.2]]",0.071296353,-0.199074088,1,0,0,2.2987,o1_image,448.0758,1,448.5721,448.5721,450.5722,0,0,0,0,1,,,,,,,,,,,,,,,,,,,,,,,,,,,,,,,,,,,,,,,,,,,,,,,,,,
,,60bab50bcdd5d7ad3ee97479,21,female,2024-04-19_17h37.33.725,stockport_simplified,2022.2.4,Win32,60.97560976,661e456ee6de07e70aa9ef7b,66229d9fcb8db5d56b9611ee,,,,,,,,,,,,,,,,,,,,,,,,,,,,,,,,,,,,,,,,,,,,,,,,,,,,,,,,0,53,53,35,1,A,Y,N,o1_image,stimuli/out1.png,stimuli/correct_out1.png,stimuli/out2.png,,,,,,,,,,,,,,,,,,,,,,,,,,,,,,,,,,,,,,
,,60bab50bcdd5d7ad3ee97479,21,female,2024-04-19_17h37.33.725,stockport_simplified,2022.2.4,Win32,60.97560976,661e456ee6de07e70aa9ef7b,66229d9fcb8db5d56b9611ee,,,,,,,,,,,,,,,,,,,,,,,,,,,,,,,,,,450.573,453.2214,"[7,2,5,3,8,1,6,4]","[[-0.3,0.2],[0.3,0.2]]","[[0.125,-0.2],[-0.125,-0.2]]",-0.11851849,-0.205555556,1,0,0,2.1319,o2_image,453.2229,1,453.7201,453.7201,455.7205,0,0,0,0,1,,,,,,,,,,,,,,,,,,,,,,,,,,,,,,,,,,,,,,,,,,,,,,,,,,
,,60bab50bcdd5d7ad3ee97479,21,female,2024-04-19_17h37.33.725,stockport_simplified,2022.2.4,Win32,60.97560976,661e456ee6de07e70aa9ef7b,66229d9fcb8db5d56b9611ee,,,,,,,,,,,,,,,,,,,,,,,,,,,,,,,,,,,,,,,,,,,,,,,,,,,,,,,,0,54,54,14,1,B,X,N,o2_image,stimuli/out2.png,stimuli/out1.png,stimuli/correct_out2.png,,,,,,,,,,,,,,,,,,,,,,,,,,,,,,,,,,,,,,
,,60bab50bcdd5d7ad3ee97479,21,female,2024-04-19_17h37.33.725,stockport_simplified,2022.2.4,Win32,60.97560976,661e456ee6de07e70aa9ef7b,66229d9fcb8db5d56b9611ee,,,,,,,,,,,,,,,,,,,,,,,,,,,,,,,,,,455.7217,458.3187,"[7,2,5,3,8,1,6,4]","[[-0.3,0.2],[0.3,0.2]]","[[0.125,-0.2],[-0.125,-0.2]]",0.105555556,-0.189814843,1,0,0,2.0812,o1_image,458.3198,1,458.8192,458.8193,460.8182,0,0,0,0,1,,,,,,,,,,,,,,,,,,,,,,,,,,,,,,,,,,,,,,,,,,,,,,,,,,
,,60bab50bcdd5d7ad3ee97479,21,female,2024-04-19_17h37.33.725,stockport_simplified,2022.2.4,Win32,60.97560976,661e456ee6de07e70aa9ef7b,66229d9fcb8db5d56b9611ee,,,,,,,,,,,,,,,,,,,,,,,,,,,,,,,,,,,,,,,,,,,,,,,,,,,,,,,,0,55,55,39,1,A,Y,N,o1_image,stimuli/out1.png,stimuli/correct_out1.png,stimuli/out2.png,,,,,,,,,,,,,,,,,,,,,,,,,,,,,,,,,,,,,,
,,60bab50bcdd5d7ad3ee97479,21,female,2024-04-19_17h37.33.725,stockport_simplified,2022.2.4,Win32,60.97560976,661e456ee6de07e70aa9ef7b,66229d9fcb8db5d56b9611ee,,,,,,,,,,,,,,,,,,,,,,,,,,,,,,,,,,460.8187,462.4508,"[7,2,5,3,8,1,6,4]","[[0.3,0.2],[-0.3,0.2]]","[[0.125,-0.2],[-0.125,-0.2]]",-0.078703647,-0.195370399,1,0,0,1.1153,o2_image,462.4518,1,462.9512,462.9513,464.9503,0,0,0,0,1,,,,,,,,,,,,,,,,,,,,,,,,,,,,,,,,,,,,,,,,,,,,,,,,,,
,,60bab50bcdd5d7ad3ee97479,21,female,2024-04-19_17h37.33.725,stockport_simplified,2022.2.4,Win32,60.97560976,661e456ee6de07e70aa9ef7b,66229d9fcb8db5d56b9611ee,,,,,,,,,,,,,,,,,,,,,,,,,,,,,,,,,,,,,,,,,,,,,,,,,,,,,,,,0,56,56,25,1,N,M,D,o2_image,stimuli/out2.png,stimuli/out1.png,stimuli/correct_out2.png,,,,,,,,,,,,,,,,,,,,,,,,,,,,,,,,,,,,,,
,,60bab50bcdd5d7ad3ee97479,21,female,2024-04-19_17h37.33.725,stockport_simplified,2022.2.4,Win32,60.97560976,661e456ee6de07e70aa9ef7b,66229d9fcb8db5d56b9611ee,,,,,,,,,,,,,,,,,,,,,,,,,,,,,,,,,,464.9514,467.9819,"[7,2,5,3,8,1,6,4]","[[0.3,0.2],[-0.3,0.2]]","[[0.125,-0.2],[-0.125,-0.2]]",0.116666667,-0.185185199,1,0,0,2.5132,o1_image,467.9826,1,468.4823,468.4824,470.4816,0,0,0,0,1,,,,,,,,,,,,,,,,,,,,,,,,,,,,,,,,,,,,,,,,,,,,,,,,,,
,,60bab50bcdd5d7ad3ee97479,21,female,2024-04-19_17h37.33.725,stockport_simplified,2022.2.4,Win32,60.97560976,661e456ee6de07e70aa9ef7b,66229d9fcb8db5d56b9611ee,,,,,,,,,,,,,,,,,,,,,,,,,,,,,,,,,,,,,,,,,,,,,,,,,,,,,,,,0,57,57,38,1,A,Y,N,o1_image,stimuli/out1.png,stimuli/correct_out1.png,stimuli/out2.png,,,,,,,,,,,,,,,,,,,,,,,,,,,,,,,,,,,,,,
,,60bab50bcdd5d7ad3ee97479,21,female,2024-04-19_17h37.33.725,stockport_simplified,2022.2.4,Win32,60.97560976,661e456ee6de07e70aa9ef7b,66229d9fcb8db5d56b9611ee,,,,,,,,,,,,,,,,,,,,,,,,,,,,,,,,,,470.483,473.1305,"[7,2,5,3,8,1,6,4]","[[0.3,0.2],[-0.3,0.2]]","[[0.125,-0.2],[-0.125,-0.2]]",0.126851908,-0.188888889,1,0,0,2.1302,o1_image,473.14,1,473.6301,473.6301,475.6299,0,0,0,0,1,,,,,,,,,,,,,,,,,,,,,,,,,,,,,,,,,,,,,,,,,,,,,,,,,,
,,60bab50bcdd5d7ad3ee97479,21,female,2024-04-19_17h37.33.725,stockport_simplified,2022.2.4,Win32,60.97560976,661e456ee6de07e70aa9ef7b,66229d9fcb8db5d56b9611ee,,,,,,,,,,,,,,,,,,,,,,,,,,,,,,,,,,,,,,,,,,,,,,,,,,,,,,,,0,58,58,50,1,N,M,C,o1_image,stimuli/out1.png,stimuli/correct_out1.png,stimuli/out2.png,,,,,,,,,,,,,,,,,,,,,,,,,,,,,,,,,,,,,,
,,60bab50bcdd5d7ad3ee97479,21,female,2024-04-19_17h37.33.725,stockport_simplified,2022.2.4,Win32,60.97560976,661e456ee6de07e70aa9ef7b,66229d9fcb8db5d56b9611ee,,,,,,,,,,,,,,,,,,,,,,,,,,,,,,,,,,475.6305,477.6955,"[7,2,5,3,8,1,6,4]","[[-0.3,0.2],[0.3,0.2]]","[[-0.125,-0.2],[0.125,-0.2]]",-0.087036981,-0.160185199,1,0,0,1.5488,o1_image,477.6964,1,478.1959,478.196,480.1944,0,0,0,0,1,,,,,,,,,,,,,,,,,,,,,,,,,,,,,,,,,,,,,,,,,,,,,,,,,,
,,60bab50bcdd5d7ad3ee97479,21,female,2024-04-19_17h37.33.725,stockport_simplified,2022.2.4,Win32,60.97560976,661e456ee6de07e70aa9ef7b,66229d9fcb8db5d56b9611ee,,,,,,,,,,,,,,,,,,,,,,,,,,,,,,,,,,,,,,,,,,,,,,,,,,,,,,,,0,59,59,2,1,A,X,N,o1_image,stimuli/out1.png,stimuli/correct_out1.png,stimuli/out2.png,,,,,,,,,,,,,,,,,,,,,,,,,,,,,,,,,,,,,,
,,60bab50bcdd5d7ad3ee97479,21,female,2024-04-19_17h37.33.725,stockport_simplified,2022.2.4,Win32,60.97560976,661e456ee6de07e70aa9ef7b,66229d9fcb8db5d56b9611ee,,,,,,,,,,,,,,,,,,,,,,,,,,,,,,,,,,480.1947,482.7943,"[7,2,5,3,8,1,6,4]","[[-0.3,0.2],[0.3,0.2]]","[[-0.125,-0.2],[0.125,-0.2]]",-0.087036981,-0.160185199,1,0,0,2.083,o1_image,482.8131,1,483.3101,483.3102,485.3098,0,0,0,0,1,,,,,,,,,,,,,,,,,,,,,,,,,,,,,,,,,,,,,,,,,,,,,,,,,,
,,60bab50bcdd5d7ad3ee97479,21,female,2024-04-19_17h37.33.725,stockport_simplified,2022.2.4,Win32,60.97560976,661e456ee6de07e70aa9ef7b,66229d9fcb8db5d56b9611ee,,,,,,,,,,,,,,,,,,,,,,,,,,,,,,,,,,,,,,,,,,,,,,,,,,,,,,,,1,0,60,2,1,A,X,N,o1_image,stimuli/out1.png,stimuli/correct_out1.png,stimuli/out2.png,,,,,,,,,,,,,,,,,,,,,,,,,,,,,,,,,,,,,,
,,60bab50bcdd5d7ad3ee97479,21,female,2024-04-19_17h37.33.725,stockport_simplified,2022.2.4,Win32,60.97560976,661e456ee6de07e70aa9ef7b,66229d9fcb8db5d56b9611ee,,,,,,,,,,,,,,,,,,,,,,,,,,,,,,,,,,485.3109,487.2928,"[7,2,5,3,8,1,6,4]","[[-0.3,0.2],[0.3,0.2]]","[[-0.125,-0.2],[0.125,-0.2]]",0.161111111,-0.209259288,1,0,0,1.466,o2_image,487.2942,1,487.7926,487.7926,489.792,0,0,0,0,1,,,,,,,,,,,,,,,,,,,,,,,,,,,,,,,,,,,,,,,,,,,,,,,,,,
,,60bab50bcdd5d7ad3ee97479,21,female,2024-04-19_17h37.33.725,stockport_simplified,2022.2.4,Win32,60.97560976,661e456ee6de07e70aa9ef7b,66229d9fcb8db5d56b9611ee,,,,,,,,,,,,,,,,,,,,,,,,,,,,,,,,,,,,,,,,,,,,,,,,,,,,,,,,1,1,61,49,1,B,Y,N,o2_image,stimuli/out2.png,stimuli/out1.png,stimuli/correct_out2.png,,,,,,,,,,,,,,,,,,,,,,,,,,,,,,,,,,,,,,
,,60bab50bcdd5d7ad3ee97479,21,female,2024-04-19_17h37.33.725,stockport_simplified,2022.2.4,Win32,60.97560976,661e456ee6de07e70aa9ef7b,66229d9fcb8db5d56b9611ee,,,,,,,,,,,,,,,,,,,,,,,,,,,,,,,,,,489.7928,491.8245,"[7,2,5,3,8,1,6,4]","[[0.3,0.2],[-0.3,0.2]]","[[0.125,-0.2],[-0.125,-0.2]]",0.101851908,-0.19629631,1,0,0,1.5156,o1_image,491.8263,1,492.3242,492.3242,494.3231,0,0,0,0,1,,,,,,,,,,,,,,,,,,,,,,,,,,,,,,,,,,,,,,,,,,,,,,,,,,
,,60bab50bcdd5d7ad3ee97479,21,female,2024-04-19_17h37.33.725,stockport_simplified,2022.2.4,Win32,60.97560976,661e456ee6de07e70aa9ef7b,66229d9fcb8db5d56b9611ee,,,,,,,,,,,,,,,,,,,,,,,,,,,,,,,,,,,,,,,,,,,,,,,,,,,,,,,,1,2,62,35,1,A,Y,N,o1_image,stimuli/out1.png,stimuli/correct_out1.png,stimuli/out2.png,,,,,,,,,,,,,,,,,,,,,,,,,,,,,,,,,,,,,,
,,60bab50bcdd5d7ad3ee97479,21,female,2024-04-19_17h37.33.725,stockport_simplified,2022.2.4,Win32,60.97560976,661e456ee6de07e70aa9ef7b,66229d9fcb8db5d56b9611ee,,,,,,,,,,,,,,,,,,,,,,,,,,,,,,,,,,494.3243,496.6226,"[7,2,5,3,8,1,6,4]","[[0.3,0.2],[-0.3,0.2]]","[[0.125,-0.2],[-0.125,-0.2]]",-0.123148092,-0.2,1,0,0,1.7815,o2_image,496.6372,1,497.1391,497.1391,499.1379,0,0,0,0,1,,,,,,,,,,,,,,,,,,,,,,,,,,,,,,,,,,,,,,,,,,,,,,,,,,
,,60bab50bcdd5d7ad3ee97479,21,female,2024-04-19_17h37.33.725,stockport_simplified,2022.2.4,Win32,60.97560976,661e456ee6de07e70aa9ef7b,66229d9fcb8db5d56b9611ee,,,,,,,,,,,,,,,,,,,,,,,,,,,,,,,,,,,,,,,,,,,,,,,,,,,,,,,,1,3,63,42,1,B,X,N,o2_image,stimuli/out2.png,stimuli/out1.png,stimuli/correct_out2.png,,,,,,,,,,,,,,,,,,,,,,,,,,,,,,,,,,,,,,
,,60bab50bcdd5d7ad3ee97479,21,female,2024-04-19_17h37.33.725,stockport_simplified,2022.2.4,Win32,60.97560976,661e456ee6de07e70aa9ef7b,66229d9fcb8db5d56b9611ee,,,,,,,,,,,,,,,,,,,,,,,,,,,,,,,,,,499.1384,501.5382,"[7,2,5,3,8,1,6,4]","[[-0.3,0.2],[0.3,0.2]]","[[0.125,-0.2],[-0.125,-0.2]]",0.122222222,-0.192592621,1,0,0,1.8809,o1_image,501.54,1,502.0374,502.0375,504.037,0,0,0,0,1,,,,,,,,,,,,,,,,,,,,,,,,,,,,,,,,,,,,,,,,,,,,,,,,,,
,,60bab50bcdd5d7ad3ee97479,21,female,2024-04-19_17h37.33.725,stockport_simplified,2022.2.4,Win32,60.97560976,661e456ee6de07e70aa9ef7b,66229d9fcb8db5d56b9611ee,,,,,,,,,,,,,,,,,,,,,,,,,,,,,,,,,,,,,,,,,,,,,,,,,,,,,,,,1,4,64,21,1,N,M,C,o1_image,stimuli/out1.png,stimuli/correct_out1.png,stimuli/out2.png,,,,,,,,,,,,,,,,,,,,,,,,,,,,,,,,,,,,,,
,,60bab50bcdd5d7ad3ee97479,21,female,2024-04-19_17h37.33.725,stockport_simplified,2022.2.4,Win32,60.97560976,661e456ee6de07e70aa9ef7b,66229d9fcb8db5d56b9611ee,,,,,,,,,,,,,,,,,,,,,,,,,,,,,,,,,,504.0378,505.9531,"[7,2,5,3,8,1,6,4]","[[-0.3,0.2],[0.3,0.2]]","[[0.125,-0.2],[-0.125,-0.2]]",-0.120370314,-0.186111111,1,0,0,1.399,o2_image,505.9546,1,506.4527,506.4528,508.4516,0,0,0,0,1,,,,,,,,,,,,,,,,,,,,,,,,,,,,,,,,,,,,,,,,,,,,,,,,,,
,,60bab50bcdd5d7ad3ee97479,21,female,2024-04-19_17h37.33.725,stockport_simplified,2022.2.4,Win32,60.97560976,661e456ee6de07e70aa9ef7b,66229d9fcb8db5d56b9611ee,,,,,,,,,,,,,,,,,,,,,,,,,,,,,,,,,,,,,,,,,,,,,,,,,,,,,,,,1,5,65,11,1,B,X,N,o2_image,stimuli/out2.png,stimuli/out1.png,stimuli/correct_out2.png,,,,,,,,,,,,,,,,,,,,,,,,,,,,,,,,,,,,,,
,,60bab50bcdd5d7ad3ee97479,21,female,2024-04-19_17h37.33.725,stockport_simplified,2022.2.4,Win32,60.97560976,661e456ee6de07e70aa9ef7b,66229d9fcb8db5d56b9611ee,,,,,,,,,,,,,,,,,,,,,,,,,,,,,,,,,,508.452,510.3013,"[7,2,5,3,8,1,6,4]","[[-0.3,0.2],[0.3,0.2]]","[[-0.125,-0.2],[0.125,-0.2]]",-0.080555556,-0.154629644,1,0,0,1.3321,o1_image,510.3025,1,510.8017,510.8017,512.7915,0,0,0,0,1,,,,,,,,,,,,,,,,,,,,,,,,,,,,,,,,,,,,,,,,,,,,,,,,,,
,,60bab50bcdd5d7ad3ee97479,21,female,2024-04-19_17h37.33.725,stockport_simplified,2022.2.4,Win32,60.97560976,661e456ee6de07e70aa9ef7b,66229d9fcb8db5d56b9611ee,,,,,,,,,,,,,,,,,,,,,,,,,,,,,,,,,,,,,,,,,,,,,,,,,,,,,,,,1,6,66,3,1,A,X,N,o1_image,stimuli/out1.png,stimuli/correct_out1.png,stimuli/out2.png,,,,,,,,,,,,,,,,,,,,,,,,,,,,,,,,,,,,,,
,,60bab50bcdd5d7ad3ee97479,21,female,2024-04-19_17h37.33.725,stockport_simplified,2022.2.4,Win32,60.97560976,661e456ee6de07e70aa9ef7b,66229d9fcb8db5d56b9611ee,,,,,,,,,,,,,,,,,,,,,,,,,,,,,,,,,,512.7923,515.4996,"[7,2,5,3,8,1,6,4]","[[0.3,0.2],[-0.3,0.2]]","[[-0.125,-0.2],[0.125,-0.2]]",0.083333333,-0.201851866,1,0,0,2.198,o2_image,515.5003,1,516.0002,516.0003,517.9995,0,0,0,0,1,,,,,,,,,,,,,,,,,,,,,,,,,,,,,,,,,,,,,,,,,,,,,,,,,,
,,60bab50bcdd5d7ad3ee97479,21,female,2024-04-19_17h37.33.725,stockport_simplified,2022.2.4,Win32,60.97560976,661e456ee6de07e70aa9ef7b,66229d9fcb8db5d56b9611ee,,,,,,,,,,,,,,,,,,,,,,,,,,,,,,,,,,,,,,,,,,,,,,,,,,,,,,,,1,7,67,58,1,N,M,D,o2_image,stimuli/out2.png,stimuli/out1.png,stimuli/correct_out2.png,,,,,,,,,,,,,,,,,,,,,,,,,,,,,,,,,,,,,,
,,60bab50bcdd5d7ad3ee97479,21,female,2024-04-19_17h37.33.725,stockport_simplified,2022.2.4,Win32,60.97560976,661e456ee6de07e70aa9ef7b,66229d9fcb8db5d56b9611ee,,,,,,,,,,,,,,,,,,,,,,,,,,,,,,,,,,518.0008,519.798,"[7,2,5,3,8,1,6,4]","[[0.3,0.2],[-0.3,0.2]]","[[-0.125,-0.2],[0.125,-0.2]]",0.087963019,-0.207407422,1,0,0,1.2803,o2_image,519.7989,1,520.298,520.298,522.2978,0,0,0,0,1,,,,,,,,,,,,,,,,,,,,,,,,,,,,,,,,,,,,,,,,,,,,,,,,,,
,,60bab50bcdd5d7ad3ee97479,21,female,2024-04-19_17h37.33.725,stockport_simplified,2022.2.4,Win32,60.97560976,661e456ee6de07e70aa9ef7b,66229d9fcb8db5d56b9611ee,,,,,,,,,,,,,,,,,,,,,,,,,,,,,,,,,,,,,,,,,,,,,,,,,,,,,,,,1,8,68,40,1,B,X,N,o2_image,stimuli/out2.png,stimuli/out1.png,stimuli/correct_out2.png,,,,,,,,,,,,,,,,,,,,,,,,,,,,,,,,,,,,,,
,,60bab50bcdd5d7ad3ee97479,21,female,2024-04-19_17h37.33.725,stockport_simplified,2022.2.4,Win32,60.97560976,661e456ee6de07e70aa9ef7b,66229d9fcb8db5d56b9611ee,,,,,,,,,,,,,,,,,,,,,,,,,,,,,,,,,,522.2988,524.5301,"[7,2,5,3,8,1,6,4]","[[-0.3,0.2],[0.3,0.2]]","[[0.125,-0.2],[-0.125,-0.2]]",0.072222222,-0.188888889,1,0,0,1.7152,o1_image,524.5312,1,525.0303,525.0304,527.0293,0,0,0,0,1,,,,,,,,,,,,,,,,,,,,,,,,,,,,,,,,,,,,,,,,,,,,,,,,,,
,,60bab50bcdd5d7ad3ee97479,21,female,2024-04-19_17h37.33.725,stockport_simplified,2022.2.4,Win32,60.97560976,661e456ee6de07e70aa9ef7b,66229d9fcb8db5d56b9611ee,,,,,,,,,,,,,,,,,,,,,,,,,,,,,,,,,,,,,,,,,,,,,,,,,,,,,,,,1,9,69,39,1,A,Y,N,o1_image,stimuli/out1.png,stimuli/correct_out1.png,stimuli/out2.png,,,,,,,,,,,,,,,,,,,,,,,,,,,,,,,,,,,,,,
,,60bab50bcdd5d7ad3ee97479,21,female,2024-04-19_17h37.33.725,stockport_simplified,2022.2.4,Win32,60.97560976,661e456ee6de07e70aa9ef7b,66229d9fcb8db5d56b9611ee,,,,,,,,,,,,,,,,,,,,,,,,,,,,,,,,,,527.0299,528.5779,"[7,2,5,3,8,1,6,4]","[[-0.3,0.2],[0.3,0.2]]","[[-0.125,-0.2],[0.125,-0.2]]",0.066666667,-0.194444444,1,0,0,1.0319,o2_image,528.5783,1,529.0684,529.0684,531.0608,0,0,0,0,1,,,,,,,,,,,,,,,,,,,,,,,,,,,,,,,,,,,,,,,,,,,,,,,,,,
,,60bab50bcdd5d7ad3ee97479,21,female,2024-04-19_17h37.33.725,stockport_simplified,2022.2.4,Win32,60.97560976,661e456ee6de07e70aa9ef7b,66229d9fcb8db5d56b9611ee,,,,,,,,,,,,,,,,,,,,,,,,,,,,,,,,,,,,,,,,,,,,,,,,,,,,,,,,1,10,70,29,1,N,M,D,o2_image,stimuli/out2.png,stimuli/out1.png,stimuli/correct_out2.png,,,,,,,,,,,,,,,,,,,,,,,,,,,,,,,,,,,,,,
,,60bab50bcdd5d7ad3ee97479,21,female,2024-04-19_17h37.33.725,stockport_simplified,2022.2.4,Win32,60.97560976,661e456ee6de07e70aa9ef7b,66229d9fcb8db5d56b9611ee,,,,,,,,,,,,,,,,,,,,,,,,,,,,,,,,,,531.0614,532.7604,"[7,2,5,3,8,1,6,4]","[[0.3,0.2],[-0.3,0.2]]","[[0.125,-0.2],[-0.125,-0.2]]",-0.084259203,-0.180555556,1,0,0,1.1823,o2_image,532.7613,1,533.2604,533.2604,535.2595,0,0,0,0,1,,,,,,,,,,,,,,,,,,,,,,,,,,,,,,,,,,,,,,,,,,,,,,,,,,
,,60bab50bcdd5d7ad3ee97479,21,female,2024-04-19_17h37.33.725,stockport_simplified,2022.2.4,Win32,60.97560976,661e456ee6de07e70aa9ef7b,66229d9fcb8db5d56b9611ee,,,,,,,,,,,,,,,,,,,,,,,,,,,,,,,,,,,,,,,,,,,,,,,,,,,,,,,,1,11,71,55,1,N,M,D,o2_image,stimuli/out2.png,stimuli/out1.png,stimuli/correct_out2.png,,,,,,,,,,,,,,,,,,,,,,,,,,,,,,,,,,,,,,
,,60bab50bcdd5d7ad3ee97479,21,female,2024-04-19_17h37.33.725,stockport_simplified,2022.2.4,Win32,60.97560976,661e456ee6de07e70aa9ef7b,66229d9fcb8db5d56b9611ee,,,,,,,,,,,,,,,,,,,,,,,,,,,,,,,,,,535.26,537.5256,"[7,2,5,3,8,1,6,4]","[[0.3,0.2],[-0.3,0.2]]","[[-0.125,-0.2],[0.125,-0.2]]",-0.095370314,-0.176851866,1,0,0,1.7485,o1_image,537.5271,1,538.0258,538.0259,540.0252,0,0,0,0,1,,,,,,,,,,,,,,,,,,,,,,,,,,,,,,,,,,,,,,,,,,,,,,,,,,
,,60bab50bcdd5d7ad3ee97479,21,female,2024-04-19_17h37.33.725,stockport_simplified,2022.2.4,Win32,60.97560976,661e456ee6de07e70aa9ef7b,66229d9fcb8db5d56b9611ee,,,,,,,,,,,,,,,,,,,,,,,,,,,,,,,,,,,,,,,,,,,,,,,,,,,,,,,,1,12,72,20,1,N,M,C,o1_image,stimuli/out1.png,stimuli/correct_out1.png,stimuli/out2.png,,,,,,,,,,,,,,,,,,,,,,,,,,,,,,,,,,,,,,
,,60bab50bcdd5d7ad3ee97479,21,female,2024-04-19_17h37.33.725,stockport_simplified,2022.2.4,Win32,60.97560976,661e456ee6de07e70aa9ef7b,66229d9fcb8db5d56b9611ee,,,,,,,,,,,,,,,,,,,,,,,,,,,,,,,,,,540.0265,541.9235,"[7,2,5,3,8,1,6,4]","[[-0.3,0.2],[0.3,0.2]]","[[-0.125,-0.2],[0.125,-0.2]]",0.148148176,-0.2,1,0,0,1.3808,o2_image,541.9241,1,542.4237,542.4237,544.4234,0,0,0,0,1,,,,,,,,,,,,,,,,,,,,,,,,,,,,,,,,,,,,,,,,,,,,,,,,,,
,,60bab50bcdd5d7ad3ee97479,21,female,2024-04-19_17h37.33.725,stockport_simplified,2022.2.4,Win32,60.97560976,661e456ee6de07e70aa9ef7b,66229d9fcb8db5d56b9611ee,,,,,,,,,,,,,,,,,,,,,,,,,,,,,,,,,,,,,,,,,,,,,,,,,,,,,,,,1,13,73,44,1,B,X,N,o2_image,stimuli/out2.png,stimuli/out1.png,stimuli/correct_out2.png,,,,,,,,,,,,,,,,,,,,,,,,,,,,,,,,,,,,,,
,,60bab50bcdd5d7ad3ee97479,21,female,2024-04-19_17h37.33.725,stockport_simplified,2022.2.4,Win32,60.97560976,661e456ee6de07e70aa9ef7b,66229d9fcb8db5d56b9611ee,,,,,,,,,,,,,,,,,,,,,,,,,,,,,,,,,,544.4244,547.4217,"[7,2,5,3,8,1,6,4]","[[0.3,0.2],[-0.3,0.2]]","[[0.125,-0.2],[-0.125,-0.2]]",0.137037065,-0.184259288,1,0,0,2.4816,o1_image,547.4319,1,547.9217,547.9217,549.9219,0,0,0,0,1,,,,,,,,,,,,,,,,,,,,,,,,,,,,,,,,,,,,,,,,,,,,,,,,,,
,,60bab50bcdd5d7ad3ee97479,21,female,2024-04-19_17h37.33.725,stockport_simplified,2022.2.4,Win32,60.97560976,661e456ee6de07e70aa9ef7b,66229d9fcb8db5d56b9611ee,,,,,,,,,,,,,,,,,,,,,,,,,,,,,,,,,,,,,,,,,,,,,,,,,,,,,,,,1,14,74,50,1,N,M,C,o1_image,stimuli/out1.png,stimuli/correct_out1.png,stimuli/out2.png,,,,,,,,,,,,,,,,,,,,,,,,,,,,,,,,,,,,,,
,,60bab50bcdd5d7ad3ee97479,21,female,2024-04-19_17h37.33.725,stockport_simplified,2022.2.4,Win32,60.97560976,661e456ee6de07e70aa9ef7b,66229d9fcb8db5d56b9611ee,,,,,,,,,,,,,,,,,,,,,,,,,,,,,,,,,,549.9228,551.8205,"[7,2,5,3,8,1,6,4]","[[-0.3,0.2],[0.3,0.2]]","[[-0.125,-0.2],[0.125,-0.2]]",0.111111111,-0.176851866,1,0,0,1.3811,o2_image,551.8215,1,552.3211,552.3211,554.3203,0,0,0,0,1,,,,,,,,,,,,,,,,,,,,,,,,,,,,,,,,,,,,,,,,,,,,,,,,,,
,,60bab50bcdd5d7ad3ee97479,21,female,2024-04-19_17h37.33.725,stockport_simplified,2022.2.4,Win32,60.97560976,661e456ee6de07e70aa9ef7b,66229d9fcb8db5d56b9611ee,,,,,,,,,,,,,,,,,,,,,,,,,,,,,,,,,,,,,,,,,,,,,,,,,,,,,,,,1,15,75,48,1,B,Y,N,o2_image,stimuli/out2.png,stimuli/out1.png,stimuli/correct_out2.png,,,,,,,,,,,,,,,,,,,,,,,,,,,,,,,,,,,,,,
,,60bab50bcdd5d7ad3ee97479,21,female,2024-04-19_17h37.33.725,stockport_simplified,2022.2.4,Win32,60.97560976,661e456ee6de07e70aa9ef7b,66229d9fcb8db5d56b9611ee,,,,,,,,,,,,,,,,,,,,,,,,,,,,,,,,,,554.3208,556.6356,"[7,2,5,3,8,1,6,4]","[[0.3,0.2],[-0.3,0.2]]","[[-0.125,-0.2],[0.125,-0.2]]",-0.123148092,-0.155555556,1,0,0,1.7991,o1_image,556.6363,1,557.136,557.136,559.1355,0,0,0,0,1,,,,,,,,,,,,,,,,,,,,,,,,,,,,,,,,,,,,,,,,,,,,,,,,,,
,,60bab50bcdd5d7ad3ee97479,21,female,2024-04-19_17h37.33.725,stockport_simplified,2022.2.4,Win32,60.97560976,661e456ee6de07e70aa9ef7b,66229d9fcb8db5d56b9611ee,,,,,,,,,,,,,,,,,,,,,,,,,,,,,,,,,,,,,,,,,,,,,,,,,,,,,,,,1,16,76,1,1,A,X,N,o1_image,stimuli/out1.png,stimuli/correct_out1.png,stimuli/out2.png,,,,,,,,,,,,,,,,,,,,,,,,,,,,,,,,,,,,,,
,,60bab50bcdd5d7ad3ee97479,21,female,2024-04-19_17h37.33.725,stockport_simplified,2022.2.4,Win32,60.97560976,661e456ee6de07e70aa9ef7b,66229d9fcb8db5d56b9611ee,,,,,,,,,,,,,,,,,,,,,,,,,,,,,,,,,,559.1363,561.9342,"[7,2,5,3,8,1,6,4]","[[-0.3,0.2],[0.3,0.2]]","[[-0.125,-0.2],[0.125,-0.2]]",-0.094444444,-0.179629644,1,0,0,2.2807,o1_image,561.9353,1,562.434,562.434,564.4334,0,0,0,0,1,,,,,,,,,,,,,,,,,,,,,,,,,,,,,,,,,,,,,,,,,,,,,,,,,,
,,60bab50bcdd5d7ad3ee97479,21,female,2024-04-19_17h37.33.725,stockport_simplified,2022.2.4,Win32,60.97560976,661e456ee6de07e70aa9ef7b,66229d9fcb8db5d56b9611ee,,,,,,,,,,,,,,,,,,,,,,,,,,,,,,,,,,,,,,,,,,,,,,,,,,,,,,,,1,17,77,54,1,N,M,C,o1_image,stimuli/out1.png,stimuli/correct_out1.png,stimuli/out2.png,,,,,,,,,,,,,,,,,,,,,,,,,,,,,,,,,,,,,,
,,60bab50bcdd5d7ad3ee97479,21,female,2024-04-19_17h37.33.725,stockport_simplified,2022.2.4,Win32,60.97560976,661e456ee6de07e70aa9ef7b,66229d9fcb8db5d56b9611ee,,,,,,,,,,,,,,,,,,,,,,,,,,,,,,,,,,564.4347,566.5666,"[7,2,5,3,8,1,6,4]","[[0.3,0.2],[-0.3,0.2]]","[[0.125,-0.2],[-0.125,-0.2]]",0.154629686,-0.165740755,1,0,0,1.6156,o1_image,566.5679,1,567.066,567.066,569.0654,0,0,0,0,1,,,,,,,,,,,,,,,,,,,,,,,,,,,,,,,,,,,,,,,,,,,,,,,,,,
,,60bab50bcdd5d7ad3ee97479,21,female,2024-04-19_17h37.33.725,stockport_simplified,2022.2.4,Win32,60.97560976,661e456ee6de07e70aa9ef7b,66229d9fcb8db5d56b9611ee,,,,,,,,,,,,,,,,,,,,,,,,,,,,,,,,,,,,,,,,,,,,,,,,,,,,,,,,1,18,78,33,1,A,X,N,o1_image,stimuli/out1.png,stimuli/correct_out1.png,stimuli/out2.png,,,,,,,,,,,,,,,,,,,,,,,,,,,,,,,,,,,,,,
,,60bab50bcdd5d7ad3ee97479,21,female,2024-04-19_17h37.33.725,stockport_simplified,2022.2.4,Win32,60.97560976,661e456ee6de07e70aa9ef7b,66229d9fcb8db5d56b9611ee,,,,,,,,,,,,,,,,,,,,,,,,,,,,,,,,,,569.0669,570.6476,"[7,2,5,3,8,1,6,4]","[[0.3,0.2],[-0.3,0.2]]","[[-0.125,-0.2],[0.125,-0.2]]",0.105555556,-0.18148151,1,0,0,1.0651,o2_image,570.6484,1,571.1478,571.1479,573.1469,0,0,0,0,1,,,,,,,,,,,,,,,,,,,,,,,,,,,,,,,,,,,,,,,,,,,,,,,,,,
,,60bab50bcdd5d7ad3ee97479,21,female,2024-04-19_17h37.33.725,stockport_simplified,2022.2.4,Win32,60.97560976,661e456ee6de07e70aa9ef7b,66229d9fcb8db5d56b9611ee,,,,,,,,,,,,,,,,,,,,,,,,,,,,,,,,,,,,,,,,,,,,,,,,,,,,,,,,1,19,79,26,1,N,M,D,o2_image,stimuli/out2.png,stimuli/out1.png,stimuli/correct_out2.png,,,,,,,,,,,,,,,,,,,,,,,,,,,,,,,,,,,,,,
,,60bab50bcdd5d7ad3ee97479,21,female,2024-04-19_17h37.33.725,stockport_simplified,2022.2.4,Win32,60.97560976,661e456ee6de07e70aa9ef7b,66229d9fcb8db5d56b9611ee,,,,,,,,,,,,,,,,,,,,,,,,,,,,,,,,,,573.148,575.1463,"[7,2,5,3,8,1,6,4]","[[0.3,0.2],[-0.3,0.2]]","[[-0.125,-0.2],[0.125,-0.2]]",0.124074131,-0.190740755,1,0,0,1.4815,o2_image,575.1472,1,575.6459,575.646,577.6453,0,0,0,0,1,,,,,,,,,,,,,,,,,,,,,,,,,,,,,,,,,,,,,,,,,,,,,,,,,,
,,60bab50bcdd5d7ad3ee97479,21,female,2024-04-19_17h37.33.725,stockport_simplified,2022.2.4,Win32,60.97560976,661e456ee6de07e70aa9ef7b,66229d9fcb8db5d56b9611ee,,,,,,,,,,,,,,,,,,,,,,,,,,,,,,,,,,,,,,,,,,,,,,,,,,,,,,,,1,20,80,13,1,B,X,N,o2_image,stimuli/out2.png,stimuli/out1.png,stimuli/correct_out2.png,,,,,,,,,,,,,,,,,,,,,,,,,,,,,,,,,,,,,,
,,60bab50bcdd5d7ad3ee97479,21,female,2024-04-19_17h37.33.725,stockport_simplified,2022.2.4,Win32,60.97560976,661e456ee6de07e70aa9ef7b,66229d9fcb8db5d56b9611ee,,,,,,,,,,,,,,,,,,,,,,,,,,,,,,,,,,577.6461,579.0949,"[7,2,5,3,8,1,6,4]","[[0.3,0.2],[-0.3,0.2]]","[[0.125,-0.2],[-0.125,-0.2]]",-0.101851824,-0.194444444,1,0,0,0.9322,o2_image,579.0957,1,579.5946,579.5946,581.5944,0,0,0,0,1,,,,,,,,,,,,,,,,,,,,,,,,,,,,,,,,,,,,,,,,,,,,,,,,,,
,,60bab50bcdd5d7ad3ee97479,21,female,2024-04-19_17h37.33.725,stockport_simplified,2022.2.4,Win32,60.97560976,661e456ee6de07e70aa9ef7b,66229d9fcb8db5d56b9611ee,,,,,,,,,,,,,,,,,,,,,,,,,,,,,,,,,,,,,,,,,,,,,,,,,,,,,,,,1,21,81,59,1,N,M,D,o2_image,stimuli/out2.png,stimuli/out1.png,stimuli/correct_out2.png,,,,,,,,,,,,,,,,,,,,,,,,,,,,,,,,,,,,,,
,,60bab50bcdd5d7ad3ee97479,21,female,2024-04-19_17h37.33.725,stockport_simplified,2022.2.4,Win32,60.97560976,661e456ee6de07e70aa9ef7b,66229d9fcb8db5d56b9611ee,,,,,,,,,,,,,,,,,,,,,,,,,,,,,,,,,,581.5953,584.3592,"[7,2,5,3,8,1,6,4]","[[-0.3,0.2],[0.3,0.2]]","[[0.125,-0.2],[-0.125,-0.2]]",0.15648151,-0.241666667,1,0,0,2.248,o1_image,584.3599,1,584.8599,584.86,586.8588,0,0,0,0,1,,,,,,,,,,,,,,,,,,,,,,,,,,,,,,,,,,,,,,,,,,,,,,,,,,
,,60bab50bcdd5d7ad3ee97479,21,female,2024-04-19_17h37.33.725,stockport_simplified,2022.2.4,Win32,60.97560976,661e456ee6de07e70aa9ef7b,66229d9fcb8db5d56b9611ee,,,,,,,,,,,,,,,,,,,,,,,,,,,,,,,,,,,,,,,,,,,,,,,,,,,,,,,,1,22,82,38,1,A,Y,N,o1_image,stimuli/out1.png,stimuli/correct_out1.png,stimuli/out2.png,,,,,,,,,,,,,,,,,,,,,,,,,,,,,,,,,,,,,,
,,60bab50bcdd5d7ad3ee97479,21,female,2024-04-19_17h37.33.725,stockport_simplified,2022.2.4,Win32,60.97560976,661e456ee6de07e70aa9ef7b,66229d9fcb8db5d56b9611ee,,,,,,,,,,,,,,,,,,,,,,,,,,,,,,,,,,586.8598,588.9412,"[7,2,5,3,8,1,6,4]","[[0.3,0.2],[-0.3,0.2]]","[[0.125,-0.2],[-0.125,-0.2]]",0.118518575,-0.210185199,1,0,0,1.5642,o1_image,588.9417,1,589.4409,589.4411,591.4406,0,0,0,0,1,,,,,,,,,,,,,,,,,,,,,,,,,,,,,,,,,,,,,,,,,,,,,,,,,,
,,60bab50bcdd5d7ad3ee97479,21,female,2024-04-19_17h37.33.725,stockport_simplified,2022.2.4,Win32,60.97560976,661e456ee6de07e70aa9ef7b,66229d9fcb8db5d56b9611ee,,,,,,,,,,,,,,,,,,,,,,,,,,,,,,,,,,,,,,,,,,,,,,,,,,,,,,,,1,23,83,51,1,N,M,C,o1_image,stimuli/out1.png,stimuli/correct_out1.png,stimuli/out2.png,,,,,,,,,,,,,,,,,,,,,,,,,,,,,,,,,,,,,,
,,60bab50bcdd5d7ad3ee97479,21,female,2024-04-19_17h37.33.725,stockport_simplified,2022.2.4,Win32,60.97560976,661e456ee6de07e70aa9ef7b,66229d9fcb8db5d56b9611ee,,,,,,,,,,,,,,,,,,,,,,,,,,,,,,,,,,591.4416,593.8731,"[7,2,5,3,8,1,6,4]","[[0.3,0.2],[-0.3,0.2]]","[[-0.125,-0.2],[0.125,-0.2]]",-0.062962935,-0.183333333,1,0,0,1.9146,o1_image,593.8744,1,594.373,594.3731,596.3721,0,0,0,0,1,,,,,,,,,,,,,,,,,,,,,,,,,,,,,,,,,,,,,,,,,,,,,,,,,,
,,60bab50bcdd5d7ad3ee97479,21,female,2024-04-19_17h37.33.725,stockport_simplified,2022.2.4,Win32,60.97560976,661e456ee6de07e70aa9ef7b,66229d9fcb8db5d56b9611ee,,,,,,,,,,,,,,,,,,,,,,,,,,,,,,,,,,,,,,,,,,,,,,,,,,,,,,,,1,24,84,9,1,A,Y,N,o1_image,stimuli/out1.png,stimuli/correct_out1.png,stimuli/out2.png,,,,,,,,,,,,,,,,,,,,,,,,,,,,,,,,,,,,,,
,,60bab50bcdd5d7ad3ee97479,21,female,2024-04-19_17h37.33.725,stockport_simplified,2022.2.4,Win32,60.97560976,661e456ee6de07e70aa9ef7b,66229d9fcb8db5d56b9611ee,,,,,,,,,,,,,,,,,,,,,,,,,,,,,,,,,,596.3725,598.4378,"[7,2,5,3,8,1,6,4]","[[0.3,0.2],[-0.3,0.2]]","[[-0.125,-0.2],[0.125,-0.2]]",0.090740797,-0.208333333,1,0,0,1.5487,o2_image,598.4383,1,598.9377,598.9378,600.9377,0,0,0,0,1,,,,,,,,,,,,,,,,,,,,,,,,,,,,,,,,,,,,,,,,,,,,,,,,,,
,,60bab50bcdd5d7ad3ee97479,21,female,2024-04-19_17h37.33.725,stockport_simplified,2022.2.4,Win32,60.97560976,661e456ee6de07e70aa9ef7b,66229d9fcb8db5d56b9611ee,,,,,,,,,,,,,,,,,,,,,,,,,,,,,,,,,,,,,,,,,,,,,,,,,,,,,,,,1,25,85,16,1,B,Y,N,o2_image,stimuli/out2.png,stimuli/out1.png,stimuli/correct_out2.png,,,,,,,,,,,,,,,,,,,,,,,,,,,,,,,,,,,,,,
,,60bab50bcdd5d7ad3ee97479,21,female,2024-04-19_17h37.33.725,stockport_simplified,2022.2.4,Win32,60.97560976,661e456ee6de07e70aa9ef7b,66229d9fcb8db5d56b9611ee,,,,,,,,,,,,,,,,,,,,,,,,,,,,,,,,,,600.9386,603.8368,"[7,2,5,3,8,1,6,4]","[[0.3,0.2],[-0.3,0.2]]","[[-0.125,-0.2],[0.125,-0.2]]",-0.115740712,-0.198148176,1,0,0,2.3826,o1_image,603.8386,1,604.3372,604.3372,606.3356,0,0,0,0,1,,,,,,,,,,,,,,,,,,,,,,,,,,,,,,,,,,,,,,,,,,,,,,,,,,
,,60bab50bcdd5d7ad3ee97479,21,female,2024-04-19_17h37.33.725,stockport_simplified,2022.2.4,Win32,60.97560976,661e456ee6de07e70aa9ef7b,66229d9fcb8db5d56b9611ee,,,,,,,,,,,,,,,,,,,,,,,,,,,,,,,,,,,,,,,,,,,,,,,,,,,,,,,,1,26,86,31,1,A,X,N,o1_image,stimuli/out1.png,stimuli/correct_out1.png,stimuli/out2.png,,,,,,,,,,,,,,,,,,,,,,,,,,,,,,,,,,,,,,
,,60bab50bcdd5d7ad3ee97479,21,female,2024-04-19_17h37.33.725,stockport_simplified,2022.2.4,Win32,60.97560976,661e456ee6de07e70aa9ef7b,66229d9fcb8db5d56b9611ee,,,,,,,,,,,,,,,,,,,,,,,,,,,,,,,,,,606.336,608.3522,"[7,2,5,3,8,1,6,4]","[[0.3,0.2],[-0.3,0.2]]","[[0.125,-0.2],[-0.125,-0.2]]",0.171296353,-0.23148151,1,0,0,1.5,o1_image,608.3538,1,608.8514,608.8515,610.8518,0,0,0,0,1,,,,,,,,,,,,,,,,,,,,,,,,,,,,,,,,,,,,,,,,,,,,,,,,,,
,,60bab50bcdd5d7ad3ee97479,21,female,2024-04-19_17h37.33.725,stockport_simplified,2022.2.4,Win32,60.97560976,661e456ee6de07e70aa9ef7b,66229d9fcb8db5d56b9611ee,,,,,,,,,,,,,,,,,,,,,,,,,,,,,,,,,,,,,,,,,,,,,,,,,,,,,,,,1,27,87,34,1,A,X,N,o1_image,stimuli/out1.png,stimuli/correct_out1.png,stimuli/out2.png,,,,,,,,,,,,,,,,,,,,,,,,,,,,,,,,,,,,,,
,,60bab50bcdd5d7ad3ee97479,21,female,2024-04-19_17h37.33.725,stockport_simplified,2022.2.4,Win32,60.97560976,661e456ee6de07e70aa9ef7b,66229d9fcb8db5d56b9611ee,,,,,,,,,,,,,,,,,,,,,,,,,,,,,,,,,,610.8531,613.383,"[7,2,5,3,8,1,6,4]","[[-0.3,0.2],[0.3,0.2]]","[[0.125,-0.2],[-0.125,-0.2]]",0.114814843,-0.216666667,1,0,0,2.0147,o1_image,613.3838,1,613.8833,613.8834,615.8825,0,0,0,0,1,,,,,,,,,,,,,,,,,,,,,,,,,,,,,,,,,,,,,,,,,,,,,,,,,,
,,60bab50bcdd5d7ad3ee97479,21,female,2024-04-19_17h37.33.725,stockport_simplified,2022.2.4,Win32,60.97560976,661e456ee6de07e70aa9ef7b,66229d9fcb8db5d56b9611ee,,,,,,,,,,,,,,,,,,,,,,,,,,,,,,,,,,,,,,,,,,,,,,,,,,,,,,,,1,28,88,6,1,A,Y,N,o1_image,stimuli/out1.png,stimuli/correct_out1.png,stimuli/out2.png,,,,,,,,,,,,,,,,,,,,,,,,,,,,,,,,,,,,,,
,,60bab50bcdd5d7ad3ee97479,21,female,2024-04-19_17h37.33.725,stockport_simplified,2022.2.4,Win32,60.97560976,661e456ee6de07e70aa9ef7b,66229d9fcb8db5d56b9611ee,,,,,,,,,,,,,,,,,,,,,,,,,,,,,,,,,,615.8835,618.0321,"[7,2,5,3,8,1,6,4]","[[-0.3,0.2],[0.3,0.2]]","[[0.125,-0.2],[-0.125,-0.2]]",0.125,-0.216666667,1,0,0,1.6324,o1_image,618.0337,1,618.5316,618.5316,620.531,0,0,0,0,1,,,,,,,,,,,,,,,,,,,,,,,,,,,,,,,,,,,,,,,,,,,,,,,,,,
,,60bab50bcdd5d7ad3ee97479,21,female,2024-04-19_17h37.33.725,stockport_simplified,2022.2.4,Win32,60.97560976,661e456ee6de07e70aa9ef7b,66229d9fcb8db5d56b9611ee,,,,,,,,,,,,,,,,,,,,,,,,,,,,,,,,,,,,,,,,,,,,,,,,,,,,,,,,1,29,89,32,1,A,X,N,o1_image,stimuli/out1.png,stimuli/correct_out1.png,stimuli/out2.png,,,,,,,,,,,,,,,,,,,,,,,,,,,,,,,,,,,,,,
,,60bab50bcdd5d7ad3ee97479,21,female,2024-04-19_17h37.33.725,stockport_simplified,2022.2.4,Win32,60.97560976,661e456ee6de07e70aa9ef7b,66229d9fcb8db5d56b9611ee,,,,,,,,,,,,,,,,,,,,,,,,,,,,,,,,,,620.5316,622.2797,"[7,2,5,3,8,1,6,4]","[[-0.3,0.2],[0.3,0.2]]","[[0.125,-0.2],[-0.125,-0.2]]",0.103703732,-0.143518533,1,0,0,1.2323,o1_image,622.2804,1,622.7801,622.7802,624.7797,0,0,0,0,1,,,,,,,,,,,,,,,,,,,,,,,,,,,,,,,,,,,,,,,,,,,,,,,,,,
,,60bab50bcdd5d7ad3ee97479,21,female,2024-04-19_17h37.33.725,stockport_simplified,2022.2.4,Win32,60.97560976,661e456ee6de07e70aa9ef7b,66229d9fcb8db5d56b9611ee,,,,,,,,,,,,,,,,,,,,,,,,,,,,,,,,,,,,,,,,,,,,,,,,,,,,,,,,1,30,90,8,1,A,Y,N,o1_image,stimuli/out1.png,stimuli/correct_out1.png,stimuli/out2.png,,,,,,,,,,,,,,,,,,,,,,,,,,,,,,,,,,,,,,
,,60bab50bcdd5d7ad3ee97479,21,female,2024-04-19_17h37.33.725,stockport_simplified,2022.2.4,Win32,60.97560976,661e456ee6de07e70aa9ef7b,66229d9fcb8db5d56b9611ee,,,,,,,,,,,,,,,,,,,,,,,,,,,,,,,,,,624.7806,626.9786,"[7,2,5,3,8,1,6,4]","[[-0.3,0.2],[0.3,0.2]]","[[0.125,-0.2],[-0.125,-0.2]]",0.096296353,-0.217592621,1,0,0,1.6823,o1_image,626.9795,1,627.479,627.4791,629.4777,0,0,0,0,1,,,,,,,,,,,,,,,,,,,,,,,,,,,,,,,,,,,,,,,,,,,,,,,,,,
,,60bab50bcdd5d7ad3ee97479,21,female,2024-04-19_17h37.33.725,stockport_simplified,2022.2.4,Win32,60.97560976,661e456ee6de07e70aa9ef7b,66229d9fcb8db5d56b9611ee,,,,,,,,,,,,,,,,,,,,,,,,,,,,,,,,,,,,,,,,,,,,,,,,,,,,,,,,1,31,91,52,1,N,M,C,o1_image,stimuli/out1.png,stimuli/correct_out1.png,stimuli/out2.png,,,,,,,,,,,,,,,,,,,,,,,,,,,,,,,,,,,,,,
,,60bab50bcdd5d7ad3ee97479,21,female,2024-04-19_17h37.33.725,stockport_simplified,2022.2.4,Win32,60.97560976,661e456ee6de07e70aa9ef7b,66229d9fcb8db5d56b9611ee,,,,,,,,,,,,,,,,,,,,,,,,,,,,,,,,,,629.4783,631.5272,"[7,2,5,3,8,1,6,4]","[[0.3,0.2],[-0.3,0.2]]","[[0.125,-0.2],[-0.125,-0.2]]",-0.078703647,-0.174074088,1,0,0,1.5316,o2_image,631.5281,1,632.0266,632.0266,634.0262,0,0,0,0,1,,,,,,,,,,,,,,,,,,,,,,,,,,,,,,,,,,,,,,,,,,,,,,,,,,
,,60bab50bcdd5d7ad3ee97479,21,female,2024-04-19_17h37.33.725,stockport_simplified,2022.2.4,Win32,60.97560976,661e456ee6de07e70aa9ef7b,66229d9fcb8db5d56b9611ee,,,,,,,,,,,,,,,,,,,,,,,,,,,,,,,,,,,,,,,,,,,,,,,,,,,,,,,,1,32,92,47,1,B,Y,N,o2_image,stimuli/out2.png,stimuli/out1.png,stimuli/correct_out2.png,,,,,,,,,,,,,,,,,,,,,,,,,,,,,,,,,,,,,,
,,60bab50bcdd5d7ad3ee97479,21,female,2024-04-19_17h37.33.725,stockport_simplified,2022.2.4,Win32,60.97560976,661e456ee6de07e70aa9ef7b,66229d9fcb8db5d56b9611ee,,,,,,,,,,,,,,,,,,,,,,,,,,,,,,,,,,634.0268,636.0917,"[7,2,5,3,8,1,6,4]","[[-0.3,0.2],[0.3,0.2]]","[[-0.125,-0.2],[0.125,-0.2]]",-0.185185157,-0.148148176,1,0,0,1.5488,o1_image,636.0924,1,636.5919,636.5919,638.5913,0,0,0,0,1,,,,,,,,,,,,,,,,,,,,,,,,,,,,,,,,,,,,,,,,,,,,,,,,,,
,,60bab50bcdd5d7ad3ee97479,21,female,2024-04-19_17h37.33.725,stockport_simplified,2022.2.4,Win32,60.97560976,661e456ee6de07e70aa9ef7b,66229d9fcb8db5d56b9611ee,,,,,,,,,,,,,,,,,,,,,,,,,,,,,,,,,,,,,,,,,,,,,,,,,,,,,,,,1,33,93,7,1,A,Y,N,o1_image,stimuli/out1.png,stimuli/correct_out1.png,stimuli/out2.png,,,,,,,,,,,,,,,,,,,,,,,,,,,,,,,,,,,,,,
,,60bab50bcdd5d7ad3ee97479,21,female,2024-04-19_17h37.33.725,stockport_simplified,2022.2.4,Win32,60.97560976,661e456ee6de07e70aa9ef7b,66229d9fcb8db5d56b9611ee,,,,,,,,,,,,,,,,,,,,,,,,,,,,,,,,,,638.5918,640.9573,"[7,2,5,3,8,1,6,4]","[[-0.3,0.2],[0.3,0.2]]","[[0.125,-0.2],[-0.125,-0.2]]",0.108333333,-0.210185199,1,0,0,1.8486,o1_image,640.9728,1,641.4745,641.4747,643.4737,0,0,0,0,1,,,,,,,,,,,,,,,,,,,,,,,,,,,,,,,,,,,,,,,,,,,,,,,,,,
,,60bab50bcdd5d7ad3ee97479,21,female,2024-04-19_17h37.33.725,stockport_simplified,2022.2.4,Win32,60.97560976,661e456ee6de07e70aa9ef7b,66229d9fcb8db5d56b9611ee,,,,,,,,,,,,,,,,,,,,,,,,,,,,,,,,,,,,,,,,,,,,,,,,,,,,,,,,1,34,94,23,1,N,M,C,o1_image,stimuli/out1.png,stimuli/correct_out1.png,stimuli/out2.png,,,,,,,,,,,,,,,,,,,,,,,,,,,,,,,,,,,,,,
,,60bab50bcdd5d7ad3ee97479,21,female,2024-04-19_17h37.33.725,stockport_simplified,2022.2.4,Win32,60.97560976,661e456ee6de07e70aa9ef7b,66229d9fcb8db5d56b9611ee,,,,,,,,,,,,,,,,,,,,,,,,,,,,,,,,,,643.4748,645.8085,"[7,2,5,3,8,1,6,4]","[[0.3,0.2],[-0.3,0.2]]","[[-0.125,-0.2],[0.125,-0.2]]",-0.103703647,-0.175925954,1,0,0,1.811,o1_image,645.8092,1,646.3049,646.3049,648.3052,0,0,0,0,1,,,,,,,,,,,,,,,,,,,,,,,,,,,,,,,,,,,,,,,,,,,,,,,,,,
,,60bab50bcdd5d7ad3ee97479,21,female,2024-04-19_17h37.33.725,stockport_simplified,2022.2.4,Win32,60.97560976,661e456ee6de07e70aa9ef7b,66229d9fcb8db5d56b9611ee,,,,,,,,,,,,,,,,,,,,,,,,,,,,,,,,,,,,,,,,,,,,,,,,,,,,,,,,1,35,95,30,1,A,X,N,o1_image,stimuli/out1.png,stimuli/correct_out1.png,stimuli/out2.png,,,,,,,,,,,,,,,,,,,,,,,,,,,,,,,,,,,,,,
,,60bab50bcdd5d7ad3ee97479,21,female,2024-04-19_17h37.33.725,stockport_simplified,2022.2.4,Win32,60.97560976,661e456ee6de07e70aa9ef7b,66229d9fcb8db5d56b9611ee,,,,,,,,,,,,,,,,,,,,,,,,,,,,,,,,,,648.306,651.2371,"[7,2,5,3,8,1,6,4]","[[-0.3,0.2],[0.3,0.2]]","[[0.125,-0.2],[-0.125,-0.2]]",0.092592621,-0.180555556,1,0,0,2.4153,o1_image,651.2524,1,651.7538,651.754,653.7533,0,0,0,0,1,,,,,,,,,,,,,,,,,,,,,,,,,,,,,,,,,,,,,,,,,,,,,,,,,,
,,60bab50bcdd5d7ad3ee97479,21,female,2024-04-19_17h37.33.725,stockport_simplified,2022.2.4,Win32,60.97560976,661e456ee6de07e70aa9ef7b,66229d9fcb8db5d56b9611ee,,,,,,,,,,,,,,,,,,,,,,,,,,,,,,,,,,,,,,,,,,,,,,,,,,,,,,,,1,36,96,22,1,N,M,C,o1_image,stimuli/out1.png,stimuli/correct_out1.png,stimuli/out2.png,,,,,,,,,,,,,,,,,,,,,,,,,,,,,,,,,,,,,,
,,60bab50bcdd5d7ad3ee97479,21,female,2024-04-19_17h37.33.725,stockport_simplified,2022.2.4,Win32,60.97560976,661e456ee6de07e70aa9ef7b,66229d9fcb8db5d56b9611ee,,,,,,,,,,,,,,,,,,,,,,,,,,,,,,,,,,653.7548,656.1692,"[7,2,5,3,8,1,6,4]","[[-0.3,0.2],[0.3,0.2]]","[[-0.125,-0.2],[0.125,-0.2]]",0.088888889,-0.188888889,1,0,0,1.8979,o2_image,656.1709,1,656.6691,656.6692,658.6681,0,0,0,0,1,,,,,,,,,,,,,,,,,,,,,,,,,,,,,,,,,,,,,,,,,,,,,,,,,,
,,60bab50bcdd5d7ad3ee97479,21,female,2024-04-19_17h37.33.725,stockport_simplified,2022.2.4,Win32,60.97560976,661e456ee6de07e70aa9ef7b,66229d9fcb8db5d56b9611ee,,,,,,,,,,,,,,,,,,,,,,,,,,,,,,,,,,,,,,,,,,,,,,,,,,,,,,,,1,37,97,43,1,B,X,N,o2_image,stimuli/out2.png,stimuli/out1.png,stimuli/correct_out2.png,,,,,,,,,,,,,,,,,,,,,,,,,,,,,,,,,,,,,,
,,60bab50bcdd5d7ad3ee97479,21,female,2024-04-19_17h37.33.725,stockport_simplified,2022.2.4,Win32,60.97560976,661e456ee6de07e70aa9ef7b,66229d9fcb8db5d56b9611ee,,,,,,,,,,,,,,,,,,,,,,,,,,,,,,,,,,658.6689,660.8168,"[7,2,5,3,8,1,6,4]","[[-0.3,0.2],[0.3,0.2]]","[[-0.125,-0.2],[0.125,-0.2]]",0.114814843,-0.174074088,1,0,0,1.6314,o2_image,660.8281,1,661.3169,661.317,663.3168,0,0,0,0,1,,,,,,,,,,,,,,,,,,,,,,,,,,,,,,,,,,,,,,,,,,,,,,,,,,
,,60bab50bcdd5d7ad3ee97479,21,female,2024-04-19_17h37.33.725,stockport_simplified,2022.2.4,Win32,60.97560976,661e456ee6de07e70aa9ef7b,66229d9fcb8db5d56b9611ee,,,,,,,,,,,,,,,,,,,,,,,,,,,,,,,,,,,,,,,,,,,,,,,,,,,,,,,,1,38,98,28,1,N,M,D,o2_image,stimuli/out2.png,stimuli/out1.png,stimuli/correct_out2.png,,,,,,,,,,,,,,,,,,,,,,,,,,,,,,,,,,,,,,
,,60bab50bcdd5d7ad3ee97479,21,female,2024-04-19_17h37.33.725,stockport_simplified,2022.2.4,Win32,60.97560976,661e456ee6de07e70aa9ef7b,66229d9fcb8db5d56b9611ee,,,,,,,,,,,,,,,,,,,,,,,,,,,,,,,,,,663.3178,665.5321,"[7,2,5,3,8,1,6,4]","[[0.3,0.2],[-0.3,0.2]]","[[-0.125,-0.2],[0.125,-0.2]]",-0.129629601,-0.2,1,0,0,1.6982,o1_image,665.5338,1,666.0322,666.0323,668.0375,0,0,0,0,1,,,,,,,,,,,,,,,,,,,,,,,,,,,,,,,,,,,,,,,,,,,,,,,,,,
,,60bab50bcdd5d7ad3ee97479,21,female,2024-04-19_17h37.33.725,stockport_simplified,2022.2.4,Win32,60.97560976,661e456ee6de07e70aa9ef7b,66229d9fcb8db5d56b9611ee,,,,,,,,,,,,,,,,,,,,,,,,,,,,,,,,,,,,,,,,,,,,,,,,,,,,,,,,1,39,99,0,1,A,X,N,o1_image,stimuli/out1.png,stimuli/correct_out1.png,stimuli/out2.png,,,,,,,,,,,,,,,,,,,,,,,,,,,,,,,,,,,,,,
,,60bab50bcdd5d7ad3ee97479,21,female,2024-04-19_17h37.33.725,stockport_simplified,2022.2.4,Win32,60.97560976,661e456ee6de07e70aa9ef7b,66229d9fcb8db5d56b9611ee,,,,,,,,,,,,,,,,,,,,,,,,,,,,,,,,,,668.0379,669.6813,"[7,2,5,3,8,1,6,4]","[[0.3,0.2],[-0.3,0.2]]","[[0.125,-0.2],[-0.125,-0.2]]",-0.127777778,-0.210185199,1,0,0,1.1327,o2_image,669.6832,1,670.1807,670.1807,672.1803,0,0,0,0,1,,,,,,,,,,,,,,,,,,,,,,,,,,,,,,,,,,,,,,,,,,,,,,,,,,
,,60bab50bcdd5d7ad3ee97479,21,female,2024-04-19_17h37.33.725,stockport_simplified,2022.2.4,Win32,60.97560976,661e456ee6de07e70aa9ef7b,66229d9fcb8db5d56b9611ee,,,,,,,,,,,,,,,,,,,,,,,,,,,,,,,,,,,,,,,,,,,,,,,,,,,,,,,,1,40,100,27,1,N,M,D,o2_image,stimuli/out2.png,stimuli/out1.png,stimuli/correct_out2.png,,,,,,,,,,,,,,,,,,,,,,,,,,,,,,,,,,,,,,
,,60bab50bcdd5d7ad3ee97479,21,female,2024-04-19_17h37.33.725,stockport_simplified,2022.2.4,Win32,60.97560976,661e456ee6de07e70aa9ef7b,66229d9fcb8db5d56b9611ee,,,,,,,,,,,,,,,,,,,,,,,,,,,,,,,,,,672.1816,673.7628,"[7,2,5,3,8,1,6,4]","[[-0.3,0.2],[0.3,0.2]]","[[0.125,-0.2],[-0.125,-0.2]]",-0.133333333,-0.211111111,1,0,0,1.0652,o2_image,673.7641,1,674.263,674.263,676.2622,0,0,0,0,1,,,,,,,,,,,,,,,,,,,,,,,,,,,,,,,,,,,,,,,,,,,,,,,,,,
,,60bab50bcdd5d7ad3ee97479,21,female,2024-04-19_17h37.33.725,stockport_simplified,2022.2.4,Win32,60.97560976,661e456ee6de07e70aa9ef7b,66229d9fcb8db5d56b9611ee,,,,,,,,,,,,,,,,,,,,,,,,,,,,,,,,,,,,,,,,,,,,,,,,,,,,,,,,1,41,101,18,1,B,Y,N,o2_image,stimuli/out2.png,stimuli/out1.png,stimuli/correct_out2.png,,,,,,,,,,,,,,,,,,,,,,,,,,,,,,,,,,,,,,
,,60bab50bcdd5d7ad3ee97479,21,female,2024-04-19_17h37.33.725,stockport_simplified,2022.2.4,Win32,60.97560976,661e456ee6de07e70aa9ef7b,66229d9fcb8db5d56b9611ee,,,,,,,,,,,,,,,,,,,,,,,,,,,,,,,,,,676.2632,677.9446,"[7,2,5,3,8,1,6,4]","[[-0.3,0.2],[0.3,0.2]]","[[0.125,-0.2],[-0.125,-0.2]]",-0.136111111,-0.212037065,1,0,0,1.1657,o2_image,677.9455,1,678.4446,678.4446,680.4438,0,0,0,0,1,,,,,,,,,,,,,,,,,,,,,,,,,,,,,,,,,,,,,,,,,,,,,,,,,,
,,60bab50bcdd5d7ad3ee97479,21,female,2024-04-19_17h37.33.725,stockport_simplified,2022.2.4,Win32,60.97560976,661e456ee6de07e70aa9ef7b,66229d9fcb8db5d56b9611ee,,,,,,,,,,,,,,,,,,,,,,,,,,,,,,,,,,,,,,,,,,,,,,,,,,,,,,,,1,42,102,45,1,B,Y,N,o2_image,stimuli/out2.png,stimuli/out1.png,stimuli/correct_out2.png,,,,,,,,,,,,,,,,,,,,,,,,,,,,,,,,,,,,,,
,,60bab50bcdd5d7ad3ee97479,21,female,2024-04-19_17h37.33.725,stockport_simplified,2022.2.4,Win32,60.97560976,661e456ee6de07e70aa9ef7b,66229d9fcb8db5d56b9611ee,,,,,,,,,,,,,,,,,,,,,,,,,,,,,,,,,,680.4443,682.1933,"[7,2,5,3,8,1,6,4]","[[0.3,0.2],[-0.3,0.2]]","[[0.125,-0.2],[-0.125,-0.2]]",-0.136111111,-0.212037065,1,0,0,1.2322,o2_image,682.1944,1,682.6934,682.6934,684.6924,0,0,0,0,1,,,,,,,,,,,,,,,,,,,,,,,,,,,,,,,,,,,,,,,,,,,,,,,,,,
,,60bab50bcdd5d7ad3ee97479,21,female,2024-04-19_17h37.33.725,stockport_simplified,2022.2.4,Win32,60.97560976,661e456ee6de07e70aa9ef7b,66229d9fcb8db5d56b9611ee,,,,,,,,,,,,,,,,,,,,,,,,,,,,,,,,,,,,,,,,,,,,,,,,,,,,,,,,1,43,103,19,1,B,Y,N,o2_image,stimuli/out2.png,stimuli/out1.png,stimuli/correct_out2.png,,,,,,,,,,,,,,,,,,,,,,,,,,,,,,,,,,,,,,
,,60bab50bcdd5d7ad3ee97479,21,female,2024-04-19_17h37.33.725,stockport_simplified,2022.2.4,Win32,60.97560976,661e456ee6de07e70aa9ef7b,66229d9fcb8db5d56b9611ee,,,,,,,,,,,,,,,,,,,,,,,,,,,,,,,,,,684.693,686.3086,"[7,2,5,3,8,1,6,4]","[[0.3,0.2],[-0.3,0.2]]","[[0.125,-0.2],[-0.125,-0.2]]",-0.136111111,-0.212037065,1,0,0,1.0992,o2_image,686.3097,1,686.8085,686.8086,688.8074,0,0,0,0,1,,,,,,,,,,,,,,,,,,,,,,,,,,,,,,,,,,,,,,,,,,,,,,,,,,
,,60bab50bcdd5d7ad3ee97479,21,female,2024-04-19_17h37.33.725,stockport_simplified,2022.2.4,Win32,60.97560976,661e456ee6de07e70aa9ef7b,66229d9fcb8db5d56b9611ee,,,,,,,,,,,,,,,,,,,,,,,,,,,,,,,,,,,,,,,,,,,,,,,,,,,,,,,,1,44,104,41,1,B,X,N,o2_image,stimuli/out2.png,stimuli/out1.png,stimuli/correct_out2.png,,,,,,,,,,,,,,,,,,,,,,,,,,,,,,,,,,,,,,
,,60bab50bcdd5d7ad3ee97479,21,female,2024-04-19_17h37.33.725,stockport_simplified,2022.2.4,Win32,60.97560976,661e456ee6de07e70aa9ef7b,66229d9fcb8db5d56b9611ee,,,,,,,,,,,,,,,,,,,,,,,,,,,,,,,,,,688.8077,690.1909,"[7,2,5,3,8,1,6,4]","[[-0.3,0.2],[0.3,0.2]]","[[0.125,-0.2],[-0.125,-0.2]]",-0.136111111,-0.212037065,1,0,0,0.8666,o2_image,690.1927,1,690.6908,690.6909,692.6899,0,0,0,0,1,,,,,,,,,,,,,,,,,,,,,,,,,,,,,,,,,,,,,,,,,,,,,,,,,,
,,60bab50bcdd5d7ad3ee97479,21,female,2024-04-19_17h37.33.725,stockport_simplified,2022.2.4,Win32,60.97560976,661e456ee6de07e70aa9ef7b,66229d9fcb8db5d56b9611ee,,,,,,,,,,,,,,,,,,,,,,,,,,,,,,,,,,,,,,,,,,,,,,,,,,,,,,,,1,45,105,10,1,B,X,N,o2_image,stimuli/out2.png,stimuli/out1.png,stimuli/correct_out2.png,,,,,,,,,,,,,,,,,,,,,,,,,,,,,,,,,,,,,,
,,60bab50bcdd5d7ad3ee97479,21,female,2024-04-19_17h37.33.725,stockport_simplified,2022.2.4,Win32,60.97560976,661e456ee6de07e70aa9ef7b,66229d9fcb8db5d56b9611ee,,,,,,,,,,,,,,,,,,,,,,,,,,,,,,,,,,692.6906,694.5559,"[7,2,5,3,8,1,6,4]","[[-0.3,0.2],[0.3,0.2]]","[[-0.125,-0.2],[0.125,-0.2]]",0.092592621,-0.152777778,1,0,0,1.3489,o2_image,694.5569,1,695.0452,695.0453,697.0379,0,0,0,0,1,,,,,,,,,,,,,,,,,,,,,,,,,,,,,,,,,,,,,,,,,,,,,,,,,,
,,60bab50bcdd5d7ad3ee97479,21,female,2024-04-19_17h37.33.725,stockport_simplified,2022.2.4,Win32,60.97560976,661e456ee6de07e70aa9ef7b,66229d9fcb8db5d56b9611ee,,,,,,,,,,,,,,,,,,,,,,,,,,,,,,,,,,,,,,,,,,,,,,,,,,,,,,,,1,46,106,56,1,N,M,D,o2_image,stimuli/out2.png,stimuli/out1.png,stimuli/correct_out2.png,,,,,,,,,,,,,,,,,,,,,,,,,,,,,,,,,,,,,,
,,60bab50bcdd5d7ad3ee97479,21,female,2024-04-19_17h37.33.725,stockport_simplified,2022.2.4,Win32,60.97560976,661e456ee6de07e70aa9ef7b,66229d9fcb8db5d56b9611ee,,,,,,,,,,,,,,,,,,,,,,,,,,,,,,,,,,697.0389,698.921,"[7,2,5,3,8,1,6,4]","[[0.3,0.2],[-0.3,0.2]]","[[-0.125,-0.2],[0.125,-0.2]]",0.137037065,-0.185185199,1,0,0,1.364,o2_image,698.9218,1,699.4205,699.4205,701.4206,0,0,0,0,1,,,,,,,,,,,,,,,,,,,,,,,,,,,,,,,,,,,,,,,,,,,,,,,,,,
,,60bab50bcdd5d7ad3ee97479,21,female,2024-04-19_17h37.33.725,stockport_simplified,2022.2.4,Win32,60.97560976,661e456ee6de07e70aa9ef7b,66229d9fcb8db5d56b9611ee,,,,,,,,,,,,,,,,,,,,,,,,,,,,,,,,,,,,,,,,,,,,,,,,,,,,,,,,1,47,107,14,1,B,X,N,o2_image,stimuli/out2.png,stimuli/out1.png,stimuli/correct_out2.png,,,,,,,,,,,,,,,,,,,,,,,,,,,,,,,,,,,,,,
,,60bab50bcdd5d7ad3ee97479,21,female,2024-04-19_17h37.33.725,stockport_simplified,2022.2.4,Win32,60.97560976,661e456ee6de07e70aa9ef7b,66229d9fcb8db5d56b9611ee,,,,,,,,,,,,,,,,,,,,,,,,,,,,,,,,,,701.4212,704.0024,"[7,2,5,3,8,1,6,4]","[[-0.3,0.2],[0.3,0.2]]","[[-0.125,-0.2],[0.125,-0.2]]",-0.091666667,-0.198148176,1,0,0,2.0658,o1_image,704.0033,1,704.5021,704.5021,706.5015,0,0,0,0,1,,,,,,,,,,,,,,,,,,,,,,,,,,,,,,,,,,,,,,,,,,,,,,,,,,
,,60bab50bcdd5d7ad3ee97479,21,female,2024-04-19_17h37.33.725,stockport_simplified,2022.2.4,Win32,60.97560976,661e456ee6de07e70aa9ef7b,66229d9fcb8db5d56b9611ee,,,,,,,,,,,,,,,,,,,,,,,,,,,,,,,,,,,,,,,,,,,,,,,,,,,,,,,,1,48,108,36,1,A,Y,N,o1_image,stimuli/out1.png,stimuli/correct_out1.png,stimuli/out2.png,,,,,,,,,,,,,,,,,,,,,,,,,,,,,,,,,,,,,,
,,60bab50bcdd5d7ad3ee97479,21,female,2024-04-19_17h37.33.725,stockport_simplified,2022.2.4,Win32,60.97560976,661e456ee6de07e70aa9ef7b,66229d9fcb8db5d56b9611ee,,,,,,,,,,,,,,,,,,,,,,,,,,,,,,,,,,706.502,708.4684,"[7,2,5,3,8,1,6,4]","[[-0.3,0.2],[0.3,0.2]]","[[0.125,-0.2],[-0.125,-0.2]]",0.148148176,-0.17129631,1,0,0,1.4494,o1_image,708.4703,1,708.9676,708.9677,710.9668,0,0,0,0,1,,,,,,,,,,,,,,,,,,,,,,,,,,,,,,,,,,,,,,,,,,,,,,,,,,
,,60bab50bcdd5d7ad3ee97479,21,female,2024-04-19_17h37.33.725,stockport_simplified,2022.2.4,Win32,60.97560976,661e456ee6de07e70aa9ef7b,66229d9fcb8db5d56b9611ee,,,,,,,,,,,,,,,,,,,,,,,,,,,,,,,,,,,,,,,,,,,,,,,,,,,,,,,,1,49,109,53,1,N,M,C,o1_image,stimuli/out1.png,stimuli/correct_out1.png,stimuli/out2.png,,,,,,,,,,,,,,,,,,,,,,,,,,,,,,,,,,,,,,
,,60bab50bcdd5d7ad3ee97479,21,female,2024-04-19_17h37.33.725,stockport_simplified,2022.2.4,Win32,60.97560976,661e456ee6de07e70aa9ef7b,66229d9fcb8db5d56b9611ee,,,,,,,,,,,,,,,,,,,,,,,,,,,,,,,,,,710.9677,712.45,"[7,2,5,3,8,1,6,4]","[[0.3,0.2],[-0.3,0.2]]","[[0.125,-0.2],[-0.125,-0.2]]",-0.099074046,-0.18148151,1,0,0,0.9653,o2_image,712.452,1,712.9504,712.9504,714.9484,0,0,0,0,1,,,,,,,,,,,,,,,,,,,,,,,,,,,,,,,,,,,,,,,,,,,,,,,,,,
,,60bab50bcdd5d7ad3ee97479,21,female,2024-04-19_17h37.33.725,stockport_simplified,2022.2.4,Win32,60.97560976,661e456ee6de07e70aa9ef7b,66229d9fcb8db5d56b9611ee,,,,,,,,,,,,,,,,,,,,,,,,,,,,,,,,,,,,,,,,,,,,,,,,,,,,,,,,1,50,110,25,1,N,M,D,o2_image,stimuli/out2.png,stimuli/out1.png,stimuli/correct_out2.png,,,,,,,,,,,,,,,,,,,,,,,,,,,,,,,,,,,,,,
,,60bab50bcdd5d7ad3ee97479,21,female,2024-04-19_17h37.33.725,stockport_simplified,2022.2.4,Win32,60.97560976,661e456ee6de07e70aa9ef7b,66229d9fcb8db5d56b9611ee,,,,,,,,,,,,,,,,,,,,,,,,,,,,,,,,,,714.9492,716.8482,"[7,2,5,3,8,1,6,4]","[[-0.3,0.2],[0.3,0.2]]","[[0.125,-0.2],[-0.125,-0.2]]",-0.1,-0.179629644,1,0,0,1.3821,o2_image,716.8491,1,717.3489,717.3489,719.3477,0,0,0,0,1,,,,,,,,,,,,,,,,,,,,,,,,,,,,,,,,,,,,,,,,,,,,,,,,,,
,,60bab50bcdd5d7ad3ee97479,21,female,2024-04-19_17h37.33.725,stockport_simplified,2022.2.4,Win32,60.97560976,661e456ee6de07e70aa9ef7b,66229d9fcb8db5d56b9611ee,,,,,,,,,,,,,,,,,,,,,,,,,,,,,,,,,,,,,,,,,,,,,,,,,,,,,,,,1,51,111,15,1,B,Y,N,o2_image,stimuli/out2.png,stimuli/out1.png,stimuli/correct_out2.png,,,,,,,,,,,,,,,,,,,,,,,,,,,,,,,,,,,,,,
,,60bab50bcdd5d7ad3ee97479,21,female,2024-04-19_17h37.33.725,stockport_simplified,2022.2.4,Win32,60.97560976,661e456ee6de07e70aa9ef7b,66229d9fcb8db5d56b9611ee,,,,,,,,,,,,,,,,,,,,,,,,,,,,,,,,,,719.3486,720.9971,"[7,2,5,3,8,1,6,4]","[[-0.3,0.2],[0.3,0.2]]","[[0.125,-0.2],[-0.125,-0.2]]",-0.1,-0.179629644,1,0,0,1.1325,o2_image,720.9995,1,721.497,721.4971,723.4965,0,0,0,0,1,,,,,,,,,,,,,,,,,,,,,,,,,,,,,,,,,,,,,,,,,,,,,,,,,,
,,60bab50bcdd5d7ad3ee97479,21,female,2024-04-19_17h37.33.725,stockport_simplified,2022.2.4,Win32,60.97560976,661e456ee6de07e70aa9ef7b,66229d9fcb8db5d56b9611ee,,,,,,,,,,,,,,,,,,,,,,,,,,,,,,,,,,,,,,,,,,,,,,,,,,,,,,,,1,52,112,12,1,B,X,N,o2_image,stimuli/out2.png,stimuli/out1.png,stimuli/correct_out2.png,,,,,,,,,,,,,,,,,,,,,,,,,,,,,,,,,,,,,,
,,60bab50bcdd5d7ad3ee97479,21,female,2024-04-19_17h37.33.725,stockport_simplified,2022.2.4,Win32,60.97560976,661e456ee6de07e70aa9ef7b,66229d9fcb8db5d56b9611ee,,,,,,,,,,,,,,,,,,,,,,,,,,,,,,,,,,723.4976,725.5291,"[7,2,5,3,8,1,6,4]","[[0.3,0.2],[-0.3,0.2]]","[[-0.125,-0.2],[0.125,-0.2]]",0.101851908,-0.174074088,1,0,0,1.5155,o2_image,725.5308,1,726.0287,726.0288,728.0282,0,0,0,0,1,,,,,,,,,,,,,,,,,,,,,,,,,,,,,,,,,,,,,,,,,,,,,,,,,,
,,60bab50bcdd5d7ad3ee97479,21,female,2024-04-19_17h37.33.725,stockport_simplified,2022.2.4,Win32,60.97560976,661e456ee6de07e70aa9ef7b,66229d9fcb8db5d56b9611ee,,,,,,,,,,,,,,,,,,,,,,,,,,,,,,,,,,,,,,,,,,,,,,,,,,,,,,,,1,53,113,46,1,B,Y,N,o2_image,stimuli/out2.png,stimuli/out1.png,stimuli/correct_out2.png,,,,,,,,,,,,,,,,,,,,,,,,,,,,,,,,,,,,,,
,,60bab50bcdd5d7ad3ee97479,21,female,2024-04-19_17h37.33.725,stockport_simplified,2022.2.4,Win32,60.97560976,661e456ee6de07e70aa9ef7b,66229d9fcb8db5d56b9611ee,,,,,,,,,,,,,,,,,,,,,,,,,,,,,,,,,,728.0294,730.7102,"[7,2,5,3,8,1,6,4]","[[0.3,0.2],[-0.3,0.2]]","[[0.125,-0.2],[-0.125,-0.2]]",0.112037065,-0.193518533,1,0,0,2.1614,o1_image,730.7109,1,731.2106,731.2109,733.2102,0,0,0,0,1,,,,,,,,,,,,,,,,,,,,,,,,,,,,,,,,,,,,,,,,,,,,,,,,,,
,,60bab50bcdd5d7ad3ee97479,21,female,2024-04-19_17h37.33.725,stockport_simplified,2022.2.4,Win32,60.97560976,661e456ee6de07e70aa9ef7b,66229d9fcb8db5d56b9611ee,,,,,,,,,,,,,,,,,,,,,,,,,,,,,,,,,,,,,,,,,,,,,,,,,,,,,,,,1,54,114,4,1,A,X,N,o1_image,stimuli/out1.png,stimuli/correct_out1.png,stimuli/out2.png,,,,,,,,,,,,,,,,,,,,,,,,,,,,,,,,,,,,,,
,,60bab50bcdd5d7ad3ee97479,21,female,2024-04-19_17h37.33.725,stockport_simplified,2022.2.4,Win32,60.97560976,661e456ee6de07e70aa9ef7b,66229d9fcb8db5d56b9611ee,,,,,,,,,,,,,,,,,,,,,,,,,,,,,,,,,,733.2113,734.8251,"[7,2,5,3,8,1,6,4]","[[0.3,0.2],[-0.3,0.2]]","[[-0.125,-0.2],[0.125,-0.2]]",0.103703732,-0.2,1,0,0,1.0986,o2_image,734.8258,1,735.3257,735.3258,737.3244,0,0,0,0,1,,,,,,,,,,,,,,,,,,,,,,,,,,,,,,,,,,,,,,,,,,,,,,,,,,
,,60bab50bcdd5d7ad3ee97479,21,female,2024-04-19_17h37.33.725,stockport_simplified,2022.2.4,Win32,60.97560976,661e456ee6de07e70aa9ef7b,66229d9fcb8db5d56b9611ee,,,,,,,,,,,,,,,,,,,,,,,,,,,,,,,,,,,,,,,,,,,,,,,,,,,,,,,,1,55,115,57,1,N,M,D,o2_image,stimuli/out2.png,stimuli/out1.png,stimuli/correct_out2.png,,,,,,,,,,,,,,,,,,,,,,,,,,,,,,,,,,,,,,
,,60bab50bcdd5d7ad3ee97479,21,female,2024-04-19_17h37.33.725,stockport_simplified,2022.2.4,Win32,60.97560976,661e456ee6de07e70aa9ef7b,66229d9fcb8db5d56b9611ee,,,,,,,,,,,,,,,,,,,,,,,,,,,,,,,,,,737.3248,739.3901,"[7,2,5,3,8,1,6,4]","[[0.3,0.2],[-0.3,0.2]]","[[-0.125,-0.2],[0.125,-0.2]]",-0.101851824,-0.208333333,1,0,0,1.5647,o1_image,739.3918,1,739.8908,739.8909,741.8905,0,0,0,0,1,,,,,,,,,,,,,,,,,,,,,,,,,,,,,,,,,,,,,,,,,,,,,,,,,,
,,60bab50bcdd5d7ad3ee97479,21,female,2024-04-19_17h37.33.725,stockport_simplified,2022.2.4,Win32,60.97560976,661e456ee6de07e70aa9ef7b,66229d9fcb8db5d56b9611ee,,,,,,,,,,,,,,,,,,,,,,,,,,,,,,,,,,,,,,,,,,,,,,,,,,,,,,,,1,56,116,24,1,N,M,C,o1_image,stimuli/out1.png,stimuli/correct_out1.png,stimuli/out2.png,,,,,,,,,,,,,,,,,,,,,,,,,,,,,,,,,,,,,,
,,60bab50bcdd5d7ad3ee97479,21,female,2024-04-19_17h37.33.725,stockport_simplified,2022.2.4,Win32,60.97560976,661e456ee6de07e70aa9ef7b,66229d9fcb8db5d56b9611ee,,,,,,,,,,,,,,,,,,,,,,,,,,,,,,,,,,741.8926,744.3632,"[7,2,5,3,8,1,6,4]","[[-0.3,0.2],[0.3,0.2]]","[[-0.125,-0.2],[0.125,-0.2]]",-0.14351849,-0.204629644,1,0,0,1.9543,o1_image,744.3645,1,744.8554,744.8554,746.8554,0,0,0,0,1,,,,,,,,,,,,,,,,,,,,,,,,,,,,,,,,,,,,,,,,,,,,,,,,,,
,,60bab50bcdd5d7ad3ee97479,21,female,2024-04-19_17h37.33.725,stockport_simplified,2022.2.4,Win32,60.97560976,661e456ee6de07e70aa9ef7b,66229d9fcb8db5d56b9611ee,,,,,,,,,,,,,,,,,,,,,,,,,,,,,,,,,,,,,,,,,,,,,,,,,,,,,,,,1,57,117,5,1,A,Y,N,o1_image,stimuli/out1.png,stimuli/correct_out1.png,stimuli/out2.png,,,,,,,,,,,,,,,,,,,,,,,,,,,,,,,,,,,,,,
,,60bab50bcdd5d7ad3ee97479,21,female,2024-04-19_17h37.33.725,stockport_simplified,2022.2.4,Win32,60.97560976,661e456ee6de07e70aa9ef7b,66229d9fcb8db5d56b9611ee,,,,,,,,,,,,,,,,,,,,,,,,,,,,,,,,,,746.8564,748.6874,"[7,2,5,3,8,1,6,4]","[[0.3,0.2],[-0.3,0.2]]","[[0.125,-0.2],[-0.125,-0.2]]",0.162037065,-0.207407422,1,0,0,1.316,o1_image,748.6883,1,749.1871,749.1871,751.1863,0,0,0,0,1,,,,,,,,,,,,,,,,,,,,,,,,,,,,,,,,,,,,,,,,,,,,,,,,,,
,,60bab50bcdd5d7ad3ee97479,21,female,2024-04-19_17h37.33.725,stockport_simplified,2022.2.4,Win32,60.97560976,661e456ee6de07e70aa9ef7b,66229d9fcb8db5d56b9611ee,,,,,,,,,,,,,,,,,,,,,,,,,,,,,,,,,,,,,,,,,,,,,,,,,,,,,,,,1,58,118,37,1,A,Y,N,o1_image,stimuli/out1.png,stimuli/correct_out1.png,stimuli/out2.png,,,,,,,,,,,,,,,,,,,,,,,,,,,,,,,,,,,,,,
,,60bab50bcdd5d7ad3ee97479,21,female,2024-04-19_17h37.33.725,stockport_simplified,2022.2.4,Win32,60.97560976,661e456ee6de07e70aa9ef7b,66229d9fcb8db5d56b9611ee,,,,,,,,,,,,,,,,,,,,,,,,,,,,,,,,,,751.1868,753.1522,"[7,2,5,3,8,1,6,4]","[[-0.3,0.2],[0.3,0.2]]","[[-0.125,-0.2],[0.125,-0.2]]",0.066666667,-0.2,1,0,0,1.4492,o2_image,753.1527,1,753.652,753.652,755.6514,0,0,0,0,1,,,,,,,,,,,,,,,,,,,,,,,,,,,,,,,,,,,,,,,,,,,,,,,,,,
,,60bab50bcdd5d7ad3ee97479,21,female,2024-04-19_17h37.33.725,stockport_simplified,2022.2.4,Win32,60.97560976,661e456ee6de07e70aa9ef7b,66229d9fcb8db5d56b9611ee,,,,,,,,,,,,,,,,,,,,,,,,,,,,,,,,,,,,,,,,,,,,,,,,,,,,,,,,1,59,119,17,1,B,Y,N,o2_image,stimuli/out2.png,stimuli/out1.png,stimuli/correct_out2.png,,,,,,,,,,,,,,,,,,,,,,,,,,,,,,,,,,,,,,
,,60bab50bcdd5d7ad3ee97479,21,female,2024-04-19_17h37.33.725,stockport_simplified,2022.2.4,Win32,60.97560976,661e456ee6de07e70aa9ef7b,66229d9fcb8db5d56b9611ee,,,,,,,,,,,,,,,,,,,,,,,,,,,,,,,,,,755.6692,757.6011,"[7,2,5,3,8,1,6,4]","[[0.3,0.2],[-0.3,0.2]]","[[0.125,-0.2],[-0.125,-0.2]]",0.110185242,-0.191666667,1,0,0,1.4164,o1_image,757.6025,1,758.1005,758.1006,760.1,,,,,,,,,,,,,,,,,,0,0,0,0,1,,,,,,,,,,,,,,,,,,,,,,,,,,,,,,,,,
,,60bab50bcdd5d7ad3ee97479,21,female,2024-04-19_17h37.33.725,stockport_simplified,2022.2.4,Win32,60.97560976,661e456ee6de07e70aa9ef7b,66229d9fcb8db5d56b9611ee,,,,,,,,,,,,,,,,,,,,,,,,,,,,,,,,,,,,,,,,,,,,,,,,,,,,,,,,,,,,,A,Y,N,o1_image,stimuli/out1.png,stimuli/correct_out1.png,stimuli/out2.png,,,,,,0,0,0,11,1,,,,,,,,,,,,,,,,,,,,,,,,,,,,
,,60bab50bcdd5d7ad3ee97479,21,female,2024-04-19_17h37.33.725,stockport_simplified,2022.2.4,Win32,60.97560976,661e456ee6de07e70aa9ef7b,66229d9fcb8db5d56b9611ee,,,,,,,,,,,,,,,,,,,,,,,,,,,,,,,,,,760.1015,762.699,"[7,2,5,3,8,1,6,4]","[[-0.3,0.2],[0.3,0.2]]","[[-0.125,-0.2],[0.125,-0.2]]",-0.124074046,-0.180555556,1,0,0,2.0806,o1_image,762.7,1,763.1992,763.1993,765.198,,,,,,,,,,,,,,,,,,0,0,0,0,1,,,,,,,,,,,,,,,,,,,,,,,,,,,,,,,,,
,,60bab50bcdd5d7ad3ee97479,21,female,2024-04-19_17h37.33.725,stockport_simplified,2022.2.4,Win32,60.97560976,661e456ee6de07e70aa9ef7b,66229d9fcb8db5d56b9611ee,,,,,,,,,,,,,,,,,,,,,,,,,,,,,,,,,,,,,,,,,,,,,,,,,,,,,,,,,,,,,N,M,C,o1_image,stimuli/out1.png,stimuli/correct_out1.png,stimuli/out2.png,,,,,,0,1,1,45,1,,,,,,,,,,,,,,,,,,,,,,,,,,,,
,,60bab50bcdd5d7ad3ee97479,21,female,2024-04-19_17h37.33.725,stockport_simplified,2022.2.4,Win32,60.97560976,661e456ee6de07e70aa9ef7b,66229d9fcb8db5d56b9611ee,,,,,,,,,,,,,,,,,,,,,,,,,,,,,,,,,,765.1984,767.9978,"[7,2,5,3,8,1,6,4]","[[-0.3,0.2],[0.3,0.2]]","[[-0.125,-0.2],[0.125,-0.2]]",0.150925954,-0.189814843,1,0,0,2.2825,o2_image,767.9993,1,768.4977,768.4978,770.4969,,,,,,,,,,,,,,,,,,0,0,0,0,1,,,,,,,,,,,,,,,,,,,,,,,,,,,,,,,,,
,,60bab50bcdd5d7ad3ee97479,21,female,2024-04-19_17h37.33.725,stockport_simplified,2022.2.4,Win32,60.97560976,661e456ee6de07e70aa9ef7b,66229d9fcb8db5d56b9611ee,,,,,,,,,,,,,,,,,,,,,,,,,,,,,,,,,,,,,,,,,,,,,,,,,,,,,,,,,,,,,B,Y,N,o2_image,stimuli/out2.png,stimuli/out1.png,stimuli/correct_out2.png,,,,,,0,2,2,34,1,,,,,,,,,,,,,,,,,,,,,,,,,,,,
,,60bab50bcdd5d7ad3ee97479,21,female,2024-04-19_17h37.33.725,stockport_simplified,2022.2.4,Win32,60.97560976,661e456ee6de07e70aa9ef7b,66229d9fcb8db5d56b9611ee,,,,,,,,,,,,,,,,,,,,,,,,,,,,,,,,,,770.4976,773.5121,"[7,2,5,3,8,1,6,4]","[[-0.3,0.2],[0.3,0.2]]","[[0.125,-0.2],[-0.125,-0.2]]",-0.109259203,-0.179629644,1,0,0,2.4983,o2_image,773.5264,0,774.0287,774.0288,776.0281,,,,,,,,,,,,,,,,,,0,0,0,0,1,,,,,,,,,,,,,,,,,,,,,,,,,,,,,,,,,
