counterbalance_2.started,counterbalance_2.stopped,participant,age,gender,date,expName,psychopyVersion,OS,frameRate,STUDY_ID,SESSION_ID,information_2.started,information_2.stopped,information_loop.thisRepN,information_loop.thisTrialN,information_loop.thisN,information_loop.thisIndex,information_loop.ran,information,consent_2.started,consent_2.stopped,slider_1.response,slider_2.response,slider_3.response,slider_4.response,slider_5.response,slider_6.response,instructions.started,instructions.stopped,task1_instr.thisRepN,task1_instr.thisTrialN,task1_instr.thisN,task1_instr.thisIndex,task1_instr.ran,task1,comprehension1_2.started,comprehension1_2.stopped,comp1_mouse.x,comp1_mouse.y,comp1_mouse.leftButton,comp1_mouse.midButton,comp1_mouse.rightButton,comp1_mouse.time,comp1_mouse.clicked_name,cue_o__trial_2.started,cue_o__trial_2.stopped,order,cue_order,out_order,cue_o_mouse.x,cue_o_mouse.y,cue_o_mouse.leftButton,cue_o_mouse.midButton,cue_o_mouse.rightButton,cue_o_mouse.time,cue_o_mouse.clicked_name,cue_selection_2.started,correct_answer,cue_selection_2.stopped,feedback_2.started,feedback_2.stopped,feedback_loop.thisRepN,feedback_loop.thisTrialN,feedback_loop.thisN,feedback_loop.thisIndex,feedback_loop.ran,stage1_trials.thisRepN,stage1_trials.thisTrialN,stage1_trials.thisN,stage1_trials.thisIndex,stage1_trials.ran,cue1,cue2,cue3,outcome,correct_out,o1_feedback,o2_feedback,stage2_feedback_loop.thisRepN,stage2_feedback_loop.thisTrialN,stage2_feedback_loop.thisN,stage2_feedback_loop.thisIndex,stage2_feedback_loop.ran,stage2_trials.thisRepN,stage2_trials.thisTrialN,stage2_trials.thisN,stage2_trials.thisIndex,stage2_trials.ran,stage3_feedback_loop.thisRepN,stage3_feedback_loop.thisTrialN,stage3_feedback_loop.thisN,stage3_feedback_loop.thisIndex,stage3_feedback_loop.ran,stage3_trials.thisRepN,stage3_trials.thisTrialN,stage3_trials.thisN,stage3_trials.thisIndex,stage3_trials.ran,debrief_2.started,debrief_2.stopped,debrief_loop.thisRepN,debrief_loop.thisTrialN,debrief_loop.thisN,debrief_loop.thisIndex,debrief_loop.ran,debrief_img,compr1_completed.thisRepN,compr1_completed.thisTrialN,compr1_completed.thisN,compr1_completed.thisIndex,compr1_completed.ran,consent_loop.thisRepN,consent_loop.thisTrialN,consent_loop.thisN,consent_loop.thisIndex,consent_loop.ran
0.0006,0.0012,65ba64c07847d4c34ec00de1,47,female,2024-04-24_12h36.25.384,stockport_simplified,2022.2.4,Win32,59.88023952,661e456ee6de07e70aa9ef7b,6628dfec3bb2e78332d6a8ea,,,,,,,,,,,,,,,,,,,,,,,,,,,,,,,,,,,,,,,,,,,,,,,,,,,,,,,,,,,,,,,,,,,,,,,,,,,,,,,,,,,,,,,,,,,,,,,,,,,,,,,,,
,,65ba64c07847d4c34ec00de1,47,female,2024-04-24_12h36.25.384,stockport_simplified,2022.2.4,Win32,59.88023952,661e456ee6de07e70aa9ef7b,6628dfec3bb2e78332d6a8ea,0.0519,52.3256,0,0,0,0,1,instructions/info1.png,,,,,,,,,,,,,,,,,,,,,,,,,,,,,,,,,,,,,,,,,,,,,,,,,,,,,,,,,,,,,,,,,,,,,,,,,,,,,,,,,,,,,,,,,,,,,,,,,
,,65ba64c07847d4c34ec00de1,47,female,2024-04-24_12h36.25.384,stockport_simplified,2022.2.4,Win32,59.88023952,661e456ee6de07e70aa9ef7b,6628dfec3bb2e78332d6a8ea,52.3266,80.1339,0,1,1,1,1,instructions/info2.png,,,,,,,,,,,,,,,,,,,,,,,,,,,,,,,,,,,,,,,,,,,,,,,,,,,,,,,,,,,,,,,,,,,,,,,,,,,,,,,,,,,,,,,,,,,,,,,,,
,,65ba64c07847d4c34ec00de1,47,female,2024-04-24_12h36.25.384,stockport_simplified,2022.2.4,Win32,59.88023952,661e456ee6de07e70aa9ef7b,6628dfec3bb2e78332d6a8ea,80.1531,126.1632,0,2,2,2,1,instructions/info3.png,,,,,,,,,,,,,,,,,,,,,,,,,,,,,,,,,,,,,,,,,,,,,,,,,,,,,,,,,,,,,,,,,,,,,,,,,,,,,,,,,,,,,,,,,,,,,,,,,
,,65ba64c07847d4c34ec00de1,47,female,2024-04-24_12h36.25.384,stockport_simplified,2022.2.4,Win32,59.88023952,661e456ee6de07e70aa9ef7b,6628dfec3bb2e78332d6a8ea,,,,,,,,,126.1933,174.7263,1,1,1,1,1,1,,,,,,,,,,,,,,,,,,,,,,,,,,,,,,,,,,,,,,,,,,,,,,,,,,,,,,,,,,,,,,,,,,,,,,,,,,,,,,,,,,,,,,,,,
,,65ba64c07847d4c34ec00de1,47,female,2024-04-24_12h36.25.384,stockport_simplified,2022.2.4,Win32,59.88023952,661e456ee6de07e70aa9ef7b,6628dfec3bb2e78332d6a8ea,,,,,,,,,,,,,,,,,174.7463,238.3495,0,0,0,0,1,instructions/task1_1.png,,,,,,,,,,,,,,,,,,,,,,,,,,,,,,,,,,,,,,,,,,,,,,,,,,,,,,,,,,,,,,,,,,,,,,,,,,,,,,,,,
,,65ba64c07847d4c34ec00de1,47,female,2024-04-24_12h36.25.384,stockport_simplified,2022.2.4,Win32,59.88023952,661e456ee6de07e70aa9ef7b,6628dfec3bb2e78332d6a8ea,,,,,,,,,,,,,,,,,238.3659,286.5763,0,1,1,1,1,instructions/task1_2.png,,,,,,,,,,,,,,,,,,,,,,,,,,,,,,,,,,,,,,,,,,,,,,,,,,,,,,,,,,,,,,,,,,,,,,,,,,,,,,,,,
,,65ba64c07847d4c34ec00de1,47,female,2024-04-24_12h36.25.384,stockport_simplified,2022.2.4,Win32,59.88023952,661e456ee6de07e70aa9ef7b,6628dfec3bb2e78332d6a8ea,,,,,,,,,,,,,,,,,286.5926,317.7597,0,2,2,2,1,instructions/task1_3.png,,,,,,,,,,,,,,,,,,,,,,,,,,,,,,,,,,,,,,,,,,,,,,,,,,,,,,,,,,,,,,,,,,,,,,,,,,,,,,,,,
,,65ba64c07847d4c34ec00de1,47,female,2024-04-24_12h36.25.384,stockport_simplified,2022.2.4,Win32,59.88023952,661e456ee6de07e70aa9ef7b,6628dfec3bb2e78332d6a8ea,,,,,,,,,,,,,,,,,,,,,,,,,317.7614,350.9021,-0.048148148,-0.338888889,1,0,0,31.4421,comp1_resp1,350.9707,356.9127,"[1,3,5,8,4,7,2,6]","[[-0.3,0.2],[0.3,0.2]]","[[-0.125,-0.2],[0.125,-0.2]]",-0.115740741,-0.212037037,1,0,0,5.4241,o1_image,356.9495,1,357.4395,357.4403,359.4432,0,0,0,0,1,,,,,,,,,,,,,,,,,,,,,,,,,,,,,,,,,,,,,,,,,,,,,,,,,,
,,65ba64c07847d4c34ec00de1,47,female,2024-04-24_12h36.25.384,stockport_simplified,2022.2.4,Win32,59.88023952,661e456ee6de07e70aa9ef7b,6628dfec3bb2e78332d6a8ea,,,,,,,,,,,,,,,,,,,,,,,,,,,,,,,,,,,,,,,,,,,,,,,,,,,,,,,,0,0,0,4,1,A,X,N,o1_image,stimuli/out1.png,stimuli/correct_out1.png,stimuli/out2.png,,,,,,,,,,,,,,,,,,,,,,,,,,,,,,,,,,,,,,
,,65ba64c07847d4c34ec00de1,47,female,2024-04-24_12h36.25.384,stockport_simplified,2022.2.4,Win32,59.88023952,661e456ee6de07e70aa9ef7b,6628dfec3bb2e78332d6a8ea,,,,,,,,,,,,,,,,,,,,,,,,,,,,,,,,,,359.4454,364.6066,"[1,3,5,8,4,7,2,6]","[[-0.3,0.2],[0.3,0.2]]","[[-0.125,-0.2],[0.125,-0.2]]",0.09537037,-0.212037037,1,0,0,4.646,o2_image,364.6368,1,365.1375,365.1377,367.1423,0,0,0,0,1,,,,,,,,,,,,,,,,,,,,,,,,,,,,,,,,,,,,,,,,,,,,,,,,,,
,,65ba64c07847d4c34ec00de1,47,female,2024-04-24_12h36.25.384,stockport_simplified,2022.2.4,Win32,59.88023952,661e456ee6de07e70aa9ef7b,6628dfec3bb2e78332d6a8ea,,,,,,,,,,,,,,,,,,,,,,,,,,,,,,,,,,,,,,,,,,,,,,,,,,,,,,,,0,1,1,44,1,B,X,N,o2_image,stimuli/out2.png,stimuli/out1.png,stimuli/correct_out2.png,,,,,,,,,,,,,,,,,,,,,,,,,,,,,,,,,,,,,,
,,65ba64c07847d4c34ec00de1,47,female,2024-04-24_12h36.25.384,stockport_simplified,2022.2.4,Win32,59.88023952,661e456ee6de07e70aa9ef7b,6628dfec3bb2e78332d6a8ea,,,,,,,,,,,,,,,,,,,,,,,,,,,,,,,,,,367.144,369.9254,"[1,3,5,8,4,7,2,6]","[[-0.3,0.2],[0.3,0.2]]","[[-0.125,-0.2],[0.125,-0.2]]",-0.117592593,-0.203703704,1,0,0,2.2662,o1_image,369.9483,1,370.4418,370.4419,372.4418,0,0,0,0,1,,,,,,,,,,,,,,,,,,,,,,,,,,,,,,,,,,,,,,,,,,,,,,,,,,
,,65ba64c07847d4c34ec00de1,47,female,2024-04-24_12h36.25.384,stockport_simplified,2022.2.4,Win32,59.88023952,661e456ee6de07e70aa9ef7b,6628dfec3bb2e78332d6a8ea,,,,,,,,,,,,,,,,,,,,,,,,,,,,,,,,,,,,,,,,,,,,,,,,,,,,,,,,0,2,2,39,1,A,Y,N,o1_image,stimuli/out1.png,stimuli/correct_out1.png,stimuli/out2.png,,,,,,,,,,,,,,,,,,,,,,,,,,,,,,,,,,,,,,
,,65ba64c07847d4c34ec00de1,47,female,2024-04-24_12h36.25.384,stockport_simplified,2022.2.4,Win32,59.88023952,661e456ee6de07e70aa9ef7b,6628dfec3bb2e78332d6a8ea,,,,,,,,,,,,,,,,,,,,,,,,,,,,,,,,,,372.4427,374.7804,"[1,3,5,8,4,7,2,6]","[[0.3,0.2],[-0.3,0.2]]","[[-0.125,-0.2],[0.125,-0.2]]",-0.117592593,-0.203703704,1,0,0,1.8194,o1_image,374.7831,1,375.2885,375.2887,377.2925,0,0,0,0,1,,,,,,,,,,,,,,,,,,,,,,,,,,,,,,,,,,,,,,,,,,,,,,,,,,
,,65ba64c07847d4c34ec00de1,47,female,2024-04-24_12h36.25.384,stockport_simplified,2022.2.4,Win32,59.88023952,661e456ee6de07e70aa9ef7b,6628dfec3bb2e78332d6a8ea,,,,,,,,,,,,,,,,,,,,,,,,,,,,,,,,,,,,,,,,,,,,,,,,,,,,,,,,0,3,3,53,1,N,M,C,o1_image,stimuli/out1.png,stimuli/correct_out1.png,stimuli/out2.png,,,,,,,,,,,,,,,,,,,,,,,,,,,,,,,,,,,,,,
,,65ba64c07847d4c34ec00de1,47,female,2024-04-24_12h36.25.384,stockport_simplified,2022.2.4,Win32,59.88023952,661e456ee6de07e70aa9ef7b,6628dfec3bb2e78332d6a8ea,,,,,,,,,,,,,,,,,,,,,,,,,,,,,,,,,,377.2941,380.0254,"[1,3,5,8,4,7,2,6]","[[-0.3,0.2],[0.3,0.2]]","[[0.125,-0.2],[-0.125,-0.2]]",0.116666667,-0.199074074,1,0,0,2.2138,o1_image,380.0273,1,380.5262,380.5263,382.5257,0,0,0,0,1,,,,,,,,,,,,,,,,,,,,,,,,,,,,,,,,,,,,,,,,,,,,,,,,,,
,,65ba64c07847d4c34ec00de1,47,female,2024-04-24_12h36.25.384,stockport_simplified,2022.2.4,Win32,59.88023952,661e456ee6de07e70aa9ef7b,6628dfec3bb2e78332d6a8ea,,,,,,,,,,,,,,,,,,,,,,,,,,,,,,,,,,,,,,,,,,,,,,,,,,,,,,,,0,4,4,36,1,A,Y,N,o1_image,stimuli/out1.png,stimuli/correct_out1.png,stimuli/out2.png,,,,,,,,,,,,,,,,,,,,,,,,,,,,,,,,,,,,,,
,,65ba64c07847d4c34ec00de1,47,female,2024-04-24_12h36.25.384,stockport_simplified,2022.2.4,Win32,59.88023952,661e456ee6de07e70aa9ef7b,6628dfec3bb2e78332d6a8ea,,,,,,,,,,,,,,,,,,,,,,,,,,,,,,,,,,382.527,385.2936,"[1,3,5,8,4,7,2,6]","[[-0.3,0.2],[0.3,0.2]]","[[-0.125,-0.2],[0.125,-0.2]]",0.116666667,-0.199074074,1,0,0,2.2501,o2_image,385.3282,0,385.8203,385.8203,387.8178,0,0,0,0,1,,,,,,,,,,,,,,,,,,,,,,,,,,,,,,,,,,,,,,,,,,,,,,,,,,
,,65ba64c07847d4c34ec00de1,47,female,2024-04-24_12h36.25.384,stockport_simplified,2022.2.4,Win32,59.88023952,661e456ee6de07e70aa9ef7b,6628dfec3bb2e78332d6a8ea,,,,,,,,,,,,,,,,,,,,,,,,,,,,,,,,,,,,,,,,,,,,,,,,,,,,,,,,0,5,5,35,1,A,Y,N,o1_image,stimuli/out1.png,stimuli/correct_out1.png,stimuli/out2.png,,,,,,,,,,,,,,,,,,,,,,,,,,,,,,,,,,,,,,
,,65ba64c07847d4c34ec00de1,47,female,2024-04-24_12h36.25.384,stockport_simplified,2022.2.4,Win32,59.88023952,661e456ee6de07e70aa9ef7b,6628dfec3bb2e78332d6a8ea,,,,,,,,,,,,,,,,,,,,,,,,,,,,,,,,,,387.8197,389.6596,"[1,3,5,8,4,7,2,6]","[[-0.3,0.2],[0.3,0.2]]","[[-0.125,-0.2],[0.125,-0.2]]",0.116666667,-0.199074074,1,0,0,1.3316,o2_image,389.6628,1,390.1563,390.1564,392.159,0,0,0,0,1,,,,,,,,,,,,,,,,,,,,,,,,,,,,,,,,,,,,,,,,,,,,,,,,,,
,,65ba64c07847d4c34ec00de1,47,female,2024-04-24_12h36.25.384,stockport_simplified,2022.2.4,Win32,59.88023952,661e456ee6de07e70aa9ef7b,6628dfec3bb2e78332d6a8ea,,,,,,,,,,,,,,,,,,,,,,,,,,,,,,,,,,,,,,,,,,,,,,,,,,,,,,,,0,6,6,59,1,N,M,D,o2_image,stimuli/out2.png,stimuli/out1.png,stimuli/correct_out2.png,,,,,,,,,,,,,,,,,,,,,,,,,,,,,,,,,,,,,,
,,65ba64c07847d4c34ec00de1,47,female,2024-04-24_12h36.25.384,stockport_simplified,2022.2.4,Win32,59.88023952,661e456ee6de07e70aa9ef7b,6628dfec3bb2e78332d6a8ea,,,,,,,,,,,,,,,,,,,,,,,,,,,,,,,,,,392.1605,394.3097,"[1,3,5,8,4,7,2,6]","[[0.3,0.2],[-0.3,0.2]]","[[-0.125,-0.2],[0.125,-0.2]]",0.116666667,-0.199074074,1,0,0,1.632,o2_image,394.3113,1,394.821,394.821,396.8246,0,0,0,0,1,,,,,,,,,,,,,,,,,,,,,,,,,,,,,,,,,,,,,,,,,,,,,,,,,,
,,65ba64c07847d4c34ec00de1,47,female,2024-04-24_12h36.25.384,stockport_simplified,2022.2.4,Win32,59.88023952,661e456ee6de07e70aa9ef7b,6628dfec3bb2e78332d6a8ea,,,,,,,,,,,,,,,,,,,,,,,,,,,,,,,,,,,,,,,,,,,,,,,,,,,,,,,,0,7,7,48,1,B,Y,N,o2_image,stimuli/out2.png,stimuli/out1.png,stimuli/correct_out2.png,,,,,,,,,,,,,,,,,,,,,,,,,,,,,,,,,,,,,,
,,65ba64c07847d4c34ec00de1,47,female,2024-04-24_12h36.25.384,stockport_simplified,2022.2.4,Win32,59.88023952,661e456ee6de07e70aa9ef7b,6628dfec3bb2e78332d6a8ea,,,,,,,,,,,,,,,,,,,,,,,,,,,,,,,,,,396.8254,398.8417,"[1,3,5,8,4,7,2,6]","[[0.3,0.2],[-0.3,0.2]]","[[0.125,-0.2],[-0.125,-0.2]]",-0.109259259,-0.202777778,1,0,0,1.4997,o2_image,398.8434,0,399.3414,399.3415,401.3414,0,0,0,0,1,,,,,,,,,,,,,,,,,,,,,,,,,,,,,,,,,,,,,,,,,,,,,,,,,,
,,65ba64c07847d4c34ec00de1,47,female,2024-04-24_12h36.25.384,stockport_simplified,2022.2.4,Win32,59.88023952,661e456ee6de07e70aa9ef7b,6628dfec3bb2e78332d6a8ea,,,,,,,,,,,,,,,,,,,,,,,,,,,,,,,,,,,,,,,,,,,,,,,,,,,,,,,,0,8,8,5,1,A,Y,N,o1_image,stimuli/out1.png,stimuli/correct_out1.png,stimuli/out2.png,,,,,,,,,,,,,,,,,,,,,,,,,,,,,,,,,,,,,,
,,65ba64c07847d4c34ec00de1,47,female,2024-04-24_12h36.25.384,stockport_simplified,2022.2.4,Win32,59.88023952,661e456ee6de07e70aa9ef7b,6628dfec3bb2e78332d6a8ea,,,,,,,,,,,,,,,,,,,,,,,,,,,,,,,,,,401.3422,403.5918,"[1,3,5,8,4,7,2,6]","[[-0.3,0.2],[0.3,0.2]]","[[-0.125,-0.2],[0.125,-0.2]]",-0.111111111,-0.202777778,1,0,0,1.7327,o1_image,403.6079,0,404.1028,404.1028,406.0912,0,0,0,0,1,,,,,,,,,,,,,,,,,,,,,,,,,,,,,,,,,,,,,,,,,,,,,,,,,,
,,65ba64c07847d4c34ec00de1,47,female,2024-04-24_12h36.25.384,stockport_simplified,2022.2.4,Win32,59.88023952,661e456ee6de07e70aa9ef7b,6628dfec3bb2e78332d6a8ea,,,,,,,,,,,,,,,,,,,,,,,,,,,,,,,,,,,,,,,,,,,,,,,,,,,,,,,,0,9,9,41,1,B,X,N,o2_image,stimuli/out2.png,stimuli/out1.png,stimuli/correct_out2.png,,,,,,,,,,,,,,,,,,,,,,,,,,,,,,,,,,,,,,
,,65ba64c07847d4c34ec00de1,47,female,2024-04-24_12h36.25.384,stockport_simplified,2022.2.4,Win32,59.88023952,661e456ee6de07e70aa9ef7b,6628dfec3bb2e78332d6a8ea,,,,,,,,,,,,,,,,,,,,,,,,,,,,,,,,,,406.0921,408.7876,"[1,3,5,8,4,7,2,6]","[[0.3,0.2],[-0.3,0.2]]","[[-0.125,-0.2],[0.125,-0.2]]",-0.124074074,-0.209259259,1,0,0,2.1787,o1_image,408.7887,1,409.2914,409.2915,411.2917,0,0,0,0,1,,,,,,,,,,,,,,,,,,,,,,,,,,,,,,,,,,,,,,,,,,,,,,,,,,
,,65ba64c07847d4c34ec00de1,47,female,2024-04-24_12h36.25.384,stockport_simplified,2022.2.4,Win32,59.88023952,661e456ee6de07e70aa9ef7b,6628dfec3bb2e78332d6a8ea,,,,,,,,,,,,,,,,,,,,,,,,,,,,,,,,,,,,,,,,,,,,,,,,,,,,,,,,0,10,10,7,1,A,Y,N,o1_image,stimuli/out1.png,stimuli/correct_out1.png,stimuli/out2.png,,,,,,,,,,,,,,,,,,,,,,,,,,,,,,,,,,,,,,
,,65ba64c07847d4c34ec00de1,47,female,2024-04-24_12h36.25.384,stockport_simplified,2022.2.4,Win32,59.88023952,661e456ee6de07e70aa9ef7b,6628dfec3bb2e78332d6a8ea,,,,,,,,,,,,,,,,,,,,,,,,,,,,,,,,,,411.2926,412.9418,"[1,3,5,8,4,7,2,6]","[[0.3,0.2],[-0.3,0.2]]","[[0.125,-0.2],[-0.125,-0.2]]",-0.124074074,-0.210185185,1,0,0,1.1328,o2_image,412.9433,0,413.4413,413.4414,415.4413,0,0,0,0,1,,,,,,,,,,,,,,,,,,,,,,,,,,,,,,,,,,,,,,,,,,,,,,,,,,
,,65ba64c07847d4c34ec00de1,47,female,2024-04-24_12h36.25.384,stockport_simplified,2022.2.4,Win32,59.88023952,661e456ee6de07e70aa9ef7b,6628dfec3bb2e78332d6a8ea,,,,,,,,,,,,,,,,,,,,,,,,,,,,,,,,,,,,,,,,,,,,,,,,,,,,,,,,0,11,11,24,1,N,M,C,o1_image,stimuli/out1.png,stimuli/correct_out1.png,stimuli/out2.png,,,,,,,,,,,,,,,,,,,,,,,,,,,,,,,,,,,,,,
,,65ba64c07847d4c34ec00de1,47,female,2024-04-24_12h36.25.384,stockport_simplified,2022.2.4,Win32,59.88023952,661e456ee6de07e70aa9ef7b,6628dfec3bb2e78332d6a8ea,,,,,,,,,,,,,,,,,,,,,,,,,,,,,,,,,,415.4419,417.3082,"[1,3,5,8,4,7,2,6]","[[-0.3,0.2],[0.3,0.2]]","[[0.125,-0.2],[-0.125,-0.2]]",-0.124074074,-0.210185185,1,0,0,1.3493,o2_image,417.3097,1,417.8079,417.808,419.8079,0,0,0,0,1,,,,,,,,,,,,,,,,,,,,,,,,,,,,,,,,,,,,,,,,,,,,,,,,,,
,,65ba64c07847d4c34ec00de1,47,female,2024-04-24_12h36.25.384,stockport_simplified,2022.2.4,Win32,59.88023952,661e456ee6de07e70aa9ef7b,6628dfec3bb2e78332d6a8ea,,,,,,,,,,,,,,,,,,,,,,,,,,,,,,,,,,,,,,,,,,,,,,,,,,,,,,,,0,12,12,13,1,B,X,N,o2_image,stimuli/out2.png,stimuli/out1.png,stimuli/correct_out2.png,,,,,,,,,,,,,,,,,,,,,,,,,,,,,,,,,,,,,,
,,65ba64c07847d4c34ec00de1,47,female,2024-04-24_12h36.25.384,stockport_simplified,2022.2.4,Win32,59.88023952,661e456ee6de07e70aa9ef7b,6628dfec3bb2e78332d6a8ea,,,,,,,,,,,,,,,,,,,,,,,,,,,,,,,,,,419.8086,423.5417,"[1,3,5,8,4,7,2,6]","[[0.3,0.2],[-0.3,0.2]]","[[-0.125,-0.2],[0.125,-0.2]]",-0.167592593,-0.223148148,1,0,0,3.2163,o1_image,423.5576,1,424.0581,424.0581,426.0579,0,0,0,0,1,,,,,,,,,,,,,,,,,,,,,,,,,,,,,,,,,,,,,,,,,,,,,,,,,,
,,65ba64c07847d4c34ec00de1,47,female,2024-04-24_12h36.25.384,stockport_simplified,2022.2.4,Win32,59.88023952,661e456ee6de07e70aa9ef7b,6628dfec3bb2e78332d6a8ea,,,,,,,,,,,,,,,,,,,,,,,,,,,,,,,,,,,,,,,,,,,,,,,,,,,,,,,,0,13,13,6,1,A,Y,N,o1_image,stimuli/out1.png,stimuli/correct_out1.png,stimuli/out2.png,,,,,,,,,,,,,,,,,,,,,,,,,,,,,,,,,,,,,,
,,65ba64c07847d4c34ec00de1,47,female,2024-04-24_12h36.25.384,stockport_simplified,2022.2.4,Win32,59.88023952,661e456ee6de07e70aa9ef7b,6628dfec3bb2e78332d6a8ea,,,,,,,,,,,,,,,,,,,,,,,,,,,,,,,,,,426.0586,429.0748,"[1,3,5,8,4,7,2,6]","[[0.3,0.2],[-0.3,0.2]]","[[0.125,-0.2],[-0.125,-0.2]]",0.112962963,-0.194444444,1,0,0,2.4996,o1_image,429.0766,1,429.5751,429.5752,431.5747,0,0,0,0,1,,,,,,,,,,,,,,,,,,,,,,,,,,,,,,,,,,,,,,,,,,,,,,,,,,
,,65ba64c07847d4c34ec00de1,47,female,2024-04-24_12h36.25.384,stockport_simplified,2022.2.4,Win32,59.88023952,661e456ee6de07e70aa9ef7b,6628dfec3bb2e78332d6a8ea,,,,,,,,,,,,,,,,,,,,,,,,,,,,,,,,,,,,,,,,,,,,,,,,,,,,,,,,0,14,14,32,1,A,X,N,o1_image,stimuli/out1.png,stimuli/correct_out1.png,stimuli/out2.png,,,,,,,,,,,,,,,,,,,,,,,,,,,,,,,,,,,,,,
,,65ba64c07847d4c34ec00de1,47,female,2024-04-24_12h36.25.384,stockport_simplified,2022.2.4,Win32,59.88023952,661e456ee6de07e70aa9ef7b,6628dfec3bb2e78332d6a8ea,,,,,,,,,,,,,,,,,,,,,,,,,,,,,,,,,,431.5755,433.5581,"[1,3,5,8,4,7,2,6]","[[0.3,0.2],[-0.3,0.2]]","[[0.125,-0.2],[-0.125,-0.2]]",-0.083333333,-0.205555556,1,0,0,1.4658,o2_image,433.5595,1,434.058,434.058,436.064,0,0,0,0,1,,,,,,,,,,,,,,,,,,,,,,,,,,,,,,,,,,,,,,,,,,,,,,,,,,
,,65ba64c07847d4c34ec00de1,47,female,2024-04-24_12h36.25.384,stockport_simplified,2022.2.4,Win32,59.88023952,661e456ee6de07e70aa9ef7b,6628dfec3bb2e78332d6a8ea,,,,,,,,,,,,,,,,,,,,,,,,,,,,,,,,,,,,,,,,,,,,,,,,,,,,,,,,0,15,15,55,1,N,M,D,o2_image,stimuli/out2.png,stimuli/out1.png,stimuli/correct_out2.png,,,,,,,,,,,,,,,,,,,,,,,,,,,,,,,,,,,,,,
,,65ba64c07847d4c34ec00de1,47,female,2024-04-24_12h36.25.384,stockport_simplified,2022.2.4,Win32,59.88023952,661e456ee6de07e70aa9ef7b,6628dfec3bb2e78332d6a8ea,,,,,,,,,,,,,,,,,,,,,,,,,,,,,,,,,,436.0648,439.2247,"[1,3,5,8,4,7,2,6]","[[-0.3,0.2],[0.3,0.2]]","[[-0.125,-0.2],[0.125,-0.2]]",-0.128703704,-0.213888889,1,0,0,2.6485,o1_image,439.2261,1,439.7246,439.7247,441.7248,0,0,0,0,1,,,,,,,,,,,,,,,,,,,,,,,,,,,,,,,,,,,,,,,,,,,,,,,,,,
,,65ba64c07847d4c34ec00de1,47,female,2024-04-24_12h36.25.384,stockport_simplified,2022.2.4,Win32,59.88023952,661e456ee6de07e70aa9ef7b,6628dfec3bb2e78332d6a8ea,,,,,,,,,,,,,,,,,,,,,,,,,,,,,,,,,,,,,,,,,,,,,,,,,,,,,,,,0,16,16,31,1,A,X,N,o1_image,stimuli/out1.png,stimuli/correct_out1.png,stimuli/out2.png,,,,,,,,,,,,,,,,,,,,,,,,,,,,,,,,,,,,,,
,,65ba64c07847d4c34ec00de1,47,female,2024-04-24_12h36.25.384,stockport_simplified,2022.2.4,Win32,59.88023952,661e456ee6de07e70aa9ef7b,6628dfec3bb2e78332d6a8ea,,,,,,,,,,,,,,,,,,,,,,,,,,,,,,,,,,441.7257,443.6079,"[1,3,5,8,4,7,2,6]","[[-0.3,0.2],[0.3,0.2]]","[[0.125,-0.2],[-0.125,-0.2]]",-0.128703704,-0.181481481,1,0,0,1.3652,o2_image,443.6099,1,444.1079,444.1079,446.1079,0,0,0,0,1,,,,,,,,,,,,,,,,,,,,,,,,,,,,,,,,,,,,,,,,,,,,,,,,,,
,,65ba64c07847d4c34ec00de1,47,female,2024-04-24_12h36.25.384,stockport_simplified,2022.2.4,Win32,59.88023952,661e456ee6de07e70aa9ef7b,6628dfec3bb2e78332d6a8ea,,,,,,,,,,,,,,,,,,,,,,,,,,,,,,,,,,,,,,,,,,,,,,,,,,,,,,,,0,17,17,56,1,N,M,D,o2_image,stimuli/out2.png,stimuli/out1.png,stimuli/correct_out2.png,,,,,,,,,,,,,,,,,,,,,,,,,,,,,,,,,,,,,,
,,65ba64c07847d4c34ec00de1,47,female,2024-04-24_12h36.25.384,stockport_simplified,2022.2.4,Win32,59.88023952,661e456ee6de07e70aa9ef7b,6628dfec3bb2e78332d6a8ea,,,,,,,,,,,,,,,,,,,,,,,,,,,,,,,,,,446.1087,450.2746,"[1,3,5,8,4,7,2,6]","[[0.3,0.2],[-0.3,0.2]]","[[-0.125,-0.2],[0.125,-0.2]]",0.115740741,-0.193518519,1,0,0,3.6489,o2_image,450.2901,0,450.7914,450.7914,452.7912,0,0,0,0,1,,,,,,,,,,,,,,,,,,,,,,,,,,,,,,,,,,,,,,,,,,,,,,,,,,
,,65ba64c07847d4c34ec00de1,47,female,2024-04-24_12h36.25.384,stockport_simplified,2022.2.4,Win32,59.88023952,661e456ee6de07e70aa9ef7b,6628dfec3bb2e78332d6a8ea,,,,,,,,,,,,,,,,,,,,,,,,,,,,,,,,,,,,,,,,,,,,,,,,,,,,,,,,0,18,18,9,1,A,Y,N,o1_image,stimuli/out1.png,stimuli/correct_out1.png,stimuli/out2.png,,,,,,,,,,,,,,,,,,,,,,,,,,,,,,,,,,,,,,
,,65ba64c07847d4c34ec00de1,47,female,2024-04-24_12h36.25.384,stockport_simplified,2022.2.4,Win32,59.88023952,661e456ee6de07e70aa9ef7b,6628dfec3bb2e78332d6a8ea,,,,,,,,,,,,,,,,,,,,,,,,,,,,,,,,,,452.7919,455.0032,"[1,3,5,8,4,7,2,6]","[[0.3,0.2],[-0.3,0.2]]","[[-0.125,-0.2],[0.125,-0.2]]",0.131481481,-0.206481481,1,0,0,1.6943,o2_image,455.0045,1,455.5081,455.5081,457.5079,0,0,0,0,1,,,,,,,,,,,,,,,,,,,,,,,,,,,,,,,,,,,,,,,,,,,,,,,,,,
,,65ba64c07847d4c34ec00de1,47,female,2024-04-24_12h36.25.384,stockport_simplified,2022.2.4,Win32,59.88023952,661e456ee6de07e70aa9ef7b,6628dfec3bb2e78332d6a8ea,,,,,,,,,,,,,,,,,,,,,,,,,,,,,,,,,,,,,,,,,,,,,,,,,,,,,,,,0,19,19,11,1,B,X,N,o2_image,stimuli/out2.png,stimuli/out1.png,stimuli/correct_out2.png,,,,,,,,,,,,,,,,,,,,,,,,,,,,,,,,,,,,,,
,,65ba64c07847d4c34ec00de1,47,female,2024-04-24_12h36.25.384,stockport_simplified,2022.2.4,Win32,59.88023952,661e456ee6de07e70aa9ef7b,6628dfec3bb2e78332d6a8ea,,,,,,,,,,,,,,,,,,,,,,,,,,,,,,,,,,457.5086,459.32,"[1,3,5,8,4,7,2,6]","[[-0.3,0.2],[0.3,0.2]]","[[-0.125,-0.2],[0.125,-0.2]]",0.093518519,-0.226851852,1,0,0,1.295,o2_image,459.3214,1,459.8247,459.8247,461.8248,0,0,0,0,1,,,,,,,,,,,,,,,,,,,,,,,,,,,,,,,,,,,,,,,,,,,,,,,,,,
,,65ba64c07847d4c34ec00de1,47,female,2024-04-24_12h36.25.384,stockport_simplified,2022.2.4,Win32,59.88023952,661e456ee6de07e70aa9ef7b,6628dfec3bb2e78332d6a8ea,,,,,,,,,,,,,,,,,,,,,,,,,,,,,,,,,,,,,,,,,,,,,,,,,,,,,,,,0,20,20,45,1,B,Y,N,o2_image,stimuli/out2.png,stimuli/out1.png,stimuli/correct_out2.png,,,,,,,,,,,,,,,,,,,,,,,,,,,,,,,,,,,,,,
,,65ba64c07847d4c34ec00de1,47,female,2024-04-24_12h36.25.384,stockport_simplified,2022.2.4,Win32,59.88023952,661e456ee6de07e70aa9ef7b,6628dfec3bb2e78332d6a8ea,,,,,,,,,,,,,,,,,,,,,,,,,,,,,,,,,,461.8255,463.7248,"[1,3,5,8,4,7,2,6]","[[0.3,0.2],[-0.3,0.2]]","[[-0.125,-0.2],[0.125,-0.2]]",-0.103703704,-0.206481481,1,0,0,1.3823,o1_image,463.7264,1,464.2246,464.2247,466.2246,0,0,0,0,1,,,,,,,,,,,,,,,,,,,,,,,,,,,,,,,,,,,,,,,,,,,,,,,,,,
,,65ba64c07847d4c34ec00de1,47,female,2024-04-24_12h36.25.384,stockport_simplified,2022.2.4,Win32,59.88023952,661e456ee6de07e70aa9ef7b,6628dfec3bb2e78332d6a8ea,,,,,,,,,,,,,,,,,,,,,,,,,,,,,,,,,,,,,,,,,,,,,,,,,,,,,,,,0,21,21,23,1,N,M,C,o1_image,stimuli/out1.png,stimuli/correct_out1.png,stimuli/out2.png,,,,,,,,,,,,,,,,,,,,,,,,,,,,,,,,,,,,,,
,,65ba64c07847d4c34ec00de1,47,female,2024-04-24_12h36.25.384,stockport_simplified,2022.2.4,Win32,59.88023952,661e456ee6de07e70aa9ef7b,6628dfec3bb2e78332d6a8ea,,,,,,,,,,,,,,,,,,,,,,,,,,,,,,,,,,466.2254,468.254,"[1,3,5,8,4,7,2,6]","[[0.3,0.2],[-0.3,0.2]]","[[-0.125,-0.2],[0.125,-0.2]]",0.121296296,-0.165740741,1,0,0,1.512,o2_image,468.2556,1,468.7581,468.7581,470.758,0,0,0,0,1,,,,,,,,,,,,,,,,,,,,,,,,,,,,,,,,,,,,,,,,,,,,,,,,,,
,,65ba64c07847d4c34ec00de1,47,female,2024-04-24_12h36.25.384,stockport_simplified,2022.2.4,Win32,59.88023952,661e456ee6de07e70aa9ef7b,6628dfec3bb2e78332d6a8ea,,,,,,,,,,,,,,,,,,,,,,,,,,,,,,,,,,,,,,,,,,,,,,,,,,,,,,,,0,22,22,27,1,N,M,D,o2_image,stimuli/out2.png,stimuli/out1.png,stimuli/correct_out2.png,,,,,,,,,,,,,,,,,,,,,,,,,,,,,,,,,,,,,,
,,65ba64c07847d4c34ec00de1,47,female,2024-04-24_12h36.25.384,stockport_simplified,2022.2.4,Win32,59.88023952,661e456ee6de07e70aa9ef7b,6628dfec3bb2e78332d6a8ea,,,,,,,,,,,,,,,,,,,,,,,,,,,,,,,,,,470.7589,473.2746,"[1,3,5,8,4,7,2,6]","[[0.3,0.2],[-0.3,0.2]]","[[-0.125,-0.2],[0.125,-0.2]]",-0.122222222,-0.17037037,1,0,0,1.9991,o1_image,473.2759,1,473.7745,473.7746,475.7747,0,0,0,0,1,,,,,,,,,,,,,,,,,,,,,,,,,,,,,,,,,,,,,,,,,,,,,,,,,,
,,65ba64c07847d4c34ec00de1,47,female,2024-04-24_12h36.25.384,stockport_simplified,2022.2.4,Win32,59.88023952,661e456ee6de07e70aa9ef7b,6628dfec3bb2e78332d6a8ea,,,,,,,,,,,,,,,,,,,,,,,,,,,,,,,,,,,,,,,,,,,,,,,,,,,,,,,,0,23,23,33,1,A,X,N,o1_image,stimuli/out1.png,stimuli/correct_out1.png,stimuli/out2.png,,,,,,,,,,,,,,,,,,,,,,,,,,,,,,,,,,,,,,
,,65ba64c07847d4c34ec00de1,47,female,2024-04-24_12h36.25.384,stockport_simplified,2022.2.4,Win32,59.88023952,661e456ee6de07e70aa9ef7b,6628dfec3bb2e78332d6a8ea,,,,,,,,,,,,,,,,,,,,,,,,,,,,,,,,,,475.7753,477.787,"[1,3,5,8,4,7,2,6]","[[-0.3,0.2],[0.3,0.2]]","[[0.125,-0.2],[-0.125,-0.2]]",0.111111111,-0.176851852,1,0,0,1.5015,o1_image,477.7882,0,478.2913,478.2913,480.2913,0,0,0,0,1,,,,,,,,,,,,,,,,,,,,,,,,,,,,,,,,,,,,,,,,,,,,,,,,,,
,,65ba64c07847d4c34ec00de1,47,female,2024-04-24_12h36.25.384,stockport_simplified,2022.2.4,Win32,59.88023952,661e456ee6de07e70aa9ef7b,6628dfec3bb2e78332d6a8ea,,,,,,,,,,,,,,,,,,,,,,,,,,,,,,,,,,,,,,,,,,,,,,,,,,,,,,,,0,24,24,19,1,B,Y,N,o2_image,stimuli/out2.png,stimuli/out1.png,stimuli/correct_out2.png,,,,,,,,,,,,,,,,,,,,,,,,,,,,,,,,,,,,,,
,,65ba64c07847d4c34ec00de1,47,female,2024-04-24_12h36.25.384,stockport_simplified,2022.2.4,Win32,59.88023952,661e456ee6de07e70aa9ef7b,6628dfec3bb2e78332d6a8ea,,,,,,,,,,,,,,,,,,,,,,,,,,,,,,,,,,480.2921,482.192,"[1,3,5,8,4,7,2,6]","[[0.3,0.2],[-0.3,0.2]]","[[-0.125,-0.2],[0.125,-0.2]]",-0.056481481,-0.192592593,1,0,0,1.3832,o1_image,482.1932,1,482.6912,482.6912,484.6913,0,0,0,0,1,,,,,,,,,,,,,,,,,,,,,,,,,,,,,,,,,,,,,,,,,,,,,,,,,,
,,65ba64c07847d4c34ec00de1,47,female,2024-04-24_12h36.25.384,stockport_simplified,2022.2.4,Win32,59.88023952,661e456ee6de07e70aa9ef7b,6628dfec3bb2e78332d6a8ea,,,,,,,,,,,,,,,,,,,,,,,,,,,,,,,,,,,,,,,,,,,,,,,,,,,,,,,,0,25,25,34,1,A,X,N,o1_image,stimuli/out1.png,stimuli/correct_out1.png,stimuli/out2.png,,,,,,,,,,,,,,,,,,,,,,,,,,,,,,,,,,,,,,
,,65ba64c07847d4c34ec00de1,47,female,2024-04-24_12h36.25.384,stockport_simplified,2022.2.4,Win32,59.88023952,661e456ee6de07e70aa9ef7b,6628dfec3bb2e78332d6a8ea,,,,,,,,,,,,,,,,,,,,,,,,,,,,,,,,,,484.692,487.5708,"[1,3,5,8,4,7,2,6]","[[-0.3,0.2],[0.3,0.2]]","[[0.125,-0.2],[-0.125,-0.2]]",0.107407407,-0.187962963,1,0,0,2.3619,o1_image,487.5719,1,488.0747,488.0747,490.0745,0,0,0,0,1,,,,,,,,,,,,,,,,,,,,,,,,,,,,,,,,,,,,,,,,,,,,,,,,,,
,,65ba64c07847d4c34ec00de1,47,female,2024-04-24_12h36.25.384,stockport_simplified,2022.2.4,Win32,59.88023952,661e456ee6de07e70aa9ef7b,6628dfec3bb2e78332d6a8ea,,,,,,,,,,,,,,,,,,,,,,,,,,,,,,,,,,,,,,,,,,,,,,,,,,,,,,,,0,26,26,54,1,N,M,C,o1_image,stimuli/out1.png,stimuli/correct_out1.png,stimuli/out2.png,,,,,,,,,,,,,,,,,,,,,,,,,,,,,,,,,,,,,,
,,65ba64c07847d4c34ec00de1,47,female,2024-04-24_12h36.25.384,stockport_simplified,2022.2.4,Win32,59.88023952,661e456ee6de07e70aa9ef7b,6628dfec3bb2e78332d6a8ea,,,,,,,,,,,,,,,,,,,,,,,,,,,,,,,,,,490.0754,493.2245,"[1,3,5,8,4,7,2,6]","[[-0.3,0.2],[0.3,0.2]]","[[-0.125,-0.2],[0.125,-0.2]]",-0.077777778,-0.192592593,1,0,0,2.6323,o1_image,493.226,1,493.7245,493.7245,495.7244,0,0,0,0,1,,,,,,,,,,,,,,,,,,,,,,,,,,,,,,,,,,,,,,,,,,,,,,,,,,
,,65ba64c07847d4c34ec00de1,47,female,2024-04-24_12h36.25.384,stockport_simplified,2022.2.4,Win32,59.88023952,661e456ee6de07e70aa9ef7b,6628dfec3bb2e78332d6a8ea,,,,,,,,,,,,,,,,,,,,,,,,,,,,,,,,,,,,,,,,,,,,,,,,,,,,,,,,0,27,27,0,1,A,X,N,o1_image,stimuli/out1.png,stimuli/correct_out1.png,stimuli/out2.png,,,,,,,,,,,,,,,,,,,,,,,,,,,,,,,,,,,,,,
,,65ba64c07847d4c34ec00de1,47,female,2024-04-24_12h36.25.384,stockport_simplified,2022.2.4,Win32,59.88023952,661e456ee6de07e70aa9ef7b,6628dfec3bb2e78332d6a8ea,,,,,,,,,,,,,,,,,,,,,,,,,,,,,,,,,,495.7251,497.7747,"[1,3,5,8,4,7,2,6]","[[-0.3,0.2],[0.3,0.2]]","[[-0.125,-0.2],[0.125,-0.2]]",0.111111111,-0.193518519,1,0,0,1.5327,o2_image,497.7762,1,498.2745,498.2746,500.2632,0,0,0,0,1,,,,,,,,,,,,,,,,,,,,,,,,,,,,,,,,,,,,,,,,,,,,,,,,,,
,,65ba64c07847d4c34ec00de1,47,female,2024-04-24_12h36.25.384,stockport_simplified,2022.2.4,Win32,59.88023952,661e456ee6de07e70aa9ef7b,6628dfec3bb2e78332d6a8ea,,,,,,,,,,,,,,,,,,,,,,,,,,,,,,,,,,,,,,,,,,,,,,,,,,,,,,,,0,28,28,15,1,B,Y,N,o2_image,stimuli/out2.png,stimuli/out1.png,stimuli/correct_out2.png,,,,,,,,,,,,,,,,,,,,,,,,,,,,,,,,,,,,,,
,,65ba64c07847d4c34ec00de1,47,female,2024-04-24_12h36.25.384,stockport_simplified,2022.2.4,Win32,59.88023952,661e456ee6de07e70aa9ef7b,6628dfec3bb2e78332d6a8ea,,,,,,,,,,,,,,,,,,,,,,,,,,,,,,,,,,500.2638,502.3581,"[1,3,5,8,4,7,2,6]","[[-0.3,0.2],[0.3,0.2]]","[[-0.125,-0.2],[0.125,-0.2]]",-0.099074074,-0.206481481,1,0,0,1.5826,o1_image,502.3597,1,502.8578,502.8578,504.858,0,0,0,0,1,,,,,,,,,,,,,,,,,,,,,,,,,,,,,,,,,,,,,,,,,,,,,,,,,,
,,65ba64c07847d4c34ec00de1,47,female,2024-04-24_12h36.25.384,stockport_simplified,2022.2.4,Win32,59.88023952,661e456ee6de07e70aa9ef7b,6628dfec3bb2e78332d6a8ea,,,,,,,,,,,,,,,,,,,,,,,,,,,,,,,,,,,,,,,,,,,,,,,,,,,,,,,,0,29,29,51,1,N,M,C,o1_image,stimuli/out1.png,stimuli/correct_out1.png,stimuli/out2.png,,,,,,,,,,,,,,,,,,,,,,,,,,,,,,,,,,,,,,
,,65ba64c07847d4c34ec00de1,47,female,2024-04-24_12h36.25.384,stockport_simplified,2022.2.4,Win32,59.88023952,661e456ee6de07e70aa9ef7b,6628dfec3bb2e78332d6a8ea,,,,,,,,,,,,,,,,,,,,,,,,,,,,,,,,,,504.8588,509.0698,"[1,3,5,8,4,7,2,6]","[[-0.3,0.2],[0.3,0.2]]","[[0.125,-0.2],[-0.125,-0.2]]",0.137962963,-0.194444444,1,0,0,3.6951,o1_image,509.0855,1,509.5747,509.5747,511.5746,0,0,0,0,1,,,,,,,,,,,,,,,,,,,,,,,,,,,,,,,,,,,,,,,,,,,,,,,,,,
,,65ba64c07847d4c34ec00de1,47,female,2024-04-24_12h36.25.384,stockport_simplified,2022.2.4,Win32,59.88023952,661e456ee6de07e70aa9ef7b,6628dfec3bb2e78332d6a8ea,,,,,,,,,,,,,,,,,,,,,,,,,,,,,,,,,,,,,,,,,,,,,,,,,,,,,,,,0,30,30,52,1,N,M,C,o1_image,stimuli/out1.png,stimuli/correct_out1.png,stimuli/out2.png,,,,,,,,,,,,,,,,,,,,,,,,,,,,,,,,,,,,,,
,,65ba64c07847d4c34ec00de1,47,female,2024-04-24_12h36.25.384,stockport_simplified,2022.2.4,Win32,59.88023952,661e456ee6de07e70aa9ef7b,6628dfec3bb2e78332d6a8ea,,,,,,,,,,,,,,,,,,,,,,,,,,,,,,,,,,511.5753,514.1745,"[1,3,5,8,4,7,2,6]","[[-0.3,0.2],[0.3,0.2]]","[[0.125,-0.2],[-0.125,-0.2]]",-0.134259259,-0.2,1,0,0,2.0821,o2_image,514.1905,0,514.6913,514.6914,516.6913,0,0,0,0,1,,,,,,,,,,,,,,,,,,,,,,,,,,,,,,,,,,,,,,,,,,,,,,,,,,
,,65ba64c07847d4c34ec00de1,47,female,2024-04-24_12h36.25.384,stockport_simplified,2022.2.4,Win32,59.88023952,661e456ee6de07e70aa9ef7b,6628dfec3bb2e78332d6a8ea,,,,,,,,,,,,,,,,,,,,,,,,,,,,,,,,,,,,,,,,,,,,,,,,,,,,,,,,0,31,31,37,1,A,Y,N,o1_image,stimuli/out1.png,stimuli/correct_out1.png,stimuli/out2.png,,,,,,,,,,,,,,,,,,,,,,,,,,,,,,,,,,,,,,
,,65ba64c07847d4c34ec00de1,47,female,2024-04-24_12h36.25.384,stockport_simplified,2022.2.4,Win32,59.88023952,661e456ee6de07e70aa9ef7b,6628dfec3bb2e78332d6a8ea,,,,,,,,,,,,,,,,,,,,,,,,,,,,,,,,,,516.6923,519.2148,"[1,3,5,8,4,7,2,6]","[[-0.3,0.2],[0.3,0.2]]","[[0.125,-0.2],[-0.125,-0.2]]",0.123148148,-0.193518519,1,0,0,2.0065,o1_image,519.216,1,519.7078,519.7079,521.7079,0,0,0,0,1,,,,,,,,,,,,,,,,,,,,,,,,,,,,,,,,,,,,,,,,,,,,,,,,,,
,,65ba64c07847d4c34ec00de1,47,female,2024-04-24_12h36.25.384,stockport_simplified,2022.2.4,Win32,59.88023952,661e456ee6de07e70aa9ef7b,6628dfec3bb2e78332d6a8ea,,,,,,,,,,,,,,,,,,,,,,,,,,,,,,,,,,,,,,,,,,,,,,,,,,,,,,,,0,32,32,3,1,A,X,N,o1_image,stimuli/out1.png,stimuli/correct_out1.png,stimuli/out2.png,,,,,,,,,,,,,,,,,,,,,,,,,,,,,,,,,,,,,,
,,65ba64c07847d4c34ec00de1,47,female,2024-04-24_12h36.25.384,stockport_simplified,2022.2.4,Win32,59.88023952,661e456ee6de07e70aa9ef7b,6628dfec3bb2e78332d6a8ea,,,,,,,,,,,,,,,,,,,,,,,,,,,,,,,,,,521.7086,523.7247,"[1,3,5,8,4,7,2,6]","[[0.3,0.2],[-0.3,0.2]]","[[-0.125,-0.2],[0.125,-0.2]]",0.115740741,-0.192592593,1,0,0,1.4991,o2_image,523.7262,1,524.2243,524.2244,526.2245,0,0,0,0,1,,,,,,,,,,,,,,,,,,,,,,,,,,,,,,,,,,,,,,,,,,,,,,,,,,
,,65ba64c07847d4c34ec00de1,47,female,2024-04-24_12h36.25.384,stockport_simplified,2022.2.4,Win32,59.88023952,661e456ee6de07e70aa9ef7b,6628dfec3bb2e78332d6a8ea,,,,,,,,,,,,,,,,,,,,,,,,,,,,,,,,,,,,,,,,,,,,,,,,,,,,,,,,0,33,33,29,1,N,M,D,o2_image,stimuli/out2.png,stimuli/out1.png,stimuli/correct_out2.png,,,,,,,,,,,,,,,,,,,,,,,,,,,,,,,,,,,,,,
,,65ba64c07847d4c34ec00de1,47,female,2024-04-24_12h36.25.384,stockport_simplified,2022.2.4,Win32,59.88023952,661e456ee6de07e70aa9ef7b,6628dfec3bb2e78332d6a8ea,,,,,,,,,,,,,,,,,,,,,,,,,,,,,,,,,,526.2252,528.4033,"[1,3,5,8,4,7,2,6]","[[0.3,0.2],[-0.3,0.2]]","[[-0.125,-0.2],[0.125,-0.2]]",-0.109259259,-0.19537037,1,0,0,1.6615,o1_image,528.4044,1,528.908,528.9081,530.9078,0,0,0,0,1,,,,,,,,,,,,,,,,,,,,,,,,,,,,,,,,,,,,,,,,,,,,,,,,,,
,,65ba64c07847d4c34ec00de1,47,female,2024-04-24_12h36.25.384,stockport_simplified,2022.2.4,Win32,59.88023952,661e456ee6de07e70aa9ef7b,6628dfec3bb2e78332d6a8ea,,,,,,,,,,,,,,,,,,,,,,,,,,,,,,,,,,,,,,,,,,,,,,,,,,,,,,,,0,34,34,50,1,N,M,C,o1_image,stimuli/out1.png,stimuli/correct_out1.png,stimuli/out2.png,,,,,,,,,,,,,,,,,,,,,,,,,,,,,,,,,,,,,,
,,65ba64c07847d4c34ec00de1,47,female,2024-04-24_12h36.25.384,stockport_simplified,2022.2.4,Win32,59.88023952,661e456ee6de07e70aa9ef7b,6628dfec3bb2e78332d6a8ea,,,,,,,,,,,,,,,,,,,,,,,,,,,,,,,,,,530.9084,533.3078,"[1,3,5,8,4,7,2,6]","[[-0.3,0.2],[0.3,0.2]]","[[-0.125,-0.2],[0.125,-0.2]]",0.074074074,-0.182407407,1,0,0,1.8824,o2_image,533.3093,0,533.8078,533.8079,535.8079,0,0,0,0,1,,,,,,,,,,,,,,,,,,,,,,,,,,,,,,,,,,,,,,,,,,,,,,,,,,
,,65ba64c07847d4c34ec00de1,47,female,2024-04-24_12h36.25.384,stockport_simplified,2022.2.4,Win32,59.88023952,661e456ee6de07e70aa9ef7b,6628dfec3bb2e78332d6a8ea,,,,,,,,,,,,,,,,,,,,,,,,,,,,,,,,,,,,,,,,,,,,,,,,,,,,,,,,0,35,35,30,1,A,X,N,o1_image,stimuli/out1.png,stimuli/correct_out1.png,stimuli/out2.png,,,,,,,,,,,,,,,,,,,,,,,,,,,,,,,,,,,,,,
,,65ba64c07847d4c34ec00de1,47,female,2024-04-24_12h36.25.384,stockport_simplified,2022.2.4,Win32,59.88023952,661e456ee6de07e70aa9ef7b,6628dfec3bb2e78332d6a8ea,,,,,,,,,,,,,,,,,,,,,,,,,,,,,,,,,,535.8086,537.8245,"[1,3,5,8,4,7,2,6]","[[0.3,0.2],[-0.3,0.2]]","[[0.125,-0.2],[-0.125,-0.2]]",0.114814815,-0.184259259,1,0,0,1.4992,o1_image,537.8262,1,538.3244,538.3245,540.3246,0,0,0,0,1,,,,,,,,,,,,,,,,,,,,,,,,,,,,,,,,,,,,,,,,,,,,,,,,,,
,,65ba64c07847d4c34ec00de1,47,female,2024-04-24_12h36.25.384,stockport_simplified,2022.2.4,Win32,59.88023952,661e456ee6de07e70aa9ef7b,6628dfec3bb2e78332d6a8ea,,,,,,,,,,,,,,,,,,,,,,,,,,,,,,,,,,,,,,,,,,,,,,,,,,,,,,,,0,36,36,22,1,N,M,C,o1_image,stimuli/out1.png,stimuli/correct_out1.png,stimuli/out2.png,,,,,,,,,,,,,,,,,,,,,,,,,,,,,,,,,,,,,,
,,65ba64c07847d4c34ec00de1,47,female,2024-04-24_12h36.25.384,stockport_simplified,2022.2.4,Win32,59.88023952,661e456ee6de07e70aa9ef7b,6628dfec3bb2e78332d6a8ea,,,,,,,,,,,,,,,,,,,,,,,,,,,,,,,,,,540.3253,542.4744,"[1,3,5,8,4,7,2,6]","[[-0.3,0.2],[0.3,0.2]]","[[-0.125,-0.2],[0.125,-0.2]]",0.115740741,-0.186111111,1,0,0,1.6324,o2_image,542.4758,1,542.9745,542.9746,544.9745,0,0,0,0,1,,,,,,,,,,,,,,,,,,,,,,,,,,,,,,,,,,,,,,,,,,,,,,,,,,
,,65ba64c07847d4c34ec00de1,47,female,2024-04-24_12h36.25.384,stockport_simplified,2022.2.4,Win32,59.88023952,661e456ee6de07e70aa9ef7b,6628dfec3bb2e78332d6a8ea,,,,,,,,,,,,,,,,,,,,,,,,,,,,,,,,,,,,,,,,,,,,,,,,,,,,,,,,0,37,37,49,1,B,Y,N,o2_image,stimuli/out2.png,stimuli/out1.png,stimuli/correct_out2.png,,,,,,,,,,,,,,,,,,,,,,,,,,,,,,,,,,,,,,
,,65ba64c07847d4c34ec00de1,47,female,2024-04-24_12h36.25.384,stockport_simplified,2022.2.4,Win32,59.88023952,661e456ee6de07e70aa9ef7b,6628dfec3bb2e78332d6a8ea,,,,,,,,,,,,,,,,,,,,,,,,,,,,,,,,,,544.9753,546.9753,"[1,3,5,8,4,7,2,6]","[[0.3,0.2],[-0.3,0.2]]","[[-0.125,-0.2],[0.125,-0.2]]",0.115740741,-0.186111111,1,0,0,1.4835,o2_image,546.9768,1,547.4745,547.4746,549.4748,0,0,0,0,1,,,,,,,,,,,,,,,,,,,,,,,,,,,,,,,,,,,,,,,,,,,,,,,,,,
,,65ba64c07847d4c34ec00de1,47,female,2024-04-24_12h36.25.384,stockport_simplified,2022.2.4,Win32,59.88023952,661e456ee6de07e70aa9ef7b,6628dfec3bb2e78332d6a8ea,,,,,,,,,,,,,,,,,,,,,,,,,,,,,,,,,,,,,,,,,,,,,,,,,,,,,,,,0,38,38,10,1,B,X,N,o2_image,stimuli/out2.png,stimuli/out1.png,stimuli/correct_out2.png,,,,,,,,,,,,,,,,,,,,,,,,,,,,,,,,,,,,,,
,,65ba64c07847d4c34ec00de1,47,female,2024-04-24_12h36.25.384,stockport_simplified,2022.2.4,Win32,59.88023952,661e456ee6de07e70aa9ef7b,6628dfec3bb2e78332d6a8ea,,,,,,,,,,,,,,,,,,,,,,,,,,,,,,,,,,549.4758,552.2088,"[1,3,5,8,4,7,2,6]","[[-0.3,0.2],[0.3,0.2]]","[[0.125,-0.2],[-0.125,-0.2]]",-0.109259259,-0.185185185,1,0,0,2.2159,o2_image,552.2268,1,552.7245,552.7246,554.7247,0,0,0,0,1,,,,,,,,,,,,,,,,,,,,,,,,,,,,,,,,,,,,,,,,,,,,,,,,,,
,,65ba64c07847d4c34ec00de1,47,female,2024-04-24_12h36.25.384,stockport_simplified,2022.2.4,Win32,59.88023952,661e456ee6de07e70aa9ef7b,6628dfec3bb2e78332d6a8ea,,,,,,,,,,,,,,,,,,,,,,,,,,,,,,,,,,,,,,,,,,,,,,,,,,,,,,,,0,39,39,28,1,N,M,D,o2_image,stimuli/out2.png,stimuli/out1.png,stimuli/correct_out2.png,,,,,,,,,,,,,,,,,,,,,,,,,,,,,,,,,,,,,,
,,65ba64c07847d4c34ec00de1,47,female,2024-04-24_12h36.25.384,stockport_simplified,2022.2.4,Win32,59.88023952,661e456ee6de07e70aa9ef7b,6628dfec3bb2e78332d6a8ea,,,,,,,,,,,,,,,,,,,,,,,,,,,,,,,,,,554.7261,558.6858,"[1,3,5,8,4,7,2,6]","[[-0.3,0.2],[0.3,0.2]]","[[0.125,-0.2],[-0.125,-0.2]]",-0.131481481,-0.185185185,1,0,0,3.4419,o2_image,558.7037,1,559.2084,559.2085,561.2062,0,0,0,0,1,,,,,,,,,,,,,,,,,,,,,,,,,,,,,,,,,,,,,,,,,,,,,,,,,,
,,65ba64c07847d4c34ec00de1,47,female,2024-04-24_12h36.25.384,stockport_simplified,2022.2.4,Win32,59.88023952,661e456ee6de07e70aa9ef7b,6628dfec3bb2e78332d6a8ea,,,,,,,,,,,,,,,,,,,,,,,,,,,,,,,,,,,,,,,,,,,,,,,,,,,,,,,,0,40,40,12,1,B,X,N,o2_image,stimuli/out2.png,stimuli/out1.png,stimuli/correct_out2.png,,,,,,,,,,,,,,,,,,,,,,,,,,,,,,,,,,,,,,
,,65ba64c07847d4c34ec00de1,47,female,2024-04-24_12h36.25.384,stockport_simplified,2022.2.4,Win32,59.88023952,661e456ee6de07e70aa9ef7b,6628dfec3bb2e78332d6a8ea,,,,,,,,,,,,,,,,,,,,,,,,,,,,,,,,,,561.207,562.8586,"[1,3,5,8,4,7,2,6]","[[0.3,0.2],[-0.3,0.2]]","[[0.125,-0.2],[-0.125,-0.2]]",-0.136111111,-0.185185185,1,0,0,1.1484,o2_image,562.8613,1,563.358,563.3581,565.3734,0,0,0,0,1,,,,,,,,,,,,,,,,,,,,,,,,,,,,,,,,,,,,,,,,,,,,,,,,,,
,,65ba64c07847d4c34ec00de1,47,female,2024-04-24_12h36.25.384,stockport_simplified,2022.2.4,Win32,59.88023952,661e456ee6de07e70aa9ef7b,6628dfec3bb2e78332d6a8ea,,,,,,,,,,,,,,,,,,,,,,,,,,,,,,,,,,,,,,,,,,,,,,,,,,,,,,,,0,41,41,16,1,B,Y,N,o2_image,stimuli/out2.png,stimuli/out1.png,stimuli/correct_out2.png,,,,,,,,,,,,,,,,,,,,,,,,,,,,,,,,,,,,,,
,,65ba64c07847d4c34ec00de1,47,female,2024-04-24_12h36.25.384,stockport_simplified,2022.2.4,Win32,59.88023952,661e456ee6de07e70aa9ef7b,6628dfec3bb2e78332d6a8ea,,,,,,,,,,,,,,,,,,,,,,,,,,,,,,,,,,565.3743,567.2773,"[1,3,5,8,4,7,2,6]","[[0.3,0.2],[-0.3,0.2]]","[[-0.125,-0.2],[0.125,-0.2]]",0.131481481,-0.185185185,1,0,0,1.3997,o2_image,567.2795,1,567.773,567.7731,569.7683,0,0,0,0,1,,,,,,,,,,,,,,,,,,,,,,,,,,,,,,,,,,,,,,,,,,,,,,,,,,
,,65ba64c07847d4c34ec00de1,47,female,2024-04-24_12h36.25.384,stockport_simplified,2022.2.4,Win32,59.88023952,661e456ee6de07e70aa9ef7b,6628dfec3bb2e78332d6a8ea,,,,,,,,,,,,,,,,,,,,,,,,,,,,,,,,,,,,,,,,,,,,,,,,,,,,,,,,0,42,42,57,1,N,M,D,o2_image,stimuli/out2.png,stimuli/out1.png,stimuli/correct_out2.png,,,,,,,,,,,,,,,,,,,,,,,,,,,,,,,,,,,,,,
,,65ba64c07847d4c34ec00de1,47,female,2024-04-24_12h36.25.384,stockport_simplified,2022.2.4,Win32,59.88023952,661e456ee6de07e70aa9ef7b,6628dfec3bb2e78332d6a8ea,,,,,,,,,,,,,,,,,,,,,,,,,,,,,,,,,,569.7689,571.9701,"[1,3,5,8,4,7,2,6]","[[0.3,0.2],[-0.3,0.2]]","[[0.125,-0.2],[-0.125,-0.2]]",-0.099074074,-0.187037037,1,0,0,1.6847,o2_image,571.9863,1,572.4744,572.4744,574.4744,0,0,0,0,1,,,,,,,,,,,,,,,,,,,,,,,,,,,,,,,,,,,,,,,,,,,,,,,,,,
,,65ba64c07847d4c34ec00de1,47,female,2024-04-24_12h36.25.384,stockport_simplified,2022.2.4,Win32,59.88023952,661e456ee6de07e70aa9ef7b,6628dfec3bb2e78332d6a8ea,,,,,,,,,,,,,,,,,,,,,,,,,,,,,,,,,,,,,,,,,,,,,,,,,,,,,,,,0,43,43,43,1,B,X,N,o2_image,stimuli/out2.png,stimuli/out1.png,stimuli/correct_out2.png,,,,,,,,,,,,,,,,,,,,,,,,,,,,,,,,,,,,,,
,,65ba64c07847d4c34ec00de1,47,female,2024-04-24_12h36.25.384,stockport_simplified,2022.2.4,Win32,59.88023952,661e456ee6de07e70aa9ef7b,6628dfec3bb2e78332d6a8ea,,,,,,,,,,,,,,,,,,,,,,,,,,,,,,,,,,574.4751,576.7052,"[1,3,5,8,4,7,2,6]","[[-0.3,0.2],[0.3,0.2]]","[[-0.125,-0.2],[0.125,-0.2]]",0.1,-0.186111111,1,0,0,1.7138,o2_image,576.7082,1,577.2085,577.2085,579.2095,0,0,0,0,1,,,,,,,,,,,,,,,,,,,,,,,,,,,,,,,,,,,,,,,,,,,,,,,,,,
,,65ba64c07847d4c34ec00de1,47,female,2024-04-24_12h36.25.384,stockport_simplified,2022.2.4,Win32,59.88023952,661e456ee6de07e70aa9ef7b,6628dfec3bb2e78332d6a8ea,,,,,,,,,,,,,,,,,,,,,,,,,,,,,,,,,,,,,,,,,,,,,,,,,,,,,,,,0,44,44,42,1,B,X,N,o2_image,stimuli/out2.png,stimuli/out1.png,stimuli/correct_out2.png,,,,,,,,,,,,,,,,,,,,,,,,,,,,,,,,,,,,,,
,,65ba64c07847d4c34ec00de1,47,female,2024-04-24_12h36.25.384,stockport_simplified,2022.2.4,Win32,59.88023952,661e456ee6de07e70aa9ef7b,6628dfec3bb2e78332d6a8ea,,,,,,,,,,,,,,,,,,,,,,,,,,,,,,,,,,579.2108,581.1898,"[1,3,5,8,4,7,2,6]","[[-0.3,0.2],[0.3,0.2]]","[[-0.125,-0.2],[0.125,-0.2]]",-0.136111111,-0.190740741,1,0,0,1.4629,o1_image,581.1922,1,581.6925,581.6926,583.6822,0,0,0,0,1,,,,,,,,,,,,,,,,,,,,,,,,,,,,,,,,,,,,,,,,,,,,,,,,,,
,,65ba64c07847d4c34ec00de1,47,female,2024-04-24_12h36.25.384,stockport_simplified,2022.2.4,Win32,59.88023952,661e456ee6de07e70aa9ef7b,6628dfec3bb2e78332d6a8ea,,,,,,,,,,,,,,,,,,,,,,,,,,,,,,,,,,,,,,,,,,,,,,,,,,,,,,,,0,45,45,8,1,A,Y,N,o1_image,stimuli/out1.png,stimuli/correct_out1.png,stimuli/out2.png,,,,,,,,,,,,,,,,,,,,,,,,,,,,,,,,,,,,,,
,,65ba64c07847d4c34ec00de1,47,female,2024-04-24_12h36.25.384,stockport_simplified,2022.2.4,Win32,59.88023952,661e456ee6de07e70aa9ef7b,6628dfec3bb2e78332d6a8ea,,,,,,,,,,,,,,,,,,,,,,,,,,,,,,,,,,583.6835,585.9725,"[1,3,5,8,4,7,2,6]","[[0.3,0.2],[-0.3,0.2]]","[[0.125,-0.2],[-0.125,-0.2]]",0.117592593,-0.191666667,1,0,0,1.7791,o1_image,585.975,1,586.4756,586.4756,588.4746,0,0,0,0,1,,,,,,,,,,,,,,,,,,,,,,,,,,,,,,,,,,,,,,,,,,,,,,,,,,
,,65ba64c07847d4c34ec00de1,47,female,2024-04-24_12h36.25.384,stockport_simplified,2022.2.4,Win32,59.88023952,661e456ee6de07e70aa9ef7b,6628dfec3bb2e78332d6a8ea,,,,,,,,,,,,,,,,,,,,,,,,,,,,,,,,,,,,,,,,,,,,,,,,,,,,,,,,0,46,46,2,1,A,X,N,o1_image,stimuli/out1.png,stimuli/correct_out1.png,stimuli/out2.png,,,,,,,,,,,,,,,,,,,,,,,,,,,,,,,,,,,,,,
,,65ba64c07847d4c34ec00de1,47,female,2024-04-24_12h36.25.384,stockport_simplified,2022.2.4,Win32,59.88023952,661e456ee6de07e70aa9ef7b,6628dfec3bb2e78332d6a8ea,,,,,,,,,,,,,,,,,,,,,,,,,,,,,,,,,,588.4756,590.3646,"[1,3,5,8,4,7,2,6]","[[0.3,0.2],[-0.3,0.2]]","[[0.125,-0.2],[-0.125,-0.2]]",-0.125925926,-0.187962963,1,0,0,1.3798,o2_image,590.3659,1,590.8551,590.8553,592.8586,0,0,0,0,1,,,,,,,,,,,,,,,,,,,,,,,,,,,,,,,,,,,,,,,,,,,,,,,,,,
,,65ba64c07847d4c34ec00de1,47,female,2024-04-24_12h36.25.384,stockport_simplified,2022.2.4,Win32,59.88023952,661e456ee6de07e70aa9ef7b,6628dfec3bb2e78332d6a8ea,,,,,,,,,,,,,,,,,,,,,,,,,,,,,,,,,,,,,,,,,,,,,,,,,,,,,,,,0,47,47,40,1,B,X,N,o2_image,stimuli/out2.png,stimuli/out1.png,stimuli/correct_out2.png,,,,,,,,,,,,,,,,,,,,,,,,,,,,,,,,,,,,,,
,,65ba64c07847d4c34ec00de1,47,female,2024-04-24_12h36.25.384,stockport_simplified,2022.2.4,Win32,59.88023952,661e456ee6de07e70aa9ef7b,6628dfec3bb2e78332d6a8ea,,,,,,,,,,,,,,,,,,,,,,,,,,,,,,,,,,592.8598,595.2758,"[1,3,5,8,4,7,2,6]","[[0.3,0.2],[-0.3,0.2]]","[[-0.125,-0.2],[0.125,-0.2]]",-0.127777778,-0.187962963,1,0,0,1.8983,o1_image,595.2784,1,595.7744,595.7745,597.7895,0,0,0,0,1,,,,,,,,,,,,,,,,,,,,,,,,,,,,,,,,,,,,,,,,,,,,,,,,,,
,,65ba64c07847d4c34ec00de1,47,female,2024-04-24_12h36.25.384,stockport_simplified,2022.2.4,Win32,59.88023952,661e456ee6de07e70aa9ef7b,6628dfec3bb2e78332d6a8ea,,,,,,,,,,,,,,,,,,,,,,,,,,,,,,,,,,,,,,,,,,,,,,,,,,,,,,,,0,48,48,21,1,N,M,C,o1_image,stimuli/out1.png,stimuli/correct_out1.png,stimuli/out2.png,,,,,,,,,,,,,,,,,,,,,,,,,,,,,,,,,,,,,,
,,65ba64c07847d4c34ec00de1,47,female,2024-04-24_12h36.25.384,stockport_simplified,2022.2.4,Win32,59.88023952,661e456ee6de07e70aa9ef7b,6628dfec3bb2e78332d6a8ea,,,,,,,,,,,,,,,,,,,,,,,,,,,,,,,,,,597.7912,600.108,"[1,3,5,8,4,7,2,6]","[[0.3,0.2],[-0.3,0.2]]","[[0.125,-0.2],[-0.125,-0.2]]",-0.131481481,-0.191666667,1,0,0,1.8144,o2_image,600.1102,1,600.6089,600.6091,602.6085,0,0,0,0,1,,,,,,,,,,,,,,,,,,,,,,,,,,,,,,,,,,,,,,,,,,,,,,,,,,
,,65ba64c07847d4c34ec00de1,47,female,2024-04-24_12h36.25.384,stockport_simplified,2022.2.4,Win32,59.88023952,661e456ee6de07e70aa9ef7b,6628dfec3bb2e78332d6a8ea,,,,,,,,,,,,,,,,,,,,,,,,,,,,,,,,,,,,,,,,,,,,,,,,,,,,,,,,0,49,49,47,1,B,Y,N,o2_image,stimuli/out2.png,stimuli/out1.png,stimuli/correct_out2.png,,,,,,,,,,,,,,,,,,,,,,,,,,,,,,,,,,,,,,
,,65ba64c07847d4c34ec00de1,47,female,2024-04-24_12h36.25.384,stockport_simplified,2022.2.4,Win32,59.88023952,661e456ee6de07e70aa9ef7b,6628dfec3bb2e78332d6a8ea,,,,,,,,,,,,,,,,,,,,,,,,,,,,,,,,,,602.6097,605.4081,"[1,3,5,8,4,7,2,6]","[[0.3,0.2],[-0.3,0.2]]","[[-0.125,-0.2],[0.125,-0.2]]",-0.131481481,-0.191666667,1,0,0,2.272,o1_image,605.4096,1,605.9087,605.9088,607.9083,0,0,0,0,1,,,,,,,,,,,,,,,,,,,,,,,,,,,,,,,,,,,,,,,,,,,,,,,,,,
,,65ba64c07847d4c34ec00de1,47,female,2024-04-24_12h36.25.384,stockport_simplified,2022.2.4,Win32,59.88023952,661e456ee6de07e70aa9ef7b,6628dfec3bb2e78332d6a8ea,,,,,,,,,,,,,,,,,,,,,,,,,,,,,,,,,,,,,,,,,,,,,,,,,,,,,,,,0,50,50,20,1,N,M,C,o1_image,stimuli/out1.png,stimuli/correct_out1.png,stimuli/out2.png,,,,,,,,,,,,,,,,,,,,,,,,,,,,,,,,,,,,,,
,,65ba64c07847d4c34ec00de1,47,female,2024-04-24_12h36.25.384,stockport_simplified,2022.2.4,Win32,59.88023952,661e456ee6de07e70aa9ef7b,6628dfec3bb2e78332d6a8ea,,,,,,,,,,,,,,,,,,,,,,,,,,,,,,,,,,607.9095,609.6995,"[1,3,5,8,4,7,2,6]","[[-0.3,0.2],[0.3,0.2]]","[[-0.125,-0.2],[0.125,-0.2]]",0.113888889,-0.181481481,1,0,0,1.2789,o2_image,609.7012,1,610.1918,610.192,612.1922,0,0,0,0,1,,,,,,,,,,,,,,,,,,,,,,,,,,,,,,,,,,,,,,,,,,,,,,,,,,
,,65ba64c07847d4c34ec00de1,47,female,2024-04-24_12h36.25.384,stockport_simplified,2022.2.4,Win32,59.88023952,661e456ee6de07e70aa9ef7b,6628dfec3bb2e78332d6a8ea,,,,,,,,,,,,,,,,,,,,,,,,,,,,,,,,,,,,,,,,,,,,,,,,,,,,,,,,0,51,51,25,1,N,M,D,o2_image,stimuli/out2.png,stimuli/out1.png,stimuli/correct_out2.png,,,,,,,,,,,,,,,,,,,,,,,,,,,,,,,,,,,,,,
,,65ba64c07847d4c34ec00de1,47,female,2024-04-24_12h36.25.384,stockport_simplified,2022.2.4,Win32,59.88023952,661e456ee6de07e70aa9ef7b,6628dfec3bb2e78332d6a8ea,,,,,,,,,,,,,,,,,,,,,,,,,,,,,,,,,,612.1934,614.5338,"[1,3,5,8,4,7,2,6]","[[0.3,0.2],[-0.3,0.2]]","[[0.125,-0.2],[-0.125,-0.2]]",-0.131481481,-0.191666667,1,0,0,1.8366,o2_image,614.5658,1,615.0568,615.0572,617.0494,0,0,0,0,1,,,,,,,,,,,,,,,,,,,,,,,,,,,,,,,,,,,,,,,,,,,,,,,,,,
,,65ba64c07847d4c34ec00de1,47,female,2024-04-24_12h36.25.384,stockport_simplified,2022.2.4,Win32,59.88023952,661e456ee6de07e70aa9ef7b,6628dfec3bb2e78332d6a8ea,,,,,,,,,,,,,,,,,,,,,,,,,,,,,,,,,,,,,,,,,,,,,,,,,,,,,,,,0,52,52,18,1,B,Y,N,o2_image,stimuli/out2.png,stimuli/out1.png,stimuli/correct_out2.png,,,,,,,,,,,,,,,,,,,,,,,,,,,,,,,,,,,,,,
,,65ba64c07847d4c34ec00de1,47,female,2024-04-24_12h36.25.384,stockport_simplified,2022.2.4,Win32,59.88023952,661e456ee6de07e70aa9ef7b,6628dfec3bb2e78332d6a8ea,,,,,,,,,,,,,,,,,,,,,,,,,,,,,,,,,,617.0507,619.5751,"[1,3,5,8,4,7,2,6]","[[-0.3,0.2],[0.3,0.2]]","[[-0.125,-0.2],[0.125,-0.2]]",-0.127777778,-0.190740741,1,0,0,2.0154,o1_image,619.5776,1,620.0773,620.0775,622.0753,0,0,0,0,1,,,,,,,,,,,,,,,,,,,,,,,,,,,,,,,,,,,,,,,,,,,,,,,,,,
,,65ba64c07847d4c34ec00de1,47,female,2024-04-24_12h36.25.384,stockport_simplified,2022.2.4,Win32,59.88023952,661e456ee6de07e70aa9ef7b,6628dfec3bb2e78332d6a8ea,,,,,,,,,,,,,,,,,,,,,,,,,,,,,,,,,,,,,,,,,,,,,,,,,,,,,,,,0,53,53,38,1,A,Y,N,o1_image,stimuli/out1.png,stimuli/correct_out1.png,stimuli/out2.png,,,,,,,,,,,,,,,,,,,,,,,,,,,,,,,,,,,,,,
,,65ba64c07847d4c34ec00de1,47,female,2024-04-24_12h36.25.384,stockport_simplified,2022.2.4,Win32,59.88023952,661e456ee6de07e70aa9ef7b,6628dfec3bb2e78332d6a8ea,,,,,,,,,,,,,,,,,,,,,,,,,,,,,,,,,,622.0767,624.1366,"[1,3,5,8,4,7,2,6]","[[-0.3,0.2],[0.3,0.2]]","[[0.125,-0.2],[-0.125,-0.2]]",-0.091666667,-0.173148148,1,0,0,1.5442,o2_image,624.1382,1,624.6358,624.6359,626.6321,0,0,0,0,1,,,,,,,,,,,,,,,,,,,,,,,,,,,,,,,,,,,,,,,,,,,,,,,,,,
,,65ba64c07847d4c34ec00de1,47,female,2024-04-24_12h36.25.384,stockport_simplified,2022.2.4,Win32,59.88023952,661e456ee6de07e70aa9ef7b,6628dfec3bb2e78332d6a8ea,,,,,,,,,,,,,,,,,,,,,,,,,,,,,,,,,,,,,,,,,,,,,,,,,,,,,,,,0,54,54,46,1,B,Y,N,o2_image,stimuli/out2.png,stimuli/out1.png,stimuli/correct_out2.png,,,,,,,,,,,,,,,,,,,,,,,,,,,,,,,,,,,,,,
,,65ba64c07847d4c34ec00de1,47,female,2024-04-24_12h36.25.384,stockport_simplified,2022.2.4,Win32,59.88023952,661e456ee6de07e70aa9ef7b,6628dfec3bb2e78332d6a8ea,,,,,,,,,,,,,,,,,,,,,,,,,,,,,,,,,,626.635,628.4547,"[1,3,5,8,4,7,2,6]","[[-0.3,0.2],[0.3,0.2]]","[[-0.125,-0.2],[0.125,-0.2]]",0.085185185,-0.165740741,1,0,0,1.3114,o2_image,628.456,1,628.9534,628.9534,630.9417,0,0,0,0,1,,,,,,,,,,,,,,,,,,,,,,,,,,,,,,,,,,,,,,,,,,,,,,,,,,
,,65ba64c07847d4c34ec00de1,47,female,2024-04-24_12h36.25.384,stockport_simplified,2022.2.4,Win32,59.88023952,661e456ee6de07e70aa9ef7b,6628dfec3bb2e78332d6a8ea,,,,,,,,,,,,,,,,,,,,,,,,,,,,,,,,,,,,,,,,,,,,,,,,,,,,,,,,0,55,55,58,1,N,M,D,o2_image,stimuli/out2.png,stimuli/out1.png,stimuli/correct_out2.png,,,,,,,,,,,,,,,,,,,,,,,,,,,,,,,,,,,,,,
,,65ba64c07847d4c34ec00de1,47,female,2024-04-24_12h36.25.384,stockport_simplified,2022.2.4,Win32,59.88023952,661e456ee6de07e70aa9ef7b,6628dfec3bb2e78332d6a8ea,,,,,,,,,,,,,,,,,,,,,,,,,,,,,,,,,,630.9429,633.3219,"[1,3,5,8,4,7,2,6]","[[-0.3,0.2],[0.3,0.2]]","[[0.125,-0.2],[-0.125,-0.2]]",-0.118518519,-0.171296296,1,0,0,1.8621,o2_image,633.3232,1,633.8255,633.8256,635.8245,0,0,0,0,1,,,,,,,,,,,,,,,,,,,,,,,,,,,,,,,,,,,,,,,,,,,,,,,,,,
,,65ba64c07847d4c34ec00de1,47,female,2024-04-24_12h36.25.384,stockport_simplified,2022.2.4,Win32,59.88023952,661e456ee6de07e70aa9ef7b,6628dfec3bb2e78332d6a8ea,,,,,,,,,,,,,,,,,,,,,,,,,,,,,,,,,,,,,,,,,,,,,,,,,,,,,,,,0,56,56,14,1,B,X,N,o2_image,stimuli/out2.png,stimuli/out1.png,stimuli/correct_out2.png,,,,,,,,,,,,,,,,,,,,,,,,,,,,,,,,,,,,,,
,,65ba64c07847d4c34ec00de1,47,female,2024-04-24_12h36.25.384,stockport_simplified,2022.2.4,Win32,59.88023952,661e456ee6de07e70aa9ef7b,6628dfec3bb2e78332d6a8ea,,,,,,,,,,,,,,,,,,,,,,,,,,,,,,,,,,635.8251,637.7411,"[1,3,5,8,4,7,2,6]","[[-0.3,0.2],[0.3,0.2]]","[[-0.125,-0.2],[0.125,-0.2]]",0.149074074,-0.178703704,1,0,0,1.3984,o2_image,637.7424,1,638.241,638.2411,640.241,0,0,0,0,1,,,,,,,,,,,,,,,,,,,,,,,,,,,,,,,,,,,,,,,,,,,,,,,,,,
,,65ba64c07847d4c34ec00de1,47,female,2024-04-24_12h36.25.384,stockport_simplified,2022.2.4,Win32,59.88023952,661e456ee6de07e70aa9ef7b,6628dfec3bb2e78332d6a8ea,,,,,,,,,,,,,,,,,,,,,,,,,,,,,,,,,,,,,,,,,,,,,,,,,,,,,,,,0,57,57,26,1,N,M,D,o2_image,stimuli/out2.png,stimuli/out1.png,stimuli/correct_out2.png,,,,,,,,,,,,,,,,,,,,,,,,,,,,,,,,,,,,,,
,,65ba64c07847d4c34ec00de1,47,female,2024-04-24_12h36.25.384,stockport_simplified,2022.2.4,Win32,59.88023952,661e456ee6de07e70aa9ef7b,6628dfec3bb2e78332d6a8ea,,,,,,,,,,,,,,,,,,,,,,,,,,,,,,,,,,640.2418,642.5409,"[1,3,5,8,4,7,2,6]","[[0.3,0.2],[-0.3,0.2]]","[[0.125,-0.2],[-0.125,-0.2]]",0.112037037,-0.175,1,0,0,1.7822,o1_image,642.5594,1,643.0577,643.0578,645.0576,0,0,0,0,1,,,,,,,,,,,,,,,,,,,,,,,,,,,,,,,,,,,,,,,,,,,,,,,,,,
,,65ba64c07847d4c34ec00de1,47,female,2024-04-24_12h36.25.384,stockport_simplified,2022.2.4,Win32,59.88023952,661e456ee6de07e70aa9ef7b,6628dfec3bb2e78332d6a8ea,,,,,,,,,,,,,,,,,,,,,,,,,,,,,,,,,,,,,,,,,,,,,,,,,,,,,,,,0,58,58,1,1,A,X,N,o1_image,stimuli/out1.png,stimuli/correct_out1.png,stimuli/out2.png,,,,,,,,,,,,,,,,,,,,,,,,,,,,,,,,,,,,,,
,,65ba64c07847d4c34ec00de1,47,female,2024-04-24_12h36.25.384,stockport_simplified,2022.2.4,Win32,59.88023952,661e456ee6de07e70aa9ef7b,6628dfec3bb2e78332d6a8ea,,,,,,,,,,,,,,,,,,,,,,,,,,,,,,,,,,645.0585,647.1363,"[1,3,5,8,4,7,2,6]","[[0.3,0.2],[-0.3,0.2]]","[[-0.125,-0.2],[0.125,-0.2]]",0.117592593,-0.174074074,1,0,0,1.561,o2_image,647.1376,1,647.6525,647.6525,649.6409,0,0,0,0,1,,,,,,,,,,,,,,,,,,,,,,,,,,,,,,,,,,,,,,,,,,,,,,,,,,
,,65ba64c07847d4c34ec00de1,47,female,2024-04-24_12h36.25.384,stockport_simplified,2022.2.4,Win32,59.88023952,661e456ee6de07e70aa9ef7b,6628dfec3bb2e78332d6a8ea,,,,,,,,,,,,,,,,,,,,,,,,,,,,,,,,,,,,,,,,,,,,,,,,,,,,,,,,0,59,59,17,1,B,Y,N,o2_image,stimuli/out2.png,stimuli/out1.png,stimuli/correct_out2.png,,,,,,,,,,,,,,,,,,,,,,,,,,,,,,,,,,,,,,
,,65ba64c07847d4c34ec00de1,47,female,2024-04-24_12h36.25.384,stockport_simplified,2022.2.4,Win32,59.88023952,661e456ee6de07e70aa9ef7b,6628dfec3bb2e78332d6a8ea,,,,,,,,,,,,,,,,,,,,,,,,,,,,,,,,,,649.6414,652.4078,"[1,3,5,8,4,7,2,6]","[[0.3,0.2],[-0.3,0.2]]","[[0.125,-0.2],[-0.125,-0.2]]",0.167592593,-0.177777778,1,0,0,2.2494,o1_image,652.4094,1,652.9077,652.9078,654.9076,0,0,0,0,1,,,,,,,,,,,,,,,,,,,,,,,,,,,,,,,,,,,,,,,,,,,,,,,,,,
,,65ba64c07847d4c34ec00de1,47,female,2024-04-24_12h36.25.384,stockport_simplified,2022.2.4,Win32,59.88023952,661e456ee6de07e70aa9ef7b,6628dfec3bb2e78332d6a8ea,,,,,,,,,,,,,,,,,,,,,,,,,,,,,,,,,,,,,,,,,,,,,,,,,,,,,,,,1,0,60,37,1,A,Y,N,o1_image,stimuli/out1.png,stimuli/correct_out1.png,stimuli/out2.png,,,,,,,,,,,,,,,,,,,,,,,,,,,,,,,,,,,,,,
,,65ba64c07847d4c34ec00de1,47,female,2024-04-24_12h36.25.384,stockport_simplified,2022.2.4,Win32,59.88023952,661e456ee6de07e70aa9ef7b,6628dfec3bb2e78332d6a8ea,,,,,,,,,,,,,,,,,,,,,,,,,,,,,,,,,,654.9084,657.6242,"[1,3,5,8,4,7,2,6]","[[-0.3,0.2],[0.3,0.2]]","[[-0.125,-0.2],[0.125,-0.2]]",-0.126851852,-0.17037037,1,0,0,2.1991,o1_image,657.6256,1,658.1244,658.1245,660.1241,0,0,0,0,1,,,,,,,,,,,,,,,,,,,,,,,,,,,,,,,,,,,,,,,,,,,,,,,,,,
,,65ba64c07847d4c34ec00de1,47,female,2024-04-24_12h36.25.384,stockport_simplified,2022.2.4,Win32,59.88023952,661e456ee6de07e70aa9ef7b,6628dfec3bb2e78332d6a8ea,,,,,,,,,,,,,,,,,,,,,,,,,,,,,,,,,,,,,,,,,,,,,,,,,,,,,,,,1,1,61,23,1,N,M,C,o1_image,stimuli/out1.png,stimuli/correct_out1.png,stimuli/out2.png,,,,,,,,,,,,,,,,,,,,,,,,,,,,,,,,,,,,,,
,,65ba64c07847d4c34ec00de1,47,female,2024-04-24_12h36.25.384,stockport_simplified,2022.2.4,Win32,59.88023952,661e456ee6de07e70aa9ef7b,6628dfec3bb2e78332d6a8ea,,,,,,,,,,,,,,,,,,,,,,,,,,,,,,,,,,660.1249,662.0244,"[1,3,5,8,4,7,2,6]","[[-0.3,0.2],[0.3,0.2]]","[[-0.125,-0.2],[0.125,-0.2]]",0.138888889,-0.174074074,1,0,0,1.3828,o2_image,662.0258,1,662.5241,662.5242,664.5243,0,0,0,0,1,,,,,,,,,,,,,,,,,,,,,,,,,,,,,,,,,,,,,,,,,,,,,,,,,,
,,65ba64c07847d4c34ec00de1,47,female,2024-04-24_12h36.25.384,stockport_simplified,2022.2.4,Win32,59.88023952,661e456ee6de07e70aa9ef7b,6628dfec3bb2e78332d6a8ea,,,,,,,,,,,,,,,,,,,,,,,,,,,,,,,,,,,,,,,,,,,,,,,,,,,,,,,,1,2,62,45,1,B,Y,N,o2_image,stimuli/out2.png,stimuli/out1.png,stimuli/correct_out2.png,,,,,,,,,,,,,,,,,,,,,,,,,,,,,,,,,,,,,,
,,65ba64c07847d4c34ec00de1,47,female,2024-04-24_12h36.25.384,stockport_simplified,2022.2.4,Win32,59.88023952,661e456ee6de07e70aa9ef7b,6628dfec3bb2e78332d6a8ea,,,,,,,,,,,,,,,,,,,,,,,,,,,,,,,,,,664.525,666.3411,"[1,3,5,8,4,7,2,6]","[[-0.3,0.2],[0.3,0.2]]","[[0.125,-0.2],[-0.125,-0.2]]",-0.143518519,-0.183333333,1,0,0,1.2992,o2_image,666.3424,1,666.8408,666.8409,668.8408,0,0,0,0,1,,,,,,,,,,,,,,,,,,,,,,,,,,,,,,,,,,,,,,,,,,,,,,,,,,
,,65ba64c07847d4c34ec00de1,47,female,2024-04-24_12h36.25.384,stockport_simplified,2022.2.4,Win32,59.88023952,661e456ee6de07e70aa9ef7b,6628dfec3bb2e78332d6a8ea,,,,,,,,,,,,,,,,,,,,,,,,,,,,,,,,,,,,,,,,,,,,,,,,,,,,,,,,1,3,63,28,1,N,M,D,o2_image,stimuli/out2.png,stimuli/out1.png,stimuli/correct_out2.png,,,,,,,,,,,,,,,,,,,,,,,,,,,,,,,,,,,,,,
,,65ba64c07847d4c34ec00de1,47,female,2024-04-24_12h36.25.384,stockport_simplified,2022.2.4,Win32,59.88023952,661e456ee6de07e70aa9ef7b,6628dfec3bb2e78332d6a8ea,,,,,,,,,,,,,,,,,,,,,,,,,,,,,,,,,,668.8414,671.0744,"[1,3,5,8,4,7,2,6]","[[0.3,0.2],[-0.3,0.2]]","[[0.125,-0.2],[-0.125,-0.2]]",0.126851852,-0.185185185,1,0,0,1.7155,o1_image,671.0761,1,671.5743,671.5743,673.5743,0,0,0,0,1,,,,,,,,,,,,,,,,,,,,,,,,,,,,,,,,,,,,,,,,,,,,,,,,,,
,,65ba64c07847d4c34ec00de1,47,female,2024-04-24_12h36.25.384,stockport_simplified,2022.2.4,Win32,59.88023952,661e456ee6de07e70aa9ef7b,6628dfec3bb2e78332d6a8ea,,,,,,,,,,,,,,,,,,,,,,,,,,,,,,,,,,,,,,,,,,,,,,,,,,,,,,,,1,4,64,34,1,A,X,N,o1_image,stimuli/out1.png,stimuli/correct_out1.png,stimuli/out2.png,,,,,,,,,,,,,,,,,,,,,,,,,,,,,,,,,,,,,,
,,65ba64c07847d4c34ec00de1,47,female,2024-04-24_12h36.25.384,stockport_simplified,2022.2.4,Win32,59.88023952,661e456ee6de07e70aa9ef7b,6628dfec3bb2e78332d6a8ea,,,,,,,,,,,,,,,,,,,,,,,,,,,,,,,,,,673.5752,675.4078,"[1,3,5,8,4,7,2,6]","[[0.3,0.2],[-0.3,0.2]]","[[0.125,-0.2],[-0.125,-0.2]]",-0.082407407,-0.181481481,1,0,0,1.3161,o2_image,675.4093,1,675.9077,675.9078,677.9194,0,0,0,0,1,,,,,,,,,,,,,,,,,,,,,,,,,,,,,,,,,,,,,,,,,,,,,,,,,,
,,65ba64c07847d4c34ec00de1,47,female,2024-04-24_12h36.25.384,stockport_simplified,2022.2.4,Win32,59.88023952,661e456ee6de07e70aa9ef7b,6628dfec3bb2e78332d6a8ea,,,,,,,,,,,,,,,,,,,,,,,,,,,,,,,,,,,,,,,,,,,,,,,,,,,,,,,,1,5,65,18,1,B,Y,N,o2_image,stimuli/out2.png,stimuli/out1.png,stimuli/correct_out2.png,,,,,,,,,,,,,,,,,,,,,,,,,,,,,,,,,,,,,,
,,65ba64c07847d4c34ec00de1,47,female,2024-04-24_12h36.25.384,stockport_simplified,2022.2.4,Win32,59.88023952,661e456ee6de07e70aa9ef7b,6628dfec3bb2e78332d6a8ea,,,,,,,,,,,,,,,,,,,,,,,,,,,,,,,,,,677.9201,680.3744,"[1,3,5,8,4,7,2,6]","[[-0.3,0.2],[0.3,0.2]]","[[-0.125,-0.2],[0.125,-0.2]]",0.127777778,-0.164814815,1,0,0,1.9498,o2_image,680.376,1,680.8743,680.8743,682.8742,0,0,0,0,1,,,,,,,,,,,,,,,,,,,,,,,,,,,,,,,,,,,,,,,,,,,,,,,,,,
,,65ba64c07847d4c34ec00de1,47,female,2024-04-24_12h36.25.384,stockport_simplified,2022.2.4,Win32,59.88023952,661e456ee6de07e70aa9ef7b,6628dfec3bb2e78332d6a8ea,,,,,,,,,,,,,,,,,,,,,,,,,,,,,,,,,,,,,,,,,,,,,,,,,,,,,,,,1,6,66,49,1,B,Y,N,o2_image,stimuli/out2.png,stimuli/out1.png,stimuli/correct_out2.png,,,,,,,,,,,,,,,,,,,,,,,,,,,,,,,,,,,,,,
,,65ba64c07847d4c34ec00de1,47,female,2024-04-24_12h36.25.384,stockport_simplified,2022.2.4,Win32,59.88023952,661e456ee6de07e70aa9ef7b,6628dfec3bb2e78332d6a8ea,,,,,,,,,,,,,,,,,,,,,,,,,,,,,,,,,,682.875,685.2908,"[1,3,5,8,4,7,2,6]","[[0.3,0.2],[-0.3,0.2]]","[[-0.125,-0.2],[0.125,-0.2]]",-0.135185185,-0.175925926,1,0,0,1.8993,o1_image,685.2922,1,685.7909,685.7909,687.7909,0,0,0,0,1,,,,,,,,,,,,,,,,,,,,,,,,,,,,,,,,,,,,,,,,,,,,,,,,,,
,,65ba64c07847d4c34ec00de1,47,female,2024-04-24_12h36.25.384,stockport_simplified,2022.2.4,Win32,59.88023952,661e456ee6de07e70aa9ef7b,6628dfec3bb2e78332d6a8ea,,,,,,,,,,,,,,,,,,,,,,,,,,,,,,,,,,,,,,,,,,,,,,,,,,,,,,,,1,7,67,33,1,A,X,N,o1_image,stimuli/out1.png,stimuli/correct_out1.png,stimuli/out2.png,,,,,,,,,,,,,,,,,,,,,,,,,,,,,,,,,,,,,,
,,65ba64c07847d4c34ec00de1,47,female,2024-04-24_12h36.25.384,stockport_simplified,2022.2.4,Win32,59.88023952,661e456ee6de07e70aa9ef7b,6628dfec3bb2e78332d6a8ea,,,,,,,,,,,,,,,,,,,,,,,,,,,,,,,,,,687.7916,689.6075,"[1,3,5,8,4,7,2,6]","[[0.3,0.2],[-0.3,0.2]]","[[-0.125,-0.2],[0.125,-0.2]]",0.119444444,-0.182407407,1,0,0,1.2986,o2_image,689.6091,1,690.1074,690.1075,692.1076,0,0,0,0,1,,,,,,,,,,,,,,,,,,,,,,,,,,,,,,,,,,,,,,,,,,,,,,,,,,
,,65ba64c07847d4c34ec00de1,47,female,2024-04-24_12h36.25.384,stockport_simplified,2022.2.4,Win32,59.88023952,661e456ee6de07e70aa9ef7b,6628dfec3bb2e78332d6a8ea,,,,,,,,,,,,,,,,,,,,,,,,,,,,,,,,,,,,,,,,,,,,,,,,,,,,,,,,1,8,68,26,1,N,M,D,o2_image,stimuli/out2.png,stimuli/out1.png,stimuli/correct_out2.png,,,,,,,,,,,,,,,,,,,,,,,,,,,,,,,,,,,,,,
,,65ba64c07847d4c34ec00de1,47,female,2024-04-24_12h36.25.384,stockport_simplified,2022.2.4,Win32,59.88023952,661e456ee6de07e70aa9ef7b,6628dfec3bb2e78332d6a8ea,,,,,,,,,,,,,,,,,,,,,,,,,,,,,,,,,,692.1084,694.1411,"[1,3,5,8,4,7,2,6]","[[0.3,0.2],[-0.3,0.2]]","[[-0.125,-0.2],[0.125,-0.2]]",-0.12962963,-0.182407407,1,0,0,1.5162,o1_image,694.1427,1,694.6304,694.6304,696.6241,0,0,0,0,1,,,,,,,,,,,,,,,,,,,,,,,,,,,,,,,,,,,,,,,,,,,,,,,,,,
,,65ba64c07847d4c34ec00de1,47,female,2024-04-24_12h36.25.384,stockport_simplified,2022.2.4,Win32,59.88023952,661e456ee6de07e70aa9ef7b,6628dfec3bb2e78332d6a8ea,,,,,,,,,,,,,,,,,,,,,,,,,,,,,,,,,,,,,,,,,,,,,,,,,,,,,,,,1,9,69,32,1,A,X,N,o1_image,stimuli/out1.png,stimuli/correct_out1.png,stimuli/out2.png,,,,,,,,,,,,,,,,,,,,,,,,,,,,,,,,,,,,,,
,,65ba64c07847d4c34ec00de1,47,female,2024-04-24_12h36.25.384,stockport_simplified,2022.2.4,Win32,59.88023952,661e456ee6de07e70aa9ef7b,6628dfec3bb2e78332d6a8ea,,,,,,,,,,,,,,,,,,,,,,,,,,,,,,,,,,696.6248,698.2413,"[1,3,5,8,4,7,2,6]","[[-0.3,0.2],[0.3,0.2]]","[[0.125,-0.2],[-0.125,-0.2]]",-0.123148148,-0.183333333,1,0,0,1.0998,o2_image,698.2427,1,698.7408,698.7409,700.7407,0,0,0,0,1,,,,,,,,,,,,,,,,,,,,,,,,,,,,,,,,,,,,,,,,,,,,,,,,,,
,,65ba64c07847d4c34ec00de1,47,female,2024-04-24_12h36.25.384,stockport_simplified,2022.2.4,Win32,59.88023952,661e456ee6de07e70aa9ef7b,6628dfec3bb2e78332d6a8ea,,,,,,,,,,,,,,,,,,,,,,,,,,,,,,,,,,,,,,,,,,,,,,,,,,,,,,,,1,10,70,25,1,N,M,D,o2_image,stimuli/out2.png,stimuli/out1.png,stimuli/correct_out2.png,,,,,,,,,,,,,,,,,,,,,,,,,,,,,,,,,,,,,,
,,65ba64c07847d4c34ec00de1,47,female,2024-04-24_12h36.25.384,stockport_simplified,2022.2.4,Win32,59.88023952,661e456ee6de07e70aa9ef7b,6628dfec3bb2e78332d6a8ea,,,,,,,,,,,,,,,,,,,,,,,,,,,,,,,,,,700.7416,702.9243,"[1,3,5,8,4,7,2,6]","[[0.3,0.2],[-0.3,0.2]]","[[-0.125,-0.2],[0.125,-0.2]]",0.125925926,-0.174074074,1,0,0,1.666,o2_image,702.9257,1,703.424,703.4241,705.424,0,0,0,0,1,,,,,,,,,,,,,,,,,,,,,,,,,,,,,,,,,,,,,,,,,,,,,,,,,,
,,65ba64c07847d4c34ec00de1,47,female,2024-04-24_12h36.25.384,stockport_simplified,2022.2.4,Win32,59.88023952,661e456ee6de07e70aa9ef7b,6628dfec3bb2e78332d6a8ea,,,,,,,,,,,,,,,,,,,,,,,,,,,,,,,,,,,,,,,,,,,,,,,,,,,,,,,,1,11,71,48,1,B,Y,N,o2_image,stimuli/out2.png,stimuli/out1.png,stimuli/correct_out2.png,,,,,,,,,,,,,,,,,,,,,,,,,,,,,,,,,,,,,,
,,65ba64c07847d4c34ec00de1,47,female,2024-04-24_12h36.25.384,stockport_simplified,2022.2.4,Win32,59.88023952,661e456ee6de07e70aa9ef7b,6628dfec3bb2e78332d6a8ea,,,,,,,,,,,,,,,,,,,,,,,,,,,,,,,,,,705.4248,707.4077,"[1,3,5,8,4,7,2,6]","[[0.3,0.2],[-0.3,0.2]]","[[0.125,-0.2],[-0.125,-0.2]]",-0.125925926,-0.193518519,1,0,0,1.4664,o2_image,707.4092,1,707.9075,707.9076,709.9075,0,0,0,0,1,,,,,,,,,,,,,,,,,,,,,,,,,,,,,,,,,,,,,,,,,,,,,,,,,,
,,65ba64c07847d4c34ec00de1,47,female,2024-04-24_12h36.25.384,stockport_simplified,2022.2.4,Win32,59.88023952,661e456ee6de07e70aa9ef7b,6628dfec3bb2e78332d6a8ea,,,,,,,,,,,,,,,,,,,,,,,,,,,,,,,,,,,,,,,,,,,,,,,,,,,,,,,,1,12,72,41,1,B,X,N,o2_image,stimuli/out2.png,stimuli/out1.png,stimuli/correct_out2.png,,,,,,,,,,,,,,,,,,,,,,,,,,,,,,,,,,,,,,
,,65ba64c07847d4c34ec00de1,47,female,2024-04-24_12h36.25.384,stockport_simplified,2022.2.4,Win32,59.88023952,661e456ee6de07e70aa9ef7b,6628dfec3bb2e78332d6a8ea,,,,,,,,,,,,,,,,,,,,,,,,,,,,,,,,,,709.9083,711.591,"[1,3,5,8,4,7,2,6]","[[-0.3,0.2],[0.3,0.2]]","[[0.125,-0.2],[-0.125,-0.2]]",-0.125925926,-0.193518519,1,0,0,1.1661,o2_image,711.5928,1,712.0907,712.0908,714.0907,0,0,0,0,1,,,,,,,,,,,,,,,,,,,,,,,,,,,,,,,,,,,,,,,,,,,,,,,,,,
,,65ba64c07847d4c34ec00de1,47,female,2024-04-24_12h36.25.384,stockport_simplified,2022.2.4,Win32,59.88023952,661e456ee6de07e70aa9ef7b,6628dfec3bb2e78332d6a8ea,,,,,,,,,,,,,,,,,,,,,,,,,,,,,,,,,,,,,,,,,,,,,,,,,,,,,,,,1,13,73,29,1,N,M,D,o2_image,stimuli/out2.png,stimuli/out1.png,stimuli/correct_out2.png,,,,,,,,,,,,,,,,,,,,,,,,,,,,,,,,,,,,,,
,,65ba64c07847d4c34ec00de1,47,female,2024-04-24_12h36.25.384,stockport_simplified,2022.2.4,Win32,59.88023952,661e456ee6de07e70aa9ef7b,6628dfec3bb2e78332d6a8ea,,,,,,,,,,,,,,,,,,,,,,,,,,,,,,,,,,714.0913,717.6077,"[1,3,5,8,4,7,2,6]","[[0.3,0.2],[-0.3,0.2]]","[[-0.125,-0.2],[0.125,-0.2]]",-0.116666667,-0.188888889,1,0,0,2.9997,o1_image,717.623,1,718.1242,718.1243,720.1245,0,0,0,0,1,,,,,,,,,,,,,,,,,,,,,,,,,,,,,,,,,,,,,,,,,,,,,,,,,,
,,65ba64c07847d4c34ec00de1,47,female,2024-04-24_12h36.25.384,stockport_simplified,2022.2.4,Win32,59.88023952,661e456ee6de07e70aa9ef7b,6628dfec3bb2e78332d6a8ea,,,,,,,,,,,,,,,,,,,,,,,,,,,,,,,,,,,,,,,,,,,,,,,,,,,,,,,,1,14,74,53,1,N,M,C,o1_image,stimuli/out1.png,stimuli/correct_out1.png,stimuli/out2.png,,,,,,,,,,,,,,,,,,,,,,,,,,,,,,,,,,,,,,
,,65ba64c07847d4c34ec00de1,47,female,2024-04-24_12h36.25.384,stockport_simplified,2022.2.4,Win32,59.88023952,661e456ee6de07e70aa9ef7b,6628dfec3bb2e78332d6a8ea,,,,,,,,,,,,,,,,,,,,,,,,,,,,,,,,,,720.1252,722.6742,"[1,3,5,8,4,7,2,6]","[[0.3,0.2],[-0.3,0.2]]","[[0.125,-0.2],[-0.125,-0.2]]",0.137962963,-0.186111111,1,0,0,2.0325,o1_image,722.6908,1,723.1907,723.1908,725.1907,0,0,0,0,1,,,,,,,,,,,,,,,,,,,,,,,,,,,,,,,,,,,,,,,,,,,,,,,,,,
,,65ba64c07847d4c34ec00de1,47,female,2024-04-24_12h36.25.384,stockport_simplified,2022.2.4,Win32,59.88023952,661e456ee6de07e70aa9ef7b,6628dfec3bb2e78332d6a8ea,,,,,,,,,,,,,,,,,,,,,,,,,,,,,,,,,,,,,,,,,,,,,,,,,,,,,,,,1,15,75,0,1,A,X,N,o1_image,stimuli/out1.png,stimuli/correct_out1.png,stimuli/out2.png,,,,,,,,,,,,,,,,,,,,,,,,,,,,,,,,,,,,,,
,,65ba64c07847d4c34ec00de1,47,female,2024-04-24_12h36.25.384,stockport_simplified,2022.2.4,Win32,59.88023952,661e456ee6de07e70aa9ef7b,6628dfec3bb2e78332d6a8ea,,,,,,,,,,,,,,,,,,,,,,,,,,,,,,,,,,725.1913,727.4091,"[1,3,5,8,4,7,2,6]","[[0.3,0.2],[-0.3,0.2]]","[[0.125,-0.2],[-0.125,-0.2]]",-0.134259259,-0.196296296,1,0,0,1.7013,o2_image,727.4104,1,727.9074,727.9074,729.9075,0,0,0,0,1,,,,,,,,,,,,,,,,,,,,,,,,,,,,,,,,,,,,,,,,,,,,,,,,,,
,,65ba64c07847d4c34ec00de1,47,female,2024-04-24_12h36.25.384,stockport_simplified,2022.2.4,Win32,59.88023952,661e456ee6de07e70aa9ef7b,6628dfec3bb2e78332d6a8ea,,,,,,,,,,,,,,,,,,,,,,,,,,,,,,,,,,,,,,,,,,,,,,,,,,,,,,,,1,16,76,14,1,B,X,N,o2_image,stimuli/out2.png,stimuli/out1.png,stimuli/correct_out2.png,,,,,,,,,,,,,,,,,,,,,,,,,,,,,,,,,,,,,,
,,65ba64c07847d4c34ec00de1,47,female,2024-04-24_12h36.25.384,stockport_simplified,2022.2.4,Win32,59.88023952,661e456ee6de07e70aa9ef7b,6628dfec3bb2e78332d6a8ea,,,,,,,,,,,,,,,,,,,,,,,,,,,,,,,,,,729.9082,732.2908,"[1,3,5,8,4,7,2,6]","[[0.3,0.2],[-0.3,0.2]]","[[0.125,-0.2],[-0.125,-0.2]]",0.160185185,-0.171296296,1,0,0,1.8659,o1_image,732.2922,1,732.7907,732.7908,734.7907,0,0,0,0,1,,,,,,,,,,,,,,,,,,,,,,,,,,,,,,,,,,,,,,,,,,,,,,,,,,
,,65ba64c07847d4c34ec00de1,47,female,2024-04-24_12h36.25.384,stockport_simplified,2022.2.4,Win32,59.88023952,661e456ee6de07e70aa9ef7b,6628dfec3bb2e78332d6a8ea,,,,,,,,,,,,,,,,,,,,,,,,,,,,,,,,,,,,,,,,,,,,,,,,,,,,,,,,1,17,77,54,1,N,M,C,o1_image,stimuli/out1.png,stimuli/correct_out1.png,stimuli/out2.png,,,,,,,,,,,,,,,,,,,,,,,,,,,,,,,,,,,,,,
,,65ba64c07847d4c34ec00de1,47,female,2024-04-24_12h36.25.384,stockport_simplified,2022.2.4,Win32,59.88023952,661e456ee6de07e70aa9ef7b,6628dfec3bb2e78332d6a8ea,,,,,,,,,,,,,,,,,,,,,,,,,,,,,,,,,,734.7914,737.3577,"[1,3,5,8,4,7,2,6]","[[-0.3,0.2],[0.3,0.2]]","[[0.125,-0.2],[-0.125,-0.2]]",0.110185185,-0.180555556,1,0,0,2.0496,o1_image,737.359,1,737.8573,737.8574,739.8574,0,0,0,0,1,,,,,,,,,,,,,,,,,,,,,,,,,,,,,,,,,,,,,,,,,,,,,,,,,,
,,65ba64c07847d4c34ec00de1,47,female,2024-04-24_12h36.25.384,stockport_simplified,2022.2.4,Win32,59.88023952,661e456ee6de07e70aa9ef7b,6628dfec3bb2e78332d6a8ea,,,,,,,,,,,,,,,,,,,,,,,,,,,,,,,,,,,,,,,,,,,,,,,,,,,,,,,,1,18,78,6,1,A,Y,N,o1_image,stimuli/out1.png,stimuli/correct_out1.png,stimuli/out2.png,,,,,,,,,,,,,,,,,,,,,,,,,,,,,,,,,,,,,,
,,65ba64c07847d4c34ec00de1,47,female,2024-04-24_12h36.25.384,stockport_simplified,2022.2.4,Win32,59.88023952,661e456ee6de07e70aa9ef7b,6628dfec3bb2e78332d6a8ea,,,,,,,,,,,,,,,,,,,,,,,,,,,,,,,,,,739.858,741.6741,"[1,3,5,8,4,7,2,6]","[[0.3,0.2],[-0.3,0.2]]","[[0.125,-0.2],[-0.125,-0.2]]",-0.116666667,-0.186111111,1,0,0,1.2994,o2_image,741.6755,1,742.1771,742.1771,744.1744,0,0,0,0,1,,,,,,,,,,,,,,,,,,,,,,,,,,,,,,,,,,,,,,,,,,,,,,,,,,
,,65ba64c07847d4c34ec00de1,47,female,2024-04-24_12h36.25.384,stockport_simplified,2022.2.4,Win32,59.88023952,661e456ee6de07e70aa9ef7b,6628dfec3bb2e78332d6a8ea,,,,,,,,,,,,,,,,,,,,,,,,,,,,,,,,,,,,,,,,,,,,,,,,,,,,,,,,1,19,79,55,1,N,M,D,o2_image,stimuli/out2.png,stimuli/out1.png,stimuli/correct_out2.png,,,,,,,,,,,,,,,,,,,,,,,,,,,,,,,,,,,,,,
,,65ba64c07847d4c34ec00de1,47,female,2024-04-24_12h36.25.384,stockport_simplified,2022.2.4,Win32,59.88023952,661e456ee6de07e70aa9ef7b,6628dfec3bb2e78332d6a8ea,,,,,,,,,,,,,,,,,,,,,,,,,,,,,,,,,,744.1751,745.9244,"[1,3,5,8,4,7,2,6]","[[-0.3,0.2],[0.3,0.2]]","[[-0.125,-0.2],[0.125,-0.2]]",0.133333333,-0.167592593,1,0,0,1.2331,o2_image,745.9258,1,746.4242,746.4242,748.4241,0,0,0,0,1,,,,,,,,,,,,,,,,,,,,,,,,,,,,,,,,,,,,,,,,,,,,,,,,,,
,,65ba64c07847d4c34ec00de1,47,female,2024-04-24_12h36.25.384,stockport_simplified,2022.2.4,Win32,59.88023952,661e456ee6de07e70aa9ef7b,6628dfec3bb2e78332d6a8ea,,,,,,,,,,,,,,,,,,,,,,,,,,,,,,,,,,,,,,,,,,,,,,,,,,,,,,,,1,20,80,56,1,N,M,D,o2_image,stimuli/out2.png,stimuli/out1.png,stimuli/correct_out2.png,,,,,,,,,,,,,,,,,,,,,,,,,,,,,,,,,,,,,,
,,65ba64c07847d4c34ec00de1,47,female,2024-04-24_12h36.25.384,stockport_simplified,2022.2.4,Win32,59.88023952,661e456ee6de07e70aa9ef7b,6628dfec3bb2e78332d6a8ea,,,,,,,,,,,,,,,,,,,,,,,,,,,,,,,,,,748.4249,751.7024,"[1,3,5,8,4,7,2,6]","[[-0.3,0.2],[0.3,0.2]]","[[0.125,-0.2],[-0.125,-0.2]]",-0.097222222,-0.187962963,1,0,0,2.7609,o2_image,751.7181,1,752.2191,752.2192,754.2075,0,0,0,0,1,,,,,,,,,,,,,,,,,,,,,,,,,,,,,,,,,,,,,,,,,,,,,,,,,,
,,65ba64c07847d4c34ec00de1,47,female,2024-04-24_12h36.25.384,stockport_simplified,2022.2.4,Win32,59.88023952,661e456ee6de07e70aa9ef7b,6628dfec3bb2e78332d6a8ea,,,,,,,,,,,,,,,,,,,,,,,,,,,,,,,,,,,,,,,,,,,,,,,,,,,,,,,,1,21,81,40,1,B,X,N,o2_image,stimuli/out2.png,stimuli/out1.png,stimuli/correct_out2.png,,,,,,,,,,,,,,,,,,,,,,,,,,,,,,,,,,,,,,
,,65ba64c07847d4c34ec00de1,47,female,2024-04-24_12h36.25.384,stockport_simplified,2022.2.4,Win32,59.88023952,661e456ee6de07e70aa9ef7b,6628dfec3bb2e78332d6a8ea,,,,,,,,,,,,,,,,,,,,,,,,,,,,,,,,,,754.2082,756.5361,"[1,3,5,8,4,7,2,6]","[[0.3,0.2],[-0.3,0.2]]","[[0.125,-0.2],[-0.125,-0.2]]",0.111111111,-0.169444444,1,0,0,1.8115,o1_image,756.537,1,757.0407,757.0408,759.0406,0,0,0,0,1,,,,,,,,,,,,,,,,,,,,,,,,,,,,,,,,,,,,,,,,,,,,,,,,,,
,,65ba64c07847d4c34ec00de1,47,female,2024-04-24_12h36.25.384,stockport_simplified,2022.2.4,Win32,59.88023952,661e456ee6de07e70aa9ef7b,6628dfec3bb2e78332d6a8ea,,,,,,,,,,,,,,,,,,,,,,,,,,,,,,,,,,,,,,,,,,,,,,,,,,,,,,,,1,22,82,31,1,A,X,N,o1_image,stimuli/out1.png,stimuli/correct_out1.png,stimuli/out2.png,,,,,,,,,,,,,,,,,,,,,,,,,,,,,,,,,,,,,,
,,65ba64c07847d4c34ec00de1,47,female,2024-04-24_12h36.25.384,stockport_simplified,2022.2.4,Win32,59.88023952,661e456ee6de07e70aa9ef7b,6628dfec3bb2e78332d6a8ea,,,,,,,,,,,,,,,,,,,,,,,,,,,,,,,,,,759.0413,761.9241,"[1,3,5,8,4,7,2,6]","[[0.3,0.2],[-0.3,0.2]]","[[0.125,-0.2],[-0.125,-0.2]]",0.125925926,-0.178703704,1,0,0,2.3666,o1_image,761.9255,1,762.424,762.4241,764.424,0,0,0,0,1,,,,,,,,,,,,,,,,,,,,,,,,,,,,,,,,,,,,,,,,,,,,,,,,,,
,,65ba64c07847d4c34ec00de1,47,female,2024-04-24_12h36.25.384,stockport_simplified,2022.2.4,Win32,59.88023952,661e456ee6de07e70aa9ef7b,6628dfec3bb2e78332d6a8ea,,,,,,,,,,,,,,,,,,,,,,,,,,,,,,,,,,,,,,,,,,,,,,,,,,,,,,,,1,23,83,4,1,A,X,N,o1_image,stimuli/out1.png,stimuli/correct_out1.png,stimuli/out2.png,,,,,,,,,,,,,,,,,,,,,,,,,,,,,,,,,,,,,,
,,65ba64c07847d4c34ec00de1,47,female,2024-04-24_12h36.25.384,stockport_simplified,2022.2.4,Win32,59.88023952,661e456ee6de07e70aa9ef7b,6628dfec3bb2e78332d6a8ea,,,,,,,,,,,,,,,,,,,,,,,,,,,,,,,,,,764.4246,766.4576,"[1,3,5,8,4,7,2,6]","[[-0.3,0.2],[0.3,0.2]]","[[-0.125,-0.2],[0.125,-0.2]]",0.124074074,-0.173148148,1,0,0,1.5162,o2_image,766.4591,1,766.9573,766.9574,768.9573,0,0,0,0,1,,,,,,,,,,,,,,,,,,,,,,,,,,,,,,,,,,,,,,,,,,,,,,,,,,
,,65ba64c07847d4c34ec00de1,47,female,2024-04-24_12h36.25.384,stockport_simplified,2022.2.4,Win32,59.88023952,661e456ee6de07e70aa9ef7b,6628dfec3bb2e78332d6a8ea,,,,,,,,,,,,,,,,,,,,,,,,,,,,,,,,,,,,,,,,,,,,,,,,,,,,,,,,1,24,84,57,1,N,M,D,o2_image,stimuli/out2.png,stimuli/out1.png,stimuli/correct_out2.png,,,,,,,,,,,,,,,,,,,,,,,,,,,,,,,,,,,,,,
,,65ba64c07847d4c34ec00de1,47,female,2024-04-24_12h36.25.384,stockport_simplified,2022.2.4,Win32,59.88023952,661e456ee6de07e70aa9ef7b,6628dfec3bb2e78332d6a8ea,,,,,,,,,,,,,,,,,,,,,,,,,,,,,,,,,,768.958,771.1697,"[1,3,5,8,4,7,2,6]","[[0.3,0.2],[-0.3,0.2]]","[[-0.125,-0.2],[0.125,-0.2]]",-0.075925926,-0.181481481,1,0,0,1.695,o1_image,771.171,1,771.674,771.6741,773.6741,0,0,0,0,1,,,,,,,,,,,,,,,,,,,,,,,,,,,,,,,,,,,,,,,,,,,,,,,,,,
,,65ba64c07847d4c34ec00de1,47,female,2024-04-24_12h36.25.384,stockport_simplified,2022.2.4,Win32,59.88023952,661e456ee6de07e70aa9ef7b,6628dfec3bb2e78332d6a8ea,,,,,,,,,,,,,,,,,,,,,,,,,,,,,,,,,,,,,,,,,,,,,,,,,,,,,,,,1,25,85,36,1,A,Y,N,o1_image,stimuli/out1.png,stimuli/correct_out1.png,stimuli/out2.png,,,,,,,,,,,,,,,,,,,,,,,,,,,,,,,,,,,,,,
,,65ba64c07847d4c34ec00de1,47,female,2024-04-24_12h36.25.384,stockport_simplified,2022.2.4,Win32,59.88023952,661e456ee6de07e70aa9ef7b,6628dfec3bb2e78332d6a8ea,,,,,,,,,,,,,,,,,,,,,,,,,,,,,,,,,,773.6749,776.3618,"[1,3,5,8,4,7,2,6]","[[-0.3,0.2],[0.3,0.2]]","[[-0.125,-0.2],[0.125,-0.2]]",0.080555556,-0.175925926,1,0,0,2.1705,o2_image,776.363,1,776.8574,776.8574,778.8572,0,0,0,0,1,,,,,,,,,,,,,,,,,,,,,,,,,,,,,,,,,,,,,,,,,,,,,,,,,,
,,65ba64c07847d4c34ec00de1,47,female,2024-04-24_12h36.25.384,stockport_simplified,2022.2.4,Win32,59.88023952,661e456ee6de07e70aa9ef7b,6628dfec3bb2e78332d6a8ea,,,,,,,,,,,,,,,,,,,,,,,,,,,,,,,,,,,,,,,,,,,,,,,,,,,,,,,,1,26,86,17,1,B,Y,N,o2_image,stimuli/out2.png,stimuli/out1.png,stimuli/correct_out2.png,,,,,,,,,,,,,,,,,,,,,,,,,,,,,,,,,,,,,,
,,65ba64c07847d4c34ec00de1,47,female,2024-04-24_12h36.25.384,stockport_simplified,2022.2.4,Win32,59.88023952,661e456ee6de07e70aa9ef7b,6628dfec3bb2e78332d6a8ea,,,,,,,,,,,,,,,,,,,,,,,,,,,,,,,,,,778.858,782.4032,"[1,3,5,8,4,7,2,6]","[[-0.3,0.2],[0.3,0.2]]","[[0.125,-0.2],[-0.125,-0.2]]",0.136111111,-0.175925926,1,0,0,3.0284,o1_image,782.4046,1,782.9073,782.9074,784.9073,0,0,0,0,1,,,,,,,,,,,,,,,,,,,,,,,,,,,,,,,,,,,,,,,,,,,,,,,,,,
,,65ba64c07847d4c34ec00de1,47,female,2024-04-24_12h36.25.384,stockport_simplified,2022.2.4,Win32,59.88023952,661e456ee6de07e70aa9ef7b,6628dfec3bb2e78332d6a8ea,,,,,,,,,,,,,,,,,,,,,,,,,,,,,,,,,,,,,,,,,,,,,,,,,,,,,,,,1,27,87,1,1,A,X,N,o1_image,stimuli/out1.png,stimuli/correct_out1.png,stimuli/out2.png,,,,,,,,,,,,,,,,,,,,,,,,,,,,,,,,,,,,,,
,,65ba64c07847d4c34ec00de1,47,female,2024-04-24_12h36.25.384,stockport_simplified,2022.2.4,Win32,59.88023952,661e456ee6de07e70aa9ef7b,6628dfec3bb2e78332d6a8ea,,,,,,,,,,,,,,,,,,,,,,,,,,,,,,,,,,784.908,789.241,"[1,3,5,8,4,7,2,6]","[[0.3,0.2],[-0.3,0.2]]","[[0.125,-0.2],[-0.125,-0.2]]",0.136111111,-0.175925926,1,0,0,3.8152,o1_image,789.2575,1,789.7579,789.758,791.7577,0,0,0,0,1,,,,,,,,,,,,,,,,,,,,,,,,,,,,,,,,,,,,,,,,,,,,,,,,,,
,,65ba64c07847d4c34ec00de1,47,female,2024-04-24_12h36.25.384,stockport_simplified,2022.2.4,Win32,59.88023952,661e456ee6de07e70aa9ef7b,6628dfec3bb2e78332d6a8ea,,,,,,,,,,,,,,,,,,,,,,,,,,,,,,,,,,,,,,,,,,,,,,,,,,,,,,,,1,28,88,21,1,N,M,C,o1_image,stimuli/out1.png,stimuli/correct_out1.png,stimuli/out2.png,,,,,,,,,,,,,,,,,,,,,,,,,,,,,,,,,,,,,,
,,65ba64c07847d4c34ec00de1,47,female,2024-04-24_12h36.25.384,stockport_simplified,2022.2.4,Win32,59.88023952,661e456ee6de07e70aa9ef7b,6628dfec3bb2e78332d6a8ea,,,,,,,,,,,,,,,,,,,,,,,,,,,,,,,,,,791.759,794.2248,"[1,3,5,8,4,7,2,6]","[[0.3,0.2],[-0.3,0.2]]","[[-0.125,-0.2],[0.125,-0.2]]",0.136111111,-0.175925926,1,0,0,1.9483,o2_image,794.2268,1,794.7326,794.7326,796.7246,0,0,0,0,1,,,,,,,,,,,,,,,,,,,,,,,,,,,,,,,,,,,,,,,,,,,,,,,,,,
,,65ba64c07847d4c34ec00de1,47,female,2024-04-24_12h36.25.384,stockport_simplified,2022.2.4,Win32,59.88023952,661e456ee6de07e70aa9ef7b,6628dfec3bb2e78332d6a8ea,,,,,,,,,,,,,,,,,,,,,,,,,,,,,,,,,,,,,,,,,,,,,,,,,,,,,,,,1,29,89,19,1,B,Y,N,o2_image,stimuli/out2.png,stimuli/out1.png,stimuli/correct_out2.png,,,,,,,,,,,,,,,,,,,,,,,,,,,,,,,,,,,,,,
,,65ba64c07847d4c34ec00de1,47,female,2024-04-24_12h36.25.384,stockport_simplified,2022.2.4,Win32,59.88023952,661e456ee6de07e70aa9ef7b,6628dfec3bb2e78332d6a8ea,,,,,,,,,,,,,,,,,,,,,,,,,,,,,,,,,,796.7259,800.1761,"[1,3,5,8,4,7,2,6]","[[0.3,0.2],[-0.3,0.2]]","[[-0.125,-0.2],[0.125,-0.2]]",-0.139814815,-0.192592593,1,0,0,2.9336,o1_image,800.1785,1,800.6674,800.6675,802.6555,0,0,0,0,1,,,,,,,,,,,,,,,,,,,,,,,,,,,,,,,,,,,,,,,,,,,,,,,,,,
,,65ba64c07847d4c34ec00de1,47,female,2024-04-24_12h36.25.384,stockport_simplified,2022.2.4,Win32,59.88023952,661e456ee6de07e70aa9ef7b,6628dfec3bb2e78332d6a8ea,,,,,,,,,,,,,,,,,,,,,,,,,,,,,,,,,,,,,,,,,,,,,,,,,,,,,,,,1,30,90,9,1,A,Y,N,o1_image,stimuli/out1.png,stimuli/correct_out1.png,stimuli/out2.png,,,,,,,,,,,,,,,,,,,,,,,,,,,,,,,,,,,,,,
,,65ba64c07847d4c34ec00de1,47,female,2024-04-24_12h36.25.384,stockport_simplified,2022.2.4,Win32,59.88023952,661e456ee6de07e70aa9ef7b,6628dfec3bb2e78332d6a8ea,,,,,,,,,,,,,,,,,,,,,,,,,,,,,,,,,,802.6563,804.3579,"[1,3,5,8,4,7,2,6]","[[-0.3,0.2],[0.3,0.2]]","[[-0.125,-0.2],[0.125,-0.2]]",-0.125,-0.203703704,1,0,0,1.1995,o1_image,804.3603,1,804.851,804.8511,806.8406,0,0,0,0,1,,,,,,,,,,,,,,,,,,,,,,,,,,,,,,,,,,,,,,,,,,,,,,,,,,
,,65ba64c07847d4c34ec00de1,47,female,2024-04-24_12h36.25.384,stockport_simplified,2022.2.4,Win32,59.88023952,661e456ee6de07e70aa9ef7b,6628dfec3bb2e78332d6a8ea,,,,,,,,,,,,,,,,,,,,,,,,,,,,,,,,,,,,,,,,,,,,,,,,,,,,,,,,1,31,91,38,1,A,Y,N,o1_image,stimuli/out1.png,stimuli/correct_out1.png,stimuli/out2.png,,,,,,,,,,,,,,,,,,,,,,,,,,,,,,,,,,,,,,
,,65ba64c07847d4c34ec00de1,47,female,2024-04-24_12h36.25.384,stockport_simplified,2022.2.4,Win32,59.88023952,661e456ee6de07e70aa9ef7b,6628dfec3bb2e78332d6a8ea,,,,,,,,,,,,,,,,,,,,,,,,,,,,,,,,,,806.8417,809.0858,"[1,3,5,8,4,7,2,6]","[[-0.3,0.2],[0.3,0.2]]","[[-0.125,-0.2],[0.125,-0.2]]",0.124074074,-0.176851852,1,0,0,1.7265,o2_image,809.087,1,809.6022,809.6023,811.5905,0,0,0,0,1,,,,,,,,,,,,,,,,,,,,,,,,,,,,,,,,,,,,,,,,,,,,,,,,,,
,,65ba64c07847d4c34ec00de1,47,female,2024-04-24_12h36.25.384,stockport_simplified,2022.2.4,Win32,59.88023952,661e456ee6de07e70aa9ef7b,6628dfec3bb2e78332d6a8ea,,,,,,,,,,,,,,,,,,,,,,,,,,,,,,,,,,,,,,,,,,,,,,,,,,,,,,,,1,32,92,43,1,B,X,N,o2_image,stimuli/out2.png,stimuli/out1.png,stimuli/correct_out2.png,,,,,,,,,,,,,,,,,,,,,,,,,,,,,,,,,,,,,,
,,65ba64c07847d4c34ec00de1,47,female,2024-04-24_12h36.25.384,stockport_simplified,2022.2.4,Win32,59.88023952,661e456ee6de07e70aa9ef7b,6628dfec3bb2e78332d6a8ea,,,,,,,,,,,,,,,,,,,,,,,,,,,,,,,,,,811.5912,813.8742,"[1,3,5,8,4,7,2,6]","[[-0.3,0.2],[0.3,0.2]]","[[-0.125,-0.2],[0.125,-0.2]]",-0.106481481,-0.176851852,1,0,0,1.7665,o1_image,813.8756,1,814.374,814.3741,816.3724,0,0,0,0,1,,,,,,,,,,,,,,,,,,,,,,,,,,,,,,,,,,,,,,,,,,,,,,,,,,
,,65ba64c07847d4c34ec00de1,47,female,2024-04-24_12h36.25.384,stockport_simplified,2022.2.4,Win32,59.88023952,661e456ee6de07e70aa9ef7b,6628dfec3bb2e78332d6a8ea,,,,,,,,,,,,,,,,,,,,,,,,,,,,,,,,,,,,,,,,,,,,,,,,,,,,,,,,1,33,93,30,1,A,X,N,o1_image,stimuli/out1.png,stimuli/correct_out1.png,stimuli/out2.png,,,,,,,,,,,,,,,,,,,,,,,,,,,,,,,,,,,,,,
,,65ba64c07847d4c34ec00de1,47,female,2024-04-24_12h36.25.384,stockport_simplified,2022.2.4,Win32,59.88023952,661e456ee6de07e70aa9ef7b,6628dfec3bb2e78332d6a8ea,,,,,,,,,,,,,,,,,,,,,,,,,,,,,,,,,,816.3758,818.3915,"[1,3,5,8,4,7,2,6]","[[0.3,0.2],[-0.3,0.2]]","[[0.125,-0.2],[-0.125,-0.2]]",0.125,-0.158333333,1,0,0,1.5002,o1_image,818.3929,1,818.8912,818.8913,820.8913,0,0,0,0,1,,,,,,,,,,,,,,,,,,,,,,,,,,,,,,,,,,,,,,,,,,,,,,,,,,
,,65ba64c07847d4c34ec00de1,47,female,2024-04-24_12h36.25.384,stockport_simplified,2022.2.4,Win32,59.88023952,661e456ee6de07e70aa9ef7b,6628dfec3bb2e78332d6a8ea,,,,,,,,,,,,,,,,,,,,,,,,,,,,,,,,,,,,,,,,,,,,,,,,,,,,,,,,1,34,94,3,1,A,X,N,o1_image,stimuli/out1.png,stimuli/correct_out1.png,stimuli/out2.png,,,,,,,,,,,,,,,,,,,,,,,,,,,,,,,,,,,,,,
,,65ba64c07847d4c34ec00de1,47,female,2024-04-24_12h36.25.384,stockport_simplified,2022.2.4,Win32,59.88023952,661e456ee6de07e70aa9ef7b,6628dfec3bb2e78332d6a8ea,,,,,,,,,,,,,,,,,,,,,,,,,,,,,,,,,,820.8925,827.6886,"[1,3,5,8,4,7,2,6]","[[0.3,0.2],[-0.3,0.2]]","[[-0.125,-0.2],[0.125,-0.2]]",-0.084259259,-0.190740741,1,0,0,6.2794,o1_image,827.7044,1,828.1946,828.1948,830.1914,0,0,0,0,1,,,,,,,,,,,,,,,,,,,,,,,,,,,,,,,,,,,,,,,,,,,,,,,,,,
,,65ba64c07847d4c34ec00de1,47,female,2024-04-24_12h36.25.384,stockport_simplified,2022.2.4,Win32,59.88023952,661e456ee6de07e70aa9ef7b,6628dfec3bb2e78332d6a8ea,,,,,,,,,,,,,,,,,,,,,,,,,,,,,,,,,,,,,,,,,,,,,,,,,,,,,,,,1,35,95,7,1,A,Y,N,o1_image,stimuli/out1.png,stimuli/correct_out1.png,stimuli/out2.png,,,,,,,,,,,,,,,,,,,,,,,,,,,,,,,,,,,,,,
,,65ba64c07847d4c34ec00de1,47,female,2024-04-24_12h36.25.384,stockport_simplified,2022.2.4,Win32,59.88023952,661e456ee6de07e70aa9ef7b,6628dfec3bb2e78332d6a8ea,,,,,,,,,,,,,,,,,,,,,,,,,,,,,,,,,,830.193,831.9215,"[1,3,5,8,4,7,2,6]","[[0.3,0.2],[-0.3,0.2]]","[[-0.125,-0.2],[0.125,-0.2]]",-0.122222222,-0.19537037,1,0,0,1.2119,o1_image,831.9244,1,832.4385,832.4386,834.4419,0,0,0,0,1,,,,,,,,,,,,,,,,,,,,,,,,,,,,,,,,,,,,,,,,,,,,,,,,,,
,,65ba64c07847d4c34ec00de1,47,female,2024-04-24_12h36.25.384,stockport_simplified,2022.2.4,Win32,59.88023952,661e456ee6de07e70aa9ef7b,6628dfec3bb2e78332d6a8ea,,,,,,,,,,,,,,,,,,,,,,,,,,,,,,,,,,,,,,,,,,,,,,,,,,,,,,,,1,36,96,20,1,N,M,C,o1_image,stimuli/out1.png,stimuli/correct_out1.png,stimuli/out2.png,,,,,,,,,,,,,,,,,,,,,,,,,,,,,,,,,,,,,,
,,65ba64c07847d4c34ec00de1,47,female,2024-04-24_12h36.25.384,stockport_simplified,2022.2.4,Win32,59.88023952,661e456ee6de07e70aa9ef7b,6628dfec3bb2e78332d6a8ea,,,,,,,,,,,,,,,,,,,,,,,,,,,,,,,,,,834.4435,837.0249,"[1,3,5,8,4,7,2,6]","[[0.3,0.2],[-0.3,0.2]]","[[0.125,-0.2],[-0.125,-0.2]]",0.1,-0.175925926,1,0,0,2.0658,o1_image,837.0504,0,837.5409,837.5409,839.5412,0,0,0,0,1,,,,,,,,,,,,,,,,,,,,,,,,,,,,,,,,,,,,,,,,,,,,,,,,,,
,,65ba64c07847d4c34ec00de1,47,female,2024-04-24_12h36.25.384,stockport_simplified,2022.2.4,Win32,59.88023952,661e456ee6de07e70aa9ef7b,6628dfec3bb2e78332d6a8ea,,,,,,,,,,,,,,,,,,,,,,,,,,,,,,,,,,,,,,,,,,,,,,,,,,,,,,,,1,37,97,59,1,N,M,D,o2_image,stimuli/out2.png,stimuli/out1.png,stimuli/correct_out2.png,,,,,,,,,,,,,,,,,,,,,,,,,,,,,,,,,,,,,,
,,65ba64c07847d4c34ec00de1,47,female,2024-04-24_12h36.25.384,stockport_simplified,2022.2.4,Win32,59.88023952,661e456ee6de07e70aa9ef7b,6628dfec3bb2e78332d6a8ea,,,,,,,,,,,,,,,,,,,,,,,,,,,,,,,,,,839.5426,841.4881,"[1,3,5,8,4,7,2,6]","[[0.3,0.2],[-0.3,0.2]]","[[-0.125,-0.2],[0.125,-0.2]]",-0.147222222,-0.213888889,1,0,0,1.4292,o1_image,841.4895,1,842.0082,842.0082,844.0074,0,0,0,0,1,,,,,,,,,,,,,,,,,,,,,,,,,,,,,,,,,,,,,,,,,,,,,,,,,,
,,65ba64c07847d4c34ec00de1,47,female,2024-04-24_12h36.25.384,stockport_simplified,2022.2.4,Win32,59.88023952,661e456ee6de07e70aa9ef7b,6628dfec3bb2e78332d6a8ea,,,,,,,,,,,,,,,,,,,,,,,,,,,,,,,,,,,,,,,,,,,,,,,,,,,,,,,,1,38,98,52,1,N,M,C,o1_image,stimuli/out1.png,stimuli/correct_out1.png,stimuli/out2.png,,,,,,,,,,,,,,,,,,,,,,,,,,,,,,,,,,,,,,
,,65ba64c07847d4c34ec00de1,47,female,2024-04-24_12h36.25.384,stockport_simplified,2022.2.4,Win32,59.88023952,661e456ee6de07e70aa9ef7b,6628dfec3bb2e78332d6a8ea,,,,,,,,,,,,,,,,,,,,,,,,,,,,,,,,,,844.0082,846.0578,"[1,3,5,8,4,7,2,6]","[[-0.3,0.2],[0.3,0.2]]","[[-0.125,-0.2],[0.125,-0.2]]",-0.111111111,-0.207407407,1,0,0,1.5479,o1_image,846.0603,1,846.5582,846.5583,848.5583,0,0,0,0,1,,,,,,,,,,,,,,,,,,,,,,,,,,,,,,,,,,,,,,,,,,,,,,,,,,
,,65ba64c07847d4c34ec00de1,47,female,2024-04-24_12h36.25.384,stockport_simplified,2022.2.4,Win32,59.88023952,661e456ee6de07e70aa9ef7b,6628dfec3bb2e78332d6a8ea,,,,,,,,,,,,,,,,,,,,,,,,,,,,,,,,,,,,,,,,,,,,,,,,,,,,,,,,1,39,99,5,1,A,Y,N,o1_image,stimuli/out1.png,stimuli/correct_out1.png,stimuli/out2.png,,,,,,,,,,,,,,,,,,,,,,,,,,,,,,,,,,,,,,
,,65ba64c07847d4c34ec00de1,47,female,2024-04-24_12h36.25.384,stockport_simplified,2022.2.4,Win32,59.88023952,661e456ee6de07e70aa9ef7b,6628dfec3bb2e78332d6a8ea,,,,,,,,,,,,,,,,,,,,,,,,,,,,,,,,,,848.5595,850.8554,"[1,3,5,8,4,7,2,6]","[[0.3,0.2],[-0.3,0.2]]","[[-0.125,-0.2],[0.125,-0.2]]",0.127777778,-0.198148148,1,0,0,1.78,o2_image,850.8576,1,851.358,851.3581,853.3487,0,0,0,0,1,,,,,,,,,,,,,,,,,,,,,,,,,,,,,,,,,,,,,,,,,,,,,,,,,,
,,65ba64c07847d4c34ec00de1,47,female,2024-04-24_12h36.25.384,stockport_simplified,2022.2.4,Win32,59.88023952,661e456ee6de07e70aa9ef7b,6628dfec3bb2e78332d6a8ea,,,,,,,,,,,,,,,,,,,,,,,,,,,,,,,,,,,,,,,,,,,,,,,,,,,,,,,,1,40,100,15,1,B,Y,N,o2_image,stimuli/out2.png,stimuli/out1.png,stimuli/correct_out2.png,,,,,,,,,,,,,,,,,,,,,,,,,,,,,,,,,,,,,,
,,65ba64c07847d4c34ec00de1,47,female,2024-04-24_12h36.25.384,stockport_simplified,2022.2.4,Win32,59.88023952,661e456ee6de07e70aa9ef7b,6628dfec3bb2e78332d6a8ea,,,,,,,,,,,,,,,,,,,,,,,,,,,,,,,,,,853.3499,857.1121,"[1,3,5,8,4,7,2,6]","[[0.3,0.2],[-0.3,0.2]]","[[0.125,-0.2],[-0.125,-0.2]]",-0.152777778,-0.214814815,1,0,0,3.245,o2_image,857.1511,1,857.6524,857.6524,859.6413,0,0,0,0,1,,,,,,,,,,,,,,,,,,,,,,,,,,,,,,,,,,,,,,,,,,,,,,,,,,
,,65ba64c07847d4c34ec00de1,47,female,2024-04-24_12h36.25.384,stockport_simplified,2022.2.4,Win32,59.88023952,661e456ee6de07e70aa9ef7b,6628dfec3bb2e78332d6a8ea,,,,,,,,,,,,,,,,,,,,,,,,,,,,,,,,,,,,,,,,,,,,,,,,,,,,,,,,1,41,101,47,1,B,Y,N,o2_image,stimuli/out2.png,stimuli/out1.png,stimuli/correct_out2.png,,,,,,,,,,,,,,,,,,,,,,,,,,,,,,,,,,,,,,
,,65ba64c07847d4c34ec00de1,47,female,2024-04-24_12h36.25.384,stockport_simplified,2022.2.4,Win32,59.88023952,661e456ee6de07e70aa9ef7b,6628dfec3bb2e78332d6a8ea,,,,,,,,,,,,,,,,,,,,,,,,,,,,,,,,,,859.6428,862.0768,"[1,3,5,8,4,7,2,6]","[[0.3,0.2],[-0.3,0.2]]","[[0.125,-0.2],[-0.125,-0.2]]",-0.12962963,-0.212037037,1,0,0,1.9064,o2_image,862.079,1,862.5717,862.5718,864.575,0,0,0,0,1,,,,,,,,,,,,,,,,,,,,,,,,,,,,,,,,,,,,,,,,,,,,,,,,,,
,,65ba64c07847d4c34ec00de1,47,female,2024-04-24_12h36.25.384,stockport_simplified,2022.2.4,Win32,59.88023952,661e456ee6de07e70aa9ef7b,6628dfec3bb2e78332d6a8ea,,,,,,,,,,,,,,,,,,,,,,,,,,,,,,,,,,,,,,,,,,,,,,,,,,,,,,,,1,42,102,12,1,B,X,N,o2_image,stimuli/out2.png,stimuli/out1.png,stimuli/correct_out2.png,,,,,,,,,,,,,,,,,,,,,,,,,,,,,,,,,,,,,,
,,65ba64c07847d4c34ec00de1,47,female,2024-04-24_12h36.25.384,stockport_simplified,2022.2.4,Win32,59.88023952,661e456ee6de07e70aa9ef7b,6628dfec3bb2e78332d6a8ea,,,,,,,,,,,,,,,,,,,,,,,,,,,,,,,,,,864.5762,866.2918,"[1,3,5,8,4,7,2,6]","[[0.3,0.2],[-0.3,0.2]]","[[0.125,-0.2],[-0.125,-0.2]]",-0.12962963,-0.212037037,1,0,0,1.2,o2_image,866.2942,1,866.7933,866.7934,868.7911,0,0,0,0,1,,,,,,,,,,,,,,,,,,,,,,,,,,,,,,,,,,,,,,,,,,,,,,,,,,
,,65ba64c07847d4c34ec00de1,47,female,2024-04-24_12h36.25.384,stockport_simplified,2022.2.4,Win32,59.88023952,661e456ee6de07e70aa9ef7b,6628dfec3bb2e78332d6a8ea,,,,,,,,,,,,,,,,,,,,,,,,,,,,,,,,,,,,,,,,,,,,,,,,,,,,,,,,1,43,103,44,1,B,X,N,o2_image,stimuli/out2.png,stimuli/out1.png,stimuli/correct_out2.png,,,,,,,,,,,,,,,,,,,,,,,,,,,,,,,,,,,,,,
,,65ba64c07847d4c34ec00de1,47,female,2024-04-24_12h36.25.384,stockport_simplified,2022.2.4,Win32,59.88023952,661e456ee6de07e70aa9ef7b,6628dfec3bb2e78332d6a8ea,,,,,,,,,,,,,,,,,,,,,,,,,,,,,,,,,,868.7925,871.333,"[1,3,5,8,4,7,2,6]","[[-0.3,0.2],[0.3,0.2]]","[[-0.125,-0.2],[0.125,-0.2]]",0.063888889,-0.186111111,1,0,0,2.0232,o2_image,871.3639,1,871.853,871.8531,873.8441,0,0,0,0,1,,,,,,,,,,,,,,,,,,,,,,,,,,,,,,,,,,,,,,,,,,,,,,,,,,
,,65ba64c07847d4c34ec00de1,47,female,2024-04-24_12h36.25.384,stockport_simplified,2022.2.4,Win32,59.88023952,661e456ee6de07e70aa9ef7b,6628dfec3bb2e78332d6a8ea,,,,,,,,,,,,,,,,,,,,,,,,,,,,,,,,,,,,,,,,,,,,,,,,,,,,,,,,1,44,104,58,1,N,M,D,o2_image,stimuli/out2.png,stimuli/out1.png,stimuli/correct_out2.png,,,,,,,,,,,,,,,,,,,,,,,,,,,,,,,,,,,,,,
,,65ba64c07847d4c34ec00de1,47,female,2024-04-24_12h36.25.384,stockport_simplified,2022.2.4,Win32,59.88023952,661e456ee6de07e70aa9ef7b,6628dfec3bb2e78332d6a8ea,,,,,,,,,,,,,,,,,,,,,,,,,,,,,,,,,,873.8451,875.7907,"[1,3,5,8,4,7,2,6]","[[0.3,0.2],[-0.3,0.2]]","[[-0.125,-0.2],[0.125,-0.2]]",0.126851852,-0.2,1,0,0,1.4369,o2_image,875.7923,1,876.2906,876.2906,878.2906,0,0,0,0,1,,,,,,,,,,,,,,,,,,,,,,,,,,,,,,,,,,,,,,,,,,,,,,,,,,
,,65ba64c07847d4c34ec00de1,47,female,2024-04-24_12h36.25.384,stockport_simplified,2022.2.4,Win32,59.88023952,661e456ee6de07e70aa9ef7b,6628dfec3bb2e78332d6a8ea,,,,,,,,,,,,,,,,,,,,,,,,,,,,,,,,,,,,,,,,,,,,,,,,,,,,,,,,1,45,105,46,1,B,Y,N,o2_image,stimuli/out2.png,stimuli/out1.png,stimuli/correct_out2.png,,,,,,,,,,,,,,,,,,,,,,,,,,,,,,,,,,,,,,
,,65ba64c07847d4c34ec00de1,47,female,2024-04-24_12h36.25.384,stockport_simplified,2022.2.4,Win32,59.88023952,661e456ee6de07e70aa9ef7b,6628dfec3bb2e78332d6a8ea,,,,,,,,,,,,,,,,,,,,,,,,,,,,,,,,,,878.2914,883.6363,"[1,3,5,8,4,7,2,6]","[[-0.3,0.2],[0.3,0.2]]","[[0.125,-0.2],[-0.125,-0.2]]",0.191666667,-0.207407407,1,0,0,4.8364,o1_image,883.6532,1,884.1572,884.1573,886.1571,0,0,0,0,1,,,,,,,,,,,,,,,,,,,,,,,,,,,,,,,,,,,,,,,,,,,,,,,,,,
,,65ba64c07847d4c34ec00de1,47,female,2024-04-24_12h36.25.384,stockport_simplified,2022.2.4,Win32,59.88023952,661e456ee6de07e70aa9ef7b,6628dfec3bb2e78332d6a8ea,,,,,,,,,,,,,,,,,,,,,,,,,,,,,,,,,,,,,,,,,,,,,,,,,,,,,,,,1,46,106,2,1,A,X,N,o1_image,stimuli/out1.png,stimuli/correct_out1.png,stimuli/out2.png,,,,,,,,,,,,,,,,,,,,,,,,,,,,,,,,,,,,,,
,,65ba64c07847d4c34ec00de1,47,female,2024-04-24_12h36.25.384,stockport_simplified,2022.2.4,Win32,59.88023952,661e456ee6de07e70aa9ef7b,6628dfec3bb2e78332d6a8ea,,,,,,,,,,,,,,,,,,,,,,,,,,,,,,,,,,886.1578,888.774,"[1,3,5,8,4,7,2,6]","[[0.3,0.2],[-0.3,0.2]]","[[0.125,-0.2],[-0.125,-0.2]]",-0.112037037,-0.22037037,1,0,0,2.0997,o2_image,888.7756,1,889.2737,889.2738,891.2739,0,0,0,0,1,,,,,,,,,,,,,,,,,,,,,,,,,,,,,,,,,,,,,,,,,,,,,,,,,,
,,65ba64c07847d4c34ec00de1,47,female,2024-04-24_12h36.25.384,stockport_simplified,2022.2.4,Win32,59.88023952,661e456ee6de07e70aa9ef7b,6628dfec3bb2e78332d6a8ea,,,,,,,,,,,,,,,,,,,,,,,,,,,,,,,,,,,,,,,,,,,,,,,,,,,,,,,,1,47,107,16,1,B,Y,N,o2_image,stimuli/out2.png,stimuli/out1.png,stimuli/correct_out2.png,,,,,,,,,,,,,,,,,,,,,,,,,,,,,,,,,,,,,,
,,65ba64c07847d4c34ec00de1,47,female,2024-04-24_12h36.25.384,stockport_simplified,2022.2.4,Win32,59.88023952,661e456ee6de07e70aa9ef7b,6628dfec3bb2e78332d6a8ea,,,,,,,,,,,,,,,,,,,,,,,,,,,,,,,,,,891.2747,893.2278,"[1,3,5,8,4,7,2,6]","[[0.3,0.2],[-0.3,0.2]]","[[0.125,-0.2],[-0.125,-0.2]]",0.092592593,-0.187037037,1,0,0,1.4368,o1_image,893.2289,1,893.7244,893.7245,895.7237,0,0,0,0,1,,,,,,,,,,,,,,,,,,,,,,,,,,,,,,,,,,,,,,,,,,,,,,,,,,
,,65ba64c07847d4c34ec00de1,47,female,2024-04-24_12h36.25.384,stockport_simplified,2022.2.4,Win32,59.88023952,661e456ee6de07e70aa9ef7b,6628dfec3bb2e78332d6a8ea,,,,,,,,,,,,,,,,,,,,,,,,,,,,,,,,,,,,,,,,,,,,,,,,,,,,,,,,1,48,108,35,1,A,Y,N,o1_image,stimuli/out1.png,stimuli/correct_out1.png,stimuli/out2.png,,,,,,,,,,,,,,,,,,,,,,,,,,,,,,,,,,,,,,
,,65ba64c07847d4c34ec00de1,47,female,2024-04-24_12h36.25.384,stockport_simplified,2022.2.4,Win32,59.88023952,661e456ee6de07e70aa9ef7b,6628dfec3bb2e78332d6a8ea,,,,,,,,,,,,,,,,,,,,,,,,,,,,,,,,,,895.7244,897.8072,"[1,3,5,8,4,7,2,6]","[[0.3,0.2],[-0.3,0.2]]","[[0.125,-0.2],[-0.125,-0.2]]",0.122222222,-0.191666667,1,0,0,1.5667,o1_image,897.8086,1,898.3071,898.3072,900.307,0,0,0,0,1,,,,,,,,,,,,,,,,,,,,,,,,,,,,,,,,,,,,,,,,,,,,,,,,,,
,,65ba64c07847d4c34ec00de1,47,female,2024-04-24_12h36.25.384,stockport_simplified,2022.2.4,Win32,59.88023952,661e456ee6de07e70aa9ef7b,6628dfec3bb2e78332d6a8ea,,,,,,,,,,,,,,,,,,,,,,,,,,,,,,,,,,,,,,,,,,,,,,,,,,,,,,,,1,49,109,39,1,A,Y,N,o1_image,stimuli/out1.png,stimuli/correct_out1.png,stimuli/out2.png,,,,,,,,,,,,,,,,,,,,,,,,,,,,,,,,,,,,,,
,,65ba64c07847d4c34ec00de1,47,female,2024-04-24_12h36.25.384,stockport_simplified,2022.2.4,Win32,59.88023952,661e456ee6de07e70aa9ef7b,6628dfec3bb2e78332d6a8ea,,,,,,,,,,,,,,,,,,,,,,,,,,,,,,,,,,900.3077,901.9071,"[1,3,5,8,4,7,2,6]","[[-0.3,0.2],[0.3,0.2]]","[[0.125,-0.2],[-0.125,-0.2]]",-0.101851852,-0.19537037,1,0,0,1.0826,o2_image,901.9086,1,902.4071,902.4072,904.4072,0,0,0,0,1,,,,,,,,,,,,,,,,,,,,,,,,,,,,,,,,,,,,,,,,,,,,,,,,,,
,,65ba64c07847d4c34ec00de1,47,female,2024-04-24_12h36.25.384,stockport_simplified,2022.2.4,Win32,59.88023952,661e456ee6de07e70aa9ef7b,6628dfec3bb2e78332d6a8ea,,,,,,,,,,,,,,,,,,,,,,,,,,,,,,,,,,,,,,,,,,,,,,,,,,,,,,,,1,50,110,27,1,N,M,D,o2_image,stimuli/out2.png,stimuli/out1.png,stimuli/correct_out2.png,,,,,,,,,,,,,,,,,,,,,,,,,,,,,,,,,,,,,,
,,65ba64c07847d4c34ec00de1,47,female,2024-04-24_12h36.25.384,stockport_simplified,2022.2.4,Win32,59.88023952,661e456ee6de07e70aa9ef7b,6628dfec3bb2e78332d6a8ea,,,,,,,,,,,,,,,,,,,,,,,,,,,,,,,,,,904.408,906.3742,"[1,3,5,8,4,7,2,6]","[[-0.3,0.2],[0.3,0.2]]","[[0.125,-0.2],[-0.125,-0.2]]",-0.101851852,-0.19537037,1,0,0,1.4496,o2_image,906.3756,1,906.8738,906.8738,908.8738,0,0,0,0,1,,,,,,,,,,,,,,,,,,,,,,,,,,,,,,,,,,,,,,,,,,,,,,,,,,
,,65ba64c07847d4c34ec00de1,47,female,2024-04-24_12h36.25.384,stockport_simplified,2022.2.4,Win32,59.88023952,661e456ee6de07e70aa9ef7b,6628dfec3bb2e78332d6a8ea,,,,,,,,,,,,,,,,,,,,,,,,,,,,,,,,,,,,,,,,,,,,,,,,,,,,,,,,1,51,111,42,1,B,X,N,o2_image,stimuli/out2.png,stimuli/out1.png,stimuli/correct_out2.png,,,,,,,,,,,,,,,,,,,,,,,,,,,,,,,,,,,,,,
,,65ba64c07847d4c34ec00de1,47,female,2024-04-24_12h36.25.384,stockport_simplified,2022.2.4,Win32,59.88023952,661e456ee6de07e70aa9ef7b,6628dfec3bb2e78332d6a8ea,,,,,,,,,,,,,,,,,,,,,,,,,,,,,,,,,,908.8746,911.2905,"[1,3,5,8,4,7,2,6]","[[0.3,0.2],[-0.3,0.2]]","[[-0.125,-0.2],[0.125,-0.2]]",0.101851852,-0.190740741,1,0,0,1.8999,o2_image,911.3062,1,911.8072,911.8072,913.8072,0,0,0,0,1,,,,,,,,,,,,,,,,,,,,,,,,,,,,,,,,,,,,,,,,,,,,,,,,,,
,,65ba64c07847d4c34ec00de1,47,female,2024-04-24_12h36.25.384,stockport_simplified,2022.2.4,Win32,59.88023952,661e456ee6de07e70aa9ef7b,6628dfec3bb2e78332d6a8ea,,,,,,,,,,,,,,,,,,,,,,,,,,,,,,,,,,,,,,,,,,,,,,,,,,,,,,,,1,52,112,13,1,B,X,N,o2_image,stimuli/out2.png,stimuli/out1.png,stimuli/correct_out2.png,,,,,,,,,,,,,,,,,,,,,,,,,,,,,,,,,,,,,,
,,65ba64c07847d4c34ec00de1,47,female,2024-04-24_12h36.25.384,stockport_simplified,2022.2.4,Win32,59.88023952,661e456ee6de07e70aa9ef7b,6628dfec3bb2e78332d6a8ea,,,,,,,,,,,,,,,,,,,,,,,,,,,,,,,,,,913.808,915.7571,"[1,3,5,8,4,7,2,6]","[[0.3,0.2],[-0.3,0.2]]","[[-0.125,-0.2],[0.125,-0.2]]",-0.141666667,-0.198148148,1,0,0,1.4324,o1_image,915.7585,1,916.2571,916.2571,918.2574,0,0,0,0,1,,,,,,,,,,,,,,,,,,,,,,,,,,,,,,,,,,,,,,,,,,,,,,,,,,
,,65ba64c07847d4c34ec00de1,47,female,2024-04-24_12h36.25.384,stockport_simplified,2022.2.4,Win32,59.88023952,661e456ee6de07e70aa9ef7b,6628dfec3bb2e78332d6a8ea,,,,,,,,,,,,,,,,,,,,,,,,,,,,,,,,,,,,,,,,,,,,,,,,,,,,,,,,1,53,113,50,1,N,M,C,o1_image,stimuli/out1.png,stimuli/correct_out1.png,stimuli/out2.png,,,,,,,,,,,,,,,,,,,,,,,,,,,,,,,,,,,,,,
,,65ba64c07847d4c34ec00de1,47,female,2024-04-24_12h36.25.384,stockport_simplified,2022.2.4,Win32,59.88023952,661e456ee6de07e70aa9ef7b,6628dfec3bb2e78332d6a8ea,,,,,,,,,,,,,,,,,,,,,,,,,,,,,,,,,,918.2582,920.1695,"[1,3,5,8,4,7,2,6]","[[0.3,0.2],[-0.3,0.2]]","[[0.125,-0.2],[-0.125,-0.2]]",-0.09537037,-0.194444444,1,0,0,1.3949,o2_image,920.1708,1,920.6738,920.6739,922.6739,0,0,0,0,1,,,,,,,,,,,,,,,,,,,,,,,,,,,,,,,,,,,,,,,,,,,,,,,,,,
,,65ba64c07847d4c34ec00de1,47,female,2024-04-24_12h36.25.384,stockport_simplified,2022.2.4,Win32,59.88023952,661e456ee6de07e70aa9ef7b,6628dfec3bb2e78332d6a8ea,,,,,,,,,,,,,,,,,,,,,,,,,,,,,,,,,,,,,,,,,,,,,,,,,,,,,,,,1,54,114,10,1,B,X,N,o2_image,stimuli/out2.png,stimuli/out1.png,stimuli/correct_out2.png,,,,,,,,,,,,,,,,,,,,,,,,,,,,,,,,,,,,,,
,,65ba64c07847d4c34ec00de1,47,female,2024-04-24_12h36.25.384,stockport_simplified,2022.2.4,Win32,59.88023952,661e456ee6de07e70aa9ef7b,6628dfec3bb2e78332d6a8ea,,,,,,,,,,,,,,,,,,,,,,,,,,,,,,,,,,922.6746,924.7406,"[1,3,5,8,4,7,2,6]","[[-0.3,0.2],[0.3,0.2]]","[[-0.125,-0.2],[0.125,-0.2]]",-0.132407407,-0.194444444,1,0,0,1.5495,o1_image,924.742,1,925.2403,925.2404,927.2405,0,0,0,0,1,,,,,,,,,,,,,,,,,,,,,,,,,,,,,,,,,,,,,,,,,,,,,,,,,,
,,65ba64c07847d4c34ec00de1,47,female,2024-04-24_12h36.25.384,stockport_simplified,2022.2.4,Win32,59.88023952,661e456ee6de07e70aa9ef7b,6628dfec3bb2e78332d6a8ea,,,,,,,,,,,,,,,,,,,,,,,,,,,,,,,,,,,,,,,,,,,,,,,,,,,,,,,,1,55,115,8,1,A,Y,N,o1_image,stimuli/out1.png,stimuli/correct_out1.png,stimuli/out2.png,,,,,,,,,,,,,,,,,,,,,,,,,,,,,,,,,,,,,,
,,65ba64c07847d4c34ec00de1,47,female,2024-04-24_12h36.25.384,stockport_simplified,2022.2.4,Win32,59.88023952,661e456ee6de07e70aa9ef7b,6628dfec3bb2e78332d6a8ea,,,,,,,,,,,,,,,,,,,,,,,,,,,,,,,,,,927.2412,929.5573,"[1,3,5,8,4,7,2,6]","[[0.3,0.2],[-0.3,0.2]]","[[0.125,-0.2],[-0.125,-0.2]]",0.116666667,-0.189814815,1,0,0,1.7995,o1_image,929.5727,1,930.0738,930.0738,932.0736,0,0,0,0,1,,,,,,,,,,,,,,,,,,,,,,,,,,,,,,,,,,,,,,,,,,,,,,,,,,
,,65ba64c07847d4c34ec00de1,47,female,2024-04-24_12h36.25.384,stockport_simplified,2022.2.4,Win32,59.88023952,661e456ee6de07e70aa9ef7b,6628dfec3bb2e78332d6a8ea,,,,,,,,,,,,,,,,,,,,,,,,,,,,,,,,,,,,,,,,,,,,,,,,,,,,,,,,1,56,116,24,1,N,M,C,o1_image,stimuli/out1.png,stimuli/correct_out1.png,stimuli/out2.png,,,,,,,,,,,,,,,,,,,,,,,,,,,,,,,,,,,,,,
,,65ba64c07847d4c34ec00de1,47,female,2024-04-24_12h36.25.384,stockport_simplified,2022.2.4,Win32,59.88023952,661e456ee6de07e70aa9ef7b,6628dfec3bb2e78332d6a8ea,,,,,,,,,,,,,,,,,,,,,,,,,,,,,,,,,,932.0743,933.9574,"[1,3,5,8,4,7,2,6]","[[0.3,0.2],[-0.3,0.2]]","[[0.125,-0.2],[-0.125,-0.2]]",-0.115740741,-0.197222222,1,0,0,1.3663,o2_image,933.9588,1,934.4569,934.457,936.4571,0,0,0,0,1,,,,,,,,,,,,,,,,,,,,,,,,,,,,,,,,,,,,,,,,,,,,,,,,,,
,,65ba64c07847d4c34ec00de1,47,female,2024-04-24_12h36.25.384,stockport_simplified,2022.2.4,Win32,59.88023952,661e456ee6de07e70aa9ef7b,6628dfec3bb2e78332d6a8ea,,,,,,,,,,,,,,,,,,,,,,,,,,,,,,,,,,,,,,,,,,,,,,,,,,,,,,,,1,57,117,11,1,B,X,N,o2_image,stimuli/out2.png,stimuli/out1.png,stimuli/correct_out2.png,,,,,,,,,,,,,,,,,,,,,,,,,,,,,,,,,,,,,,
,,65ba64c07847d4c34ec00de1,47,female,2024-04-24_12h36.25.384,stockport_simplified,2022.2.4,Win32,59.88023952,661e456ee6de07e70aa9ef7b,6628dfec3bb2e78332d6a8ea,,,,,,,,,,,,,,,,,,,,,,,,,,,,,,,,,,936.4578,938.3747,"[1,3,5,8,4,7,2,6]","[[-0.3,0.2],[0.3,0.2]]","[[0.125,-0.2],[-0.125,-0.2]]",0.125925926,-0.185185185,1,0,0,1.4004,o1_image,938.3758,1,938.8737,938.8737,940.8738,0,0,0,0,1,,,,,,,,,,,,,,,,,,,,,,,,,,,,,,,,,,,,,,,,,,,,,,,,,,
,,65ba64c07847d4c34ec00de1,47,female,2024-04-24_12h36.25.384,stockport_simplified,2022.2.4,Win32,59.88023952,661e456ee6de07e70aa9ef7b,6628dfec3bb2e78332d6a8ea,,,,,,,,,,,,,,,,,,,,,,,,,,,,,,,,,,,,,,,,,,,,,,,,,,,,,,,,1,58,118,22,1,N,M,C,o1_image,stimuli/out1.png,stimuli/correct_out1.png,stimuli/out2.png,,,,,,,,,,,,,,,,,,,,,,,,,,,,,,,,,,,,,,
,,65ba64c07847d4c34ec00de1,47,female,2024-04-24_12h36.25.384,stockport_simplified,2022.2.4,Win32,59.88023952,661e456ee6de07e70aa9ef7b,6628dfec3bb2e78332d6a8ea,,,,,,,,,,,,,,,,,,,,,,,,,,,,,,,,,,940.8745,943.0108,"[1,3,5,8,4,7,2,6]","[[-0.3,0.2],[0.3,0.2]]","[[0.125,-0.2],[-0.125,-0.2]]",0.113888889,-0.184259259,1,0,0,1.6202,o1_image,943.0119,1,943.5071,943.5071,945.5071,0,0,0,0,1,,,,,,,,,,,,,,,,,,,,,,,,,,,,,,,,,,,,,,,,,,,,,,,,,,
,,65ba64c07847d4c34ec00de1,47,female,2024-04-24_12h36.25.384,stockport_simplified,2022.2.4,Win32,59.88023952,661e456ee6de07e70aa9ef7b,6628dfec3bb2e78332d6a8ea,,,,,,,,,,,,,,,,,,,,,,,,,,,,,,,,,,,,,,,,,,,,,,,,,,,,,,,,1,59,119,51,1,N,M,C,o1_image,stimuli/out1.png,stimuli/correct_out1.png,stimuli/out2.png,,,,,,,,,,,,,,,,,,,,,,,,,,,,,,,,,,,,,,
,,65ba64c07847d4c34ec00de1,47,female,2024-04-24_12h36.25.384,stockport_simplified,2022.2.4,Win32,59.88023952,661e456ee6de07e70aa9ef7b,6628dfec3bb2e78332d6a8ea,,,,,,,,,,,,,,,,,,,,,,,,,,,,,,,,,,945.5446,947.6024,"[1,3,5,8,4,7,2,6]","[[-0.3,0.2],[0.3,0.2]]","[[0.125,-0.2],[-0.125,-0.2]]",0.113888889,-0.184259259,1,0,0,1.5446,o1_image,947.6042,1,948.1071,948.1072,950.1069,,,,,,,,,,,,,,,,,,0,0,0,0,1,,,,,,,,,,,,,,,,,,,,,,,,,,,,,,,,,
,,65ba64c07847d4c34ec00de1,47,female,2024-04-24_12h36.25.384,stockport_simplified,2022.2.4,Win32,59.88023952,661e456ee6de07e70aa9ef7b,6628dfec3bb2e78332d6a8ea,,,,,,,,,,,,,,,,,,,,,,,,,,,,,,,,,,,,,,,,,,,,,,,,,,,,,,,,,,,,,A,Y,N,o1_image,stimuli/out1.png,stimuli/correct_out1.png,stimuli/out2.png,,,,,,0,0,0,14,1,,,,,,,,,,,,,,,,,,,,,,,,,,,,
,,65ba64c07847d4c34ec00de1,47,female,2024-04-24_12h36.25.384,stockport_simplified,2022.2.4,Win32,59.88023952,661e456ee6de07e70aa9ef7b,6628dfec3bb2e78332d6a8ea,,,,,,,,,,,,,,,,,,,,,,,,,,,,,,,,,,950.1082,951.9737,"[1,3,5,8,4,7,2,6]","[[0.3,0.2],[-0.3,0.2]]","[[0.125,-0.2],[-0.125,-0.2]]",-0.122222222,-0.193518519,1,0,0,1.3495,o2_image,951.9754,1,952.4736,952.4736,954.4739,,,,,,,,,,,,,,,,,,0,0,0,0,1,,,,,,,,,,,,,,,,,,,,,,,,,,,,,,,,,
,,65ba64c07847d4c34ec00de1,47,female,2024-04-24_12h36.25.384,stockport_simplified,2022.2.4,Win32,59.88023952,661e456ee6de07e70aa9ef7b,6628dfec3bb2e78332d6a8ea,,,,,,,,,,,,,,,,,,,,,,,,,,,,,,,,,,,,,,,,,,,,,,,,,,,,,,,,,,,,,N,M,D,o2_image,stimuli/out2.png,stimuli/out1.png,stimuli/correct_out2.png,,,,,,0,1,1,55,1,,,,,,,,,,,,,,,,,,,,,,,,,,,,
,,65ba64c07847d4c34ec00de1,47,female,2024-04-24_12h36.25.384,stockport_simplified,2022.2.4,Win32,59.88023952,661e456ee6de07e70aa9ef7b,6628dfec3bb2e78332d6a8ea,,,,,,,,,,,,,,,,,,,,,,,,,,,,,,,,,,954.4746,956.6737,"[1,3,5,8,4,7,2,6]","[[-0.3,0.2],[0.3,0.2]]","[[-0.125,-0.2],[0.125,-0.2]]",0.098148148,-0.192592593,1,0,0,1.6824,o2_image,956.6754,1,957.1737,957.1737,959.1736,,,,,,,,,,,,,,,,,,0,0,0,0,1,,,,,,,,,,,,,,,,,,,,,,,,,,,,,,,,,
,,65ba64c07847d4c34ec00de1,47,female,2024-04-24_12h36.25.384,stockport_simplified,2022.2.4,Win32,59.88023952,661e456ee6de07e70aa9ef7b,6628dfec3bb2e78332d6a8ea,,,,,,,,,,,,,,,,,,,,,,,,,,,,,,,,,,,,,,,,,,,,,,,,,,,,,,,,,,,,,B,Y,N,o2_image,stimuli/out2.png,stimuli/out1.png,stimuli/correct_out2.png,,,,,,0,2,2,33,1,,,,,,,,,,,,,,,,,,,,,,,,,,,,
,,65ba64c07847d4c34ec00de1,47,female,2024-04-24_12h36.25.384,stockport_simplified,2022.2.4,Win32,59.88023952,661e456ee6de07e70aa9ef7b,6628dfec3bb2e78332d6a8ea,,,,,,,,,,,,,,,,,,,,,,,,,,,,,,,,,,959.1743,961.1407,"[1,3,5,8,4,7,2,6]","[[0.3,0.2],[-0.3,0.2]]","[[0.125,-0.2],[-0.125,-0.2]]",-0.131481481,-0.20462963,1,0,0,1.4499,o2_image,961.1422,0,961.6404,961.6405,963.6404,,,,,,,,,,,,,,,,,,0,0,0,0,1,,,,,,,,,,,,,,,,,,,,,,,,,,,,,,,,,
