counterbalance_2.started,counterbalance_2.stopped,participant,age,gender,date,expName,psychopyVersion,OS,frameRate,STUDY_ID,SESSION_ID,information_2.started,information_2.stopped,information_loop.thisRepN,information_loop.thisTrialN,information_loop.thisN,information_loop.thisIndex,information_loop.ran,information,consent_2.started,consent_2.stopped,slider_1.response,slider_2.response,slider_3.response,slider_4.response,slider_5.response,slider_6.response,instructions.started,instructions.stopped,task1_instr.thisRepN,task1_instr.thisTrialN,task1_instr.thisN,task1_instr.thisIndex,task1_instr.ran,task1,comprehension1_2.started,comprehension1_2.stopped,comp1_mouse.x,comp1_mouse.y,comp1_mouse.leftButton,comp1_mouse.midButton,comp1_mouse.rightButton,comp1_mouse.time,comp1_mouse.clicked_name,cue_o__trial_2.started,cue_o__trial_2.stopped,order,cue_order,out_order,cue_o_mouse.x,cue_o_mouse.y,cue_o_mouse.leftButton,cue_o_mouse.midButton,cue_o_mouse.rightButton,cue_o_mouse.time,cue_o_mouse.clicked_name,cue_selection_2.started,correct_answer,cue_selection_2.stopped,feedback_2.started,feedback_2.stopped,feedback_loop.thisRepN,feedback_loop.thisTrialN,feedback_loop.thisN,feedback_loop.thisIndex,feedback_loop.ran,stage1_trials.thisRepN,stage1_trials.thisTrialN,stage1_trials.thisN,stage1_trials.thisIndex,stage1_trials.ran,cue1,cue2,cue3,outcome,correct_out,o1_feedback,o2_feedback,stage2_feedback_loop.thisRepN,stage2_feedback_loop.thisTrialN,stage2_feedback_loop.thisN,stage2_feedback_loop.thisIndex,stage2_feedback_loop.ran,stage2_trials.thisRepN,stage2_trials.thisTrialN,stage2_trials.thisN,stage2_trials.thisIndex,stage2_trials.ran,stage3_feedback_loop.thisRepN,stage3_feedback_loop.thisTrialN,stage3_feedback_loop.thisN,stage3_feedback_loop.thisIndex,stage3_feedback_loop.ran,stage3_trials.thisRepN,stage3_trials.thisTrialN,stage3_trials.thisN,stage3_trials.thisIndex,stage3_trials.ran,debrief_2.started,debrief_2.stopped,debrief_loop.thisRepN,debrief_loop.thisTrialN,debrief_loop.thisN,debrief_loop.thisIndex,debrief_loop.ran,debrief_img,compr1_completed.thisRepN,compr1_completed.thisTrialN,compr1_completed.thisN,compr1_completed.thisIndex,compr1_completed.ran,consent_loop.thisRepN,consent_loop.thisTrialN,consent_loop.thisN,consent_loop.thisIndex,consent_loop.ran
0.0004,0.0006,5c45ad3793f3690001c46767,43,male,2024-04-19_18h36.56.977,stockport_simplified,2022.2.4,Win32,74.62686567,661e456ee6de07e70aa9ef7b,66229d9fb0b345de2f9fedcf,,,,,,,,,,,,,,,,,,,,,,,,,,,,,,,,,,,,,,,,,,,,,,,,,,,,,,,,,,,,,,,,,,,,,,,,,,,,,,,,,,,,,,,,,,,,,,,,,,,,,,,,,
,,5c45ad3793f3690001c46767,43,male,2024-04-19_18h36.56.977,stockport_simplified,2022.2.4,Win32,74.62686567,661e456ee6de07e70aa9ef7b,66229d9fb0b345de2f9fedcf,0.0126,17.8995,0,0,0,0,1,instructions/info1.png,,,,,,,,,,,,,,,,,,,,,,,,,,,,,,,,,,,,,,,,,,,,,,,,,,,,,,,,,,,,,,,,,,,,,,,,,,,,,,,,,,,,,,,,,,,,,,,,,
,,5c45ad3793f3690001c46767,43,male,2024-04-19_18h36.56.977,stockport_simplified,2022.2.4,Win32,74.62686567,661e456ee6de07e70aa9ef7b,66229d9fb0b345de2f9fedcf,17.9001,28.9546,0,1,1,1,1,instructions/info2.png,,,,,,,,,,,,,,,,,,,,,,,,,,,,,,,,,,,,,,,,,,,,,,,,,,,,,,,,,,,,,,,,,,,,,,,,,,,,,,,,,,,,,,,,,,,,,,,,,
,,5c45ad3793f3690001c46767,43,male,2024-04-19_18h36.56.977,stockport_simplified,2022.2.4,Win32,74.62686567,661e456ee6de07e70aa9ef7b,66229d9fb0b345de2f9fedcf,28.9551,31.8017,0,2,2,2,1,instructions/info3.png,,,,,,,,,,,,,,,,,,,,,,,,,,,,,,,,,,,,,,,,,,,,,,,,,,,,,,,,,,,,,,,,,,,,,,,,,,,,,,,,,,,,,,,,,,,,,,,,,
,,5c45ad3793f3690001c46767,43,male,2024-04-19_18h36.56.977,stockport_simplified,2022.2.4,Win32,74.62686567,661e456ee6de07e70aa9ef7b,66229d9fb0b345de2f9fedcf,,,,,,,,,31.8024,39.8094,1,1,1,1,1,1,,,,,,,,,,,,,,,,,,,,,,,,,,,,,,,,,,,,,,,,,,,,,,,,,,,,,,,,,,,,,,,,,,,,,,,,,,,,,,,,,,,,,,,,,
,,5c45ad3793f3690001c46767,43,male,2024-04-19_18h36.56.977,stockport_simplified,2022.2.4,Win32,74.62686567,661e456ee6de07e70aa9ef7b,66229d9fb0b345de2f9fedcf,,,,,,,,,,,,,,,,,39.8155,62.3365,0,0,0,0,1,instructions/task1_1.png,,,,,,,,,,,,,,,,,,,,,,,,,,,,,,,,,,,,,,,,,,,,,,,,,,,,,,,,,,,,,,,,,,,,,,,,,,,,,,,,,
,,5c45ad3793f3690001c46767,43,male,2024-04-19_18h36.56.977,stockport_simplified,2022.2.4,Win32,74.62686567,661e456ee6de07e70aa9ef7b,66229d9fb0b345de2f9fedcf,,,,,,,,,,,,,,,,,62.3479,77.0145,0,1,1,1,1,instructions/task1_2.png,,,,,,,,,,,,,,,,,,,,,,,,,,,,,,,,,,,,,,,,,,,,,,,,,,,,,,,,,,,,,,,,,,,,,,,,,,,,,,,,,
,,5c45ad3793f3690001c46767,43,male,2024-04-19_18h36.56.977,stockport_simplified,2022.2.4,Win32,74.62686567,661e456ee6de07e70aa9ef7b,66229d9fb0b345de2f9fedcf,,,,,,,,,,,,,,,,,77.0252,92.1748,0,2,2,2,1,instructions/task1_3.png,,,,,,,,,,,,,,,,,,,,,,,,,,,,,,,,,,,,,,,,,,,,,,,,,,,,,,,,,,,,,,,,,,,,,,,,,,,,,,,,,
,,5c45ad3793f3690001c46767,43,male,2024-04-19_18h36.56.977,stockport_simplified,2022.2.4,Win32,74.62686567,661e456ee6de07e70aa9ef7b,66229d9fb0b345de2f9fedcf,,,,,,,,,,,,,,,,,,,,,,,,,92.1757,106.2665,-0.156481496,-0.316666709,1,0,0,14.0896,comp1_resp1,106.2851,108.7789,"[3,7,8,2,6,5,4,1]","[[0.3,0.2],[-0.3,0.2]]","[[0.125,-0.2],[-0.125,-0.2]]",-0.132407365,-0.20648151,1,0,0,1.9909,o2_image,108.7806,1,109.2729,109.2731,111.2655,0,0,0,0,1,,,,,,,,,,,,,,,,,,,,,,,,,,,,,,,,,,,,,,,,,,,,,,,,,,
,,5c45ad3793f3690001c46767,43,male,2024-04-19_18h36.56.977,stockport_simplified,2022.2.4,Win32,74.62686567,661e456ee6de07e70aa9ef7b,66229d9fb0b345de2f9fedcf,,,,,,,,,,,,,,,,,,,,,,,,,,,,,,,,,,,,,,,,,,,,,,,,,,,,,,,,0,0,0,58,1,N,M,D,o2_image,stimuli/out2.png,stimuli/out1.png,stimuli/correct_out2.png,,,,,,,,,,,,,,,,,,,,,,,,,,,,,,,,,,,,,,
,,5c45ad3793f3690001c46767,43,male,2024-04-19_18h36.56.977,stockport_simplified,2022.2.4,Win32,74.62686567,661e456ee6de07e70aa9ef7b,66229d9fb0b345de2f9fedcf,,,,,,,,,,,,,,,,,,,,,,,,,,,,,,,,,,111.2662,113.7384,"[3,7,8,2,6,5,4,1]","[[0.3,0.2],[-0.3,0.2]]","[[-0.125,-0.2],[0.125,-0.2]]",-0.071296268,-0.207407422,1,0,0,1.9644,o1_image,113.7391,0,114.2333,114.2333,116.225,0,0,0,0,1,,,,,,,,,,,,,,,,,,,,,,,,,,,,,,,,,,,,,,,,,,,,,,,,,,
,,5c45ad3793f3690001c46767,43,male,2024-04-19_18h36.56.977,stockport_simplified,2022.2.4,Win32,74.62686567,661e456ee6de07e70aa9ef7b,66229d9fb0b345de2f9fedcf,,,,,,,,,,,,,,,,,,,,,,,,,,,,,,,,,,,,,,,,,,,,,,,,,,,,,,,,0,1,1,17,1,B,Y,N,o2_image,stimuli/out2.png,stimuli/out1.png,stimuli/correct_out2.png,,,,,,,,,,,,,,,,,,,,,,,,,,,,,,,,,,,,,,
,,5c45ad3793f3690001c46767,43,male,2024-04-19_18h36.56.977,stockport_simplified,2022.2.4,Win32,74.62686567,661e456ee6de07e70aa9ef7b,66229d9fb0b345de2f9fedcf,,,,,,,,,,,,,,,,,,,,,,,,,,,,,,,,,,116.2255,120.7571,"[3,7,8,2,6,5,4,1]","[[-0.3,0.2],[0.3,0.2]]","[[-0.125,-0.2],[0.125,-0.2]]",-0.118518476,-0.190740727,1,0,0,4.0236,o1_image,120.768,1,121.2652,121.2652,123.257,0,0,0,0,1,,,,,,,,,,,,,,,,,,,,,,,,,,,,,,,,,,,,,,,,,,,,,,,,,,
,,5c45ad3793f3690001c46767,43,male,2024-04-19_18h36.56.977,stockport_simplified,2022.2.4,Win32,74.62686567,661e456ee6de07e70aa9ef7b,66229d9fb0b345de2f9fedcf,,,,,,,,,,,,,,,,,,,,,,,,,,,,,,,,,,,,,,,,,,,,,,,,,,,,,,,,0,2,2,34,1,A,X,N,o1_image,stimuli/out1.png,stimuli/correct_out1.png,stimuli/out2.png,,,,,,,,,,,,,,,,,,,,,,,,,,,,,,,,,,,,,,
,,5c45ad3793f3690001c46767,43,male,2024-04-19_18h36.56.977,stockport_simplified,2022.2.4,Win32,74.62686567,661e456ee6de07e70aa9ef7b,66229d9fb0b345de2f9fedcf,,,,,,,,,,,,,,,,,,,,,,,,,,,,,,,,,,123.2575,125.2088,"[3,7,8,2,6,5,4,1]","[[0.3,0.2],[-0.3,0.2]]","[[0.125,-0.2],[-0.125,-0.2]]",-0.118518476,-0.190740727,1,0,0,1.4435,o2_image,125.2097,0,125.7035,125.7037,127.6956,0,0,0,0,1,,,,,,,,,,,,,,,,,,,,,,,,,,,,,,,,,,,,,,,,,,,,,,,,,,
,,5c45ad3793f3690001c46767,43,male,2024-04-19_18h36.56.977,stockport_simplified,2022.2.4,Win32,74.62686567,661e456ee6de07e70aa9ef7b,66229d9fb0b345de2f9fedcf,,,,,,,,,,,,,,,,,,,,,,,,,,,,,,,,,,,,,,,,,,,,,,,,,,,,,,,,0,3,3,52,1,N,M,C,o1_image,stimuli/out1.png,stimuli/correct_out1.png,stimuli/out2.png,,,,,,,,,,,,,,,,,,,,,,,,,,,,,,,,,,,,,,
,,5c45ad3793f3690001c46767,43,male,2024-04-19_18h36.56.977,stockport_simplified,2022.2.4,Win32,74.62686567,661e456ee6de07e70aa9ef7b,66229d9fb0b345de2f9fedcf,,,,,,,,,,,,,,,,,,,,,,,,,,,,,,,,,,127.696,130.7032,"[3,7,8,2,6,5,4,1]","[[-0.3,0.2],[0.3,0.2]]","[[-0.125,-0.2],[0.125,-0.2]]",0.092592593,-0.19722225,1,0,0,2.4992,o2_image,130.7143,1,131.2113,131.2114,133.2033,0,0,0,0,1,,,,,,,,,,,,,,,,,,,,,,,,,,,,,,,,,,,,,,,,,,,,,,,,,,
,,5c45ad3793f3690001c46767,43,male,2024-04-19_18h36.56.977,stockport_simplified,2022.2.4,Win32,74.62686567,661e456ee6de07e70aa9ef7b,66229d9fb0b345de2f9fedcf,,,,,,,,,,,,,,,,,,,,,,,,,,,,,,,,,,,,,,,,,,,,,,,,,,,,,,,,0,4,4,18,1,B,Y,N,o2_image,stimuli/out2.png,stimuli/out1.png,stimuli/correct_out2.png,,,,,,,,,,,,,,,,,,,,,,,,,,,,,,,,,,,,,,
,,5c45ad3793f3690001c46767,43,male,2024-04-19_18h36.56.977,stockport_simplified,2022.2.4,Win32,74.62686567,661e456ee6de07e70aa9ef7b,66229d9fb0b345de2f9fedcf,,,,,,,,,,,,,,,,,,,,,,,,,,,,,,,,,,133.2038,134.6337,"[3,7,8,2,6,5,4,1]","[[-0.3,0.2],[0.3,0.2]]","[[-0.125,-0.2],[0.125,-0.2]]",0.092592593,-0.19722225,1,0,0,0.9223,o2_image,134.6346,1,135.1284,135.1285,137.1205,0,0,0,0,1,,,,,,,,,,,,,,,,,,,,,,,,,,,,,,,,,,,,,,,,,,,,,,,,,,
,,5c45ad3793f3690001c46767,43,male,2024-04-19_18h36.56.977,stockport_simplified,2022.2.4,Win32,74.62686567,661e456ee6de07e70aa9ef7b,66229d9fb0b345de2f9fedcf,,,,,,,,,,,,,,,,,,,,,,,,,,,,,,,,,,,,,,,,,,,,,,,,,,,,,,,,0,5,5,48,1,B,Y,N,o2_image,stimuli/out2.png,stimuli/out1.png,stimuli/correct_out2.png,,,,,,,,,,,,,,,,,,,,,,,,,,,,,,,,,,,,,,
,,5c45ad3793f3690001c46767,43,male,2024-04-19_18h36.56.977,stockport_simplified,2022.2.4,Win32,74.62686567,661e456ee6de07e70aa9ef7b,66229d9fb0b345de2f9fedcf,,,,,,,,,,,,,,,,,,,,,,,,,,,,,,,,,,137.121,138.631,"[3,7,8,2,6,5,4,1]","[[0.3,0.2],[-0.3,0.2]]","[[0.125,-0.2],[-0.125,-0.2]]",-0.05277775,-0.191666709,1,0,0,1.0021,o2_image,138.632,0,139.1256,139.1256,141.1174,0,0,0,0,1,,,,,,,,,,,,,,,,,,,,,,,,,,,,,,,,,,,,,,,,,,,,,,,,,,
,,5c45ad3793f3690001c46767,43,male,2024-04-19_18h36.56.977,stockport_simplified,2022.2.4,Win32,74.62686567,661e456ee6de07e70aa9ef7b,66229d9fb0b345de2f9fedcf,,,,,,,,,,,,,,,,,,,,,,,,,,,,,,,,,,,,,,,,,,,,,,,,,,,,,,,,0,6,6,6,1,A,Y,N,o1_image,stimuli/out1.png,stimuli/correct_out1.png,stimuli/out2.png,,,,,,,,,,,,,,,,,,,,,,,,,,,,,,,,,,,,,,
,,5c45ad3793f3690001c46767,43,male,2024-04-19_18h36.56.977,stockport_simplified,2022.2.4,Win32,74.62686567,661e456ee6de07e70aa9ef7b,66229d9fb0b345de2f9fedcf,,,,,,,,,,,,,,,,,,,,,,,,,,,,,,,,,,141.118,142.6317,"[3,7,8,2,6,5,4,1]","[[-0.3,0.2],[0.3,0.2]]","[[-0.125,-0.2],[0.125,-0.2]]",0.080555598,-0.179629644,1,0,0,1.0024,o2_image,142.6322,0,143.1233,143.1233,145.1148,0,0,0,0,1,,,,,,,,,,,,,,,,,,,,,,,,,,,,,,,,,,,,,,,,,,,,,,,,,,
,,5c45ad3793f3690001c46767,43,male,2024-04-19_18h36.56.977,stockport_simplified,2022.2.4,Win32,74.62686567,661e456ee6de07e70aa9ef7b,66229d9fb0b345de2f9fedcf,,,,,,,,,,,,,,,,,,,,,,,,,,,,,,,,,,,,,,,,,,,,,,,,,,,,,,,,0,7,7,30,1,A,X,N,o1_image,stimuli/out1.png,stimuli/correct_out1.png,stimuli/out2.png,,,,,,,,,,,,,,,,,,,,,,,,,,,,,,,,,,,,,,
,,5c45ad3793f3690001c46767,43,male,2024-04-19_18h36.56.977,stockport_simplified,2022.2.4,Win32,74.62686567,661e456ee6de07e70aa9ef7b,66229d9fb0b345de2f9fedcf,,,,,,,,,,,,,,,,,,,,,,,,,,,,,,,,,,145.1154,146.7058,"[3,7,8,2,6,5,4,1]","[[0.3,0.2],[-0.3,0.2]]","[[-0.125,-0.2],[0.125,-0.2]]",-0.076851809,-0.186111097,1,0,0,1.0822,o1_image,146.7065,0,147.2005,147.2005,149.1925,0,0,0,0,1,,,,,,,,,,,,,,,,,,,,,,,,,,,,,,,,,,,,,,,,,,,,,,,,,,
,,5c45ad3793f3690001c46767,43,male,2024-04-19_18h36.56.977,stockport_simplified,2022.2.4,Win32,74.62686567,661e456ee6de07e70aa9ef7b,66229d9fb0b345de2f9fedcf,,,,,,,,,,,,,,,,,,,,,,,,,,,,,,,,,,,,,,,,,,,,,,,,,,,,,,,,0,8,8,57,1,N,M,D,o2_image,stimuli/out2.png,stimuli/out1.png,stimuli/correct_out2.png,,,,,,,,,,,,,,,,,,,,,,,,,,,,,,,,,,,,,,
,,5c45ad3793f3690001c46767,43,male,2024-04-19_18h36.56.977,stockport_simplified,2022.2.4,Win32,74.62686567,661e456ee6de07e70aa9ef7b,66229d9fb0b345de2f9fedcf,,,,,,,,,,,,,,,,,,,,,,,,,,,,,,,,,,149.193,151.1977,"[3,7,8,2,6,5,4,1]","[[-0.3,0.2],[0.3,0.2]]","[[-0.125,-0.2],[0.125,-0.2]]",0.112963005,-0.204629616,1,0,0,1.494,o2_image,151.1986,0,151.6923,151.6923,153.684,0,0,0,0,1,,,,,,,,,,,,,,,,,,,,,,,,,,,,,,,,,,,,,,,,,,,,,,,,,,
,,5c45ad3793f3690001c46767,43,male,2024-04-19_18h36.56.977,stockport_simplified,2022.2.4,Win32,74.62686567,661e456ee6de07e70aa9ef7b,66229d9fb0b345de2f9fedcf,,,,,,,,,,,,,,,,,,,,,,,,,,,,,,,,,,,,,,,,,,,,,,,,,,,,,,,,0,9,9,1,1,A,X,N,o1_image,stimuli/out1.png,stimuli/correct_out1.png,stimuli/out2.png,,,,,,,,,,,,,,,,,,,,,,,,,,,,,,,,,,,,,,
,,5c45ad3793f3690001c46767,43,male,2024-04-19_18h36.56.977,stockport_simplified,2022.2.4,Win32,74.62686567,661e456ee6de07e70aa9ef7b,66229d9fb0b345de2f9fedcf,,,,,,,,,,,,,,,,,,,,,,,,,,,,,,,,,,153.6846,155.639,"[3,7,8,2,6,5,4,1]","[[-0.3,0.2],[0.3,0.2]]","[[0.125,-0.2],[-0.125,-0.2]]",0.14907406,-0.205555598,1,0,0,1.4462,o1_image,155.6395,0,156.1306,156.1306,158.1225,0,0,0,0,1,,,,,,,,,,,,,,,,,,,,,,,,,,,,,,,,,,,,,,,,,,,,,,,,,,
,,5c45ad3793f3690001c46767,43,male,2024-04-19_18h36.56.977,stockport_simplified,2022.2.4,Win32,74.62686567,661e456ee6de07e70aa9ef7b,66229d9fb0b345de2f9fedcf,,,,,,,,,,,,,,,,,,,,,,,,,,,,,,,,,,,,,,,,,,,,,,,,,,,,,,,,0,10,10,56,1,N,M,D,o2_image,stimuli/out2.png,stimuli/out1.png,stimuli/correct_out2.png,,,,,,,,,,,,,,,,,,,,,,,,,,,,,,,,,,,,,,
,,5c45ad3793f3690001c46767,43,male,2024-04-19_18h36.56.977,stockport_simplified,2022.2.4,Win32,74.62686567,661e456ee6de07e70aa9ef7b,66229d9fb0b345de2f9fedcf,,,,,,,,,,,,,,,,,,,,,,,,,,,,,,,,,,158.123,159.9541,"[3,7,8,2,6,5,4,1]","[[0.3,0.2],[-0.3,0.2]]","[[-0.125,-0.2],[0.125,-0.2]]",-0.087962963,-0.209259245,1,0,0,1.3226,o1_image,159.955,0,160.4489,160.4489,162.4406,0,0,0,0,1,,,,,,,,,,,,,,,,,,,,,,,,,,,,,,,,,,,,,,,,,,,,,,,,,,
,,5c45ad3793f3690001c46767,43,male,2024-04-19_18h36.56.977,stockport_simplified,2022.2.4,Win32,74.62686567,661e456ee6de07e70aa9ef7b,66229d9fb0b345de2f9fedcf,,,,,,,,,,,,,,,,,,,,,,,,,,,,,,,,,,,,,,,,,,,,,,,,,,,,,,,,0,11,11,12,1,B,X,N,o2_image,stimuli/out2.png,stimuli/out1.png,stimuli/correct_out2.png,,,,,,,,,,,,,,,,,,,,,,,,,,,,,,,,,,,,,,
,,5c45ad3793f3690001c46767,43,male,2024-04-19_18h36.56.977,stockport_simplified,2022.2.4,Win32,74.62686567,661e456ee6de07e70aa9ef7b,66229d9fb0b345de2f9fedcf,,,,,,,,,,,,,,,,,,,,,,,,,,,,,,,,,,162.4411,164.8232,"[3,7,8,2,6,5,4,1]","[[-0.3,0.2],[0.3,0.2]]","[[-0.125,-0.2],[0.125,-0.2]]",0.092592593,-0.203703704,1,0,0,1.874,o2_image,164.8237,1,165.3149,165.3149,167.307,0,0,0,0,1,,,,,,,,,,,,,,,,,,,,,,,,,,,,,,,,,,,,,,,,,,,,,,,,,,
,,5c45ad3793f3690001c46767,43,male,2024-04-19_18h36.56.977,stockport_simplified,2022.2.4,Win32,74.62686567,661e456ee6de07e70aa9ef7b,66229d9fb0b345de2f9fedcf,,,,,,,,,,,,,,,,,,,,,,,,,,,,,,,,,,,,,,,,,,,,,,,,,,,,,,,,0,12,12,55,1,N,M,D,o2_image,stimuli/out2.png,stimuli/out1.png,stimuli/correct_out2.png,,,,,,,,,,,,,,,,,,,,,,,,,,,,,,,,,,,,,,
,,5c45ad3793f3690001c46767,43,male,2024-04-19_18h36.56.977,stockport_simplified,2022.2.4,Win32,74.62686567,661e456ee6de07e70aa9ef7b,66229d9fb0b345de2f9fedcf,,,,,,,,,,,,,,,,,,,,,,,,,,,,,,,,,,167.3074,169.2586,"[3,7,8,2,6,5,4,1]","[[-0.3,0.2],[0.3,0.2]]","[[0.125,-0.2],[-0.125,-0.2]]",0.112037023,-0.199074074,1,0,0,1.443,o1_image,169.2592,0,169.7568,169.7568,171.7586,0,0,0,0,1,,,,,,,,,,,,,,,,,,,,,,,,,,,,,,,,,,,,,,,,,,,,,,,,,,
,,5c45ad3793f3690001c46767,43,male,2024-04-19_18h36.56.977,stockport_simplified,2022.2.4,Win32,74.62686567,661e456ee6de07e70aa9ef7b,66229d9fb0b345de2f9fedcf,,,,,,,,,,,,,,,,,,,,,,,,,,,,,,,,,,,,,,,,,,,,,,,,,,,,,,,,0,13,13,49,1,B,Y,N,o2_image,stimuli/out2.png,stimuli/out1.png,stimuli/correct_out2.png,,,,,,,,,,,,,,,,,,,,,,,,,,,,,,,,,,,,,,
,,5c45ad3793f3690001c46767,43,male,2024-04-19_18h36.56.977,stockport_simplified,2022.2.4,Win32,74.62686567,661e456ee6de07e70aa9ef7b,66229d9fb0b345de2f9fedcf,,,,,,,,,,,,,,,,,,,,,,,,,,,,,,,,,,171.759,173.3361,"[3,7,8,2,6,5,4,1]","[[-0.3,0.2],[0.3,0.2]]","[[0.125,-0.2],[-0.125,-0.2]]",0.108333376,-0.198148162,1,0,0,1.0691,o1_image,173.3368,1,173.8308,173.8308,175.8261,0,0,0,0,1,,,,,,,,,,,,,,,,,,,,,,,,,,,,,,,,,,,,,,,,,,,,,,,,,,
,,5c45ad3793f3690001c46767,43,male,2024-04-19_18h36.56.977,stockport_simplified,2022.2.4,Win32,74.62686567,661e456ee6de07e70aa9ef7b,66229d9fb0b345de2f9fedcf,,,,,,,,,,,,,,,,,,,,,,,,,,,,,,,,,,,,,,,,,,,,,,,,,,,,,,,,0,14,14,24,1,N,M,C,o1_image,stimuli/out1.png,stimuli/correct_out1.png,stimuli/out2.png,,,,,,,,,,,,,,,,,,,,,,,,,,,,,,,,,,,,,,
,,5c45ad3793f3690001c46767,43,male,2024-04-19_18h36.56.977,stockport_simplified,2022.2.4,Win32,74.62686567,661e456ee6de07e70aa9ef7b,66229d9fb0b345de2f9fedcf,,,,,,,,,,,,,,,,,,,,,,,,,,,,,,,,,,175.8265,177.0528,"[3,7,8,2,6,5,4,1]","[[0.3,0.2],[-0.3,0.2]]","[[-0.125,-0.2],[0.125,-0.2]]",-0.110185199,-0.202777792,1,0,0,0.7215,o1_image,177.0537,1,177.5507,177.5507,179.5525,0,0,0,0,1,,,,,,,,,,,,,,,,,,,,,,,,,,,,,,,,,,,,,,,,,,,,,,,,,,
,,5c45ad3793f3690001c46767,43,male,2024-04-19_18h36.56.977,stockport_simplified,2022.2.4,Win32,74.62686567,661e456ee6de07e70aa9ef7b,66229d9fb0b345de2f9fedcf,,,,,,,,,,,,,,,,,,,,,,,,,,,,,,,,,,,,,,,,,,,,,,,,,,,,,,,,0,15,15,4,1,A,X,N,o1_image,stimuli/out1.png,stimuli/correct_out1.png,stimuli/out2.png,,,,,,,,,,,,,,,,,,,,,,,,,,,,,,,,,,,,,,
,,5c45ad3793f3690001c46767,43,male,2024-04-19_18h36.56.977,stockport_simplified,2022.2.4,Win32,74.62686567,661e456ee6de07e70aa9ef7b,66229d9fb0b345de2f9fedcf,,,,,,,,,,,,,,,,,,,,,,,,,,,,,,,,,,179.5528,181.3172,"[3,7,8,2,6,5,4,1]","[[0.3,0.2],[-0.3,0.2]]","[[-0.125,-0.2],[0.125,-0.2]]",-0.149999972,-0.215740769,1,0,0,1.2528,o1_image,181.3179,1,181.812,181.812,183.8037,0,0,0,0,1,,,,,,,,,,,,,,,,,,,,,,,,,,,,,,,,,,,,,,,,,,,,,,,,,,
,,5c45ad3793f3690001c46767,43,male,2024-04-19_18h36.56.977,stockport_simplified,2022.2.4,Win32,74.62686567,661e456ee6de07e70aa9ef7b,66229d9fb0b345de2f9fedcf,,,,,,,,,,,,,,,,,,,,,,,,,,,,,,,,,,,,,,,,,,,,,,,,,,,,,,,,0,16,16,8,1,A,Y,N,o1_image,stimuli/out1.png,stimuli/correct_out1.png,stimuli/out2.png,,,,,,,,,,,,,,,,,,,,,,,,,,,,,,,,,,,,,,
,,5c45ad3793f3690001c46767,43,male,2024-04-19_18h36.56.977,stockport_simplified,2022.2.4,Win32,74.62686567,661e456ee6de07e70aa9ef7b,66229d9fb0b345de2f9fedcf,,,,,,,,,,,,,,,,,,,,,,,,,,,,,,,,,,183.8041,185.9431,"[3,7,8,2,6,5,4,1]","[[-0.3,0.2],[0.3,0.2]]","[[0.125,-0.2],[-0.125,-0.2]]",-0.135185171,-0.207407422,1,0,0,1.6311,o2_image,185.9439,1,186.4375,186.4376,188.4293,0,0,0,0,1,,,,,,,,,,,,,,,,,,,,,,,,,,,,,,,,,,,,,,,,,,,,,,,,,,
,,5c45ad3793f3690001c46767,43,male,2024-04-19_18h36.56.977,stockport_simplified,2022.2.4,Win32,74.62686567,661e456ee6de07e70aa9ef7b,66229d9fb0b345de2f9fedcf,,,,,,,,,,,,,,,,,,,,,,,,,,,,,,,,,,,,,,,,,,,,,,,,,,,,,,,,0,17,17,47,1,B,Y,N,o2_image,stimuli/out2.png,stimuli/out1.png,stimuli/correct_out2.png,,,,,,,,,,,,,,,,,,,,,,,,,,,,,,,,,,,,,,
,,5c45ad3793f3690001c46767,43,male,2024-04-19_18h36.56.977,stockport_simplified,2022.2.4,Win32,74.62686567,661e456ee6de07e70aa9ef7b,66229d9fb0b345de2f9fedcf,,,,,,,,,,,,,,,,,,,,,,,,,,,,,,,,,,188.4298,189.5388,"[3,7,8,2,6,5,4,1]","[[-0.3,0.2],[0.3,0.2]]","[[-0.125,-0.2],[0.125,-0.2]]",-0.135185171,-0.20648151,1,0,0,0.6011,o1_image,189.5392,1,190.033,190.033,192.0256,0,0,0,0,1,,,,,,,,,,,,,,,,,,,,,,,,,,,,,,,,,,,,,,,,,,,,,,,,,,
,,5c45ad3793f3690001c46767,43,male,2024-04-19_18h36.56.977,stockport_simplified,2022.2.4,Win32,74.62686567,661e456ee6de07e70aa9ef7b,66229d9fb0b345de2f9fedcf,,,,,,,,,,,,,,,,,,,,,,,,,,,,,,,,,,,,,,,,,,,,,,,,,,,,,,,,0,18,18,35,1,A,Y,N,o1_image,stimuli/out1.png,stimuli/correct_out1.png,stimuli/out2.png,,,,,,,,,,,,,,,,,,,,,,,,,,,,,,,,,,,,,,
,,5c45ad3793f3690001c46767,43,male,2024-04-19_18h36.56.977,stockport_simplified,2022.2.4,Win32,74.62686567,661e456ee6de07e70aa9ef7b,66229d9fb0b345de2f9fedcf,,,,,,,,,,,,,,,,,,,,,,,,,,,,,,,,,,192.026,192.9749,"[3,7,8,2,6,5,4,1]","[[-0.3,0.2],[0.3,0.2]]","[[0.125,-0.2],[-0.125,-0.2]]",-0.135185171,-0.20648151,1,0,0,0.4411,o2_image,192.9758,0,193.4692,193.4692,195.4611,0,0,0,0,1,,,,,,,,,,,,,,,,,,,,,,,,,,,,,,,,,,,,,,,,,,,,,,,,,,
,,5c45ad3793f3690001c46767,43,male,2024-04-19_18h36.56.977,stockport_simplified,2022.2.4,Win32,74.62686567,661e456ee6de07e70aa9ef7b,66229d9fb0b345de2f9fedcf,,,,,,,,,,,,,,,,,,,,,,,,,,,,,,,,,,,,,,,,,,,,,,,,,,,,,,,,0,19,19,33,1,A,X,N,o1_image,stimuli/out1.png,stimuli/correct_out1.png,stimuli/out2.png,,,,,,,,,,,,,,,,,,,,,,,,,,,,,,,,,,,,,,
,,5c45ad3793f3690001c46767,43,male,2024-04-19_18h36.56.977,stockport_simplified,2022.2.4,Win32,74.62686567,661e456ee6de07e70aa9ef7b,66229d9fb0b345de2f9fedcf,,,,,,,,,,,,,,,,,,,,,,,,,,,,,,,,,,195.4614,196.3704,"[3,7,8,2,6,5,4,1]","[[-0.3,0.2],[0.3,0.2]]","[[-0.125,-0.2],[0.125,-0.2]]",-0.135185171,-0.20648151,1,0,0,0.401,o1_image,196.3711,1,196.865,196.865,198.8572,0,0,0,0,1,,,,,,,,,,,,,,,,,,,,,,,,,,,,,,,,,,,,,,,,,,,,,,,,,,
,,5c45ad3793f3690001c46767,43,male,2024-04-19_18h36.56.977,stockport_simplified,2022.2.4,Win32,74.62686567,661e456ee6de07e70aa9ef7b,66229d9fb0b345de2f9fedcf,,,,,,,,,,,,,,,,,,,,,,,,,,,,,,,,,,,,,,,,,,,,,,,,,,,,,,,,0,20,20,32,1,A,X,N,o1_image,stimuli/out1.png,stimuli/correct_out1.png,stimuli/out2.png,,,,,,,,,,,,,,,,,,,,,,,,,,,,,,,,,,,,,,
,,5c45ad3793f3690001c46767,43,male,2024-04-19_18h36.56.977,stockport_simplified,2022.2.4,Win32,74.62686567,661e456ee6de07e70aa9ef7b,66229d9fb0b345de2f9fedcf,,,,,,,,,,,,,,,,,,,,,,,,,,,,,,,,,,198.8579,199.8063,"[3,7,8,2,6,5,4,1]","[[0.3,0.2],[-0.3,0.2]]","[[-0.125,-0.2],[0.125,-0.2]]",-0.135185171,-0.20648151,1,0,0,0.441,o1_image,199.8074,0,200.3041,200.3042,202.3062,0,0,0,0,1,,,,,,,,,,,,,,,,,,,,,,,,,,,,,,,,,,,,,,,,,,,,,,,,,,
,,5c45ad3793f3690001c46767,43,male,2024-04-19_18h36.56.977,stockport_simplified,2022.2.4,Win32,74.62686567,661e456ee6de07e70aa9ef7b,66229d9fb0b345de2f9fedcf,,,,,,,,,,,,,,,,,,,,,,,,,,,,,,,,,,,,,,,,,,,,,,,,,,,,,,,,0,21,21,13,1,B,X,N,o2_image,stimuli/out2.png,stimuli/out1.png,stimuli/correct_out2.png,,,,,,,,,,,,,,,,,,,,,,,,,,,,,,,,,,,,,,
,,5c45ad3793f3690001c46767,43,male,2024-04-19_18h36.56.977,stockport_simplified,2022.2.4,Win32,74.62686567,661e456ee6de07e70aa9ef7b,66229d9fb0b345de2f9fedcf,,,,,,,,,,,,,,,,,,,,,,,,,,,,,,,,,,202.3066,203.282,"[3,7,8,2,6,5,4,1]","[[0.3,0.2],[-0.3,0.2]]","[[0.125,-0.2],[-0.125,-0.2]]",-0.135185171,-0.20648151,1,0,0,0.4674,o2_image,203.2828,0,203.7764,203.7764,205.7687,0,0,0,0,1,,,,,,,,,,,,,,,,,,,,,,,,,,,,,,,,,,,,,,,,,,,,,,,,,,
,,5c45ad3793f3690001c46767,43,male,2024-04-19_18h36.56.977,stockport_simplified,2022.2.4,Win32,74.62686567,661e456ee6de07e70aa9ef7b,66229d9fb0b345de2f9fedcf,,,,,,,,,,,,,,,,,,,,,,,,,,,,,,,,,,,,,,,,,,,,,,,,,,,,,,,,0,22,22,0,1,A,X,N,o1_image,stimuli/out1.png,stimuli/correct_out1.png,stimuli/out2.png,,,,,,,,,,,,,,,,,,,,,,,,,,,,,,,,,,,,,,
,,5c45ad3793f3690001c46767,43,male,2024-04-19_18h36.56.977,stockport_simplified,2022.2.4,Win32,74.62686567,661e456ee6de07e70aa9ef7b,66229d9fb0b345de2f9fedcf,,,,,,,,,,,,,,,,,,,,,,,,,,,,,,,,,,205.7692,207.6042,"[3,7,8,2,6,5,4,1]","[[0.3,0.2],[-0.3,0.2]]","[[0.125,-0.2],[-0.125,-0.2]]",0.018518519,-0.226851852,1,0,0,0.9393,o1_image,207.6047,1,208.0978,208.0978,210.1037,0,0,0,0,1,,,,,,,,,,,,,,,,,,,,,,,,,,,,,,,,,,,,,,,,,,,,,,,,,,
,,5c45ad3793f3690001c46767,43,male,2024-04-19_18h36.56.977,stockport_simplified,2022.2.4,Win32,74.62686567,661e456ee6de07e70aa9ef7b,66229d9fb0b345de2f9fedcf,,,,,,,,,,,,,,,,,,,,,,,,,,,,,,,,,,,,,,,,,,,,,,,,,,,,,,,,0,23,23,50,1,N,M,C,o1_image,stimuli/out1.png,stimuli/correct_out1.png,stimuli/out2.png,,,,,,,,,,,,,,,,,,,,,,,,,,,,,,,,,,,,,,
,,5c45ad3793f3690001c46767,43,male,2024-04-19_18h36.56.977,stockport_simplified,2022.2.4,Win32,74.62686567,661e456ee6de07e70aa9ef7b,66229d9fb0b345de2f9fedcf,,,,,,,,,,,,,,,,,,,,,,,,,,,,,,,,,,210.1044,211.1878,"[3,7,8,2,6,5,4,1]","[[-0.3,0.2],[0.3,0.2]]","[[-0.125,-0.2],[0.125,-0.2]]",0.091666681,-0.193518533,1,0,0,0.5791,o2_image,211.1887,1,211.6909,211.691,213.6831,0,0,0,0,1,,,,,,,,,,,,,,,,,,,,,,,,,,,,,,,,,,,,,,,,,,,,,,,,,,
,,5c45ad3793f3690001c46767,43,male,2024-04-19_18h36.56.977,stockport_simplified,2022.2.4,Win32,74.62686567,661e456ee6de07e70aa9ef7b,66229d9fb0b345de2f9fedcf,,,,,,,,,,,,,,,,,,,,,,,,,,,,,,,,,,,,,,,,,,,,,,,,,,,,,,,,0,24,24,28,1,N,M,D,o2_image,stimuli/out2.png,stimuli/out1.png,stimuli/correct_out2.png,,,,,,,,,,,,,,,,,,,,,,,,,,,,,,,,,,,,,,
,,5c45ad3793f3690001c46767,43,male,2024-04-19_18h36.56.977,stockport_simplified,2022.2.4,Win32,74.62686567,661e456ee6de07e70aa9ef7b,66229d9fb0b345de2f9fedcf,,,,,,,,,,,,,,,,,,,,,,,,,,,,,,,,,,213.6836,215.0233,"[3,7,8,2,6,5,4,1]","[[-0.3,0.2],[0.3,0.2]]","[[-0.125,-0.2],[0.125,-0.2]]",-0.044444402,-0.195370356,1,0,0,0.3368,o1_image,215.0236,1,215.514,215.514,217.5059,0,0,0,0,1,,,,,,,,,,,,,,,,,,,,,,,,,,,,,,,,,,,,,,,,,,,,,,,,,,
,,5c45ad3793f3690001c46767,43,male,2024-04-19_18h36.56.977,stockport_simplified,2022.2.4,Win32,74.62686567,661e456ee6de07e70aa9ef7b,66229d9fb0b345de2f9fedcf,,,,,,,,,,,,,,,,,,,,,,,,,,,,,,,,,,,,,,,,,,,,,,,,,,,,,,,,0,25,25,37,1,A,Y,N,o1_image,stimuli/out1.png,stimuli/correct_out1.png,stimuli/out2.png,,,,,,,,,,,,,,,,,,,,,,,,,,,,,,,,,,,,,,
,,5c45ad3793f3690001c46767,43,male,2024-04-19_18h36.56.977,stockport_simplified,2022.2.4,Win32,74.62686567,661e456ee6de07e70aa9ef7b,66229d9fb0b345de2f9fedcf,,,,,,,,,,,,,,,,,,,,,,,,,,,,,,,,,,217.5065,219.0482,"[3,7,8,2,6,5,4,1]","[[-0.3,0.2],[0.3,0.2]]","[[-0.125,-0.2],[0.125,-0.2]]",0.043518561,-0.202777792,1,0,0,0.6139,o2_image,219.0489,0,219.5514,219.5514,221.5436,0,0,0,0,1,,,,,,,,,,,,,,,,,,,,,,,,,,,,,,,,,,,,,,,,,,,,,,,,,,
,,5c45ad3793f3690001c46767,43,male,2024-04-19_18h36.56.977,stockport_simplified,2022.2.4,Win32,74.62686567,661e456ee6de07e70aa9ef7b,66229d9fb0b345de2f9fedcf,,,,,,,,,,,,,,,,,,,,,,,,,,,,,,,,,,,,,,,,,,,,,,,,,,,,,,,,0,26,26,22,1,N,M,C,o1_image,stimuli/out1.png,stimuli/correct_out1.png,stimuli/out2.png,,,,,,,,,,,,,,,,,,,,,,,,,,,,,,,,,,,,,,
,,5c45ad3793f3690001c46767,43,male,2024-04-19_18h36.56.977,stockport_simplified,2022.2.4,Win32,74.62686567,661e456ee6de07e70aa9ef7b,66229d9fb0b345de2f9fedcf,,,,,,,,,,,,,,,,,,,,,,,,,,,,,,,,,,221.5438,223.5757,"[3,7,8,2,6,5,4,1]","[[0.3,0.2],[-0.3,0.2]]","[[-0.125,-0.2],[0.125,-0.2]]",0.044444473,-0.185185185,1,0,0,1.1364,o2_image,223.5764,1,224.0703,224.0703,226.0623,0,0,0,0,1,,,,,,,,,,,,,,,,,,,,,,,,,,,,,,,,,,,,,,,,,,,,,,,,,,
,,5c45ad3793f3690001c46767,43,male,2024-04-19_18h36.56.977,stockport_simplified,2022.2.4,Win32,74.62686567,661e456ee6de07e70aa9ef7b,66229d9fb0b345de2f9fedcf,,,,,,,,,,,,,,,,,,,,,,,,,,,,,,,,,,,,,,,,,,,,,,,,,,,,,,,,0,27,27,59,1,N,M,D,o2_image,stimuli/out2.png,stimuli/out1.png,stimuli/correct_out2.png,,,,,,,,,,,,,,,,,,,,,,,,,,,,,,,,,,,,,,
,,5c45ad3793f3690001c46767,43,male,2024-04-19_18h36.56.977,stockport_simplified,2022.2.4,Win32,74.62686567,661e456ee6de07e70aa9ef7b,66229d9fb0b345de2f9fedcf,,,,,,,,,,,,,,,,,,,,,,,,,,,,,,,,,,226.0628,227.1717,"[3,7,8,2,6,5,4,1]","[[0.3,0.2],[-0.3,0.2]]","[[0.125,-0.2],[-0.125,-0.2]]",-0.167592578,-0.18240745,1,0,0,0.6013,o2_image,227.1728,1,227.6661,227.6661,229.6586,0,0,0,0,1,,,,,,,,,,,,,,,,,,,,,,,,,,,,,,,,,,,,,,,,,,,,,,,,,,
,,5c45ad3793f3690001c46767,43,male,2024-04-19_18h36.56.977,stockport_simplified,2022.2.4,Win32,74.62686567,661e456ee6de07e70aa9ef7b,66229d9fb0b345de2f9fedcf,,,,,,,,,,,,,,,,,,,,,,,,,,,,,,,,,,,,,,,,,,,,,,,,,,,,,,,,0,28,28,15,1,B,Y,N,o2_image,stimuli/out2.png,stimuli/out1.png,stimuli/correct_out2.png,,,,,,,,,,,,,,,,,,,,,,,,,,,,,,,,,,,,,,
,,5c45ad3793f3690001c46767,43,male,2024-04-19_18h36.56.977,stockport_simplified,2022.2.4,Win32,74.62686567,661e456ee6de07e70aa9ef7b,66229d9fb0b345de2f9fedcf,,,,,,,,,,,,,,,,,,,,,,,,,,,,,,,,,,229.6591,230.5271,"[3,7,8,2,6,5,4,1]","[[0.3,0.2],[-0.3,0.2]]","[[0.125,-0.2],[-0.125,-0.2]]",-0.152777778,-0.196296339,1,0,0,0.3604,o2_image,230.5277,1,231.0219,231.022,233.0139,0,0,0,0,1,,,,,,,,,,,,,,,,,,,,,,,,,,,,,,,,,,,,,,,,,,,,,,,,,,
,,5c45ad3793f3690001c46767,43,male,2024-04-19_18h36.56.977,stockport_simplified,2022.2.4,Win32,74.62686567,661e456ee6de07e70aa9ef7b,66229d9fb0b345de2f9fedcf,,,,,,,,,,,,,,,,,,,,,,,,,,,,,,,,,,,,,,,,,,,,,,,,,,,,,,,,0,29,29,10,1,B,X,N,o2_image,stimuli/out2.png,stimuli/out1.png,stimuli/correct_out2.png,,,,,,,,,,,,,,,,,,,,,,,,,,,,,,,,,,,,,,
,,5c45ad3793f3690001c46767,43,male,2024-04-19_18h36.56.977,stockport_simplified,2022.2.4,Win32,74.62686567,661e456ee6de07e70aa9ef7b,66229d9fb0b345de2f9fedcf,,,,,,,,,,,,,,,,,,,,,,,,,,,,,,,,,,233.0142,233.7626,"[3,7,8,2,6,5,4,1]","[[-0.3,0.2],[0.3,0.2]]","[[-0.125,-0.2],[0.125,-0.2]]",-0.152777778,-0.196296339,1,0,0,0.2403,o1_image,233.7635,1,234.2575,234.2576,236.2497,0,0,0,0,1,,,,,,,,,,,,,,,,,,,,,,,,,,,,,,,,,,,,,,,,,,,,,,,,,,
,,5c45ad3793f3690001c46767,43,male,2024-04-19_18h36.56.977,stockport_simplified,2022.2.4,Win32,74.62686567,661e456ee6de07e70aa9ef7b,66229d9fb0b345de2f9fedcf,,,,,,,,,,,,,,,,,,,,,,,,,,,,,,,,,,,,,,,,,,,,,,,,,,,,,,,,0,30,30,21,1,N,M,C,o1_image,stimuli/out1.png,stimuli/correct_out1.png,stimuli/out2.png,,,,,,,,,,,,,,,,,,,,,,,,,,,,,,,,,,,,,,
,,5c45ad3793f3690001c46767,43,male,2024-04-19_18h36.56.977,stockport_simplified,2022.2.4,Win32,74.62686567,661e456ee6de07e70aa9ef7b,66229d9fb0b345de2f9fedcf,,,,,,,,,,,,,,,,,,,,,,,,,,,,,,,,,,236.2502,237.3989,"[3,7,8,2,6,5,4,1]","[[-0.3,0.2],[0.3,0.2]]","[[0.125,-0.2],[-0.125,-0.2]]",-0.103703675,-0.196296339,1,0,0,0.6409,o2_image,237.3993,0,237.8937,237.8938,239.8857,0,0,0,0,1,,,,,,,,,,,,,,,,,,,,,,,,,,,,,,,,,,,,,,,,,,,,,,,,,,
,,5c45ad3793f3690001c46767,43,male,2024-04-19_18h36.56.977,stockport_simplified,2022.2.4,Win32,74.62686567,661e456ee6de07e70aa9ef7b,66229d9fb0b345de2f9fedcf,,,,,,,,,,,,,,,,,,,,,,,,,,,,,,,,,,,,,,,,,,,,,,,,,,,,,,,,0,31,31,5,1,A,Y,N,o1_image,stimuli/out1.png,stimuli/correct_out1.png,stimuli/out2.png,,,,,,,,,,,,,,,,,,,,,,,,,,,,,,,,,,,,,,
,,5c45ad3793f3690001c46767,43,male,2024-04-19_18h36.56.977,stockport_simplified,2022.2.4,Win32,74.62686567,661e456ee6de07e70aa9ef7b,66229d9fb0b345de2f9fedcf,,,,,,,,,,,,,,,,,,,,,,,,,,,,,,,,,,239.8861,240.8884,"[3,7,8,2,6,5,4,1]","[[0.3,0.2],[-0.3,0.2]]","[[0.125,-0.2],[-0.125,-0.2]]",0.092592593,-0.199999986,1,0,0,0.4945,o1_image,240.8892,1,241.3828,241.3828,243.3749,0,0,0,0,1,,,,,,,,,,,,,,,,,,,,,,,,,,,,,,,,,,,,,,,,,,,,,,,,,,
,,5c45ad3793f3690001c46767,43,male,2024-04-19_18h36.56.977,stockport_simplified,2022.2.4,Win32,74.62686567,661e456ee6de07e70aa9ef7b,66229d9fb0b345de2f9fedcf,,,,,,,,,,,,,,,,,,,,,,,,,,,,,,,,,,,,,,,,,,,,,,,,,,,,,,,,0,32,32,38,1,A,Y,N,o1_image,stimuli/out1.png,stimuli/correct_out1.png,stimuli/out2.png,,,,,,,,,,,,,,,,,,,,,,,,,,,,,,,,,,,,,,
,,5c45ad3793f3690001c46767,43,male,2024-04-19_18h36.56.977,stockport_simplified,2022.2.4,Win32,74.62686567,661e456ee6de07e70aa9ef7b,66229d9fb0b345de2f9fedcf,,,,,,,,,,,,,,,,,,,,,,,,,,,,,,,,,,243.3753,244.1235,"[3,7,8,2,6,5,4,1]","[[-0.3,0.2],[0.3,0.2]]","[[-0.125,-0.2],[0.125,-0.2]]",-0.080555527,-0.196296339,1,0,0,0.2403,o1_image,244.1242,1,244.618,244.6181,246.61,0,0,0,0,1,,,,,,,,,,,,,,,,,,,,,,,,,,,,,,,,,,,,,,,,,,,,,,,,,,
,,5c45ad3793f3690001c46767,43,male,2024-04-19_18h36.56.977,stockport_simplified,2022.2.4,Win32,74.62686567,661e456ee6de07e70aa9ef7b,66229d9fb0b345de2f9fedcf,,,,,,,,,,,,,,,,,,,,,,,,,,,,,,,,,,,,,,,,,,,,,,,,,,,,,,,,0,33,33,31,1,A,X,N,o1_image,stimuli/out1.png,stimuli/correct_out1.png,stimuli/out2.png,,,,,,,,,,,,,,,,,,,,,,,,,,,,,,,,,,,,,,
,,5c45ad3793f3690001c46767,43,male,2024-04-19_18h36.56.977,stockport_simplified,2022.2.4,Win32,74.62686567,661e456ee6de07e70aa9ef7b,66229d9fb0b345de2f9fedcf,,,,,,,,,,,,,,,,,,,,,,,,,,,,,,,,,,246.6103,247.5589,"[3,7,8,2,6,5,4,1]","[[0.3,0.2],[-0.3,0.2]]","[[-0.125,-0.2],[0.125,-0.2]]",0.130555541,-0.20185188,1,0,0,0.4408,o2_image,247.5594,1,248.0536,248.0536,250.0456,0,0,0,0,1,,,,,,,,,,,,,,,,,,,,,,,,,,,,,,,,,,,,,,,,,,,,,,,,,,
,,5c45ad3793f3690001c46767,43,male,2024-04-19_18h36.56.977,stockport_simplified,2022.2.4,Win32,74.62686567,661e456ee6de07e70aa9ef7b,66229d9fb0b345de2f9fedcf,,,,,,,,,,,,,,,,,,,,,,,,,,,,,,,,,,,,,,,,,,,,,,,,,,,,,,,,0,34,34,42,1,B,X,N,o2_image,stimuli/out2.png,stimuli/out1.png,stimuli/correct_out2.png,,,,,,,,,,,,,,,,,,,,,,,,,,,,,,,,,,,,,,
,,5c45ad3793f3690001c46767,43,male,2024-04-19_18h36.56.977,stockport_simplified,2022.2.4,Win32,74.62686567,661e456ee6de07e70aa9ef7b,66229d9fb0b345de2f9fedcf,,,,,,,,,,,,,,,,,,,,,,,,,,,,,,,,,,250.046,250.7943,"[3,7,8,2,6,5,4,1]","[[-0.3,0.2],[0.3,0.2]]","[[0.125,-0.2],[-0.125,-0.2]]",0.125925912,-0.20185188,1,0,0,0.2403,o1_image,250.7951,1,251.2891,251.2891,253.281,0,0,0,0,1,,,,,,,,,,,,,,,,,,,,,,,,,,,,,,,,,,,,,,,,,,,,,,,,,,
,,5c45ad3793f3690001c46767,43,male,2024-04-19_18h36.56.977,stockport_simplified,2022.2.4,Win32,74.62686567,661e456ee6de07e70aa9ef7b,66229d9fb0b345de2f9fedcf,,,,,,,,,,,,,,,,,,,,,,,,,,,,,,,,,,,,,,,,,,,,,,,,,,,,,,,,0,35,35,54,1,N,M,C,o1_image,stimuli/out1.png,stimuli/correct_out1.png,stimuli/out2.png,,,,,,,,,,,,,,,,,,,,,,,,,,,,,,,,,,,,,,
,,5c45ad3793f3690001c46767,43,male,2024-04-19_18h36.56.977,stockport_simplified,2022.2.4,Win32,74.62686567,661e456ee6de07e70aa9ef7b,66229d9fb0b345de2f9fedcf,,,,,,,,,,,,,,,,,,,,,,,,,,,,,,,,,,253.2814,254.6042,"[3,7,8,2,6,5,4,1]","[[0.3,0.2],[-0.3,0.2]]","[[-0.125,-0.2],[0.125,-0.2]]",-0.024999972,-0.20185188,1,0,0,0.4128,o1_image,254.6047,0,255.0993,255.0993,257.0913,0,0,0,0,1,,,,,,,,,,,,,,,,,,,,,,,,,,,,,,,,,,,,,,,,,,,,,,,,,,
,,5c45ad3793f3690001c46767,43,male,2024-04-19_18h36.56.977,stockport_simplified,2022.2.4,Win32,74.62686567,661e456ee6de07e70aa9ef7b,66229d9fb0b345de2f9fedcf,,,,,,,,,,,,,,,,,,,,,,,,,,,,,,,,,,,,,,,,,,,,,,,,,,,,,,,,0,36,36,40,1,B,X,N,o2_image,stimuli/out2.png,stimuli/out1.png,stimuli/correct_out2.png,,,,,,,,,,,,,,,,,,,,,,,,,,,,,,,,,,,,,,
,,5c45ad3793f3690001c46767,43,male,2024-04-19_18h36.56.977,stockport_simplified,2022.2.4,Win32,74.62686567,661e456ee6de07e70aa9ef7b,66229d9fb0b345de2f9fedcf,,,,,,,,,,,,,,,,,,,,,,,,,,,,,,,,,,257.0918,258.0003,"[3,7,8,2,6,5,4,1]","[[0.3,0.2],[-0.3,0.2]]","[[0.125,-0.2],[-0.125,-0.2]]",-0.076851809,-0.192592621,1,0,0,0.4013,o2_image,258.0012,0,258.4951,258.4951,260.4868,0,0,0,0,1,,,,,,,,,,,,,,,,,,,,,,,,,,,,,,,,,,,,,,,,,,,,,,,,,,
,,5c45ad3793f3690001c46767,43,male,2024-04-19_18h36.56.977,stockport_simplified,2022.2.4,Win32,74.62686567,661e456ee6de07e70aa9ef7b,66229d9fb0b345de2f9fedcf,,,,,,,,,,,,,,,,,,,,,,,,,,,,,,,,,,,,,,,,,,,,,,,,,,,,,,,,0,37,37,36,1,A,Y,N,o1_image,stimuli/out1.png,stimuli/correct_out1.png,stimuli/out2.png,,,,,,,,,,,,,,,,,,,,,,,,,,,,,,,,,,,,,,
,,5c45ad3793f3690001c46767,43,male,2024-04-19_18h36.56.977,stockport_simplified,2022.2.4,Win32,74.62686567,661e456ee6de07e70aa9ef7b,66229d9fb0b345de2f9fedcf,,,,,,,,,,,,,,,,,,,,,,,,,,,,,,,,,,260.4872,261.7432,"[3,7,8,2,6,5,4,1]","[[0.3,0.2],[-0.3,0.2]]","[[-0.125,-0.2],[0.125,-0.2]]",0.126851894,-0.198148162,1,0,0,0.7482,o2_image,261.7436,1,262.2377,262.2377,264.23,0,0,0,0,1,,,,,,,,,,,,,,,,,,,,,,,,,,,,,,,,,,,,,,,,,,,,,,,,,,
,,5c45ad3793f3690001c46767,43,male,2024-04-19_18h36.56.977,stockport_simplified,2022.2.4,Win32,74.62686567,661e456ee6de07e70aa9ef7b,66229d9fb0b345de2f9fedcf,,,,,,,,,,,,,,,,,,,,,,,,,,,,,,,,,,,,,,,,,,,,,,,,,,,,,,,,0,38,38,43,1,B,X,N,o2_image,stimuli/out2.png,stimuli/out1.png,stimuli/correct_out2.png,,,,,,,,,,,,,,,,,,,,,,,,,,,,,,,,,,,,,,
,,5c45ad3793f3690001c46767,43,male,2024-04-19_18h36.56.977,stockport_simplified,2022.2.4,Win32,74.62686567,661e456ee6de07e70aa9ef7b,66229d9fb0b345de2f9fedcf,,,,,,,,,,,,,,,,,,,,,,,,,,,,,,,,,,264.2305,264.9785,"[3,7,8,2,6,5,4,1]","[[-0.3,0.2],[0.3,0.2]]","[[0.125,-0.2],[-0.125,-0.2]]",-0.080555527,-0.196296339,1,0,0,0.2397,o2_image,264.9793,0,265.4735,265.4735,267.4653,0,0,0,0,1,,,,,,,,,,,,,,,,,,,,,,,,,,,,,,,,,,,,,,,,,,,,,,,,,,
,,5c45ad3793f3690001c46767,43,male,2024-04-19_18h36.56.977,stockport_simplified,2022.2.4,Win32,74.62686567,661e456ee6de07e70aa9ef7b,66229d9fb0b345de2f9fedcf,,,,,,,,,,,,,,,,,,,,,,,,,,,,,,,,,,,,,,,,,,,,,,,,,,,,,,,,0,39,39,7,1,A,Y,N,o1_image,stimuli/out1.png,stimuli/correct_out1.png,stimuli/out2.png,,,,,,,,,,,,,,,,,,,,,,,,,,,,,,,,,,,,,,
,,5c45ad3793f3690001c46767,43,male,2024-04-19_18h36.56.977,stockport_simplified,2022.2.4,Win32,74.62686567,661e456ee6de07e70aa9ef7b,66229d9fb0b345de2f9fedcf,,,,,,,,,,,,,,,,,,,,,,,,,,,,,,,,,,267.4658,268.2406,"[3,7,8,2,6,5,4,1]","[[-0.3,0.2],[0.3,0.2]]","[[-0.125,-0.2],[0.125,-0.2]]",-0.092592593,-0.188888903,1,0,0,0.2674,o1_image,268.2412,0,268.7354,268.7355,270.7269,0,0,0,0,1,,,,,,,,,,,,,,,,,,,,,,,,,,,,,,,,,,,,,,,,,,,,,,,,,,
,,5c45ad3793f3690001c46767,43,male,2024-04-19_18h36.56.977,stockport_simplified,2022.2.4,Win32,74.62686567,661e456ee6de07e70aa9ef7b,66229d9fb0b345de2f9fedcf,,,,,,,,,,,,,,,,,,,,,,,,,,,,,,,,,,,,,,,,,,,,,,,,,,,,,,,,0,40,40,11,1,B,X,N,o2_image,stimuli/out2.png,stimuli/out1.png,stimuli/correct_out2.png,,,,,,,,,,,,,,,,,,,,,,,,,,,,,,,,,,,,,,
,,5c45ad3793f3690001c46767,43,male,2024-04-19_18h36.56.977,stockport_simplified,2022.2.4,Win32,74.62686567,661e456ee6de07e70aa9ef7b,66229d9fb0b345de2f9fedcf,,,,,,,,,,,,,,,,,,,,,,,,,,,,,,,,,,270.7274,271.5025,"[3,7,8,2,6,5,4,1]","[[-0.3,0.2],[0.3,0.2]]","[[-0.125,-0.2],[0.125,-0.2]]",-0.092592593,-0.188888903,1,0,0,0.2668,o1_image,271.5032,0,271.9967,271.9968,273.9893,0,0,0,0,1,,,,,,,,,,,,,,,,,,,,,,,,,,,,,,,,,,,,,,,,,,,,,,,,,,
,,5c45ad3793f3690001c46767,43,male,2024-04-19_18h36.56.977,stockport_simplified,2022.2.4,Win32,74.62686567,661e456ee6de07e70aa9ef7b,66229d9fb0b345de2f9fedcf,,,,,,,,,,,,,,,,,,,,,,,,,,,,,,,,,,,,,,,,,,,,,,,,,,,,,,,,0,41,41,19,1,B,Y,N,o2_image,stimuli/out2.png,stimuli/out1.png,stimuli/correct_out2.png,,,,,,,,,,,,,,,,,,,,,,,,,,,,,,,,,,,,,,
,,5c45ad3793f3690001c46767,43,male,2024-04-19_18h36.56.977,stockport_simplified,2022.2.4,Win32,74.62686567,661e456ee6de07e70aa9ef7b,66229d9fb0b345de2f9fedcf,,,,,,,,,,,,,,,,,,,,,,,,,,,,,,,,,,273.9897,274.7378,"[3,7,8,2,6,5,4,1]","[[-0.3,0.2],[0.3,0.2]]","[[0.125,-0.2],[-0.125,-0.2]]",-0.092592593,-0.188888903,1,0,0,0.24,o2_image,274.7386,1,275.2323,275.2323,277.2244,0,0,0,0,1,,,,,,,,,,,,,,,,,,,,,,,,,,,,,,,,,,,,,,,,,,,,,,,,,,
,,5c45ad3793f3690001c46767,43,male,2024-04-19_18h36.56.977,stockport_simplified,2022.2.4,Win32,74.62686567,661e456ee6de07e70aa9ef7b,66229d9fb0b345de2f9fedcf,,,,,,,,,,,,,,,,,,,,,,,,,,,,,,,,,,,,,,,,,,,,,,,,,,,,,,,,0,42,42,45,1,B,Y,N,o2_image,stimuli/out2.png,stimuli/out1.png,stimuli/correct_out2.png,,,,,,,,,,,,,,,,,,,,,,,,,,,,,,,,,,,,,,
,,5c45ad3793f3690001c46767,43,male,2024-04-19_18h36.56.977,stockport_simplified,2022.2.4,Win32,74.62686567,661e456ee6de07e70aa9ef7b,66229d9fb0b345de2f9fedcf,,,,,,,,,,,,,,,,,,,,,,,,,,,,,,,,,,277.2249,278.0132,"[3,7,8,2,6,5,4,1]","[[-0.3,0.2],[0.3,0.2]]","[[-0.125,-0.2],[0.125,-0.2]]",-0.092592593,-0.188888903,1,0,0,0.2806,o1_image,278.0141,1,278.5074,278.5075,280.4997,0,0,0,0,1,,,,,,,,,,,,,,,,,,,,,,,,,,,,,,,,,,,,,,,,,,,,,,,,,,
,,5c45ad3793f3690001c46767,43,male,2024-04-19_18h36.56.977,stockport_simplified,2022.2.4,Win32,74.62686567,661e456ee6de07e70aa9ef7b,66229d9fb0b345de2f9fedcf,,,,,,,,,,,,,,,,,,,,,,,,,,,,,,,,,,,,,,,,,,,,,,,,,,,,,,,,0,43,43,3,1,A,X,N,o1_image,stimuli/out1.png,stimuli/correct_out1.png,stimuli/out2.png,,,,,,,,,,,,,,,,,,,,,,,,,,,,,,,,,,,,,,
,,5c45ad3793f3690001c46767,43,male,2024-04-19_18h36.56.977,stockport_simplified,2022.2.4,Win32,74.62686567,661e456ee6de07e70aa9ef7b,66229d9fb0b345de2f9fedcf,,,,,,,,,,,,,,,,,,,,,,,,,,,,,,,,,,280.5004,281.1683,"[3,7,8,2,6,5,4,1]","[[-0.3,0.2],[0.3,0.2]]","[[-0.125,-0.2],[0.125,-0.2]]",-0.092592593,-0.188888903,1,0,0,0.1602,o1_image,281.169,0,281.6627,281.6627,283.6549,0,0,0,0,1,,,,,,,,,,,,,,,,,,,,,,,,,,,,,,,,,,,,,,,,,,,,,,,,,,
,,5c45ad3793f3690001c46767,43,male,2024-04-19_18h36.56.977,stockport_simplified,2022.2.4,Win32,74.62686567,661e456ee6de07e70aa9ef7b,66229d9fb0b345de2f9fedcf,,,,,,,,,,,,,,,,,,,,,,,,,,,,,,,,,,,,,,,,,,,,,,,,,,,,,,,,0,44,44,44,1,B,X,N,o2_image,stimuli/out2.png,stimuli/out1.png,stimuli/correct_out2.png,,,,,,,,,,,,,,,,,,,,,,,,,,,,,,,,,,,,,,
,,5c45ad3793f3690001c46767,43,male,2024-04-19_18h36.56.977,stockport_simplified,2022.2.4,Win32,74.62686567,661e456ee6de07e70aa9ef7b,66229d9fb0b345de2f9fedcf,,,,,,,,,,,,,,,,,,,,,,,,,,,,,,,,,,283.6555,284.2563,"[3,7,8,2,6,5,4,1]","[[0.3,0.2],[-0.3,0.2]]","[[-0.125,-0.2],[0.125,-0.2]]",-0.092592593,-0.188888903,1,0,0,0.0935,o1_image,284.2571,0,284.7513,284.7514,286.7427,0,0,0,0,1,,,,,,,,,,,,,,,,,,,,,,,,,,,,,,,,,,,,,,,,,,,,,,,,,,
,,5c45ad3793f3690001c46767,43,male,2024-04-19_18h36.56.977,stockport_simplified,2022.2.4,Win32,74.62686567,661e456ee6de07e70aa9ef7b,66229d9fb0b345de2f9fedcf,,,,,,,,,,,,,,,,,,,,,,,,,,,,,,,,,,,,,,,,,,,,,,,,,,,,,,,,0,45,45,26,1,N,M,D,o2_image,stimuli/out2.png,stimuli/out1.png,stimuli/correct_out2.png,,,,,,,,,,,,,,,,,,,,,,,,,,,,,,,,,,,,,,
,,5c45ad3793f3690001c46767,43,male,2024-04-19_18h36.56.977,stockport_simplified,2022.2.4,Win32,74.62686567,661e456ee6de07e70aa9ef7b,66229d9fb0b345de2f9fedcf,,,,,,,,,,,,,,,,,,,,,,,,,,,,,,,,,,286.743,287.4112,"[3,7,8,2,6,5,4,1]","[[0.3,0.2],[-0.3,0.2]]","[[0.125,-0.2],[-0.125,-0.2]]",-0.092592593,-0.188888903,1,0,0,0.16,o2_image,287.4119,0,287.9058,287.9059,289.8981,0,0,0,0,1,,,,,,,,,,,,,,,,,,,,,,,,,,,,,,,,,,,,,,,,,,,,,,,,,,
,,5c45ad3793f3690001c46767,43,male,2024-04-19_18h36.56.977,stockport_simplified,2022.2.4,Win32,74.62686567,661e456ee6de07e70aa9ef7b,66229d9fb0b345de2f9fedcf,,,,,,,,,,,,,,,,,,,,,,,,,,,,,,,,,,,,,,,,,,,,,,,,,,,,,,,,0,46,46,20,1,N,M,C,o1_image,stimuli/out1.png,stimuli/correct_out1.png,stimuli/out2.png,,,,,,,,,,,,,,,,,,,,,,,,,,,,,,,,,,,,,,
,,5c45ad3793f3690001c46767,43,male,2024-04-19_18h36.56.977,stockport_simplified,2022.2.4,Win32,74.62686567,661e456ee6de07e70aa9ef7b,66229d9fb0b345de2f9fedcf,,,,,,,,,,,,,,,,,,,,,,,,,,,,,,,,,,289.8986,290.6332,"[3,7,8,2,6,5,4,1]","[[0.3,0.2],[-0.3,0.2]]","[[0.125,-0.2],[-0.125,-0.2]]",-0.092592593,-0.188888903,1,0,0,0.2269,o2_image,290.634,1,291.1278,291.1278,293.1197,0,0,0,0,1,,,,,,,,,,,,,,,,,,,,,,,,,,,,,,,,,,,,,,,,,,,,,,,,,,
,,5c45ad3793f3690001c46767,43,male,2024-04-19_18h36.56.977,stockport_simplified,2022.2.4,Win32,74.62686567,661e456ee6de07e70aa9ef7b,66229d9fb0b345de2f9fedcf,,,,,,,,,,,,,,,,,,,,,,,,,,,,,,,,,,,,,,,,,,,,,,,,,,,,,,,,0,47,47,41,1,B,X,N,o2_image,stimuli/out2.png,stimuli/out1.png,stimuli/correct_out2.png,,,,,,,,,,,,,,,,,,,,,,,,,,,,,,,,,,,,,,
,,5c45ad3793f3690001c46767,43,male,2024-04-19_18h36.56.977,stockport_simplified,2022.2.4,Win32,74.62686567,661e456ee6de07e70aa9ef7b,66229d9fb0b345de2f9fedcf,,,,,,,,,,,,,,,,,,,,,,,,,,,,,,,,,,293.12,293.8683,"[3,7,8,2,6,5,4,1]","[[-0.3,0.2],[0.3,0.2]]","[[0.125,-0.2],[-0.125,-0.2]]",0.05277782,-0.192592621,1,0,0,0.2408,o1_image,293.8691,1,294.3625,294.3625,296.355,0,0,0,0,1,,,,,,,,,,,,,,,,,,,,,,,,,,,,,,,,,,,,,,,,,,,,,,,,,,
,,5c45ad3793f3690001c46767,43,male,2024-04-19_18h36.56.977,stockport_simplified,2022.2.4,Win32,74.62686567,661e456ee6de07e70aa9ef7b,66229d9fb0b345de2f9fedcf,,,,,,,,,,,,,,,,,,,,,,,,,,,,,,,,,,,,,,,,,,,,,,,,,,,,,,,,0,48,48,53,1,N,M,C,o1_image,stimuli/out1.png,stimuli/correct_out1.png,stimuli/out2.png,,,,,,,,,,,,,,,,,,,,,,,,,,,,,,,,,,,,,,
,,5c45ad3793f3690001c46767,43,male,2024-04-19_18h36.56.977,stockport_simplified,2022.2.4,Win32,74.62686567,661e456ee6de07e70aa9ef7b,66229d9fb0b345de2f9fedcf,,,,,,,,,,,,,,,,,,,,,,,,,,,,,,,,,,296.3554,297.3308,"[3,7,8,2,6,5,4,1]","[[0.3,0.2],[-0.3,0.2]]","[[-0.125,-0.2],[0.125,-0.2]]",0.069444444,-0.195370356,1,0,0,0.4674,o2_image,297.3315,0,297.8253,297.8253,299.8176,0,0,0,0,1,,,,,,,,,,,,,,,,,,,,,,,,,,,,,,,,,,,,,,,,,,,,,,,,,,
,,5c45ad3793f3690001c46767,43,male,2024-04-19_18h36.56.977,stockport_simplified,2022.2.4,Win32,74.62686567,661e456ee6de07e70aa9ef7b,66229d9fb0b345de2f9fedcf,,,,,,,,,,,,,,,,,,,,,,,,,,,,,,,,,,,,,,,,,,,,,,,,,,,,,,,,0,49,49,51,1,N,M,C,o1_image,stimuli/out1.png,stimuli/correct_out1.png,stimuli/out2.png,,,,,,,,,,,,,,,,,,,,,,,,,,,,,,,,,,,,,,
,,5c45ad3793f3690001c46767,43,male,2024-04-19_18h36.56.977,stockport_simplified,2022.2.4,Win32,74.62686567,661e456ee6de07e70aa9ef7b,66229d9fb0b345de2f9fedcf,,,,,,,,,,,,,,,,,,,,,,,,,,,,,,,,,,299.8182,300.4858,"[3,7,8,2,6,5,4,1]","[[0.3,0.2],[-0.3,0.2]]","[[0.125,-0.2],[-0.125,-0.2]]",-0.111111111,-0.187037079,1,0,0,0.1598,o2_image,300.4865,0,300.9802,300.9803,302.9721,0,0,0,0,1,,,,,,,,,,,,,,,,,,,,,,,,,,,,,,,,,,,,,,,,,,,,,,,,,,
,,5c45ad3793f3690001c46767,43,male,2024-04-19_18h36.56.977,stockport_simplified,2022.2.4,Win32,74.62686567,661e456ee6de07e70aa9ef7b,66229d9fb0b345de2f9fedcf,,,,,,,,,,,,,,,,,,,,,,,,,,,,,,,,,,,,,,,,,,,,,,,,,,,,,,,,0,50,50,39,1,A,Y,N,o1_image,stimuli/out1.png,stimuli/correct_out1.png,stimuli/out2.png,,,,,,,,,,,,,,,,,,,,,,,,,,,,,,,,,,,,,,
,,5c45ad3793f3690001c46767,43,male,2024-04-19_18h36.56.977,stockport_simplified,2022.2.4,Win32,74.62686567,661e456ee6de07e70aa9ef7b,66229d9fb0b345de2f9fedcf,,,,,,,,,,,,,,,,,,,,,,,,,,,,,,,,,,302.9724,303.6143,"[3,7,8,2,6,5,4,1]","[[0.3,0.2],[-0.3,0.2]]","[[0.125,-0.2],[-0.125,-0.2]]",-0.062962921,-0.195370356,1,0,0,0.1334,o2_image,303.615,1,304.1087,304.1087,306.1008,0,0,0,0,1,,,,,,,,,,,,,,,,,,,,,,,,,,,,,,,,,,,,,,,,,,,,,,,,,,
,,5c45ad3793f3690001c46767,43,male,2024-04-19_18h36.56.977,stockport_simplified,2022.2.4,Win32,74.62686567,661e456ee6de07e70aa9ef7b,66229d9fb0b345de2f9fedcf,,,,,,,,,,,,,,,,,,,,,,,,,,,,,,,,,,,,,,,,,,,,,,,,,,,,,,,,0,51,51,14,1,B,X,N,o2_image,stimuli/out2.png,stimuli/out1.png,stimuli/correct_out2.png,,,,,,,,,,,,,,,,,,,,,,,,,,,,,,,,,,,,,,
,,5c45ad3793f3690001c46767,43,male,2024-04-19_18h36.56.977,stockport_simplified,2022.2.4,Win32,74.62686567,661e456ee6de07e70aa9ef7b,66229d9fb0b345de2f9fedcf,,,,,,,,,,,,,,,,,,,,,,,,,,,,,,,,,,306.1013,307.1301,"[3,7,8,2,6,5,4,1]","[[0.3,0.2],[-0.3,0.2]]","[[-0.125,-0.2],[0.125,-0.2]]",0.077777792,-0.194444444,1,0,0,0.5213,o2_image,307.1308,0,307.6241,307.6242,309.6166,0,0,0,0,1,,,,,,,,,,,,,,,,,,,,,,,,,,,,,,,,,,,,,,,,,,,,,,,,,,
,,5c45ad3793f3690001c46767,43,male,2024-04-19_18h36.56.977,stockport_simplified,2022.2.4,Win32,74.62686567,661e456ee6de07e70aa9ef7b,66229d9fb0b345de2f9fedcf,,,,,,,,,,,,,,,,,,,,,,,,,,,,,,,,,,,,,,,,,,,,,,,,,,,,,,,,0,52,52,2,1,A,X,N,o1_image,stimuli/out1.png,stimuli/correct_out1.png,stimuli/out2.png,,,,,,,,,,,,,,,,,,,,,,,,,,,,,,,,,,,,,,
,,5c45ad3793f3690001c46767,43,male,2024-04-19_18h36.56.977,stockport_simplified,2022.2.4,Win32,74.62686567,661e456ee6de07e70aa9ef7b,66229d9fb0b345de2f9fedcf,,,,,,,,,,,,,,,,,,,,,,,,,,,,,,,,,,309.6171,310.2715,"[3,7,8,2,6,5,4,1]","[[-0.3,0.2],[0.3,0.2]]","[[0.125,-0.2],[-0.125,-0.2]]",-0.064814815,-0.187037079,1,0,0,0.1465,o2_image,310.2719,1,310.766,310.7661,312.7584,0,0,0,0,1,,,,,,,,,,,,,,,,,,,,,,,,,,,,,,,,,,,,,,,,,,,,,,,,,,
,,5c45ad3793f3690001c46767,43,male,2024-04-19_18h36.56.977,stockport_simplified,2022.2.4,Win32,74.62686567,661e456ee6de07e70aa9ef7b,66229d9fb0b345de2f9fedcf,,,,,,,,,,,,,,,,,,,,,,,,,,,,,,,,,,,,,,,,,,,,,,,,,,,,,,,,0,53,53,27,1,N,M,D,o2_image,stimuli/out2.png,stimuli/out1.png,stimuli/correct_out2.png,,,,,,,,,,,,,,,,,,,,,,,,,,,,,,,,,,,,,,
,,5c45ad3793f3690001c46767,43,male,2024-04-19_18h36.56.977,stockport_simplified,2022.2.4,Win32,74.62686567,661e456ee6de07e70aa9ef7b,66229d9fb0b345de2f9fedcf,,,,,,,,,,,,,,,,,,,,,,,,,,,,,,,,,,312.759,313.3467,"[3,7,8,2,6,5,4,1]","[[0.3,0.2],[-0.3,0.2]]","[[-0.125,-0.2],[0.125,-0.2]]",0.131481524,-0.195370356,1,0,0,0.08,o2_image,313.3475,1,313.8413,313.8413,315.8332,0,0,0,0,1,,,,,,,,,,,,,,,,,,,,,,,,,,,,,,,,,,,,,,,,,,,,,,,,,,
,,5c45ad3793f3690001c46767,43,male,2024-04-19_18h36.56.977,stockport_simplified,2022.2.4,Win32,74.62686567,661e456ee6de07e70aa9ef7b,66229d9fb0b345de2f9fedcf,,,,,,,,,,,,,,,,,,,,,,,,,,,,,,,,,,,,,,,,,,,,,,,,,,,,,,,,0,54,54,46,1,B,Y,N,o2_image,stimuli/out2.png,stimuli/out1.png,stimuli/correct_out2.png,,,,,,,,,,,,,,,,,,,,,,,,,,,,,,,,,,,,,,
,,5c45ad3793f3690001c46767,43,male,2024-04-19_18h36.56.977,stockport_simplified,2022.2.4,Win32,74.62686567,661e456ee6de07e70aa9ef7b,66229d9fb0b345de2f9fedcf,,,,,,,,,,,,,,,,,,,,,,,,,,,,,,,,,,315.8336,317.1836,"[3,7,8,2,6,5,4,1]","[[0.3,0.2],[-0.3,0.2]]","[[0.125,-0.2],[-0.125,-0.2]]",-0.025925884,-0.188888903,1,0,0,0.3339,o1_image,317.1844,1,317.6783,317.6783,319.67,0,0,0,0,1,,,,,,,,,,,,,,,,,,,,,,,,,,,,,,,,,,,,,,,,,,,,,,,,,,
,,5c45ad3793f3690001c46767,43,male,2024-04-19_18h36.56.977,stockport_simplified,2022.2.4,Win32,74.62686567,661e456ee6de07e70aa9ef7b,66229d9fb0b345de2f9fedcf,,,,,,,,,,,,,,,,,,,,,,,,,,,,,,,,,,,,,,,,,,,,,,,,,,,,,,,,0,55,55,9,1,A,Y,N,o1_image,stimuli/out1.png,stimuli/correct_out1.png,stimuli/out2.png,,,,,,,,,,,,,,,,,,,,,,,,,,,,,,,,,,,,,,
,,5c45ad3793f3690001c46767,43,male,2024-04-19_18h36.56.977,stockport_simplified,2022.2.4,Win32,74.62686567,661e456ee6de07e70aa9ef7b,66229d9fb0b345de2f9fedcf,,,,,,,,,,,,,,,,,,,,,,,,,,,,,,,,,,319.6705,321.4218,"[3,7,8,2,6,5,4,1]","[[-0.3,0.2],[0.3,0.2]]","[[0.125,-0.2],[-0.125,-0.2]]",-0.078703704,-0.186111097,1,0,0,1.2434,o2_image,321.4228,1,321.9159,321.916,323.9078,0,0,0,0,1,,,,,,,,,,,,,,,,,,,,,,,,,,,,,,,,,,,,,,,,,,,,,,,,,,
,,5c45ad3793f3690001c46767,43,male,2024-04-19_18h36.56.977,stockport_simplified,2022.2.4,Win32,74.62686567,661e456ee6de07e70aa9ef7b,66229d9fb0b345de2f9fedcf,,,,,,,,,,,,,,,,,,,,,,,,,,,,,,,,,,,,,,,,,,,,,,,,,,,,,,,,0,56,56,29,1,N,M,D,o2_image,stimuli/out2.png,stimuli/out1.png,stimuli/correct_out2.png,,,,,,,,,,,,,,,,,,,,,,,,,,,,,,,,,,,,,,
,,5c45ad3793f3690001c46767,43,male,2024-04-19_18h36.56.977,stockport_simplified,2022.2.4,Win32,74.62686567,661e456ee6de07e70aa9ef7b,66229d9fb0b345de2f9fedcf,,,,,,,,,,,,,,,,,,,,,,,,,,,,,,,,,,323.9083,325.2712,"[3,7,8,2,6,5,4,1]","[[0.3,0.2],[-0.3,0.2]]","[[-0.125,-0.2],[0.125,-0.2]]",-0.128703718,-0.196296339,1,0,0,0.8555,o1_image,325.272,0,325.766,325.7661,327.7575,0,0,0,0,1,,,,,,,,,,,,,,,,,,,,,,,,,,,,,,,,,,,,,,,,,,,,,,,,,,
,,5c45ad3793f3690001c46767,43,male,2024-04-19_18h36.56.977,stockport_simplified,2022.2.4,Win32,74.62686567,661e456ee6de07e70aa9ef7b,66229d9fb0b345de2f9fedcf,,,,,,,,,,,,,,,,,,,,,,,,,,,,,,,,,,,,,,,,,,,,,,,,,,,,,,,,0,57,57,16,1,B,Y,N,o2_image,stimuli/out2.png,stimuli/out1.png,stimuli/correct_out2.png,,,,,,,,,,,,,,,,,,,,,,,,,,,,,,,,,,,,,,
,,5c45ad3793f3690001c46767,43,male,2024-04-19_18h36.56.977,stockport_simplified,2022.2.4,Win32,74.62686567,661e456ee6de07e70aa9ef7b,66229d9fb0b345de2f9fedcf,,,,,,,,,,,,,,,,,,,,,,,,,,,,,,,,,,327.7578,329.1079,"[3,7,8,2,6,5,4,1]","[[0.3,0.2],[-0.3,0.2]]","[[-0.125,-0.2],[0.125,-0.2]]",-0.141666624,-0.202777792,1,0,0,0.841,o1_image,329.1083,0,329.603,329.603,331.5948,0,0,0,0,1,,,,,,,,,,,,,,,,,,,,,,,,,,,,,,,,,,,,,,,,,,,,,,,,,,
,,5c45ad3793f3690001c46767,43,male,2024-04-19_18h36.56.977,stockport_simplified,2022.2.4,Win32,74.62686567,661e456ee6de07e70aa9ef7b,66229d9fb0b345de2f9fedcf,,,,,,,,,,,,,,,,,,,,,,,,,,,,,,,,,,,,,,,,,,,,,,,,,,,,,,,,0,58,58,25,1,N,M,D,o2_image,stimuli/out2.png,stimuli/out1.png,stimuli/correct_out2.png,,,,,,,,,,,,,,,,,,,,,,,,,,,,,,,,,,,,,,
,,5c45ad3793f3690001c46767,43,male,2024-04-19_18h36.56.977,stockport_simplified,2022.2.4,Win32,74.62686567,661e456ee6de07e70aa9ef7b,66229d9fb0b345de2f9fedcf,,,,,,,,,,,,,,,,,,,,,,,,,,,,,,,,,,331.5952,332.3834,"[3,7,8,2,6,5,4,1]","[[0.3,0.2],[-0.3,0.2]]","[[-0.125,-0.2],[0.125,-0.2]]",0.074074074,-0.196296339,1,0,0,0.2806,o2_image,332.384,0,332.8784,332.8784,334.8705,0,0,0,0,1,,,,,,,,,,,,,,,,,,,,,,,,,,,,,,,,,,,,,,,,,,,,,,,,,,
,,5c45ad3793f3690001c46767,43,male,2024-04-19_18h36.56.977,stockport_simplified,2022.2.4,Win32,74.62686567,661e456ee6de07e70aa9ef7b,66229d9fb0b345de2f9fedcf,,,,,,,,,,,,,,,,,,,,,,,,,,,,,,,,,,,,,,,,,,,,,,,,,,,,,,,,0,59,59,23,1,N,M,C,o1_image,stimuli/out1.png,stimuli/correct_out1.png,stimuli/out2.png,,,,,,,,,,,,,,,,,,,,,,,,,,,,,,,,,,,,,,
,,5c45ad3793f3690001c46767,43,male,2024-04-19_18h36.56.977,stockport_simplified,2022.2.4,Win32,74.62686567,661e456ee6de07e70aa9ef7b,66229d9fb0b345de2f9fedcf,,,,,,,,,,,,,,,,,,,,,,,,,,,,,,,,,,334.8708,335.672,"[3,7,8,2,6,5,4,1]","[[0.3,0.2],[-0.3,0.2]]","[[-0.125,-0.2],[0.125,-0.2]]",0.079629616,-0.200925968,1,0,0,0.2938,o2_image,335.6728,1,336.1668,336.1669,338.159,0,0,0,0,1,,,,,,,,,,,,,,,,,,,,,,,,,,,,,,,,,,,,,,,,,,,,,,,,,,
,,5c45ad3793f3690001c46767,43,male,2024-04-19_18h36.56.977,stockport_simplified,2022.2.4,Win32,74.62686567,661e456ee6de07e70aa9ef7b,66229d9fb0b345de2f9fedcf,,,,,,,,,,,,,,,,,,,,,,,,,,,,,,,,,,,,,,,,,,,,,,,,,,,,,,,,1,0,60,55,1,N,M,D,o2_image,stimuli/out2.png,stimuli/out1.png,stimuli/correct_out2.png,,,,,,,,,,,,,,,,,,,,,,,,,,,,,,,,,,,,,,
,,5c45ad3793f3690001c46767,43,male,2024-04-19_18h36.56.977,stockport_simplified,2022.2.4,Win32,74.62686567,661e456ee6de07e70aa9ef7b,66229d9fb0b345de2f9fedcf,,,,,,,,,,,,,,,,,,,,,,,,,,,,,,,,,,338.1594,339.5218,"[3,7,8,2,6,5,4,1]","[[-0.3,0.2],[0.3,0.2]]","[[0.125,-0.2],[-0.125,-0.2]]",-0.115740741,-0.20185188,1,0,0,0.8548,o2_image,339.5222,0,340.0168,340.0168,342.0092,0,0,0,0,1,,,,,,,,,,,,,,,,,,,,,,,,,,,,,,,,,,,,,,,,,,,,,,,,,,
,,5c45ad3793f3690001c46767,43,male,2024-04-19_18h36.56.977,stockport_simplified,2022.2.4,Win32,74.62686567,661e456ee6de07e70aa9ef7b,66229d9fb0b345de2f9fedcf,,,,,,,,,,,,,,,,,,,,,,,,,,,,,,,,,,,,,,,,,,,,,,,,,,,,,,,,1,1,61,54,1,N,M,C,o1_image,stimuli/out1.png,stimuli/correct_out1.png,stimuli/out2.png,,,,,,,,,,,,,,,,,,,,,,,,,,,,,,,,,,,,,,
,,5c45ad3793f3690001c46767,43,male,2024-04-19_18h36.56.977,stockport_simplified,2022.2.4,Win32,74.62686567,661e456ee6de07e70aa9ef7b,66229d9fb0b345de2f9fedcf,,,,,,,,,,,,,,,,,,,,,,,,,,,,,,,,,,342.0097,343.7336,"[3,7,8,2,6,5,4,1]","[[0.3,0.2],[-0.3,0.2]]","[[0.125,-0.2],[-0.125,-0.2]]",0.159259302,-0.212037051,1,0,0,1.2171,o1_image,343.7344,1,344.2281,344.2281,346.2195,0,0,0,0,1,,,,,,,,,,,,,,,,,,,,,,,,,,,,,,,,,,,,,,,,,,,,,,,,,,
,,5c45ad3793f3690001c46767,43,male,2024-04-19_18h36.56.977,stockport_simplified,2022.2.4,Win32,74.62686567,661e456ee6de07e70aa9ef7b,66229d9fb0b345de2f9fedcf,,,,,,,,,,,,,,,,,,,,,,,,,,,,,,,,,,,,,,,,,,,,,,,,,,,,,,,,1,2,62,21,1,N,M,C,o1_image,stimuli/out1.png,stimuli/correct_out1.png,stimuli/out2.png,,,,,,,,,,,,,,,,,,,,,,,,,,,,,,,,,,,,,,
,,5c45ad3793f3690001c46767,43,male,2024-04-19_18h36.56.977,stockport_simplified,2022.2.4,Win32,74.62686567,661e456ee6de07e70aa9ef7b,66229d9fb0b345de2f9fedcf,,,,,,,,,,,,,,,,,,,,,,,,,,,,,,,,,,346.2198,349.4555,"[3,7,8,2,6,5,4,1]","[[-0.3,0.2],[0.3,0.2]]","[[0.125,-0.2],[-0.125,-0.2]]",0.130555541,-0.208333333,1,0,0,2.7272,o1_image,349.4676,1,349.9633,349.9633,351.9553,0,0,0,0,1,,,,,,,,,,,,,,,,,,,,,,,,,,,,,,,,,,,,,,,,,,,,,,,,,,
,,5c45ad3793f3690001c46767,43,male,2024-04-19_18h36.56.977,stockport_simplified,2022.2.4,Win32,74.62686567,661e456ee6de07e70aa9ef7b,66229d9fb0b345de2f9fedcf,,,,,,,,,,,,,,,,,,,,,,,,,,,,,,,,,,,,,,,,,,,,,,,,,,,,,,,,1,3,63,37,1,A,Y,N,o1_image,stimuli/out1.png,stimuli/correct_out1.png,stimuli/out2.png,,,,,,,,,,,,,,,,,,,,,,,,,,,,,,,,,,,,,,
,,5c45ad3793f3690001c46767,43,male,2024-04-19_18h36.56.977,stockport_simplified,2022.2.4,Win32,74.62686567,661e456ee6de07e70aa9ef7b,66229d9fb0b345de2f9fedcf,,,,,,,,,,,,,,,,,,,,,,,,,,,,,,,,,,351.9557,354.0942,"[3,7,8,2,6,5,4,1]","[[-0.3,0.2],[0.3,0.2]]","[[-0.125,-0.2],[0.125,-0.2]]",0.130555541,-0.208333333,1,0,0,1.6305,o2_image,354.0945,1,354.5883,354.5883,356.581,0,0,0,0,1,,,,,,,,,,,,,,,,,,,,,,,,,,,,,,,,,,,,,,,,,,,,,,,,,,
,,5c45ad3793f3690001c46767,43,male,2024-04-19_18h36.56.977,stockport_simplified,2022.2.4,Win32,74.62686567,661e456ee6de07e70aa9ef7b,66229d9fb0b345de2f9fedcf,,,,,,,,,,,,,,,,,,,,,,,,,,,,,,,,,,,,,,,,,,,,,,,,,,,,,,,,1,4,64,15,1,B,Y,N,o2_image,stimuli/out2.png,stimuli/out1.png,stimuli/correct_out2.png,,,,,,,,,,,,,,,,,,,,,,,,,,,,,,,,,,,,,,
,,5c45ad3793f3690001c46767,43,male,2024-04-19_18h36.56.977,stockport_simplified,2022.2.4,Win32,74.62686567,661e456ee6de07e70aa9ef7b,66229d9fb0b345de2f9fedcf,,,,,,,,,,,,,,,,,,,,,,,,,,,,,,,,,,356.5814,358.1452,"[3,7,8,2,6,5,4,1]","[[-0.3,0.2],[0.3,0.2]]","[[0.125,-0.2],[-0.125,-0.2]]",0.196296339,-0.207407422,1,0,0,1.0556,o1_image,358.1463,1,358.6394,358.6394,360.6315,0,0,0,0,1,,,,,,,,,,,,,,,,,,,,,,,,,,,,,,,,,,,,,,,,,,,,,,,,,,
,,5c45ad3793f3690001c46767,43,male,2024-04-19_18h36.56.977,stockport_simplified,2022.2.4,Win32,74.62686567,661e456ee6de07e70aa9ef7b,66229d9fb0b345de2f9fedcf,,,,,,,,,,,,,,,,,,,,,,,,,,,,,,,,,,,,,,,,,,,,,,,,,,,,,,,,1,5,65,22,1,N,M,C,o1_image,stimuli/out1.png,stimuli/correct_out1.png,stimuli/out2.png,,,,,,,,,,,,,,,,,,,,,,,,,,,,,,,,,,,,,,
,,5c45ad3793f3690001c46767,43,male,2024-04-19_18h36.56.977,stockport_simplified,2022.2.4,Win32,74.62686567,661e456ee6de07e70aa9ef7b,66229d9fb0b345de2f9fedcf,,,,,,,,,,,,,,,,,,,,,,,,,,,,,,,,,,360.6319,362.7573,"[3,7,8,2,6,5,4,1]","[[-0.3,0.2],[0.3,0.2]]","[[-0.125,-0.2],[0.125,-0.2]]",0.135185171,-0.203703704,1,0,0,1.6179,o2_image,362.7579,1,363.2518,363.2518,365.2439,0,0,0,0,1,,,,,,,,,,,,,,,,,,,,,,,,,,,,,,,,,,,,,,,,,,,,,,,,,,
,,5c45ad3793f3690001c46767,43,male,2024-04-19_18h36.56.977,stockport_simplified,2022.2.4,Win32,74.62686567,661e456ee6de07e70aa9ef7b,66229d9fb0b345de2f9fedcf,,,,,,,,,,,,,,,,,,,,,,,,,,,,,,,,,,,,,,,,,,,,,,,,,,,,,,,,1,6,66,14,1,B,X,N,o2_image,stimuli/out2.png,stimuli/out1.png,stimuli/correct_out2.png,,,,,,,,,,,,,,,,,,,,,,,,,,,,,,,,,,,,,,
,,5c45ad3793f3690001c46767,43,male,2024-04-19_18h36.56.977,stockport_simplified,2022.2.4,Win32,74.62686567,661e456ee6de07e70aa9ef7b,66229d9fb0b345de2f9fedcf,,,,,,,,,,,,,,,,,,,,,,,,,,,,,,,,,,365.2443,367.3961,"[3,7,8,2,6,5,4,1]","[[-0.3,0.2],[0.3,0.2]]","[[-0.125,-0.2],[0.125,-0.2]]",0.135185171,-0.203703704,1,0,0,1.6442,o2_image,367.3969,1,367.8907,367.8908,369.8828,0,0,0,0,1,,,,,,,,,,,,,,,,,,,,,,,,,,,,,,,,,,,,,,,,,,,,,,,,,,
,,5c45ad3793f3690001c46767,43,male,2024-04-19_18h36.56.977,stockport_simplified,2022.2.4,Win32,74.62686567,661e456ee6de07e70aa9ef7b,66229d9fb0b345de2f9fedcf,,,,,,,,,,,,,,,,,,,,,,,,,,,,,,,,,,,,,,,,,,,,,,,,,,,,,,,,1,7,67,43,1,B,X,N,o2_image,stimuli/out2.png,stimuli/out1.png,stimuli/correct_out2.png,,,,,,,,,,,,,,,,,,,,,,,,,,,,,,,,,,,,,,
,,5c45ad3793f3690001c46767,43,male,2024-04-19_18h36.56.977,stockport_simplified,2022.2.4,Win32,74.62686567,661e456ee6de07e70aa9ef7b,66229d9fb0b345de2f9fedcf,,,,,,,,,,,,,,,,,,,,,,,,,,,,,,,,,,369.8832,372.0213,"[3,7,8,2,6,5,4,1]","[[0.3,0.2],[-0.3,0.2]]","[[0.125,-0.2],[-0.125,-0.2]]",0.117592635,-0.203703704,1,0,0,1.6301,o1_image,372.0219,0,372.516,372.5161,374.5079,0,0,0,0,1,,,,,,,,,,,,,,,,,,,,,,,,,,,,,,,,,,,,,,,,,,,,,,,,,,
,,5c45ad3793f3690001c46767,43,male,2024-04-19_18h36.56.977,stockport_simplified,2022.2.4,Win32,74.62686567,661e456ee6de07e70aa9ef7b,66229d9fb0b345de2f9fedcf,,,,,,,,,,,,,,,,,,,,,,,,,,,,,,,,,,,,,,,,,,,,,,,,,,,,,,,,1,8,68,25,1,N,M,D,o2_image,stimuli/out2.png,stimuli/out1.png,stimuli/correct_out2.png,,,,,,,,,,,,,,,,,,,,,,,,,,,,,,,,,,,,,,
,,5c45ad3793f3690001c46767,43,male,2024-04-19_18h36.56.977,stockport_simplified,2022.2.4,Win32,74.62686567,661e456ee6de07e70aa9ef7b,66229d9fb0b345de2f9fedcf,,,,,,,,,,,,,,,,,,,,,,,,,,,,,,,,,,374.5086,376.7812,"[3,7,8,2,6,5,4,1]","[[0.3,0.2],[-0.3,0.2]]","[[0.125,-0.2],[-0.125,-0.2]]",-0.126851824,-0.192592621,1,0,0,1.7643,o2_image,376.7925,0,377.2886,377.2886,379.2809,0,0,0,0,1,,,,,,,,,,,,,,,,,,,,,,,,,,,,,,,,,,,,,,,,,,,,,,,,,,
,,5c45ad3793f3690001c46767,43,male,2024-04-19_18h36.56.977,stockport_simplified,2022.2.4,Win32,74.62686567,661e456ee6de07e70aa9ef7b,66229d9fb0b345de2f9fedcf,,,,,,,,,,,,,,,,,,,,,,,,,,,,,,,,,,,,,,,,,,,,,,,,,,,,,,,,1,9,69,9,1,A,Y,N,o1_image,stimuli/out1.png,stimuli/correct_out1.png,stimuli/out2.png,,,,,,,,,,,,,,,,,,,,,,,,,,,,,,,,,,,,,,
,,5c45ad3793f3690001c46767,43,male,2024-04-19_18h36.56.977,stockport_simplified,2022.2.4,Win32,74.62686567,661e456ee6de07e70aa9ef7b,66229d9fb0b345de2f9fedcf,,,,,,,,,,,,,,,,,,,,,,,,,,,,,,,,,,379.2814,381.4601,"[3,7,8,2,6,5,4,1]","[[-0.3,0.2],[0.3,0.2]]","[[0.125,-0.2],[-0.125,-0.2]]",-0.087962963,-0.19722225,1,0,0,1.67,o2_image,381.4611,1,381.9548,381.9548,383.9467,0,0,0,0,1,,,,,,,,,,,,,,,,,,,,,,,,,,,,,,,,,,,,,,,,,,,,,,,,,,
,,5c45ad3793f3690001c46767,43,male,2024-04-19_18h36.56.977,stockport_simplified,2022.2.4,Win32,74.62686567,661e456ee6de07e70aa9ef7b,66229d9fb0b345de2f9fedcf,,,,,,,,,,,,,,,,,,,,,,,,,,,,,,,,,,,,,,,,,,,,,,,,,,,,,,,,1,10,70,10,1,B,X,N,o2_image,stimuli/out2.png,stimuli/out1.png,stimuli/correct_out2.png,,,,,,,,,,,,,,,,,,,,,,,,,,,,,,,,,,,,,,
,,5c45ad3793f3690001c46767,43,male,2024-04-19_18h36.56.977,stockport_simplified,2022.2.4,Win32,74.62686567,661e456ee6de07e70aa9ef7b,66229d9fb0b345de2f9fedcf,,,,,,,,,,,,,,,,,,,,,,,,,,,,,,,,,,383.9472,386.5669,"[3,7,8,2,6,5,4,1]","[[-0.3,0.2],[0.3,0.2]]","[[-0.125,-0.2],[0.125,-0.2]]",0.112963005,-0.20185188,1,0,0,2.1124,o2_image,386.5766,0,387.0751,387.0751,389.0669,0,0,0,0,1,,,,,,,,,,,,,,,,,,,,,,,,,,,,,,,,,,,,,,,,,,,,,,,,,,
,,5c45ad3793f3690001c46767,43,male,2024-04-19_18h36.56.977,stockport_simplified,2022.2.4,Win32,74.62686567,661e456ee6de07e70aa9ef7b,66229d9fb0b345de2f9fedcf,,,,,,,,,,,,,,,,,,,,,,,,,,,,,,,,,,,,,,,,,,,,,,,,,,,,,,,,1,11,71,24,1,N,M,C,o1_image,stimuli/out1.png,stimuli/correct_out1.png,stimuli/out2.png,,,,,,,,,,,,,,,,,,,,,,,,,,,,,,,,,,,,,,
,,5c45ad3793f3690001c46767,43,male,2024-04-19_18h36.56.977,stockport_simplified,2022.2.4,Win32,74.62686567,661e456ee6de07e70aa9ef7b,66229d9fb0b345de2f9fedcf,,,,,,,,,,,,,,,,,,,,,,,,,,,,,,,,,,389.0674,390.6575,"[3,7,8,2,6,5,4,1]","[[0.3,0.2],[-0.3,0.2]]","[[0.125,-0.2],[-0.125,-0.2]]",0.122222265,-0.196296339,1,0,0,1.0828,o1_image,390.6579,1,391.1524,391.1524,393.1444,0,0,0,0,1,,,,,,,,,,,,,,,,,,,,,,,,,,,,,,,,,,,,,,,,,,,,,,,,,,
,,5c45ad3793f3690001c46767,43,male,2024-04-19_18h36.56.977,stockport_simplified,2022.2.4,Win32,74.62686567,661e456ee6de07e70aa9ef7b,66229d9fb0b345de2f9fedcf,,,,,,,,,,,,,,,,,,,,,,,,,,,,,,,,,,,,,,,,,,,,,,,,,,,,,,,,1,12,72,23,1,N,M,C,o1_image,stimuli/out1.png,stimuli/correct_out1.png,stimuli/out2.png,,,,,,,,,,,,,,,,,,,,,,,,,,,,,,,,,,,,,,
,,5c45ad3793f3690001c46767,43,male,2024-04-19_18h36.56.977,stockport_simplified,2022.2.4,Win32,74.62686567,661e456ee6de07e70aa9ef7b,66229d9fb0b345de2f9fedcf,,,,,,,,,,,,,,,,,,,,,,,,,,,,,,,,,,393.1449,395.992,"[3,7,8,2,6,5,4,1]","[[-0.3,0.2],[0.3,0.2]]","[[-0.125,-0.2],[0.125,-0.2]]",0.115740741,-0.19722225,1,0,0,2.3394,o2_image,395.9927,0,396.4862,396.4862,398.4784,0,0,0,0,1,,,,,,,,,,,,,,,,,,,,,,,,,,,,,,,,,,,,,,,,,,,,,,,,,,
,,5c45ad3793f3690001c46767,43,male,2024-04-19_18h36.56.977,stockport_simplified,2022.2.4,Win32,74.62686567,661e456ee6de07e70aa9ef7b,66229d9fb0b345de2f9fedcf,,,,,,,,,,,,,,,,,,,,,,,,,,,,,,,,,,,,,,,,,,,,,,,,,,,,,,,,1,13,73,32,1,A,X,N,o1_image,stimuli/out1.png,stimuli/correct_out1.png,stimuli/out2.png,,,,,,,,,,,,,,,,,,,,,,,,,,,,,,,,,,,,,,
,,5c45ad3793f3690001c46767,43,male,2024-04-19_18h36.56.977,stockport_simplified,2022.2.4,Win32,74.62686567,661e456ee6de07e70aa9ef7b,66229d9fb0b345de2f9fedcf,,,,,,,,,,,,,,,,,,,,,,,,,,,,,,,,,,398.4788,400.256,"[3,7,8,2,6,5,4,1]","[[-0.3,0.2],[0.3,0.2]]","[[-0.125,-0.2],[0.125,-0.2]]",0.115740741,-0.19722225,1,0,0,1.2695,o2_image,400.2565,1,400.7511,400.7512,402.7431,0,0,0,0,1,,,,,,,,,,,,,,,,,,,,,,,,,,,,,,,,,,,,,,,,,,,,,,,,,,
,,5c45ad3793f3690001c46767,43,male,2024-04-19_18h36.56.977,stockport_simplified,2022.2.4,Win32,74.62686567,661e456ee6de07e70aa9ef7b,66229d9fb0b345de2f9fedcf,,,,,,,,,,,,,,,,,,,,,,,,,,,,,,,,,,,,,,,,,,,,,,,,,,,,,,,,1,14,74,49,1,B,Y,N,o2_image,stimuli/out2.png,stimuli/out1.png,stimuli/correct_out2.png,,,,,,,,,,,,,,,,,,,,,,,,,,,,,,,,,,,,,,
,,5c45ad3793f3690001c46767,43,male,2024-04-19_18h36.56.977,stockport_simplified,2022.2.4,Win32,74.62686567,661e456ee6de07e70aa9ef7b,66229d9fb0b345de2f9fedcf,,,,,,,,,,,,,,,,,,,,,,,,,,,,,,,,,,402.7435,404.0933,"[3,7,8,2,6,5,4,1]","[[-0.3,0.2],[0.3,0.2]]","[[0.125,-0.2],[-0.125,-0.2]]",-0.104629587,-0.198148162,1,0,0,0.8419,o2_image,404.0942,0,404.5881,404.5881,406.5799,0,0,0,0,1,,,,,,,,,,,,,,,,,,,,,,,,,,,,,,,,,,,,,,,,,,,,,,,,,,
,,5c45ad3793f3690001c46767,43,male,2024-04-19_18h36.56.977,stockport_simplified,2022.2.4,Win32,74.62686567,661e456ee6de07e70aa9ef7b,66229d9fb0b345de2f9fedcf,,,,,,,,,,,,,,,,,,,,,,,,,,,,,,,,,,,,,,,,,,,,,,,,,,,,,,,,1,15,75,2,1,A,X,N,o1_image,stimuli/out1.png,stimuli/correct_out1.png,stimuli/out2.png,,,,,,,,,,,,,,,,,,,,,,,,,,,,,,,,,,,,,,
,,5c45ad3793f3690001c46767,43,male,2024-04-19_18h36.56.977,stockport_simplified,2022.2.4,Win32,74.62686567,661e456ee6de07e70aa9ef7b,66229d9fb0b345de2f9fedcf,,,,,,,,,,,,,,,,,,,,,,,,,,,,,,,,,,406.5804,408.0638,"[3,7,8,2,6,5,4,1]","[[-0.3,0.2],[0.3,0.2]]","[[0.125,-0.2],[-0.125,-0.2]]",0.124074088,-0.209259245,1,0,0,0.9757,o1_image,408.0645,0,408.5584,408.5584,410.5501,0,0,0,0,1,,,,,,,,,,,,,,,,,,,,,,,,,,,,,,,,,,,,,,,,,,,,,,,,,,
,,5c45ad3793f3690001c46767,43,male,2024-04-19_18h36.56.977,stockport_simplified,2022.2.4,Win32,74.62686567,661e456ee6de07e70aa9ef7b,66229d9fb0b345de2f9fedcf,,,,,,,,,,,,,,,,,,,,,,,,,,,,,,,,,,,,,,,,,,,,,,,,,,,,,,,,1,16,76,17,1,B,Y,N,o2_image,stimuli/out2.png,stimuli/out1.png,stimuli/correct_out2.png,,,,,,,,,,,,,,,,,,,,,,,,,,,,,,,,,,,,,,
,,5c45ad3793f3690001c46767,43,male,2024-04-19_18h36.56.977,stockport_simplified,2022.2.4,Win32,74.62686567,661e456ee6de07e70aa9ef7b,66229d9fb0b345de2f9fedcf,,,,,,,,,,,,,,,,,,,,,,,,,,,,,,,,,,410.5505,412.3417,"[3,7,8,2,6,5,4,1]","[[0.3,0.2],[-0.3,0.2]]","[[-0.125,-0.2],[0.125,-0.2]]",-0.083333333,-0.209259245,1,0,0,1.2827,o1_image,412.3424,1,412.8366,412.8366,414.8284,0,0,0,0,1,,,,,,,,,,,,,,,,,,,,,,,,,,,,,,,,,,,,,,,,,,,,,,,,,,
,,5c45ad3793f3690001c46767,43,male,2024-04-19_18h36.56.977,stockport_simplified,2022.2.4,Win32,74.62686567,661e456ee6de07e70aa9ef7b,66229d9fb0b345de2f9fedcf,,,,,,,,,,,,,,,,,,,,,,,,,,,,,,,,,,,,,,,,,,,,,,,,,,,,,,,,1,17,77,30,1,A,X,N,o1_image,stimuli/out1.png,stimuli/correct_out1.png,stimuli/out2.png,,,,,,,,,,,,,,,,,,,,,,,,,,,,,,,,,,,,,,
,,5c45ad3793f3690001c46767,43,male,2024-04-19_18h36.56.977,stockport_simplified,2022.2.4,Win32,74.62686567,661e456ee6de07e70aa9ef7b,66229d9fb0b345de2f9fedcf,,,,,,,,,,,,,,,,,,,,,,,,,,,,,,,,,,414.8288,417.5152,"[3,7,8,2,6,5,4,1]","[[-0.3,0.2],[0.3,0.2]]","[[0.125,-0.2],[-0.125,-0.2]]",-0.150925884,-0.200925968,1,0,0,2.1784,o2_image,417.5155,1,418.0105,418.0105,420.0017,0,0,0,0,1,,,,,,,,,,,,,,,,,,,,,,,,,,,,,,,,,,,,,,,,,,,,,,,,,,
,,5c45ad3793f3690001c46767,43,male,2024-04-19_18h36.56.977,stockport_simplified,2022.2.4,Win32,74.62686567,661e456ee6de07e70aa9ef7b,66229d9fb0b345de2f9fedcf,,,,,,,,,,,,,,,,,,,,,,,,,,,,,,,,,,,,,,,,,,,,,,,,,,,,,,,,1,18,78,44,1,B,X,N,o2_image,stimuli/out2.png,stimuli/out1.png,stimuli/correct_out2.png,,,,,,,,,,,,,,,,,,,,,,,,,,,,,,,,,,,,,,
,,5c45ad3793f3690001c46767,43,male,2024-04-19_18h36.56.977,stockport_simplified,2022.2.4,Win32,74.62686567,661e456ee6de07e70aa9ef7b,66229d9fb0b345de2f9fedcf,,,,,,,,,,,,,,,,,,,,,,,,,,,,,,,,,,420.0022,421.6322,"[3,7,8,2,6,5,4,1]","[[-0.3,0.2],[0.3,0.2]]","[[-0.125,-0.2],[0.125,-0.2]]",-0.148148148,-0.204629616,1,0,0,1.1226,o1_image,421.6324,1,422.1276,422.1276,424.1196,0,0,0,0,1,,,,,,,,,,,,,,,,,,,,,,,,,,,,,,,,,,,,,,,,,,,,,,,,,,
,,5c45ad3793f3690001c46767,43,male,2024-04-19_18h36.56.977,stockport_simplified,2022.2.4,Win32,74.62686567,661e456ee6de07e70aa9ef7b,66229d9fb0b345de2f9fedcf,,,,,,,,,,,,,,,,,,,,,,,,,,,,,,,,,,,,,,,,,,,,,,,,,,,,,,,,1,19,79,33,1,A,X,N,o1_image,stimuli/out1.png,stimuli/correct_out1.png,stimuli/out2.png,,,,,,,,,,,,,,,,,,,,,,,,,,,,,,,,,,,,,,
,,5c45ad3793f3690001c46767,43,male,2024-04-19_18h36.56.977,stockport_simplified,2022.2.4,Win32,74.62686567,661e456ee6de07e70aa9ef7b,66229d9fb0b345de2f9fedcf,,,,,,,,,,,,,,,,,,,,,,,,,,,,,,,,,,424.1199,425.7906,"[3,7,8,2,6,5,4,1]","[[0.3,0.2],[-0.3,0.2]]","[[0.125,-0.2],[-0.125,-0.2]]",-0.126851824,-0.205555598,1,0,0,1.1626,o2_image,425.7912,0,426.2854,426.2854,428.2774,0,0,0,0,1,,,,,,,,,,,,,,,,,,,,,,,,,,,,,,,,,,,,,,,,,,,,,,,,,,
,,5c45ad3793f3690001c46767,43,male,2024-04-19_18h36.56.977,stockport_simplified,2022.2.4,Win32,74.62686567,661e456ee6de07e70aa9ef7b,66229d9fb0b345de2f9fedcf,,,,,,,,,,,,,,,,,,,,,,,,,,,,,,,,,,,,,,,,,,,,,,,,,,,,,,,,1,20,80,50,1,N,M,C,o1_image,stimuli/out1.png,stimuli/correct_out1.png,stimuli/out2.png,,,,,,,,,,,,,,,,,,,,,,,,,,,,,,,,,,,,,,
,,5c45ad3793f3690001c46767,43,male,2024-04-19_18h36.56.977,stockport_simplified,2022.2.4,Win32,74.62686567,661e456ee6de07e70aa9ef7b,66229d9fb0b345de2f9fedcf,,,,,,,,,,,,,,,,,,,,,,,,,,,,,,,,,,428.2779,429.8275,"[3,7,8,2,6,5,4,1]","[[0.3,0.2],[-0.3,0.2]]","[[-0.125,-0.2],[0.125,-0.2]]",-0.108333305,-0.198148162,1,0,0,1.0421,o1_image,429.8278,1,430.3228,430.3228,432.3142,0,0,0,0,1,,,,,,,,,,,,,,,,,,,,,,,,,,,,,,,,,,,,,,,,,,,,,,,,,,
,,5c45ad3793f3690001c46767,43,male,2024-04-19_18h36.56.977,stockport_simplified,2022.2.4,Win32,74.62686567,661e456ee6de07e70aa9ef7b,66229d9fb0b345de2f9fedcf,,,,,,,,,,,,,,,,,,,,,,,,,,,,,,,,,,,,,,,,,,,,,,,,,,,,,,,,1,21,81,52,1,N,M,C,o1_image,stimuli/out1.png,stimuli/correct_out1.png,stimuli/out2.png,,,,,,,,,,,,,,,,,,,,,,,,,,,,,,,,,,,,,,
,,5c45ad3793f3690001c46767,43,male,2024-04-19_18h36.56.977,stockport_simplified,2022.2.4,Win32,74.62686567,661e456ee6de07e70aa9ef7b,66229d9fb0b345de2f9fedcf,,,,,,,,,,,,,,,,,,,,,,,,,,,,,,,,,,432.3147,435.0147,"[3,7,8,2,6,5,4,1]","[[-0.3,0.2],[0.3,0.2]]","[[-0.125,-0.2],[0.125,-0.2]]",0.065740727,-0.193518533,1,0,0,2.1919,o2_image,435.0215,1,435.5225,435.5225,437.5143,0,0,0,0,1,,,,,,,,,,,,,,,,,,,,,,,,,,,,,,,,,,,,,,,,,,,,,,,,,,
,,5c45ad3793f3690001c46767,43,male,2024-04-19_18h36.56.977,stockport_simplified,2022.2.4,Win32,74.62686567,661e456ee6de07e70aa9ef7b,66229d9fb0b345de2f9fedcf,,,,,,,,,,,,,,,,,,,,,,,,,,,,,,,,,,,,,,,,,,,,,,,,,,,,,,,,1,22,82,19,1,B,Y,N,o2_image,stimuli/out2.png,stimuli/out1.png,stimuli/correct_out2.png,,,,,,,,,,,,,,,,,,,,,,,,,,,,,,,,,,,,,,
,,5c45ad3793f3690001c46767,43,male,2024-04-19_18h36.56.977,stockport_simplified,2022.2.4,Win32,74.62686567,661e456ee6de07e70aa9ef7b,66229d9fb0b345de2f9fedcf,,,,,,,,,,,,,,,,,,,,,,,,,,,,,,,,,,437.5146,440.0415,"[3,7,8,2,6,5,4,1]","[[-0.3,0.2],[0.3,0.2]]","[[0.125,-0.2],[-0.125,-0.2]]",0.133333347,-0.195370356,1,0,0,2.0183,o1_image,440.0424,1,440.5359,440.5359,442.5279,0,0,0,0,1,,,,,,,,,,,,,,,,,,,,,,,,,,,,,,,,,,,,,,,,,,,,,,,,,,
,,5c45ad3793f3690001c46767,43,male,2024-04-19_18h36.56.977,stockport_simplified,2022.2.4,Win32,74.62686567,661e456ee6de07e70aa9ef7b,66229d9fb0b345de2f9fedcf,,,,,,,,,,,,,,,,,,,,,,,,,,,,,,,,,,,,,,,,,,,,,,,,,,,,,,,,1,23,83,53,1,N,M,C,o1_image,stimuli/out1.png,stimuli/correct_out1.png,stimuli/out2.png,,,,,,,,,,,,,,,,,,,,,,,,,,,,,,,,,,,,,,
,,5c45ad3793f3690001c46767,43,male,2024-04-19_18h36.56.977,stockport_simplified,2022.2.4,Win32,74.62686567,661e456ee6de07e70aa9ef7b,66229d9fb0b345de2f9fedcf,,,,,,,,,,,,,,,,,,,,,,,,,,,,,,,,,,442.5282,444.9124,"[3,7,8,2,6,5,4,1]","[[0.3,0.2],[-0.3,0.2]]","[[0.125,-0.2],[-0.125,-0.2]]",-0.169444402,-0.180555556,1,0,0,1.8756,o2_image,444.9239,1,445.4158,445.4158,447.4075,0,0,0,0,1,,,,,,,,,,,,,,,,,,,,,,,,,,,,,,,,,,,,,,,,,,,,,,,,,,
,,5c45ad3793f3690001c46767,43,male,2024-04-19_18h36.56.977,stockport_simplified,2022.2.4,Win32,74.62686567,661e456ee6de07e70aa9ef7b,66229d9fb0b345de2f9fedcf,,,,,,,,,,,,,,,,,,,,,,,,,,,,,,,,,,,,,,,,,,,,,,,,,,,,,,,,1,24,84,18,1,B,Y,N,o2_image,stimuli/out2.png,stimuli/out1.png,stimuli/correct_out2.png,,,,,,,,,,,,,,,,,,,,,,,,,,,,,,,,,,,,,,
,,5c45ad3793f3690001c46767,43,male,2024-04-19_18h36.56.977,stockport_simplified,2022.2.4,Win32,74.62686567,661e456ee6de07e70aa9ef7b,66229d9fb0b345de2f9fedcf,,,,,,,,,,,,,,,,,,,,,,,,,,,,,,,,,,447.408,448.9756,"[3,7,8,2,6,5,4,1]","[[-0.3,0.2],[0.3,0.2]]","[[0.125,-0.2],[-0.125,-0.2]]",0.083333333,-0.188888903,1,0,0,1.0592,o1_image,448.9762,1,449.4798,449.4798,451.4718,0,0,0,0,1,,,,,,,,,,,,,,,,,,,,,,,,,,,,,,,,,,,,,,,,,,,,,,,,,,
,,5c45ad3793f3690001c46767,43,male,2024-04-19_18h36.56.977,stockport_simplified,2022.2.4,Win32,74.62686567,661e456ee6de07e70aa9ef7b,66229d9fb0b345de2f9fedcf,,,,,,,,,,,,,,,,,,,,,,,,,,,,,,,,,,,,,,,,,,,,,,,,,,,,,,,,1,25,85,51,1,N,M,C,o1_image,stimuli/out1.png,stimuli/correct_out1.png,stimuli/out2.png,,,,,,,,,,,,,,,,,,,,,,,,,,,,,,,,,,,,,,
,,5c45ad3793f3690001c46767,43,male,2024-04-19_18h36.56.977,stockport_simplified,2022.2.4,Win32,74.62686567,661e456ee6de07e70aa9ef7b,66229d9fb0b345de2f9fedcf,,,,,,,,,,,,,,,,,,,,,,,,,,,,,,,,,,451.4722,453.7045,"[3,7,8,2,6,5,4,1]","[[-0.3,0.2],[0.3,0.2]]","[[-0.125,-0.2],[0.125,-0.2]]",-0.115740741,-0.188888903,1,0,0,1.7241,o1_image,453.7054,1,454.1992,454.1992,456.191,0,0,0,0,1,,,,,,,,,,,,,,,,,,,,,,,,,,,,,,,,,,,,,,,,,,,,,,,,,,
,,5c45ad3793f3690001c46767,43,male,2024-04-19_18h36.56.977,stockport_simplified,2022.2.4,Win32,74.62686567,661e456ee6de07e70aa9ef7b,66229d9fb0b345de2f9fedcf,,,,,,,,,,,,,,,,,,,,,,,,,,,,,,,,,,,,,,,,,,,,,,,,,,,,,,,,1,26,86,39,1,A,Y,N,o1_image,stimuli/out1.png,stimuli/correct_out1.png,stimuli/out2.png,,,,,,,,,,,,,,,,,,,,,,,,,,,,,,,,,,,,,,
,,5c45ad3793f3690001c46767,43,male,2024-04-19_18h36.56.977,stockport_simplified,2022.2.4,Win32,74.62686567,661e456ee6de07e70aa9ef7b,66229d9fb0b345de2f9fedcf,,,,,,,,,,,,,,,,,,,,,,,,,,,,,,,,,,456.1914,458.1293,"[3,7,8,2,6,5,4,1]","[[-0.3,0.2],[0.3,0.2]]","[[-0.125,-0.2],[0.125,-0.2]]",0.110185199,-0.191666709,1,0,0,1.4298,o2_image,458.13,1,458.627,458.6271,460.6294,0,0,0,0,1,,,,,,,,,,,,,,,,,,,,,,,,,,,,,,,,,,,,,,,,,,,,,,,,,,
,,5c45ad3793f3690001c46767,43,male,2024-04-19_18h36.56.977,stockport_simplified,2022.2.4,Win32,74.62686567,661e456ee6de07e70aa9ef7b,66229d9fb0b345de2f9fedcf,,,,,,,,,,,,,,,,,,,,,,,,,,,,,,,,,,,,,,,,,,,,,,,,,,,,,,,,1,27,87,16,1,B,Y,N,o2_image,stimuli/out2.png,stimuli/out1.png,stimuli/correct_out2.png,,,,,,,,,,,,,,,,,,,,,,,,,,,,,,,,,,,,,,
,,5c45ad3793f3690001c46767,43,male,2024-04-19_18h36.56.977,stockport_simplified,2022.2.4,Win32,74.62686567,661e456ee6de07e70aa9ef7b,66229d9fb0b345de2f9fedcf,,,,,,,,,,,,,,,,,,,,,,,,,,,,,,,,,,460.6298,462.8085,"[3,7,8,2,6,5,4,1]","[[-0.3,0.2],[0.3,0.2]]","[[-0.125,-0.2],[0.125,-0.2]]",0.137037065,-0.192592621,1,0,0,1.6711,o2_image,462.8184,1,463.3201,463.3201,465.3217,0,0,0,0,1,,,,,,,,,,,,,,,,,,,,,,,,,,,,,,,,,,,,,,,,,,,,,,,,,,
,,5c45ad3793f3690001c46767,43,male,2024-04-19_18h36.56.977,stockport_simplified,2022.2.4,Win32,74.62686567,661e456ee6de07e70aa9ef7b,66229d9fb0b345de2f9fedcf,,,,,,,,,,,,,,,,,,,,,,,,,,,,,,,,,,,,,,,,,,,,,,,,,,,,,,,,1,28,88,47,1,B,Y,N,o2_image,stimuli/out2.png,stimuli/out1.png,stimuli/correct_out2.png,,,,,,,,,,,,,,,,,,,,,,,,,,,,,,,,,,,,,,
,,5c45ad3793f3690001c46767,43,male,2024-04-19_18h36.56.977,stockport_simplified,2022.2.4,Win32,74.62686567,661e456ee6de07e70aa9ef7b,66229d9fb0b345de2f9fedcf,,,,,,,,,,,,,,,,,,,,,,,,,,,,,,,,,,465.3221,467.4074,"[3,7,8,2,6,5,4,1]","[[0.3,0.2],[-0.3,0.2]]","[[0.125,-0.2],[-0.125,-0.2]]",0.108333376,-0.186111097,1,0,0,1.5771,o1_image,467.4081,1,467.9052,467.9053,469.8972,0,0,0,0,1,,,,,,,,,,,,,,,,,,,,,,,,,,,,,,,,,,,,,,,,,,,,,,,,,,
,,5c45ad3793f3690001c46767,43,male,2024-04-19_18h36.56.977,stockport_simplified,2022.2.4,Win32,74.62686567,661e456ee6de07e70aa9ef7b,66229d9fb0b345de2f9fedcf,,,,,,,,,,,,,,,,,,,,,,,,,,,,,,,,,,,,,,,,,,,,,,,,,,,,,,,,1,29,89,1,1,A,X,N,o1_image,stimuli/out1.png,stimuli/correct_out1.png,stimuli/out2.png,,,,,,,,,,,,,,,,,,,,,,,,,,,,,,,,,,,,,,
,,5c45ad3793f3690001c46767,43,male,2024-04-19_18h36.56.977,stockport_simplified,2022.2.4,Win32,74.62686567,661e456ee6de07e70aa9ef7b,66229d9fb0b345de2f9fedcf,,,,,,,,,,,,,,,,,,,,,,,,,,,,,,,,,,469.8977,473.2765,"[3,7,8,2,6,5,4,1]","[[0.3,0.2],[-0.3,0.2]]","[[-0.125,-0.2],[0.125,-0.2]]",-0.077777792,-0.189814815,1,0,0,2.8701,o1_image,473.2873,0,473.784,473.784,475.7761,0,0,0,0,1,,,,,,,,,,,,,,,,,,,,,,,,,,,,,,,,,,,,,,,,,,,,,,,,,,
,,5c45ad3793f3690001c46767,43,male,2024-04-19_18h36.56.977,stockport_simplified,2022.2.4,Win32,74.62686567,661e456ee6de07e70aa9ef7b,66229d9fb0b345de2f9fedcf,,,,,,,,,,,,,,,,,,,,,,,,,,,,,,,,,,,,,,,,,,,,,,,,,,,,,,,,1,30,90,56,1,N,M,D,o2_image,stimuli/out2.png,stimuli/out1.png,stimuli/correct_out2.png,,,,,,,,,,,,,,,,,,,,,,,,,,,,,,,,,,,,,,
,,5c45ad3793f3690001c46767,43,male,2024-04-19_18h36.56.977,stockport_simplified,2022.2.4,Win32,74.62686567,661e456ee6de07e70aa9ef7b,66229d9fb0b345de2f9fedcf,,,,,,,,,,,,,,,,,,,,,,,,,,,,,,,,,,475.7766,477.3404,"[3,7,8,2,6,5,4,1]","[[-0.3,0.2],[0.3,0.2]]","[[0.125,-0.2],[-0.125,-0.2]]",0.125925912,-0.199999986,1,0,0,1.0557,o1_image,477.3411,1,477.835,477.835,479.8271,0,0,0,0,1,,,,,,,,,,,,,,,,,,,,,,,,,,,,,,,,,,,,,,,,,,,,,,,,,,
,,5c45ad3793f3690001c46767,43,male,2024-04-19_18h36.56.977,stockport_simplified,2022.2.4,Win32,74.62686567,661e456ee6de07e70aa9ef7b,66229d9fb0b345de2f9fedcf,,,,,,,,,,,,,,,,,,,,,,,,,,,,,,,,,,,,,,,,,,,,,,,,,,,,,,,,1,31,91,38,1,A,Y,N,o1_image,stimuli/out1.png,stimuli/correct_out1.png,stimuli/out2.png,,,,,,,,,,,,,,,,,,,,,,,,,,,,,,,,,,,,,,
,,5c45ad3793f3690001c46767,43,male,2024-04-19_18h36.56.977,stockport_simplified,2022.2.4,Win32,74.62686567,661e456ee6de07e70aa9ef7b,66229d9fb0b345de2f9fedcf,,,,,,,,,,,,,,,,,,,,,,,,,,,,,,,,,,479.8275,481.7251,"[3,7,8,2,6,5,4,1]","[[0.3,0.2],[-0.3,0.2]]","[[-0.125,-0.2],[0.125,-0.2]]",0.109259288,-0.198148162,1,0,0,1.3899,o2_image,481.7257,1,482.2201,482.2201,484.2116,0,0,0,0,1,,,,,,,,,,,,,,,,,,,,,,,,,,,,,,,,,,,,,,,,,,,,,,,,,,
,,5c45ad3793f3690001c46767,43,male,2024-04-19_18h36.56.977,stockport_simplified,2022.2.4,Win32,74.62686567,661e456ee6de07e70aa9ef7b,66229d9fb0b345de2f9fedcf,,,,,,,,,,,,,,,,,,,,,,,,,,,,,,,,,,,,,,,,,,,,,,,,,,,,,,,,1,32,92,48,1,B,Y,N,o2_image,stimuli/out2.png,stimuli/out1.png,stimuli/correct_out2.png,,,,,,,,,,,,,,,,,,,,,,,,,,,,,,,,,,,,,,
,,5c45ad3793f3690001c46767,43,male,2024-04-19_18h36.56.977,stockport_simplified,2022.2.4,Win32,74.62686567,661e456ee6de07e70aa9ef7b,66229d9fb0b345de2f9fedcf,,,,,,,,,,,,,,,,,,,,,,,,,,,,,,,,,,484.2119,486.4178,"[3,7,8,2,6,5,4,1]","[[0.3,0.2],[-0.3,0.2]]","[[0.125,-0.2],[-0.125,-0.2]]",-0.136111083,-0.196296339,1,0,0,1.6975,o2_image,486.4185,1,486.9122,486.9122,488.9078,0,0,0,0,1,,,,,,,,,,,,,,,,,,,,,,,,,,,,,,,,,,,,,,,,,,,,,,,,,,
,,5c45ad3793f3690001c46767,43,male,2024-04-19_18h36.56.977,stockport_simplified,2022.2.4,Win32,74.62686567,661e456ee6de07e70aa9ef7b,66229d9fb0b345de2f9fedcf,,,,,,,,,,,,,,,,,,,,,,,,,,,,,,,,,,,,,,,,,,,,,,,,,,,,,,,,1,33,93,58,1,N,M,D,o2_image,stimuli/out2.png,stimuli/out1.png,stimuli/correct_out2.png,,,,,,,,,,,,,,,,,,,,,,,,,,,,,,,,,,,,,,
,,5c45ad3793f3690001c46767,43,male,2024-04-19_18h36.56.977,stockport_simplified,2022.2.4,Win32,74.62686567,661e456ee6de07e70aa9ef7b,66229d9fb0b345de2f9fedcf,,,,,,,,,,,,,,,,,,,,,,,,,,,,,,,,,,488.9081,490.7624,"[3,7,8,2,6,5,4,1]","[[-0.3,0.2],[0.3,0.2]]","[[0.125,-0.2],[-0.125,-0.2]]",-0.146296254,-0.194444444,1,0,0,1.3498,o2_image,490.7631,1,491.2568,491.2568,493.2489,0,0,0,0,1,,,,,,,,,,,,,,,,,,,,,,,,,,,,,,,,,,,,,,,,,,,,,,,,,,
,,5c45ad3793f3690001c46767,43,male,2024-04-19_18h36.56.977,stockport_simplified,2022.2.4,Win32,74.62686567,661e456ee6de07e70aa9ef7b,66229d9fb0b345de2f9fedcf,,,,,,,,,,,,,,,,,,,,,,,,,,,,,,,,,,,,,,,,,,,,,,,,,,,,,,,,1,34,94,41,1,B,X,N,o2_image,stimuli/out2.png,stimuli/out1.png,stimuli/correct_out2.png,,,,,,,,,,,,,,,,,,,,,,,,,,,,,,,,,,,,,,
,,5c45ad3793f3690001c46767,43,male,2024-04-19_18h36.56.977,stockport_simplified,2022.2.4,Win32,74.62686567,661e456ee6de07e70aa9ef7b,66229d9fb0b345de2f9fedcf,,,,,,,,,,,,,,,,,,,,,,,,,,,,,,,,,,493.2493,494.9872,"[3,7,8,2,6,5,4,1]","[[-0.3,0.2],[0.3,0.2]]","[[-0.125,-0.2],[0.125,-0.2]]",-0.070370356,-0.20185188,1,0,0,1.2302,o1_image,494.988,0,495.4817,495.4817,497.4729,0,0,0,0,1,,,,,,,,,,,,,,,,,,,,,,,,,,,,,,,,,,,,,,,,,,,,,,,,,,
,,5c45ad3793f3690001c46767,43,male,2024-04-19_18h36.56.977,stockport_simplified,2022.2.4,Win32,74.62686567,661e456ee6de07e70aa9ef7b,66229d9fb0b345de2f9fedcf,,,,,,,,,,,,,,,,,,,,,,,,,,,,,,,,,,,,,,,,,,,,,,,,,,,,,,,,1,35,95,13,1,B,X,N,o2_image,stimuli/out2.png,stimuli/out1.png,stimuli/correct_out2.png,,,,,,,,,,,,,,,,,,,,,,,,,,,,,,,,,,,,,,
,,5c45ad3793f3690001c46767,43,male,2024-04-19_18h36.56.977,stockport_simplified,2022.2.4,Win32,74.62686567,661e456ee6de07e70aa9ef7b,66229d9fb0b345de2f9fedcf,,,,,,,,,,,,,,,,,,,,,,,,,,,,,,,,,,497.4734,499.2782,"[3,7,8,2,6,5,4,1]","[[0.3,0.2],[-0.3,0.2]]","[[0.125,-0.2],[-0.125,-0.2]]",0.112963005,-0.184259273,1,0,0,1.2961,o1_image,499.2791,1,499.7746,499.7746,501.765,0,0,0,0,1,,,,,,,,,,,,,,,,,,,,,,,,,,,,,,,,,,,,,,,,,,,,,,,,,,
,,5c45ad3793f3690001c46767,43,male,2024-04-19_18h36.56.977,stockport_simplified,2022.2.4,Win32,74.62686567,661e456ee6de07e70aa9ef7b,66229d9fb0b345de2f9fedcf,,,,,,,,,,,,,,,,,,,,,,,,,,,,,,,,,,,,,,,,,,,,,,,,,,,,,,,,1,36,96,5,1,A,Y,N,o1_image,stimuli/out1.png,stimuli/correct_out1.png,stimuli/out2.png,,,,,,,,,,,,,,,,,,,,,,,,,,,,,,,,,,,,,,
,,5c45ad3793f3690001c46767,43,male,2024-04-19_18h36.56.977,stockport_simplified,2022.2.4,Win32,74.62686567,661e456ee6de07e70aa9ef7b,66229d9fb0b345de2f9fedcf,,,,,,,,,,,,,,,,,,,,,,,,,,,,,,,,,,501.7655,503.3824,"[3,7,8,2,6,5,4,1]","[[0.3,0.2],[-0.3,0.2]]","[[0.125,-0.2],[-0.125,-0.2]]",0.112037023,-0.181481467,1,0,0,1.1094,o1_image,503.383,1,503.8768,503.8768,505.8692,0,0,0,0,1,,,,,,,,,,,,,,,,,,,,,,,,,,,,,,,,,,,,,,,,,,,,,,,,,,
,,5c45ad3793f3690001c46767,43,male,2024-04-19_18h36.56.977,stockport_simplified,2022.2.4,Win32,74.62686567,661e456ee6de07e70aa9ef7b,66229d9fb0b345de2f9fedcf,,,,,,,,,,,,,,,,,,,,,,,,,,,,,,,,,,,,,,,,,,,,,,,,,,,,,,,,1,37,97,4,1,A,X,N,o1_image,stimuli/out1.png,stimuli/correct_out1.png,stimuli/out2.png,,,,,,,,,,,,,,,,,,,,,,,,,,,,,,,,,,,,,,
,,5c45ad3793f3690001c46767,43,male,2024-04-19_18h36.56.977,stockport_simplified,2022.2.4,Win32,74.62686567,661e456ee6de07e70aa9ef7b,66229d9fb0b345de2f9fedcf,,,,,,,,,,,,,,,,,,,,,,,,,,,,,,,,,,505.8697,507.2726,"[3,7,8,2,6,5,4,1]","[[0.3,0.2],[-0.3,0.2]]","[[0.125,-0.2],[-0.125,-0.2]]",0.101851852,-0.180555556,1,0,0,0.8953,o1_image,507.2732,1,507.7675,507.7676,509.7596,0,0,0,0,1,,,,,,,,,,,,,,,,,,,,,,,,,,,,,,,,,,,,,,,,,,,,,,,,,,
,,5c45ad3793f3690001c46767,43,male,2024-04-19_18h36.56.977,stockport_simplified,2022.2.4,Win32,74.62686567,661e456ee6de07e70aa9ef7b,66229d9fb0b345de2f9fedcf,,,,,,,,,,,,,,,,,,,,,,,,,,,,,,,,,,,,,,,,,,,,,,,,,,,,,,,,1,38,98,34,1,A,X,N,o1_image,stimuli/out1.png,stimuli/correct_out1.png,stimuli/out2.png,,,,,,,,,,,,,,,,,,,,,,,,,,,,,,,,,,,,,,
,,5c45ad3793f3690001c46767,43,male,2024-04-19_18h36.56.977,stockport_simplified,2022.2.4,Win32,74.62686567,661e456ee6de07e70aa9ef7b,66229d9fb0b345de2f9fedcf,,,,,,,,,,,,,,,,,,,,,,,,,,,,,,,,,,509.76,511.1496,"[3,7,8,2,6,5,4,1]","[[0.3,0.2],[-0.3,0.2]]","[[0.125,-0.2],[-0.125,-0.2]]",0.100000028,-0.180555556,1,0,0,0.8827,o1_image,511.1503,1,511.6443,511.6443,513.6362,0,0,0,0,1,,,,,,,,,,,,,,,,,,,,,,,,,,,,,,,,,,,,,,,,,,,,,,,,,,
,,5c45ad3793f3690001c46767,43,male,2024-04-19_18h36.56.977,stockport_simplified,2022.2.4,Win32,74.62686567,661e456ee6de07e70aa9ef7b,66229d9fb0b345de2f9fedcf,,,,,,,,,,,,,,,,,,,,,,,,,,,,,,,,,,,,,,,,,,,,,,,,,,,,,,,,1,39,99,31,1,A,X,N,o1_image,stimuli/out1.png,stimuli/correct_out1.png,stimuli/out2.png,,,,,,,,,,,,,,,,,,,,,,,,,,,,,,,,,,,,,,
,,5c45ad3793f3690001c46767,43,male,2024-04-19_18h36.56.977,stockport_simplified,2022.2.4,Win32,74.62686567,661e456ee6de07e70aa9ef7b,66229d9fb0b345de2f9fedcf,,,,,,,,,,,,,,,,,,,,,,,,,,,,,,,,,,513.6366,515.04,"[3,7,8,2,6,5,4,1]","[[-0.3,0.2],[0.3,0.2]]","[[-0.125,-0.2],[0.125,-0.2]]",0.139814801,-0.195370356,1,0,0,0.8956,o2_image,515.0408,0,515.5344,515.5344,517.5261,0,0,0,0,1,,,,,,,,,,,,,,,,,,,,,,,,,,,,,,,,,,,,,,,,,,,,,,,,,,
,,5c45ad3793f3690001c46767,43,male,2024-04-19_18h36.56.977,stockport_simplified,2022.2.4,Win32,74.62686567,661e456ee6de07e70aa9ef7b,66229d9fb0b345de2f9fedcf,,,,,,,,,,,,,,,,,,,,,,,,,,,,,,,,,,,,,,,,,,,,,,,,,,,,,,,,1,40,100,3,1,A,X,N,o1_image,stimuli/out1.png,stimuli/correct_out1.png,stimuli/out2.png,,,,,,,,,,,,,,,,,,,,,,,,,,,,,,,,,,,,,,
,,5c45ad3793f3690001c46767,43,male,2024-04-19_18h36.56.977,stockport_simplified,2022.2.4,Win32,74.62686567,661e456ee6de07e70aa9ef7b,66229d9fb0b345de2f9fedcf,,,,,,,,,,,,,,,,,,,,,,,,,,,,,,,,,,517.5263,519.5855,"[3,7,8,2,6,5,4,1]","[[0.3,0.2],[-0.3,0.2]]","[[-0.125,-0.2],[0.125,-0.2]]",0.137037065,-0.194444444,1,0,0,1.5505,o2_image,519.5863,1,520.0803,520.0803,522.0722,0,0,0,0,1,,,,,,,,,,,,,,,,,,,,,,,,,,,,,,,,,,,,,,,,,,,,,,,,,,
,,5c45ad3793f3690001c46767,43,male,2024-04-19_18h36.56.977,stockport_simplified,2022.2.4,Win32,74.62686567,661e456ee6de07e70aa9ef7b,66229d9fb0b345de2f9fedcf,,,,,,,,,,,,,,,,,,,,,,,,,,,,,,,,,,,,,,,,,,,,,,,,,,,,,,,,1,41,101,29,1,N,M,D,o2_image,stimuli/out2.png,stimuli/out1.png,stimuli/correct_out2.png,,,,,,,,,,,,,,,,,,,,,,,,,,,,,,,,,,,,,,
,,5c45ad3793f3690001c46767,43,male,2024-04-19_18h36.56.977,stockport_simplified,2022.2.4,Win32,74.62686567,661e456ee6de07e70aa9ef7b,66229d9fb0b345de2f9fedcf,,,,,,,,,,,,,,,,,,,,,,,,,,,,,,,,,,522.0728,523.5556,"[3,7,8,2,6,5,4,1]","[[-0.3,0.2],[0.3,0.2]]","[[-0.125,-0.2],[0.125,-0.2]]",-0.051851838,-0.189814815,1,0,0,0.9753,o1_image,523.5561,1,524.0505,524.0505,526.0425,0,0,0,0,1,,,,,,,,,,,,,,,,,,,,,,,,,,,,,,,,,,,,,,,,,,,,,,,,,,
,,5c45ad3793f3690001c46767,43,male,2024-04-19_18h36.56.977,stockport_simplified,2022.2.4,Win32,74.62686567,661e456ee6de07e70aa9ef7b,66229d9fb0b345de2f9fedcf,,,,,,,,,,,,,,,,,,,,,,,,,,,,,,,,,,,,,,,,,,,,,,,,,,,,,,,,1,42,102,36,1,A,Y,N,o1_image,stimuli/out1.png,stimuli/correct_out1.png,stimuli/out2.png,,,,,,,,,,,,,,,,,,,,,,,,,,,,,,,,,,,,,,
,,5c45ad3793f3690001c46767,43,male,2024-04-19_18h36.56.977,stockport_simplified,2022.2.4,Win32,74.62686567,661e456ee6de07e70aa9ef7b,66229d9fb0b345de2f9fedcf,,,,,,,,,,,,,,,,,,,,,,,,,,,,,,,,,,526.043,527.6202,"[3,7,8,2,6,5,4,1]","[[0.3,0.2],[-0.3,0.2]]","[[0.125,-0.2],[-0.125,-0.2]]",-0.047222208,-0.199074074,1,0,0,1.0697,o2_image,527.621,1,528.1147,528.1147,530.1067,0,0,0,0,1,,,,,,,,,,,,,,,,,,,,,,,,,,,,,,,,,,,,,,,,,,,,,,,,,,
,,5c45ad3793f3690001c46767,43,male,2024-04-19_18h36.56.977,stockport_simplified,2022.2.4,Win32,74.62686567,661e456ee6de07e70aa9ef7b,66229d9fb0b345de2f9fedcf,,,,,,,,,,,,,,,,,,,,,,,,,,,,,,,,,,,,,,,,,,,,,,,,,,,,,,,,1,43,103,28,1,N,M,D,o2_image,stimuli/out2.png,stimuli/out1.png,stimuli/correct_out2.png,,,,,,,,,,,,,,,,,,,,,,,,,,,,,,,,,,,,,,
,,5c45ad3793f3690001c46767,43,male,2024-04-19_18h36.56.977,stockport_simplified,2022.2.4,Win32,74.62686567,661e456ee6de07e70aa9ef7b,66229d9fb0b345de2f9fedcf,,,,,,,,,,,,,,,,,,,,,,,,,,,,,,,,,,530.1071,531.7378,"[3,7,8,2,6,5,4,1]","[[0.3,0.2],[-0.3,0.2]]","[[-0.125,-0.2],[0.125,-0.2]]",-0.06759255,-0.199074074,1,0,0,1.1226,o1_image,531.7384,1,532.2322,532.2322,534.2245,0,0,0,0,1,,,,,,,,,,,,,,,,,,,,,,,,,,,,,,,,,,,,,,,,,,,,,,,,,,
,,5c45ad3793f3690001c46767,43,male,2024-04-19_18h36.56.977,stockport_simplified,2022.2.4,Win32,74.62686567,661e456ee6de07e70aa9ef7b,66229d9fb0b345de2f9fedcf,,,,,,,,,,,,,,,,,,,,,,,,,,,,,,,,,,,,,,,,,,,,,,,,,,,,,,,,1,44,104,7,1,A,Y,N,o1_image,stimuli/out1.png,stimuli/correct_out1.png,stimuli/out2.png,,,,,,,,,,,,,,,,,,,,,,,,,,,,,,,,,,,,,,
,,5c45ad3793f3690001c46767,43,male,2024-04-19_18h36.56.977,stockport_simplified,2022.2.4,Win32,74.62686567,661e456ee6de07e70aa9ef7b,66229d9fb0b345de2f9fedcf,,,,,,,,,,,,,,,,,,,,,,,,,,,,,,,,,,534.225,535.6413,"[3,7,8,2,6,5,4,1]","[[-0.3,0.2],[0.3,0.2]]","[[0.125,-0.2],[-0.125,-0.2]]",0.126851894,-0.195370356,1,0,0,0.909,o1_image,535.6423,1,536.1362,536.1362,538.1279,0,0,0,0,1,,,,,,,,,,,,,,,,,,,,,,,,,,,,,,,,,,,,,,,,,,,,,,,,,,
,,5c45ad3793f3690001c46767,43,male,2024-04-19_18h36.56.977,stockport_simplified,2022.2.4,Win32,74.62686567,661e456ee6de07e70aa9ef7b,66229d9fb0b345de2f9fedcf,,,,,,,,,,,,,,,,,,,,,,,,,,,,,,,,,,,,,,,,,,,,,,,,,,,,,,,,1,45,105,35,1,A,Y,N,o1_image,stimuli/out1.png,stimuli/correct_out1.png,stimuli/out2.png,,,,,,,,,,,,,,,,,,,,,,,,,,,,,,,,,,,,,,
,,5c45ad3793f3690001c46767,43,male,2024-04-19_18h36.56.977,stockport_simplified,2022.2.4,Win32,74.62686567,661e456ee6de07e70aa9ef7b,66229d9fb0b345de2f9fedcf,,,,,,,,,,,,,,,,,,,,,,,,,,,,,,,,,,538.1283,539.8387,"[3,7,8,2,6,5,4,1]","[[-0.3,0.2],[0.3,0.2]]","[[0.125,-0.2],[-0.125,-0.2]]",-0.068518533,-0.196296339,1,0,0,1.2023,o2_image,539.8392,1,540.3339,540.3339,542.3254,0,0,0,0,1,,,,,,,,,,,,,,,,,,,,,,,,,,,,,,,,,,,,,,,,,,,,,,,,,,
,,5c45ad3793f3690001c46767,43,male,2024-04-19_18h36.56.977,stockport_simplified,2022.2.4,Win32,74.62686567,661e456ee6de07e70aa9ef7b,66229d9fb0b345de2f9fedcf,,,,,,,,,,,,,,,,,,,,,,,,,,,,,,,,,,,,,,,,,,,,,,,,,,,,,,,,1,46,106,57,1,N,M,D,o2_image,stimuli/out2.png,stimuli/out1.png,stimuli/correct_out2.png,,,,,,,,,,,,,,,,,,,,,,,,,,,,,,,,,,,,,,
,,5c45ad3793f3690001c46767,43,male,2024-04-19_18h36.56.977,stockport_simplified,2022.2.4,Win32,74.62686567,661e456ee6de07e70aa9ef7b,66229d9fb0b345de2f9fedcf,,,,,,,,,,,,,,,,,,,,,,,,,,,,,,,,,,542.3259,543.8759,"[3,7,8,2,6,5,4,1]","[[-0.3,0.2],[0.3,0.2]]","[[-0.125,-0.2],[0.125,-0.2]]",-0.064814815,-0.202777792,1,0,0,1.0418,o1_image,543.8762,1,544.3711,544.3711,546.363,0,0,0,0,1,,,,,,,,,,,,,,,,,,,,,,,,,,,,,,,,,,,,,,,,,,,,,,,,,,
,,5c45ad3793f3690001c46767,43,male,2024-04-19_18h36.56.977,stockport_simplified,2022.2.4,Win32,74.62686567,661e456ee6de07e70aa9ef7b,66229d9fb0b345de2f9fedcf,,,,,,,,,,,,,,,,,,,,,,,,,,,,,,,,,,,,,,,,,,,,,,,,,,,,,,,,1,47,107,6,1,A,Y,N,o1_image,stimuli/out1.png,stimuli/correct_out1.png,stimuli/out2.png,,,,,,,,,,,,,,,,,,,,,,,,,,,,,,,,,,,,,,
,,5c45ad3793f3690001c46767,43,male,2024-04-19_18h36.56.977,stockport_simplified,2022.2.4,Win32,74.62686567,661e456ee6de07e70aa9ef7b,66229d9fb0b345de2f9fedcf,,,,,,,,,,,,,,,,,,,,,,,,,,,,,,,,,,546.3634,547.9667,"[3,7,8,2,6,5,4,1]","[[-0.3,0.2],[0.3,0.2]]","[[0.125,-0.2],[-0.125,-0.2]]",-0.073148162,-0.191666709,1,0,0,1.095,o2_image,547.967,1,548.4618,548.4618,550.4537,0,0,0,0,1,,,,,,,,,,,,,,,,,,,,,,,,,,,,,,,,,,,,,,,,,,,,,,,,,,
,,5c45ad3793f3690001c46767,43,male,2024-04-19_18h36.56.977,stockport_simplified,2022.2.4,Win32,74.62686567,661e456ee6de07e70aa9ef7b,66229d9fb0b345de2f9fedcf,,,,,,,,,,,,,,,,,,,,,,,,,,,,,,,,,,,,,,,,,,,,,,,,,,,,,,,,1,48,108,59,1,N,M,D,o2_image,stimuli/out2.png,stimuli/out1.png,stimuli/correct_out2.png,,,,,,,,,,,,,,,,,,,,,,,,,,,,,,,,,,,,,,
,,5c45ad3793f3690001c46767,43,male,2024-04-19_18h36.56.977,stockport_simplified,2022.2.4,Win32,74.62686567,661e456ee6de07e70aa9ef7b,66229d9fb0b345de2f9fedcf,,,,,,,,,,,,,,,,,,,,,,,,,,,,,,,,,,550.4541,552.9401,"[3,7,8,2,6,5,4,1]","[[0.3,0.2],[-0.3,0.2]]","[[0.125,-0.2],[-0.125,-0.2]]",-0.141666624,-0.183333362,1,0,0,1.9781,o2_image,552.9499,1,553.4486,553.4486,555.4403,0,0,0,0,1,,,,,,,,,,,,,,,,,,,,,,,,,,,,,,,,,,,,,,,,,,,,,,,,,,
,,5c45ad3793f3690001c46767,43,male,2024-04-19_18h36.56.977,stockport_simplified,2022.2.4,Win32,74.62686567,661e456ee6de07e70aa9ef7b,66229d9fb0b345de2f9fedcf,,,,,,,,,,,,,,,,,,,,,,,,,,,,,,,,,,,,,,,,,,,,,,,,,,,,,,,,1,49,109,11,1,B,X,N,o2_image,stimuli/out2.png,stimuli/out1.png,stimuli/correct_out2.png,,,,,,,,,,,,,,,,,,,,,,,,,,,,,,,,,,,,,,
,,5c45ad3793f3690001c46767,43,male,2024-04-19_18h36.56.977,stockport_simplified,2022.2.4,Win32,74.62686567,661e456ee6de07e70aa9ef7b,66229d9fb0b345de2f9fedcf,,,,,,,,,,,,,,,,,,,,,,,,,,,,,,,,,,555.4407,557.2715,"[3,7,8,2,6,5,4,1]","[[-0.3,0.2],[0.3,0.2]]","[[-0.125,-0.2],[0.125,-0.2]]",0.084259245,-0.178703732,1,0,0,1.3229,o2_image,557.2723,1,557.7665,557.7666,559.7584,0,0,0,0,1,,,,,,,,,,,,,,,,,,,,,,,,,,,,,,,,,,,,,,,,,,,,,,,,,,
,,5c45ad3793f3690001c46767,43,male,2024-04-19_18h36.56.977,stockport_simplified,2022.2.4,Win32,74.62686567,661e456ee6de07e70aa9ef7b,66229d9fb0b345de2f9fedcf,,,,,,,,,,,,,,,,,,,,,,,,,,,,,,,,,,,,,,,,,,,,,,,,,,,,,,,,1,50,110,45,1,B,Y,N,o2_image,stimuli/out2.png,stimuli/out1.png,stimuli/correct_out2.png,,,,,,,,,,,,,,,,,,,,,,,,,,,,,,,,,,,,,,
,,5c45ad3793f3690001c46767,43,male,2024-04-19_18h36.56.977,stockport_simplified,2022.2.4,Win32,74.62686567,661e456ee6de07e70aa9ef7b,66229d9fb0b345de2f9fedcf,,,,,,,,,,,,,,,,,,,,,,,,,,,,,,,,,,559.7588,561.3223,"[3,7,8,2,6,5,4,1]","[[-0.3,0.2],[0.3,0.2]]","[[0.125,-0.2],[-0.125,-0.2]]",-0.07222218,-0.180555556,1,0,0,1.0554,o2_image,561.323,1,561.8172,561.8172,563.8091,0,0,0,0,1,,,,,,,,,,,,,,,,,,,,,,,,,,,,,,,,,,,,,,,,,,,,,,,,,,
,,5c45ad3793f3690001c46767,43,male,2024-04-19_18h36.56.977,stockport_simplified,2022.2.4,Win32,74.62686567,661e456ee6de07e70aa9ef7b,66229d9fb0b345de2f9fedcf,,,,,,,,,,,,,,,,,,,,,,,,,,,,,,,,,,,,,,,,,,,,,,,,,,,,,,,,1,51,111,26,1,N,M,D,o2_image,stimuli/out2.png,stimuli/out1.png,stimuli/correct_out2.png,,,,,,,,,,,,,,,,,,,,,,,,,,,,,,,,,,,,,,
,,5c45ad3793f3690001c46767,43,male,2024-04-19_18h36.56.977,stockport_simplified,2022.2.4,Win32,74.62686567,661e456ee6de07e70aa9ef7b,66229d9fb0b345de2f9fedcf,,,,,,,,,,,,,,,,,,,,,,,,,,,,,,,,,,563.8097,565.3733,"[3,7,8,2,6,5,4,1]","[[-0.3,0.2],[0.3,0.2]]","[[0.125,-0.2],[-0.125,-0.2]]",-0.099074046,-0.176851838,1,0,0,1.0564,o2_image,565.3741,1,565.8677,565.8677,567.8601,0,0,0,0,1,,,,,,,,,,,,,,,,,,,,,,,,,,,,,,,,,,,,,,,,,,,,,,,,,,
,,5c45ad3793f3690001c46767,43,male,2024-04-19_18h36.56.977,stockport_simplified,2022.2.4,Win32,74.62686567,661e456ee6de07e70aa9ef7b,66229d9fb0b345de2f9fedcf,,,,,,,,,,,,,,,,,,,,,,,,,,,,,,,,,,,,,,,,,,,,,,,,,,,,,,,,1,52,112,27,1,N,M,D,o2_image,stimuli/out2.png,stimuli/out1.png,stimuli/correct_out2.png,,,,,,,,,,,,,,,,,,,,,,,,,,,,,,,,,,,,,,
,,5c45ad3793f3690001c46767,43,male,2024-04-19_18h36.56.977,stockport_simplified,2022.2.4,Win32,74.62686567,661e456ee6de07e70aa9ef7b,66229d9fb0b345de2f9fedcf,,,,,,,,,,,,,,,,,,,,,,,,,,,,,,,,,,567.8606,569.344,"[3,7,8,2,6,5,4,1]","[[-0.3,0.2],[0.3,0.2]]","[[0.125,-0.2],[-0.125,-0.2]]",0.067592621,-0.169444473,1,0,0,0.9757,o1_image,569.3447,1,569.8385,569.8385,571.8302,0,0,0,0,1,,,,,,,,,,,,,,,,,,,,,,,,,,,,,,,,,,,,,,,,,,,,,,,,,,
,,5c45ad3793f3690001c46767,43,male,2024-04-19_18h36.56.977,stockport_simplified,2022.2.4,Win32,74.62686567,661e456ee6de07e70aa9ef7b,66229d9fb0b345de2f9fedcf,,,,,,,,,,,,,,,,,,,,,,,,,,,,,,,,,,,,,,,,,,,,,,,,,,,,,,,,1,53,113,8,1,A,Y,N,o1_image,stimuli/out1.png,stimuli/correct_out1.png,stimuli/out2.png,,,,,,,,,,,,,,,,,,,,,,,,,,,,,,,,,,,,,,
,,5c45ad3793f3690001c46767,43,male,2024-04-19_18h36.56.977,stockport_simplified,2022.2.4,Win32,74.62686567,661e456ee6de07e70aa9ef7b,66229d9fb0b345de2f9fedcf,,,,,,,,,,,,,,,,,,,,,,,,,,,,,,,,,,571.8307,574.5573,"[3,7,8,2,6,5,4,1]","[[-0.3,0.2],[0.3,0.2]]","[[-0.125,-0.2],[0.125,-0.2]]",0.09629631,-0.169444473,1,0,0,2.2188,o2_image,574.5579,1,575.0519,575.0519,577.0441,0,0,0,0,1,,,,,,,,,,,,,,,,,,,,,,,,,,,,,,,,,,,,,,,,,,,,,,,,,,
,,5c45ad3793f3690001c46767,43,male,2024-04-19_18h36.56.977,stockport_simplified,2022.2.4,Win32,74.62686567,661e456ee6de07e70aa9ef7b,66229d9fb0b345de2f9fedcf,,,,,,,,,,,,,,,,,,,,,,,,,,,,,,,,,,,,,,,,,,,,,,,,,,,,,,,,1,54,114,46,1,B,Y,N,o2_image,stimuli/out2.png,stimuli/out1.png,stimuli/correct_out2.png,,,,,,,,,,,,,,,,,,,,,,,,,,,,,,,,,,,,,,
,,5c45ad3793f3690001c46767,43,male,2024-04-19_18h36.56.977,stockport_simplified,2022.2.4,Win32,74.62686567,661e456ee6de07e70aa9ef7b,66229d9fb0b345de2f9fedcf,,,,,,,,,,,,,,,,,,,,,,,,,,,,,,,,,,577.0445,578.7019,"[3,7,8,2,6,5,4,1]","[[0.3,0.2],[-0.3,0.2]]","[[0.125,-0.2],[-0.125,-0.2]]",-0.089814787,-0.180555556,1,0,0,1.1501,o2_image,578.7026,1,579.1965,579.1965,581.1885,0,0,0,0,1,,,,,,,,,,,,,,,,,,,,,,,,,,,,,,,,,,,,,,,,,,,,,,,,,,
,,5c45ad3793f3690001c46767,43,male,2024-04-19_18h36.56.977,stockport_simplified,2022.2.4,Win32,74.62686567,661e456ee6de07e70aa9ef7b,66229d9fb0b345de2f9fedcf,,,,,,,,,,,,,,,,,,,,,,,,,,,,,,,,,,,,,,,,,,,,,,,,,,,,,,,,1,55,115,42,1,B,X,N,o2_image,stimuli/out2.png,stimuli/out1.png,stimuli/correct_out2.png,,,,,,,,,,,,,,,,,,,,,,,,,,,,,,,,,,,,,,
,,5c45ad3793f3690001c46767,43,male,2024-04-19_18h36.56.977,stockport_simplified,2022.2.4,Win32,74.62686567,661e456ee6de07e70aa9ef7b,66229d9fb0b345de2f9fedcf,,,,,,,,,,,,,,,,,,,,,,,,,,,,,,,,,,581.1888,582.5246,"[3,7,8,2,6,5,4,1]","[[-0.3,0.2],[0.3,0.2]]","[[0.125,-0.2],[-0.125,-0.2]]",0.077777792,-0.18240745,1,0,0,0.828,o1_image,582.525,1,583.0199,583.0199,585.0118,0,0,0,0,1,,,,,,,,,,,,,,,,,,,,,,,,,,,,,,,,,,,,,,,,,,,,,,,,,,
,,5c45ad3793f3690001c46767,43,male,2024-04-19_18h36.56.977,stockport_simplified,2022.2.4,Win32,74.62686567,661e456ee6de07e70aa9ef7b,66229d9fb0b345de2f9fedcf,,,,,,,,,,,,,,,,,,,,,,,,,,,,,,,,,,,,,,,,,,,,,,,,,,,,,,,,1,56,116,0,1,A,X,N,o1_image,stimuli/out1.png,stimuli/correct_out1.png,stimuli/out2.png,,,,,,,,,,,,,,,,,,,,,,,,,,,,,,,,,,,,,,
,,5c45ad3793f3690001c46767,43,male,2024-04-19_18h36.56.977,stockport_simplified,2022.2.4,Win32,74.62686567,661e456ee6de07e70aa9ef7b,66229d9fb0b345de2f9fedcf,,,,,,,,,,,,,,,,,,,,,,,,,,,,,,,,,,585.0122,586.8435,"[3,7,8,2,6,5,4,1]","[[-0.3,0.2],[0.3,0.2]]","[[-0.125,-0.2],[0.125,-0.2]]",0.10092594,-0.187037079,1,0,0,1.3235,o2_image,586.8445,1,587.338,587.338,589.3293,0,0,0,0,1,,,,,,,,,,,,,,,,,,,,,,,,,,,,,,,,,,,,,,,,,,,,,,,,,,
,,5c45ad3793f3690001c46767,43,male,2024-04-19_18h36.56.977,stockport_simplified,2022.2.4,Win32,74.62686567,661e456ee6de07e70aa9ef7b,66229d9fb0b345de2f9fedcf,,,,,,,,,,,,,,,,,,,,,,,,,,,,,,,,,,,,,,,,,,,,,,,,,,,,,,,,1,57,117,40,1,B,X,N,o2_image,stimuli/out2.png,stimuli/out1.png,stimuli/correct_out2.png,,,,,,,,,,,,,,,,,,,,,,,,,,,,,,,,,,,,,,
,,5c45ad3793f3690001c46767,43,male,2024-04-19_18h36.56.977,stockport_simplified,2022.2.4,Win32,74.62686567,661e456ee6de07e70aa9ef7b,66229d9fb0b345de2f9fedcf,,,,,,,,,,,,,,,,,,,,,,,,,,,,,,,,,,589.3296,590.7469,"[3,7,8,2,6,5,4,1]","[[-0.3,0.2],[0.3,0.2]]","[[-0.125,-0.2],[0.125,-0.2]]",0.087037051,-0.186111097,1,0,0,0.9089,o2_image,590.7477,1,591.2417,591.2417,593.2334,0,0,0,0,1,,,,,,,,,,,,,,,,,,,,,,,,,,,,,,,,,,,,,,,,,,,,,,,,,,
,,5c45ad3793f3690001c46767,43,male,2024-04-19_18h36.56.977,stockport_simplified,2022.2.4,Win32,74.62686567,661e456ee6de07e70aa9ef7b,66229d9fb0b345de2f9fedcf,,,,,,,,,,,,,,,,,,,,,,,,,,,,,,,,,,,,,,,,,,,,,,,,,,,,,,,,1,58,118,12,1,B,X,N,o2_image,stimuli/out2.png,stimuli/out1.png,stimuli/correct_out2.png,,,,,,,,,,,,,,,,,,,,,,,,,,,,,,,,,,,,,,
,,5c45ad3793f3690001c46767,43,male,2024-04-19_18h36.56.977,stockport_simplified,2022.2.4,Win32,74.62686567,661e456ee6de07e70aa9ef7b,66229d9fb0b345de2f9fedcf,,,,,,,,,,,,,,,,,,,,,,,,,,,,,,,,,,593.2338,595.4261,"[3,7,8,2,6,5,4,1]","[[0.3,0.2],[-0.3,0.2]]","[[0.125,-0.2],[-0.125,-0.2]]",0.087037051,-0.186111097,1,0,0,1.684,o1_image,595.4267,1,595.9207,595.9207,597.9124,0,0,0,0,1,,,,,,,,,,,,,,,,,,,,,,,,,,,,,,,,,,,,,,,,,,,,,,,,,,
,,5c45ad3793f3690001c46767,43,male,2024-04-19_18h36.56.977,stockport_simplified,2022.2.4,Win32,74.62686567,661e456ee6de07e70aa9ef7b,66229d9fb0b345de2f9fedcf,,,,,,,,,,,,,,,,,,,,,,,,,,,,,,,,,,,,,,,,,,,,,,,,,,,,,,,,1,59,119,20,1,N,M,C,o1_image,stimuli/out1.png,stimuli/correct_out1.png,stimuli/out2.png,,,,,,,,,,,,,,,,,,,,,,,,,,,,,,,,,,,,,,
,,5c45ad3793f3690001c46767,43,male,2024-04-19_18h36.56.977,stockport_simplified,2022.2.4,Win32,74.62686567,661e456ee6de07e70aa9ef7b,66229d9fb0b345de2f9fedcf,,,,,,,,,,,,,,,,,,,,,,,,,,,,,,,,,,597.9277,599.6373,"[3,7,8,2,6,5,4,1]","[[0.3,0.2],[-0.3,0.2]]","[[-0.125,-0.2],[0.125,-0.2]]",-0.130555541,-0.184259273,1,0,0,1.2032,o1_image,599.6384,1,600.1315,600.1315,602.1241,,,,,,,,,,,,,,,,,,0,0,0,0,1,,,,,,,,,,,,,,,,,,,,,,,,,,,,,,,,,
,,5c45ad3793f3690001c46767,43,male,2024-04-19_18h36.56.977,stockport_simplified,2022.2.4,Win32,74.62686567,661e456ee6de07e70aa9ef7b,66229d9fb0b345de2f9fedcf,,,,,,,,,,,,,,,,,,,,,,,,,,,,,,,,,,,,,,,,,,,,,,,,,,,,,,,,,,,,,N,M,C,o1_image,stimuli/out1.png,stimuli/correct_out1.png,stimuli/out2.png,,,,,,0,0,0,40,1,,,,,,,,,,,,,,,,,,,,,,,,,,,,
,,5c45ad3793f3690001c46767,43,male,2024-04-19_18h36.56.977,stockport_simplified,2022.2.4,Win32,74.62686567,661e456ee6de07e70aa9ef7b,66229d9fb0b345de2f9fedcf,,,,,,,,,,,,,,,,,,,,,,,,,,,,,,,,,,602.1249,603.6746,"[3,7,8,2,6,5,4,1]","[[0.3,0.2],[-0.3,0.2]]","[[0.125,-0.2],[-0.125,-0.2]]",-0.075925898,-0.195370356,1,0,0,1.0425,o2_image,603.6753,1,604.1691,604.1691,606.161,,,,,,,,,,,,,,,,,,0,0,0,0,1,,,,,,,,,,,,,,,,,,,,,,,,,,,,,,,,,
,,5c45ad3793f3690001c46767,43,male,2024-04-19_18h36.56.977,stockport_simplified,2022.2.4,Win32,74.62686567,661e456ee6de07e70aa9ef7b,66229d9fb0b345de2f9fedcf,,,,,,,,,,,,,,,,,,,,,,,,,,,,,,,,,,,,,,,,,,,,,,,,,,,,,,,,,,,,,N,M,D,o2_image,stimuli/out2.png,stimuli/out1.png,stimuli/correct_out2.png,,,,,,0,1,1,51,1,,,,,,,,,,,,,,,,,,,,,,,,,,,,
,,5c45ad3793f3690001c46767,43,male,2024-04-19_18h36.56.977,stockport_simplified,2022.2.4,Win32,74.62686567,661e456ee6de07e70aa9ef7b,66229d9fb0b345de2f9fedcf,,,,,,,,,,,,,,,,,,,,,,,,,,,,,,,,,,606.1614,607.6718,"[3,7,8,2,6,5,4,1]","[[0.3,0.2],[-0.3,0.2]]","[[-0.125,-0.2],[0.125,-0.2]]",0.091666681,-0.187037079,1,0,0,1.0021,o2_image,607.6727,0,608.1665,608.1665,610.1585,,,,,,,,,,,,,,,,,,0,0,0,0,1,,,,,,,,,,,,,,,,,,,,,,,,,,,,,,,,,
,,5c45ad3793f3690001c46767,43,male,2024-04-19_18h36.56.977,stockport_simplified,2022.2.4,Win32,74.62686567,661e456ee6de07e70aa9ef7b,66229d9fb0b345de2f9fedcf,,,,,,,,,,,,,,,,,,,,,,,,,,,,,,,,,,,,,,,,,,,,,,,,,,,,,,,,,,,,,B,X,N,o1_image,stimuli/out1.png,stimuli/correct_out1.png,stimuli/out2.png,,,,,,0,2,2,29,1,,,,,,,,,,,,,,,,,,,,,,,,,,,,
,,5c45ad3793f3690001c46767,43,male,2024-04-19_18h36.56.977,stockport_simplified,2022.2.4,Win32,74.62686567,661e456ee6de07e70aa9ef7b,66229d9fb0b345de2f9fedcf,,,,,,,,,,,,,,,,,,,,,,,,,,,,,,,,,,610.1591,612.0434,"[3,7,8,2,6,5,4,1]","[[-0.3,0.2],[0.3,0.2]]","[[0.125,-0.2],[-0.125,-0.2]]",-0.064814815,-0.186111097,1,0,0,1.3764,o2_image,612.0441,1,612.5379,612.5379,614.5298,,,,,,,,,,,,,,,,,,0,0,0,0,1,,,,,,,,,,,,,,,,,,,,,,,,,,,,,,,,,
,,5c45ad3793f3690001c46767,43,male,2024-04-19_18h36.56.977,stockport_simplified,2022.2.4,Win32,74.62686567,661e456ee6de07e70aa9ef7b,66229d9fb0b345de2f9fedcf,,,,,,,,,,,,,,,,,,,,,,,,,,,,,,,,,,,,,,,,,,,,,,,,,,,,,,,,,,,,,B,Y,N,o2_image,stimuli/out2.png,stimuli/out1.png,stimuli/correct_out2.png,,,,,,0,3,3,32,1,,,,,,,,,,,,,,,,,,,,,,,,,,,,
