counterbalance_2.started,counterbalance_2.stopped,participant,age,gender,date,expName,psychopyVersion,OS,frameRate,STUDY_ID,SESSION_ID,information_2.started,information_2.stopped,information_loop.thisRepN,information_loop.thisTrialN,information_loop.thisN,information_loop.thisIndex,information_loop.ran,information,consent_2.started,consent_2.stopped,slider_1.response,slider_2.response,slider_3.response,slider_4.response,slider_5.response,slider_6.response,instructions.started,instructions.stopped,task1_instr.thisRepN,task1_instr.thisTrialN,task1_instr.thisN,task1_instr.thisIndex,task1_instr.ran,task1,comprehension1_2.started,comprehension1_2.stopped,comp1_mouse.x,comp1_mouse.y,comp1_mouse.leftButton,comp1_mouse.midButton,comp1_mouse.rightButton,comp1_mouse.time,comp1_mouse.clicked_name,cue_o__trial_2.started,cue_o__trial_2.stopped,order,cue_order,out_order,cue_o_mouse.x,cue_o_mouse.y,cue_o_mouse.leftButton,cue_o_mouse.midButton,cue_o_mouse.rightButton,cue_o_mouse.time,cue_o_mouse.clicked_name,cue_selection_2.started,correct_answer,cue_selection_2.stopped,feedback_2.started,feedback_2.stopped,feedback_loop.thisRepN,feedback_loop.thisTrialN,feedback_loop.thisN,feedback_loop.thisIndex,feedback_loop.ran,stage1_trials.thisRepN,stage1_trials.thisTrialN,stage1_trials.thisN,stage1_trials.thisIndex,stage1_trials.ran,cue1,cue2,cue3,outcome,correct_out,o1_feedback,o2_feedback,stage2_feedback_loop.thisRepN,stage2_feedback_loop.thisTrialN,stage2_feedback_loop.thisN,stage2_feedback_loop.thisIndex,stage2_feedback_loop.ran,stage2_trials.thisRepN,stage2_trials.thisTrialN,stage2_trials.thisN,stage2_trials.thisIndex,stage2_trials.ran,stage3_feedback_loop.thisRepN,stage3_feedback_loop.thisTrialN,stage3_feedback_loop.thisN,stage3_feedback_loop.thisIndex,stage3_feedback_loop.ran,stage3_trials.thisRepN,stage3_trials.thisTrialN,stage3_trials.thisN,stage3_trials.thisIndex,stage3_trials.ran,debrief_2.started,debrief_2.stopped,debrief_loop.thisRepN,debrief_loop.thisTrialN,debrief_loop.thisN,debrief_loop.thisIndex,debrief_loop.ran,debrief_img,compr1_completed.thisRepN,compr1_completed.thisTrialN,compr1_completed.thisN,compr1_completed.thisIndex,compr1_completed.ran,consent_loop.thisRepN,consent_loop.thisTrialN,consent_loop.thisN,consent_loop.thisIndex,consent_loop.ran
0.0005,0.0009,650222d04fe305c48c9a98ee,29,male,2024-04-24_12h32.29.914,stockport_simplified,2022.2.4,Win32,30.12048193,661e456ee6de07e70aa9ef7b,6628df8d7ffa27dd83fc10c4,,,,,,,,,,,,,,,,,,,,,,,,,,,,,,,,,,,,,,,,,,,,,,,,,,,,,,,,,,,,,,,,,,,,,,,,,,,,,,,,,,,,,,,,,,,,,,,,,,,,,,,,,
,,650222d04fe305c48c9a98ee,29,male,2024-04-24_12h32.29.914,stockport_simplified,2022.2.4,Win32,30.12048193,661e456ee6de07e70aa9ef7b,6628df8d7ffa27dd83fc10c4,0.031,10.1638,0,0,0,0,1,instructions/info1.png,,,,,,,,,,,,,,,,,,,,,,,,,,,,,,,,,,,,,,,,,,,,,,,,,,,,,,,,,,,,,,,,,,,,,,,,,,,,,,,,,,,,,,,,,,,,,,,,,
,,650222d04fe305c48c9a98ee,29,male,2024-04-24_12h32.29.914,stockport_simplified,2022.2.4,Win32,30.12048193,661e456ee6de07e70aa9ef7b,6628df8d7ffa27dd83fc10c4,10.1651,27.9264,0,1,1,1,1,instructions/info2.png,,,,,,,,,,,,,,,,,,,,,,,,,,,,,,,,,,,,,,,,,,,,,,,,,,,,,,,,,,,,,,,,,,,,,,,,,,,,,,,,,,,,,,,,,,,,,,,,,
,,650222d04fe305c48c9a98ee,29,male,2024-04-24_12h32.29.914,stockport_simplified,2022.2.4,Win32,30.12048193,661e456ee6de07e70aa9ef7b,6628df8d7ffa27dd83fc10c4,27.9275,73.1237,0,2,2,2,1,instructions/info3.png,,,,,,,,,,,,,,,,,,,,,,,,,,,,,,,,,,,,,,,,,,,,,,,,,,,,,,,,,,,,,,,,,,,,,,,,,,,,,,,,,,,,,,,,,,,,,,,,,
,,650222d04fe305c48c9a98ee,29,male,2024-04-24_12h32.29.914,stockport_simplified,2022.2.4,Win32,30.12048193,661e456ee6de07e70aa9ef7b,6628df8d7ffa27dd83fc10c4,,,,,,,,,73.1574,88.7017,1,1,1,1,1,1,,,,,,,,,,,,,,,,,,,,,,,,,,,,,,,,,,,,,,,,,,,,,,,,,,,,,,,,,,,,,,,,,,,,,,,,,,,,,,,,,,,,,,,,,
,,650222d04fe305c48c9a98ee,29,male,2024-04-24_12h32.29.914,stockport_simplified,2022.2.4,Win32,30.12048193,661e456ee6de07e70aa9ef7b,6628df8d7ffa27dd83fc10c4,,,,,,,,,,,,,,,,,88.7594,121.4126,0,0,0,0,1,instructions/task1_1.png,,,,,,,,,,,,,,,,,,,,,,,,,,,,,,,,,,,,,,,,,,,,,,,,,,,,,,,,,,,,,,,,,,,,,,,,,,,,,,,,,
,,650222d04fe305c48c9a98ee,29,male,2024-04-24_12h32.29.914,stockport_simplified,2022.2.4,Win32,30.12048193,661e456ee6de07e70aa9ef7b,6628df8d7ffa27dd83fc10c4,,,,,,,,,,,,,,,,,121.4459,167.2649,0,1,1,1,1,instructions/task1_2.png,,,,,,,,,,,,,,,,,,,,,,,,,,,,,,,,,,,,,,,,,,,,,,,,,,,,,,,,,,,,,,,,,,,,,,,,,,,,,,,,,
,,650222d04fe305c48c9a98ee,29,male,2024-04-24_12h32.29.914,stockport_simplified,2022.2.4,Win32,30.12048193,661e456ee6de07e70aa9ef7b,6628df8d7ffa27dd83fc10c4,,,,,,,,,,,,,,,,,167.2979,183.6409,0,2,2,2,1,instructions/task1_3.png,,,,,,,,,,,,,,,,,,,,,,,,,,,,,,,,,,,,,,,,,,,,,,,,,,,,,,,,,,,,,,,,,,,,,,,,,,,,,,,,,
,,650222d04fe305c48c9a98ee,29,male,2024-04-24_12h32.29.914,stockport_simplified,2022.2.4,Win32,30.12048193,661e456ee6de07e70aa9ef7b,6628df8d7ffa27dd83fc10c4,,,,,,,,,,,,,,,,,,,,,,,,,183.6441,197.1611,0.093518575,-0.325,1,0,0,13.5148,comp1_resp1,197.2499,201.2567,"[1,7,5,8,2,3,6,4]","[[0.3,0.2],[-0.3,0.2]]","[[0.125,-0.2],[-0.125,-0.2]]",0.122222222,-0.191666667,1,0,0,3.4992,o1_image,201.2908,0,201.7925,201.7931,203.7877,0,0,0,0,1,,,,,,,,,,,,,,,,,,,,,,,,,,,,,,,,,,,,,,,,,,,,,,,,,,
,,650222d04fe305c48c9a98ee,29,male,2024-04-24_12h32.29.914,stockport_simplified,2022.2.4,Win32,30.12048193,661e456ee6de07e70aa9ef7b,6628df8d7ffa27dd83fc10c4,,,,,,,,,,,,,,,,,,,,,,,,,,,,,,,,,,,,,,,,,,,,,,,,,,,,,,,,0,0,0,43,1,B,X,N,o2_image,stimuli/out2.png,stimuli/out1.png,stimuli/correct_out2.png,,,,,,,,,,,,,,,,,,,,,,,,,,,,,,,,,,,,,,
,,650222d04fe305c48c9a98ee,29,male,2024-04-24_12h32.29.914,stockport_simplified,2022.2.4,Win32,30.12048193,661e456ee6de07e70aa9ef7b,6628df8d7ffa27dd83fc10c4,,,,,,,,,,,,,,,,,,,,,,,,,,,,,,,,,,203.7895,207.9047,"[1,7,5,8,2,3,6,4]","[[0.3,0.2],[-0.3,0.2]]","[[-0.125,-0.2],[0.125,-0.2]]",0.15,-0.175925954,1,0,0,3.5999,o2_image,207.9366,0,208.4379,208.438,210.4373,0,0,0,0,1,,,,,,,,,,,,,,,,,,,,,,,,,,,,,,,,,,,,,,,,,,,,,,,,,,
,,650222d04fe305c48c9a98ee,29,male,2024-04-24_12h32.29.914,stockport_simplified,2022.2.4,Win32,30.12048193,661e456ee6de07e70aa9ef7b,6628df8d7ffa27dd83fc10c4,,,,,,,,,,,,,,,,,,,,,,,,,,,,,,,,,,,,,,,,,,,,,,,,,,,,,,,,0,1,1,31,1,A,X,N,o1_image,stimuli/out1.png,stimuli/correct_out1.png,stimuli/out2.png,,,,,,,,,,,,,,,,,,,,,,,,,,,,,,,,,,,,,,
,,650222d04fe305c48c9a98ee,29,male,2024-04-24_12h32.29.914,stockport_simplified,2022.2.4,Win32,30.12048193,661e456ee6de07e70aa9ef7b,6628df8d7ffa27dd83fc10c4,,,,,,,,,,,,,,,,,,,,,,,,,,,,,,,,,,210.4383,215.1035,"[1,7,5,8,2,3,6,4]","[[0.3,0.2],[-0.3,0.2]]","[[0.125,-0.2],[-0.125,-0.2]]",0.102777778,-0.201851866,1,0,0,4.1562,o1_image,215.1353,0,215.6371,215.6372,217.6493,0,0,0,0,1,,,,,,,,,,,,,,,,,,,,,,,,,,,,,,,,,,,,,,,,,,,,,,,,,,
,,650222d04fe305c48c9a98ee,29,male,2024-04-24_12h32.29.914,stockport_simplified,2022.2.4,Win32,30.12048193,661e456ee6de07e70aa9ef7b,6628df8d7ffa27dd83fc10c4,,,,,,,,,,,,,,,,,,,,,,,,,,,,,,,,,,,,,,,,,,,,,,,,,,,,,,,,0,2,2,55,1,N,M,D,o2_image,stimuli/out2.png,stimuli/out1.png,stimuli/correct_out2.png,,,,,,,,,,,,,,,,,,,,,,,,,,,,,,,,,,,,,,
,,650222d04fe305c48c9a98ee,29,male,2024-04-24_12h32.29.914,stockport_simplified,2022.2.4,Win32,30.12048193,661e456ee6de07e70aa9ef7b,6628df8d7ffa27dd83fc10c4,,,,,,,,,,,,,,,,,,,,,,,,,,,,,,,,,,217.6503,222.0218,"[1,7,5,8,2,3,6,4]","[[-0.3,0.2],[0.3,0.2]]","[[0.125,-0.2],[-0.125,-0.2]]",-0.078703647,-0.203703732,1,0,0,3.8672,o2_image,222.0542,1,222.5534,222.5534,224.5533,0,0,0,0,1,,,,,,,,,,,,,,,,,,,,,,,,,,,,,,,,,,,,,,,,,,,,,,,,,,
,,650222d04fe305c48c9a98ee,29,male,2024-04-24_12h32.29.914,stockport_simplified,2022.2.4,Win32,30.12048193,661e456ee6de07e70aa9ef7b,6628df8d7ffa27dd83fc10c4,,,,,,,,,,,,,,,,,,,,,,,,,,,,,,,,,,,,,,,,,,,,,,,,,,,,,,,,0,3,3,41,1,B,X,N,o2_image,stimuli/out2.png,stimuli/out1.png,stimuli/correct_out2.png,,,,,,,,,,,,,,,,,,,,,,,,,,,,,,,,,,,,,,
,,650222d04fe305c48c9a98ee,29,male,2024-04-24_12h32.29.914,stockport_simplified,2022.2.4,Win32,30.12048193,661e456ee6de07e70aa9ef7b,6628df8d7ffa27dd83fc10c4,,,,,,,,,,,,,,,,,,,,,,,,,,,,,,,,,,224.5543,228.0199,"[1,7,5,8,2,3,6,4]","[[-0.3,0.2],[0.3,0.2]]","[[0.125,-0.2],[-0.125,-0.2]]",0.093518575,-0.192592621,1,0,0,2.9483,o1_image,228.0519,1,228.5699,228.57,230.5698,0,0,0,0,1,,,,,,,,,,,,,,,,,,,,,,,,,,,,,,,,,,,,,,,,,,,,,,,,,,
,,650222d04fe305c48c9a98ee,29,male,2024-04-24_12h32.29.914,stockport_simplified,2022.2.4,Win32,30.12048193,661e456ee6de07e70aa9ef7b,6628df8d7ffa27dd83fc10c4,,,,,,,,,,,,,,,,,,,,,,,,,,,,,,,,,,,,,,,,,,,,,,,,,,,,,,,,0,4,4,6,1,A,Y,N,o1_image,stimuli/out1.png,stimuli/correct_out1.png,stimuli/out2.png,,,,,,,,,,,,,,,,,,,,,,,,,,,,,,,,,,,,,,
,,650222d04fe305c48c9a98ee,29,male,2024-04-24_12h32.29.914,stockport_simplified,2022.2.4,Win32,30.12048193,661e456ee6de07e70aa9ef7b,6628df8d7ffa27dd83fc10c4,,,,,,,,,,,,,,,,,,,,,,,,,,,,,,,,,,230.5708,234.4485,"[1,7,5,8,2,3,6,4]","[[0.3,0.2],[-0.3,0.2]]","[[-0.125,-0.2],[0.125,-0.2]]",0.105555556,-0.199074088,1,0,0,3.3598,o2_image,234.4801,1,234.9698,234.9699,236.9693,0,0,0,0,1,,,,,,,,,,,,,,,,,,,,,,,,,,,,,,,,,,,,,,,,,,,,,,,,,,
,,650222d04fe305c48c9a98ee,29,male,2024-04-24_12h32.29.914,stockport_simplified,2022.2.4,Win32,30.12048193,661e456ee6de07e70aa9ef7b,6628df8d7ffa27dd83fc10c4,,,,,,,,,,,,,,,,,,,,,,,,,,,,,,,,,,,,,,,,,,,,,,,,,,,,,,,,0,5,5,59,1,N,M,D,o2_image,stimuli/out2.png,stimuli/out1.png,stimuli/correct_out2.png,,,,,,,,,,,,,,,,,,,,,,,,,,,,,,,,,,,,,,
,,650222d04fe305c48c9a98ee,29,male,2024-04-24_12h32.29.914,stockport_simplified,2022.2.4,Win32,30.12048193,661e456ee6de07e70aa9ef7b,6628df8d7ffa27dd83fc10c4,,,,,,,,,,,,,,,,,,,,,,,,,,,,,,,,,,236.9703,239.4541,"[1,7,5,8,2,3,6,4]","[[-0.3,0.2],[0.3,0.2]]","[[0.125,-0.2],[-0.125,-0.2]]",-0.088888889,-0.212037065,1,0,0,1.9661,o2_image,239.4561,0,239.9606,239.9608,241.9533,0,0,0,0,1,,,,,,,,,,,,,,,,,,,,,,,,,,,,,,,,,,,,,,,,,,,,,,,,,,
,,650222d04fe305c48c9a98ee,29,male,2024-04-24_12h32.29.914,stockport_simplified,2022.2.4,Win32,30.12048193,661e456ee6de07e70aa9ef7b,6628df8d7ffa27dd83fc10c4,,,,,,,,,,,,,,,,,,,,,,,,,,,,,,,,,,,,,,,,,,,,,,,,,,,,,,,,0,6,6,33,1,A,X,N,o1_image,stimuli/out1.png,stimuli/correct_out1.png,stimuli/out2.png,,,,,,,,,,,,,,,,,,,,,,,,,,,,,,,,,,,,,,
,,650222d04fe305c48c9a98ee,29,male,2024-04-24_12h32.29.914,stockport_simplified,2022.2.4,Win32,30.12048193,661e456ee6de07e70aa9ef7b,6628df8d7ffa27dd83fc10c4,,,,,,,,,,,,,,,,,,,,,,,,,,,,,,,,,,241.9545,245.5027,"[1,7,5,8,2,3,6,4]","[[0.3,0.2],[-0.3,0.2]]","[[-0.125,-0.2],[0.125,-0.2]]",-0.086111111,-0.212037065,1,0,0,3.0316,o1_image,245.505,1,246.0141,246.0142,248.0031,0,0,0,0,1,,,,,,,,,,,,,,,,,,,,,,,,,,,,,,,,,,,,,,,,,,,,,,,,,,
,,650222d04fe305c48c9a98ee,29,male,2024-04-24_12h32.29.914,stockport_simplified,2022.2.4,Win32,30.12048193,661e456ee6de07e70aa9ef7b,6628df8d7ffa27dd83fc10c4,,,,,,,,,,,,,,,,,,,,,,,,,,,,,,,,,,,,,,,,,,,,,,,,,,,,,,,,0,7,7,35,1,A,Y,N,o1_image,stimuli/out1.png,stimuli/correct_out1.png,stimuli/out2.png,,,,,,,,,,,,,,,,,,,,,,,,,,,,,,,,,,,,,,
,,650222d04fe305c48c9a98ee,29,male,2024-04-24_12h32.29.914,stockport_simplified,2022.2.4,Win32,30.12048193,661e456ee6de07e70aa9ef7b,6628df8d7ffa27dd83fc10c4,,,,,,,,,,,,,,,,,,,,,,,,,,,,,,,,,,248.0042,251.0415,"[1,7,5,8,2,3,6,4]","[[-0.3,0.2],[0.3,0.2]]","[[0.125,-0.2],[-0.125,-0.2]]",-0.106481425,-0.204629644,1,0,0,2.5285,o2_image,251.0431,0,251.5403,251.5405,253.5375,0,0,0,0,1,,,,,,,,,,,,,,,,,,,,,,,,,,,,,,,,,,,,,,,,,,,,,,,,,,
,,650222d04fe305c48c9a98ee,29,male,2024-04-24_12h32.29.914,stockport_simplified,2022.2.4,Win32,30.12048193,661e456ee6de07e70aa9ef7b,6628df8d7ffa27dd83fc10c4,,,,,,,,,,,,,,,,,,,,,,,,,,,,,,,,,,,,,,,,,,,,,,,,,,,,,,,,0,8,8,32,1,A,X,N,o1_image,stimuli/out1.png,stimuli/correct_out1.png,stimuli/out2.png,,,,,,,,,,,,,,,,,,,,,,,,,,,,,,,,,,,,,,
,,650222d04fe305c48c9a98ee,29,male,2024-04-24_12h32.29.914,stockport_simplified,2022.2.4,Win32,30.12048193,661e456ee6de07e70aa9ef7b,6628df8d7ffa27dd83fc10c4,,,,,,,,,,,,,,,,,,,,,,,,,,,,,,,,,,253.5384,255.8044,"[1,7,5,8,2,3,6,4]","[[-0.3,0.2],[0.3,0.2]]","[[0.125,-0.2],[-0.125,-0.2]]",0.069444444,-0.2,1,0,0,1.75,o1_image,255.806,1,256.2855,256.2856,258.2854,0,0,0,0,1,,,,,,,,,,,,,,,,,,,,,,,,,,,,,,,,,,,,,,,,,,,,,,,,,,
,,650222d04fe305c48c9a98ee,29,male,2024-04-24_12h32.29.914,stockport_simplified,2022.2.4,Win32,30.12048193,661e456ee6de07e70aa9ef7b,6628df8d7ffa27dd83fc10c4,,,,,,,,,,,,,,,,,,,,,,,,,,,,,,,,,,,,,,,,,,,,,,,,,,,,,,,,0,9,9,4,1,A,X,N,o1_image,stimuli/out1.png,stimuli/correct_out1.png,stimuli/out2.png,,,,,,,,,,,,,,,,,,,,,,,,,,,,,,,,,,,,,,
,,650222d04fe305c48c9a98ee,29,male,2024-04-24_12h32.29.914,stockport_simplified,2022.2.4,Win32,30.12048193,661e456ee6de07e70aa9ef7b,6628df8d7ffa27dd83fc10c4,,,,,,,,,,,,,,,,,,,,,,,,,,,,,,,,,,258.2863,262.9209,"[1,7,5,8,2,3,6,4]","[[0.3,0.2],[-0.3,0.2]]","[[-0.125,-0.2],[0.125,-0.2]]",0.104629686,-0.176851866,1,0,0,4.1166,o2_image,262.9516,1,263.4397,263.4398,265.439,0,0,0,0,1,,,,,,,,,,,,,,,,,,,,,,,,,,,,,,,,,,,,,,,,,,,,,,,,,,
,,650222d04fe305c48c9a98ee,29,male,2024-04-24_12h32.29.914,stockport_simplified,2022.2.4,Win32,30.12048193,661e456ee6de07e70aa9ef7b,6628df8d7ffa27dd83fc10c4,,,,,,,,,,,,,,,,,,,,,,,,,,,,,,,,,,,,,,,,,,,,,,,,,,,,,,,,0,10,10,16,1,B,Y,N,o2_image,stimuli/out2.png,stimuli/out1.png,stimuli/correct_out2.png,,,,,,,,,,,,,,,,,,,,,,,,,,,,,,,,,,,,,,
,,650222d04fe305c48c9a98ee,29,male,2024-04-24_12h32.29.914,stockport_simplified,2022.2.4,Win32,30.12048193,661e456ee6de07e70aa9ef7b,6628df8d7ffa27dd83fc10c4,,,,,,,,,,,,,,,,,,,,,,,,,,,,,,,,,,265.4399,267.6553,"[1,7,5,8,2,3,6,4]","[[-0.3,0.2],[0.3,0.2]]","[[-0.125,-0.2],[0.125,-0.2]]",0.090740797,-0.195370399,1,0,0,1.6861,o2_image,267.6574,1,268.139,268.1391,270.1385,0,0,0,0,1,,,,,,,,,,,,,,,,,,,,,,,,,,,,,,,,,,,,,,,,,,,,,,,,,,
,,650222d04fe305c48c9a98ee,29,male,2024-04-24_12h32.29.914,stockport_simplified,2022.2.4,Win32,30.12048193,661e456ee6de07e70aa9ef7b,6628df8d7ffa27dd83fc10c4,,,,,,,,,,,,,,,,,,,,,,,,,,,,,,,,,,,,,,,,,,,,,,,,,,,,,,,,0,11,11,18,1,B,Y,N,o2_image,stimuli/out2.png,stimuli/out1.png,stimuli/correct_out2.png,,,,,,,,,,,,,,,,,,,,,,,,,,,,,,,,,,,,,,
,,650222d04fe305c48c9a98ee,29,male,2024-04-24_12h32.29.914,stockport_simplified,2022.2.4,Win32,30.12048193,661e456ee6de07e70aa9ef7b,6628df8d7ffa27dd83fc10c4,,,,,,,,,,,,,,,,,,,,,,,,,,,,,,,,,,270.1395,272.0698,"[1,7,5,8,2,3,6,4]","[[-0.3,0.2],[0.3,0.2]]","[[-0.125,-0.2],[0.125,-0.2]]",0.078703732,-0.218518575,1,0,0,1.4163,o2_image,272.0717,0,272.555,272.5551,274.5548,0,0,0,0,1,,,,,,,,,,,,,,,,,,,,,,,,,,,,,,,,,,,,,,,,,,,,,,,,,,
,,650222d04fe305c48c9a98ee,29,male,2024-04-24_12h32.29.914,stockport_simplified,2022.2.4,Win32,30.12048193,661e456ee6de07e70aa9ef7b,6628df8d7ffa27dd83fc10c4,,,,,,,,,,,,,,,,,,,,,,,,,,,,,,,,,,,,,,,,,,,,,,,,,,,,,,,,0,12,12,38,1,A,Y,N,o1_image,stimuli/out1.png,stimuli/correct_out1.png,stimuli/out2.png,,,,,,,,,,,,,,,,,,,,,,,,,,,,,,,,,,,,,,
,,650222d04fe305c48c9a98ee,29,male,2024-04-24_12h32.29.914,stockport_simplified,2022.2.4,Win32,30.12048193,661e456ee6de07e70aa9ef7b,6628df8d7ffa27dd83fc10c4,,,,,,,,,,,,,,,,,,,,,,,,,,,,,,,,,,274.556,277.7686,"[1,7,5,8,2,3,6,4]","[[0.3,0.2],[-0.3,0.2]]","[[-0.125,-0.2],[0.125,-0.2]]",0.072222222,-0.221296353,1,0,0,2.699,o2_image,277.7706,0,278.2684,278.2685,280.2684,0,0,0,0,1,,,,,,,,,,,,,,,,,,,,,,,,,,,,,,,,,,,,,,,,,,,,,,,,,,
,,650222d04fe305c48c9a98ee,29,male,2024-04-24_12h32.29.914,stockport_simplified,2022.2.4,Win32,30.12048193,661e456ee6de07e70aa9ef7b,6628df8d7ffa27dd83fc10c4,,,,,,,,,,,,,,,,,,,,,,,,,,,,,,,,,,,,,,,,,,,,,,,,,,,,,,,,0,13,13,20,1,N,M,C,o1_image,stimuli/out1.png,stimuli/correct_out1.png,stimuli/out2.png,,,,,,,,,,,,,,,,,,,,,,,,,,,,,,,,,,,,,,
,,650222d04fe305c48c9a98ee,29,male,2024-04-24_12h32.29.914,stockport_simplified,2022.2.4,Win32,30.12048193,661e456ee6de07e70aa9ef7b,6628df8d7ffa27dd83fc10c4,,,,,,,,,,,,,,,,,,,,,,,,,,,,,,,,,,280.2694,283.4698,"[1,7,5,8,2,3,6,4]","[[-0.3,0.2],[0.3,0.2]]","[[0.125,-0.2],[-0.125,-0.2]]",-0.091666667,-0.217592621,1,0,0,2.6816,o2_image,283.4717,1,283.9856,283.9856,285.968,0,0,0,0,1,,,,,,,,,,,,,,,,,,,,,,,,,,,,,,,,,,,,,,,,,,,,,,,,,,
,,650222d04fe305c48c9a98ee,29,male,2024-04-24_12h32.29.914,stockport_simplified,2022.2.4,Win32,30.12048193,661e456ee6de07e70aa9ef7b,6628df8d7ffa27dd83fc10c4,,,,,,,,,,,,,,,,,,,,,,,,,,,,,,,,,,,,,,,,,,,,,,,,,,,,,,,,0,14,14,13,1,B,X,N,o2_image,stimuli/out2.png,stimuli/out1.png,stimuli/correct_out2.png,,,,,,,,,,,,,,,,,,,,,,,,,,,,,,,,,,,,,,
,,650222d04fe305c48c9a98ee,29,male,2024-04-24_12h32.29.914,stockport_simplified,2022.2.4,Win32,30.12048193,661e456ee6de07e70aa9ef7b,6628df8d7ffa27dd83fc10c4,,,,,,,,,,,,,,,,,,,,,,,,,,,,,,,,,,285.9691,289.3369,"[1,7,5,8,2,3,6,4]","[[0.3,0.2],[-0.3,0.2]]","[[0.125,-0.2],[-0.125,-0.2]]",-0.101851824,-0.223148176,1,0,0,2.8509,o2_image,289.3685,1,289.8683,289.8683,291.8686,0,0,0,0,1,,,,,,,,,,,,,,,,,,,,,,,,,,,,,,,,,,,,,,,,,,,,,,,,,,
,,650222d04fe305c48c9a98ee,29,male,2024-04-24_12h32.29.914,stockport_simplified,2022.2.4,Win32,30.12048193,661e456ee6de07e70aa9ef7b,6628df8d7ffa27dd83fc10c4,,,,,,,,,,,,,,,,,,,,,,,,,,,,,,,,,,,,,,,,,,,,,,,,,,,,,,,,0,15,15,47,1,B,Y,N,o2_image,stimuli/out2.png,stimuli/out1.png,stimuli/correct_out2.png,,,,,,,,,,,,,,,,,,,,,,,,,,,,,,,,,,,,,,
,,650222d04fe305c48c9a98ee,29,male,2024-04-24_12h32.29.914,stockport_simplified,2022.2.4,Win32,30.12048193,661e456ee6de07e70aa9ef7b,6628df8d7ffa27dd83fc10c4,,,,,,,,,,,,,,,,,,,,,,,,,,,,,,,,,,291.8695,294.6021,"[1,7,5,8,2,3,6,4]","[[-0.3,0.2],[0.3,0.2]]","[[-0.125,-0.2],[0.125,-0.2]]",0.115740797,-0.189814843,1,0,0,2.2225,o2_image,294.6343,1,295.1348,295.1349,297.1178,0,0,0,0,1,,,,,,,,,,,,,,,,,,,,,,,,,,,,,,,,,,,,,,,,,,,,,,,,,,
,,650222d04fe305c48c9a98ee,29,male,2024-04-24_12h32.29.914,stockport_simplified,2022.2.4,Win32,30.12048193,661e456ee6de07e70aa9ef7b,6628df8d7ffa27dd83fc10c4,,,,,,,,,,,,,,,,,,,,,,,,,,,,,,,,,,,,,,,,,,,,,,,,,,,,,,,,0,16,16,57,1,N,M,D,o2_image,stimuli/out2.png,stimuli/out1.png,stimuli/correct_out2.png,,,,,,,,,,,,,,,,,,,,,,,,,,,,,,,,,,,,,,
,,650222d04fe305c48c9a98ee,29,male,2024-04-24_12h32.29.914,stockport_simplified,2022.2.4,Win32,30.12048193,661e456ee6de07e70aa9ef7b,6628df8d7ffa27dd83fc10c4,,,,,,,,,,,,,,,,,,,,,,,,,,,,,,,,,,297.1187,299.1696,"[1,7,5,8,2,3,6,4]","[[-0.3,0.2],[0.3,0.2]]","[[0.125,-0.2],[-0.125,-0.2]]",-0.106481425,-0.213888889,1,0,0,1.5176,o2_image,299.1714,0,299.6737,299.6739,301.667,0,0,0,0,1,,,,,,,,,,,,,,,,,,,,,,,,,,,,,,,,,,,,,,,,,,,,,,,,,,
,,650222d04fe305c48c9a98ee,29,male,2024-04-24_12h32.29.914,stockport_simplified,2022.2.4,Win32,30.12048193,661e456ee6de07e70aa9ef7b,6628df8d7ffa27dd83fc10c4,,,,,,,,,,,,,,,,,,,,,,,,,,,,,,,,,,,,,,,,,,,,,,,,,,,,,,,,0,17,17,37,1,A,Y,N,o1_image,stimuli/out1.png,stimuli/correct_out1.png,stimuli/out2.png,,,,,,,,,,,,,,,,,,,,,,,,,,,,,,,,,,,,,,
,,650222d04fe305c48c9a98ee,29,male,2024-04-24_12h32.29.914,stockport_simplified,2022.2.4,Win32,30.12048193,661e456ee6de07e70aa9ef7b,6628df8d7ffa27dd83fc10c4,,,,,,,,,,,,,,,,,,,,,,,,,,,,,,,,,,301.6679,303.5857,"[1,7,5,8,2,3,6,4]","[[-0.3,0.2],[0.3,0.2]]","[[-0.125,-0.2],[0.125,-0.2]]",0.093518575,-0.202777778,1,0,0,1.4154,o2_image,303.5876,0,304.1018,304.1019,306.0842,0,0,0,0,1,,,,,,,,,,,,,,,,,,,,,,,,,,,,,,,,,,,,,,,,,,,,,,,,,,
,,650222d04fe305c48c9a98ee,29,male,2024-04-24_12h32.29.914,stockport_simplified,2022.2.4,Win32,30.12048193,661e456ee6de07e70aa9ef7b,6628df8d7ffa27dd83fc10c4,,,,,,,,,,,,,,,,,,,,,,,,,,,,,,,,,,,,,,,,,,,,,,,,,,,,,,,,0,18,18,53,1,N,M,C,o1_image,stimuli/out1.png,stimuli/correct_out1.png,stimuli/out2.png,,,,,,,,,,,,,,,,,,,,,,,,,,,,,,,,,,,,,,
,,650222d04fe305c48c9a98ee,29,male,2024-04-24_12h32.29.914,stockport_simplified,2022.2.4,Win32,30.12048193,661e456ee6de07e70aa9ef7b,6628df8d7ffa27dd83fc10c4,,,,,,,,,,,,,,,,,,,,,,,,,,,,,,,,,,306.0853,308.4231,"[1,7,5,8,2,3,6,4]","[[0.3,0.2],[-0.3,0.2]]","[[0.125,-0.2],[-0.125,-0.2]]",0.113888889,-0.217592621,1,0,0,1.8219,o1_image,308.4248,1,308.9058,308.9059,310.8844,0,0,0,0,1,,,,,,,,,,,,,,,,,,,,,,,,,,,,,,,,,,,,,,,,,,,,,,,,,,
,,650222d04fe305c48c9a98ee,29,male,2024-04-24_12h32.29.914,stockport_simplified,2022.2.4,Win32,30.12048193,661e456ee6de07e70aa9ef7b,6628df8d7ffa27dd83fc10c4,,,,,,,,,,,,,,,,,,,,,,,,,,,,,,,,,,,,,,,,,,,,,,,,,,,,,,,,0,19,19,21,1,N,M,C,o1_image,stimuli/out1.png,stimuli/correct_out1.png,stimuli/out2.png,,,,,,,,,,,,,,,,,,,,,,,,,,,,,,,,,,,,,,
,,650222d04fe305c48c9a98ee,29,male,2024-04-24_12h32.29.914,stockport_simplified,2022.2.4,Win32,30.12048193,661e456ee6de07e70aa9ef7b,6628df8d7ffa27dd83fc10c4,,,,,,,,,,,,,,,,,,,,,,,,,,,,,,,,,,310.8854,312.8701,"[1,7,5,8,2,3,6,4]","[[0.3,0.2],[-0.3,0.2]]","[[-0.125,-0.2],[0.125,-0.2]]",-0.077777778,-0.232407464,1,0,0,1.476,o1_image,312.8718,1,313.3677,313.3677,315.3843,0,0,0,0,1,,,,,,,,,,,,,,,,,,,,,,,,,,,,,,,,,,,,,,,,,,,,,,,,,,
,,650222d04fe305c48c9a98ee,29,male,2024-04-24_12h32.29.914,stockport_simplified,2022.2.4,Win32,30.12048193,661e456ee6de07e70aa9ef7b,6628df8d7ffa27dd83fc10c4,,,,,,,,,,,,,,,,,,,,,,,,,,,,,,,,,,,,,,,,,,,,,,,,,,,,,,,,0,20,20,54,1,N,M,C,o1_image,stimuli/out1.png,stimuli/correct_out1.png,stimuli/out2.png,,,,,,,,,,,,,,,,,,,,,,,,,,,,,,,,,,,,,,
,,650222d04fe305c48c9a98ee,29,male,2024-04-24_12h32.29.914,stockport_simplified,2022.2.4,Win32,30.12048193,661e456ee6de07e70aa9ef7b,6628df8d7ffa27dd83fc10c4,,,,,,,,,,,,,,,,,,,,,,,,,,,,,,,,,,315.3853,319.1372,"[1,7,5,8,2,3,6,4]","[[0.3,0.2],[-0.3,0.2]]","[[-0.125,-0.2],[0.125,-0.2]]",0.092592621,-0.203703732,1,0,0,3.2188,o2_image,319.1685,0,319.6683,319.6684,321.6505,0,0,0,0,1,,,,,,,,,,,,,,,,,,,,,,,,,,,,,,,,,,,,,,,,,,,,,,,,,,
,,650222d04fe305c48c9a98ee,29,male,2024-04-24_12h32.29.914,stockport_simplified,2022.2.4,Win32,30.12048193,661e456ee6de07e70aa9ef7b,6628df8d7ffa27dd83fc10c4,,,,,,,,,,,,,,,,,,,,,,,,,,,,,,,,,,,,,,,,,,,,,,,,,,,,,,,,0,21,21,2,1,A,X,N,o1_image,stimuli/out1.png,stimuli/correct_out1.png,stimuli/out2.png,,,,,,,,,,,,,,,,,,,,,,,,,,,,,,,,,,,,,,
,,650222d04fe305c48c9a98ee,29,male,2024-04-24_12h32.29.914,stockport_simplified,2022.2.4,Win32,30.12048193,661e456ee6de07e70aa9ef7b,6628df8d7ffa27dd83fc10c4,,,,,,,,,,,,,,,,,,,,,,,,,,,,,,,,,,321.6514,324.0856,"[1,7,5,8,2,3,6,4]","[[-0.3,0.2],[0.3,0.2]]","[[0.125,-0.2],[-0.125,-0.2]]",0.098148176,-0.204629644,1,0,0,1.9168,o1_image,324.0875,1,324.6007,324.6008,326.6013,0,0,0,0,1,,,,,,,,,,,,,,,,,,,,,,,,,,,,,,,,,,,,,,,,,,,,,,,,,,
,,650222d04fe305c48c9a98ee,29,male,2024-04-24_12h32.29.914,stockport_simplified,2022.2.4,Win32,30.12048193,661e456ee6de07e70aa9ef7b,6628df8d7ffa27dd83fc10c4,,,,,,,,,,,,,,,,,,,,,,,,,,,,,,,,,,,,,,,,,,,,,,,,,,,,,,,,0,22,22,7,1,A,Y,N,o1_image,stimuli/out1.png,stimuli/correct_out1.png,stimuli/out2.png,,,,,,,,,,,,,,,,,,,,,,,,,,,,,,,,,,,,,,
,,650222d04fe305c48c9a98ee,29,male,2024-04-24_12h32.29.914,stockport_simplified,2022.2.4,Win32,30.12048193,661e456ee6de07e70aa9ef7b,6628df8d7ffa27dd83fc10c4,,,,,,,,,,,,,,,,,,,,,,,,,,,,,,,,,,326.6024,330.2851,"[1,7,5,8,2,3,6,4]","[[-0.3,0.2],[0.3,0.2]]","[[0.125,-0.2],[-0.125,-0.2]]",0.152777778,-0.207407422,1,0,0,3.1741,o1_image,330.3164,1,330.8212,330.8214,332.8187,0,0,0,0,1,,,,,,,,,,,,,,,,,,,,,,,,,,,,,,,,,,,,,,,,,,,,,,,,,,
,,650222d04fe305c48c9a98ee,29,male,2024-04-24_12h32.29.914,stockport_simplified,2022.2.4,Win32,30.12048193,661e456ee6de07e70aa9ef7b,6628df8d7ffa27dd83fc10c4,,,,,,,,,,,,,,,,,,,,,,,,,,,,,,,,,,,,,,,,,,,,,,,,,,,,,,,,0,23,23,23,1,N,M,C,o1_image,stimuli/out1.png,stimuli/correct_out1.png,stimuli/out2.png,,,,,,,,,,,,,,,,,,,,,,,,,,,,,,,,,,,,,,
,,650222d04fe305c48c9a98ee,29,male,2024-04-24_12h32.29.914,stockport_simplified,2022.2.4,Win32,30.12048193,661e456ee6de07e70aa9ef7b,6628df8d7ffa27dd83fc10c4,,,,,,,,,,,,,,,,,,,,,,,,,,,,,,,,,,332.8197,334.6516,"[1,7,5,8,2,3,6,4]","[[0.3,0.2],[-0.3,0.2]]","[[0.125,-0.2],[-0.125,-0.2]]",-0.091666667,-0.215740797,1,0,0,1.3062,o2_image,334.6535,1,335.1509,335.1509,337.1673,0,0,0,0,1,,,,,,,,,,,,,,,,,,,,,,,,,,,,,,,,,,,,,,,,,,,,,,,,,,
,,650222d04fe305c48c9a98ee,29,male,2024-04-24_12h32.29.914,stockport_simplified,2022.2.4,Win32,30.12048193,661e456ee6de07e70aa9ef7b,6628df8d7ffa27dd83fc10c4,,,,,,,,,,,,,,,,,,,,,,,,,,,,,,,,,,,,,,,,,,,,,,,,,,,,,,,,0,24,24,56,1,N,M,D,o2_image,stimuli/out2.png,stimuli/out1.png,stimuli/correct_out2.png,,,,,,,,,,,,,,,,,,,,,,,,,,,,,,,,,,,,,,
,,650222d04fe305c48c9a98ee,29,male,2024-04-24_12h32.29.914,stockport_simplified,2022.2.4,Win32,30.12048193,661e456ee6de07e70aa9ef7b,6628df8d7ffa27dd83fc10c4,,,,,,,,,,,,,,,,,,,,,,,,,,,,,,,,,,337.1682,340.3686,"[1,7,5,8,2,3,6,4]","[[0.3,0.2],[-0.3,0.2]]","[[-0.125,-0.2],[0.125,-0.2]]",0.066666667,-0.200925954,1,0,0,2.6832,o2_image,340.3703,1,340.8844,340.8846,342.8879,0,0,0,0,1,,,,,,,,,,,,,,,,,,,,,,,,,,,,,,,,,,,,,,,,,,,,,,,,,,
,,650222d04fe305c48c9a98ee,29,male,2024-04-24_12h32.29.914,stockport_simplified,2022.2.4,Win32,30.12048193,661e456ee6de07e70aa9ef7b,6628df8d7ffa27dd83fc10c4,,,,,,,,,,,,,,,,,,,,,,,,,,,,,,,,,,,,,,,,,,,,,,,,,,,,,,,,0,25,25,40,1,B,X,N,o2_image,stimuli/out2.png,stimuli/out1.png,stimuli/correct_out2.png,,,,,,,,,,,,,,,,,,,,,,,,,,,,,,,,,,,,,,
,,650222d04fe305c48c9a98ee,29,male,2024-04-24_12h32.29.914,stockport_simplified,2022.2.4,Win32,30.12048193,661e456ee6de07e70aa9ef7b,6628df8d7ffa27dd83fc10c4,,,,,,,,,,,,,,,,,,,,,,,,,,,,,,,,,,342.8889,345.4681,"[1,7,5,8,2,3,6,4]","[[0.3,0.2],[-0.3,0.2]]","[[-0.125,-0.2],[0.125,-0.2]]",-0.137036981,-0.228703732,1,0,0,2.068,o1_image,345.5003,0,346,346.0001,348,0,0,0,0,1,,,,,,,,,,,,,,,,,,,,,,,,,,,,,,,,,,,,,,,,,,,,,,,,,,
,,650222d04fe305c48c9a98ee,29,male,2024-04-24_12h32.29.914,stockport_simplified,2022.2.4,Win32,30.12048193,661e456ee6de07e70aa9ef7b,6628df8d7ffa27dd83fc10c4,,,,,,,,,,,,,,,,,,,,,,,,,,,,,,,,,,,,,,,,,,,,,,,,,,,,,,,,0,26,26,49,1,B,Y,N,o2_image,stimuli/out2.png,stimuli/out1.png,stimuli/correct_out2.png,,,,,,,,,,,,,,,,,,,,,,,,,,,,,,,,,,,,,,
,,650222d04fe305c48c9a98ee,29,male,2024-04-24_12h32.29.914,stockport_simplified,2022.2.4,Win32,30.12048193,661e456ee6de07e70aa9ef7b,6628df8d7ffa27dd83fc10c4,,,,,,,,,,,,,,,,,,,,,,,,,,,,,,,,,,348.0012,350.7348,"[1,7,5,8,2,3,6,4]","[[0.3,0.2],[-0.3,0.2]]","[[0.125,-0.2],[-0.125,-0.2]]",0.044444444,-0.202777778,1,0,0,1.6994,o1_image,350.7365,0,351.2198,351.2198,353.1999,0,0,0,0,1,,,,,,,,,,,,,,,,,,,,,,,,,,,,,,,,,,,,,,,,,,,,,,,,,,
,,650222d04fe305c48c9a98ee,29,male,2024-04-24_12h32.29.914,stockport_simplified,2022.2.4,Win32,30.12048193,661e456ee6de07e70aa9ef7b,6628df8d7ffa27dd83fc10c4,,,,,,,,,,,,,,,,,,,,,,,,,,,,,,,,,,,,,,,,,,,,,,,,,,,,,,,,0,27,27,17,1,B,Y,N,o2_image,stimuli/out2.png,stimuli/out1.png,stimuli/correct_out2.png,,,,,,,,,,,,,,,,,,,,,,,,,,,,,,,,,,,,,,
,,650222d04fe305c48c9a98ee,29,male,2024-04-24_12h32.29.914,stockport_simplified,2022.2.4,Win32,30.12048193,661e456ee6de07e70aa9ef7b,6628df8d7ffa27dd83fc10c4,,,,,,,,,,,,,,,,,,,,,,,,,,,,,,,,,,353.2011,356.5353,"[1,7,5,8,2,3,6,4]","[[-0.3,0.2],[0.3,0.2]]","[[-0.125,-0.2],[0.125,-0.2]]",-0.108333333,-0.229629686,1,0,0,2.8141,o1_image,356.537,1,357.05,357.05,359.048,0,0,0,0,1,,,,,,,,,,,,,,,,,,,,,,,,,,,,,,,,,,,,,,,,,,,,,,,,,,
,,650222d04fe305c48c9a98ee,29,male,2024-04-24_12h32.29.914,stockport_simplified,2022.2.4,Win32,30.12048193,661e456ee6de07e70aa9ef7b,6628df8d7ffa27dd83fc10c4,,,,,,,,,,,,,,,,,,,,,,,,,,,,,,,,,,,,,,,,,,,,,,,,,,,,,,,,0,28,28,3,1,A,X,N,o1_image,stimuli/out1.png,stimuli/correct_out1.png,stimuli/out2.png,,,,,,,,,,,,,,,,,,,,,,,,,,,,,,,,,,,,,,
,,650222d04fe305c48c9a98ee,29,male,2024-04-24_12h32.29.914,stockport_simplified,2022.2.4,Win32,30.12048193,661e456ee6de07e70aa9ef7b,6628df8d7ffa27dd83fc10c4,,,,,,,,,,,,,,,,,,,,,,,,,,,,,,,,,,359.0493,362.9878,"[1,7,5,8,2,3,6,4]","[[0.3,0.2],[-0.3,0.2]]","[[0.125,-0.2],[-0.125,-0.2]]",0.116666667,-0.191666667,1,0,0,3.437,o1_image,363.0191,0,363.5171,363.5172,365.5166,0,0,0,0,1,,,,,,,,,,,,,,,,,,,,,,,,,,,,,,,,,,,,,,,,,,,,,,,,,,
,,650222d04fe305c48c9a98ee,29,male,2024-04-24_12h32.29.914,stockport_simplified,2022.2.4,Win32,30.12048193,661e456ee6de07e70aa9ef7b,6628df8d7ffa27dd83fc10c4,,,,,,,,,,,,,,,,,,,,,,,,,,,,,,,,,,,,,,,,,,,,,,,,,,,,,,,,0,29,29,46,1,B,Y,N,o2_image,stimuli/out2.png,stimuli/out1.png,stimuli/correct_out2.png,,,,,,,,,,,,,,,,,,,,,,,,,,,,,,,,,,,,,,
,,650222d04fe305c48c9a98ee,29,male,2024-04-24_12h32.29.914,stockport_simplified,2022.2.4,Win32,30.12048193,661e456ee6de07e70aa9ef7b,6628df8d7ffa27dd83fc10c4,,,,,,,,,,,,,,,,,,,,,,,,,,,,,,,,,,365.5171,367.6663,"[1,7,5,8,2,3,6,4]","[[-0.3,0.2],[0.3,0.2]]","[[-0.125,-0.2],[0.125,-0.2]]",0.113888889,-0.193518533,1,0,0,1.6334,o2_image,367.6673,1,368.1661,368.1661,370.158,0,0,0,0,1,,,,,,,,,,,,,,,,,,,,,,,,,,,,,,,,,,,,,,,,,,,,,,,,,,
,,650222d04fe305c48c9a98ee,29,male,2024-04-24_12h32.29.914,stockport_simplified,2022.2.4,Win32,30.12048193,661e456ee6de07e70aa9ef7b,6628df8d7ffa27dd83fc10c4,,,,,,,,,,,,,,,,,,,,,,,,,,,,,,,,,,,,,,,,,,,,,,,,,,,,,,,,0,30,30,45,1,B,Y,N,o2_image,stimuli/out2.png,stimuli/out1.png,stimuli/correct_out2.png,,,,,,,,,,,,,,,,,,,,,,,,,,,,,,,,,,,,,,
,,650222d04fe305c48c9a98ee,29,male,2024-04-24_12h32.29.914,stockport_simplified,2022.2.4,Win32,30.12048193,661e456ee6de07e70aa9ef7b,6628df8d7ffa27dd83fc10c4,,,,,,,,,,,,,,,,,,,,,,,,,,,,,,,,,,370.1584,372.1839,"[1,7,5,8,2,3,6,4]","[[0.3,0.2],[-0.3,0.2]]","[[-0.125,-0.2],[0.125,-0.2]]",0.101851908,-0.199074088,1,0,0,1.522,o2_image,372.186,0,372.687,372.6871,374.6998,0,0,0,0,1,,,,,,,,,,,,,,,,,,,,,,,,,,,,,,,,,,,,,,,,,,,,,,,,,,
,,650222d04fe305c48c9a98ee,29,male,2024-04-24_12h32.29.914,stockport_simplified,2022.2.4,Win32,30.12048193,661e456ee6de07e70aa9ef7b,6628df8d7ffa27dd83fc10c4,,,,,,,,,,,,,,,,,,,,,,,,,,,,,,,,,,,,,,,,,,,,,,,,,,,,,,,,0,31,31,24,1,N,M,C,o1_image,stimuli/out1.png,stimuli/correct_out1.png,stimuli/out2.png,,,,,,,,,,,,,,,,,,,,,,,,,,,,,,,,,,,,,,
,,650222d04fe305c48c9a98ee,29,male,2024-04-24_12h32.29.914,stockport_simplified,2022.2.4,Win32,30.12048193,661e456ee6de07e70aa9ef7b,6628df8d7ffa27dd83fc10c4,,,,,,,,,,,,,,,,,,,,,,,,,,,,,,,,,,374.7008,376.4992,"[1,7,5,8,2,3,6,4]","[[0.3,0.2],[-0.3,0.2]]","[[-0.125,-0.2],[0.125,-0.2]]",0.117592621,-0.191666667,1,0,0,1.2826,o2_image,376.5009,1,376.9897,376.9897,378.9856,0,0,0,0,1,,,,,,,,,,,,,,,,,,,,,,,,,,,,,,,,,,,,,,,,,,,,,,,,,,
,,650222d04fe305c48c9a98ee,29,male,2024-04-24_12h32.29.914,stockport_simplified,2022.2.4,Win32,30.12048193,661e456ee6de07e70aa9ef7b,6628df8d7ffa27dd83fc10c4,,,,,,,,,,,,,,,,,,,,,,,,,,,,,,,,,,,,,,,,,,,,,,,,,,,,,,,,0,32,32,27,1,N,M,D,o2_image,stimuli/out2.png,stimuli/out1.png,stimuli/correct_out2.png,,,,,,,,,,,,,,,,,,,,,,,,,,,,,,,,,,,,,,
,,650222d04fe305c48c9a98ee,29,male,2024-04-24_12h32.29.914,stockport_simplified,2022.2.4,Win32,30.12048193,661e456ee6de07e70aa9ef7b,6628df8d7ffa27dd83fc10c4,,,,,,,,,,,,,,,,,,,,,,,,,,,,,,,,,,378.9866,381.4672,"[1,7,5,8,2,3,6,4]","[[0.3,0.2],[-0.3,0.2]]","[[-0.125,-0.2],[0.125,-0.2]]",0.1,-0.225,1,0,0,1.9741,o2_image,381.4689,0,381.9836,381.9837,383.9935,0,0,0,0,1,,,,,,,,,,,,,,,,,,,,,,,,,,,,,,,,,,,,,,,,,,,,,,,,,,
,,650222d04fe305c48c9a98ee,29,male,2024-04-24_12h32.29.914,stockport_simplified,2022.2.4,Win32,30.12048193,661e456ee6de07e70aa9ef7b,6628df8d7ffa27dd83fc10c4,,,,,,,,,,,,,,,,,,,,,,,,,,,,,,,,,,,,,,,,,,,,,,,,,,,,,,,,0,33,33,0,1,A,X,N,o1_image,stimuli/out1.png,stimuli/correct_out1.png,stimuli/out2.png,,,,,,,,,,,,,,,,,,,,,,,,,,,,,,,,,,,,,,
,,650222d04fe305c48c9a98ee,29,male,2024-04-24_12h32.29.914,stockport_simplified,2022.2.4,Win32,30.12048193,661e456ee6de07e70aa9ef7b,6628df8d7ffa27dd83fc10c4,,,,,,,,,,,,,,,,,,,,,,,,,,,,,,,,,,383.9945,389.1335,"[1,7,5,8,2,3,6,4]","[[0.3,0.2],[-0.3,0.2]]","[[0.125,-0.2],[-0.125,-0.2]]",-0.058333333,-0.218518575,1,0,0,4.6166,o2_image,389.1642,1,389.6671,389.6672,391.6552,0,0,0,0,1,,,,,,,,,,,,,,,,,,,,,,,,,,,,,,,,,,,,,,,,,,,,,,,,,,
,,650222d04fe305c48c9a98ee,29,male,2024-04-24_12h32.29.914,stockport_simplified,2022.2.4,Win32,30.12048193,661e456ee6de07e70aa9ef7b,6628df8d7ffa27dd83fc10c4,,,,,,,,,,,,,,,,,,,,,,,,,,,,,,,,,,,,,,,,,,,,,,,,,,,,,,,,0,34,34,15,1,B,Y,N,o2_image,stimuli/out2.png,stimuli/out1.png,stimuli/correct_out2.png,,,,,,,,,,,,,,,,,,,,,,,,,,,,,,,,,,,,,,
,,650222d04fe305c48c9a98ee,29,male,2024-04-24_12h32.29.914,stockport_simplified,2022.2.4,Win32,30.12048193,661e456ee6de07e70aa9ef7b,6628df8d7ffa27dd83fc10c4,,,,,,,,,,,,,,,,,,,,,,,,,,,,,,,,,,391.6562,395.0002,"[1,7,5,8,2,3,6,4]","[[-0.3,0.2],[0.3,0.2]]","[[0.125,-0.2],[-0.125,-0.2]]",-0.127777778,-0.211111111,1,0,0,2.8172,o2_image,395.0316,1,395.5214,395.5215,397.4986,0,0,0,0,1,,,,,,,,,,,,,,,,,,,,,,,,,,,,,,,,,,,,,,,,,,,,,,,,,,
,,650222d04fe305c48c9a98ee,29,male,2024-04-24_12h32.29.914,stockport_simplified,2022.2.4,Win32,30.12048193,661e456ee6de07e70aa9ef7b,6628df8d7ffa27dd83fc10c4,,,,,,,,,,,,,,,,,,,,,,,,,,,,,,,,,,,,,,,,,,,,,,,,,,,,,,,,0,35,35,58,1,N,M,D,o2_image,stimuli/out2.png,stimuli/out1.png,stimuli/correct_out2.png,,,,,,,,,,,,,,,,,,,,,,,,,,,,,,,,,,,,,,
,,650222d04fe305c48c9a98ee,29,male,2024-04-24_12h32.29.914,stockport_simplified,2022.2.4,Win32,30.12048193,661e456ee6de07e70aa9ef7b,6628df8d7ffa27dd83fc10c4,,,,,,,,,,,,,,,,,,,,,,,,,,,,,,,,,,397.4996,399.632,"[1,7,5,8,2,3,6,4]","[[-0.3,0.2],[0.3,0.2]]","[[-0.125,-0.2],[0.125,-0.2]]",0.101851908,-0.18148151,1,0,0,1.6228,o2_image,399.6338,1,400.124,400.1241,402.1157,0,0,0,0,1,,,,,,,,,,,,,,,,,,,,,,,,,,,,,,,,,,,,,,,,,,,,,,,,,,
,,650222d04fe305c48c9a98ee,29,male,2024-04-24_12h32.29.914,stockport_simplified,2022.2.4,Win32,30.12048193,661e456ee6de07e70aa9ef7b,6628df8d7ffa27dd83fc10c4,,,,,,,,,,,,,,,,,,,,,,,,,,,,,,,,,,,,,,,,,,,,,,,,,,,,,,,,0,36,36,19,1,B,Y,N,o2_image,stimuli/out2.png,stimuli/out1.png,stimuli/correct_out2.png,,,,,,,,,,,,,,,,,,,,,,,,,,,,,,,,,,,,,,
,,650222d04fe305c48c9a98ee,29,male,2024-04-24_12h32.29.914,stockport_simplified,2022.2.4,Win32,30.12048193,661e456ee6de07e70aa9ef7b,6628df8d7ffa27dd83fc10c4,,,,,,,,,,,,,,,,,,,,,,,,,,,,,,,,,,402.1167,404.0321,"[1,7,5,8,2,3,6,4]","[[-0.3,0.2],[0.3,0.2]]","[[-0.125,-0.2],[0.125,-0.2]]",0.090740797,-0.200925954,1,0,0,1.398,o2_image,404.0338,0,404.5354,404.5354,406.5333,0,0,0,0,1,,,,,,,,,,,,,,,,,,,,,,,,,,,,,,,,,,,,,,,,,,,,,,,,,,
,,650222d04fe305c48c9a98ee,29,male,2024-04-24_12h32.29.914,stockport_simplified,2022.2.4,Win32,30.12048193,661e456ee6de07e70aa9ef7b,6628df8d7ffa27dd83fc10c4,,,,,,,,,,,,,,,,,,,,,,,,,,,,,,,,,,,,,,,,,,,,,,,,,,,,,,,,0,37,37,50,1,N,M,C,o1_image,stimuli/out1.png,stimuli/correct_out1.png,stimuli/out2.png,,,,,,,,,,,,,,,,,,,,,,,,,,,,,,,,,,,,,,
,,650222d04fe305c48c9a98ee,29,male,2024-04-24_12h32.29.914,stockport_simplified,2022.2.4,Win32,30.12048193,661e456ee6de07e70aa9ef7b,6628df8d7ffa27dd83fc10c4,,,,,,,,,,,,,,,,,,,,,,,,,,,,,,,,,,406.5342,409.4003,"[1,7,5,8,2,3,6,4]","[[-0.3,0.2],[0.3,0.2]]","[[-0.125,-0.2],[0.125,-0.2]]",0.096296353,-0.177777778,1,0,0,2.3508,o2_image,409.4019,0,409.9023,409.9024,411.8982,0,0,0,0,1,,,,,,,,,,,,,,,,,,,,,,,,,,,,,,,,,,,,,,,,,,,,,,,,,,
,,650222d04fe305c48c9a98ee,29,male,2024-04-24_12h32.29.914,stockport_simplified,2022.2.4,Win32,30.12048193,661e456ee6de07e70aa9ef7b,6628df8d7ffa27dd83fc10c4,,,,,,,,,,,,,,,,,,,,,,,,,,,,,,,,,,,,,,,,,,,,,,,,,,,,,,,,0,38,38,1,1,A,X,N,o1_image,stimuli/out1.png,stimuli/correct_out1.png,stimuli/out2.png,,,,,,,,,,,,,,,,,,,,,,,,,,,,,,,,,,,,,,
,,650222d04fe305c48c9a98ee,29,male,2024-04-24_12h32.29.914,stockport_simplified,2022.2.4,Win32,30.12048193,661e456ee6de07e70aa9ef7b,6628df8d7ffa27dd83fc10c4,,,,,,,,,,,,,,,,,,,,,,,,,,,,,,,,,,411.8992,414.8496,"[1,7,5,8,2,3,6,4]","[[-0.3,0.2],[0.3,0.2]]","[[0.125,-0.2],[-0.125,-0.2]]",0.076851908,-0.187962977,1,0,0,2.4329,o1_image,414.8809,1,415.3827,415.3828,417.3832,0,0,0,0,1,,,,,,,,,,,,,,,,,,,,,,,,,,,,,,,,,,,,,,,,,,,,,,,,,,
,,650222d04fe305c48c9a98ee,29,male,2024-04-24_12h32.29.914,stockport_simplified,2022.2.4,Win32,30.12048193,661e456ee6de07e70aa9ef7b,6628df8d7ffa27dd83fc10c4,,,,,,,,,,,,,,,,,,,,,,,,,,,,,,,,,,,,,,,,,,,,,,,,,,,,,,,,0,39,39,39,1,A,Y,N,o1_image,stimuli/out1.png,stimuli/correct_out1.png,stimuli/out2.png,,,,,,,,,,,,,,,,,,,,,,,,,,,,,,,,,,,,,,
,,650222d04fe305c48c9a98ee,29,male,2024-04-24_12h32.29.914,stockport_simplified,2022.2.4,Win32,30.12048193,661e456ee6de07e70aa9ef7b,6628df8d7ffa27dd83fc10c4,,,,,,,,,,,,,,,,,,,,,,,,,,,,,,,,,,417.3841,420.1816,"[1,7,5,8,2,3,6,4]","[[0.3,0.2],[-0.3,0.2]]","[[-0.125,-0.2],[0.125,-0.2]]",-0.088888889,-0.184259288,1,0,0,2.2812,o1_image,420.2128,1,420.7317,420.7317,422.7322,0,0,0,0,1,,,,,,,,,,,,,,,,,,,,,,,,,,,,,,,,,,,,,,,,,,,,,,,,,,
,,650222d04fe305c48c9a98ee,29,male,2024-04-24_12h32.29.914,stockport_simplified,2022.2.4,Win32,30.12048193,661e456ee6de07e70aa9ef7b,6628df8d7ffa27dd83fc10c4,,,,,,,,,,,,,,,,,,,,,,,,,,,,,,,,,,,,,,,,,,,,,,,,,,,,,,,,0,40,40,51,1,N,M,C,o1_image,stimuli/out1.png,stimuli/correct_out1.png,stimuli/out2.png,,,,,,,,,,,,,,,,,,,,,,,,,,,,,,,,,,,,,,
,,650222d04fe305c48c9a98ee,29,male,2024-04-24_12h32.29.914,stockport_simplified,2022.2.4,Win32,30.12048193,661e456ee6de07e70aa9ef7b,6628df8d7ffa27dd83fc10c4,,,,,,,,,,,,,,,,,,,,,,,,,,,,,,,,,,422.7333,424.9531,"[1,7,5,8,2,3,6,4]","[[0.3,0.2],[-0.3,0.2]]","[[0.125,-0.2],[-0.125,-0.2]]",0.062963019,-0.162962977,1,0,0,1.7036,o1_image,424.9548,0,425.4499,425.45,427.4484,0,0,0,0,1,,,,,,,,,,,,,,,,,,,,,,,,,,,,,,,,,,,,,,,,,,,,,,,,,,
,,650222d04fe305c48c9a98ee,29,male,2024-04-24_12h32.29.914,stockport_simplified,2022.2.4,Win32,30.12048193,661e456ee6de07e70aa9ef7b,6628df8d7ffa27dd83fc10c4,,,,,,,,,,,,,,,,,,,,,,,,,,,,,,,,,,,,,,,,,,,,,,,,,,,,,,,,0,41,41,29,1,N,M,D,o2_image,stimuli/out2.png,stimuli/out1.png,stimuli/correct_out2.png,,,,,,,,,,,,,,,,,,,,,,,,,,,,,,,,,,,,,,
,,650222d04fe305c48c9a98ee,29,male,2024-04-24_12h32.29.914,stockport_simplified,2022.2.4,Win32,30.12048193,661e456ee6de07e70aa9ef7b,6628df8d7ffa27dd83fc10c4,,,,,,,,,,,,,,,,,,,,,,,,,,,,,,,,,,427.4494,430.1483,"[1,7,5,8,2,3,6,4]","[[-0.3,0.2],[0.3,0.2]]","[[-0.125,-0.2],[0.125,-0.2]]",0.074074131,-0.180555556,1,0,0,2.166,o2_image,430.1797,1,430.6829,430.683,432.6644,0,0,0,0,1,,,,,,,,,,,,,,,,,,,,,,,,,,,,,,,,,,,,,,,,,,,,,,,,,,
,,650222d04fe305c48c9a98ee,29,male,2024-04-24_12h32.29.914,stockport_simplified,2022.2.4,Win32,30.12048193,661e456ee6de07e70aa9ef7b,6628df8d7ffa27dd83fc10c4,,,,,,,,,,,,,,,,,,,,,,,,,,,,,,,,,,,,,,,,,,,,,,,,,,,,,,,,0,42,42,25,1,N,M,D,o2_image,stimuli/out2.png,stimuli/out1.png,stimuli/correct_out2.png,,,,,,,,,,,,,,,,,,,,,,,,,,,,,,,,,,,,,,
,,650222d04fe305c48c9a98ee,29,male,2024-04-24_12h32.29.914,stockport_simplified,2022.2.4,Win32,30.12048193,661e456ee6de07e70aa9ef7b,6628df8d7ffa27dd83fc10c4,,,,,,,,,,,,,,,,,,,,,,,,,,,,,,,,,,432.6655,435.7645,"[1,7,5,8,2,3,6,4]","[[-0.3,0.2],[0.3,0.2]]","[[0.125,-0.2],[-0.125,-0.2]]",-0.107407379,-0.183333333,1,0,0,2.5812,o2_image,435.7663,0,436.2663,436.2665,438.2654,0,0,0,0,1,,,,,,,,,,,,,,,,,,,,,,,,,,,,,,,,,,,,,,,,,,,,,,,,,,
,,650222d04fe305c48c9a98ee,29,male,2024-04-24_12h32.29.914,stockport_simplified,2022.2.4,Win32,30.12048193,661e456ee6de07e70aa9ef7b,6628df8d7ffa27dd83fc10c4,,,,,,,,,,,,,,,,,,,,,,,,,,,,,,,,,,,,,,,,,,,,,,,,,,,,,,,,0,43,43,34,1,A,X,N,o1_image,stimuli/out1.png,stimuli/correct_out1.png,stimuli/out2.png,,,,,,,,,,,,,,,,,,,,,,,,,,,,,,,,,,,,,,
,,650222d04fe305c48c9a98ee,29,male,2024-04-24_12h32.29.914,stockport_simplified,2022.2.4,Win32,30.12048193,661e456ee6de07e70aa9ef7b,6628df8d7ffa27dd83fc10c4,,,,,,,,,,,,,,,,,,,,,,,,,,,,,,,,,,438.2669,441.3184,"[1,7,5,8,2,3,6,4]","[[0.3,0.2],[-0.3,0.2]]","[[0.125,-0.2],[-0.125,-0.2]]",0.086111111,-0.167592621,1,0,0,2.5493,o1_image,441.35,1,441.8309,441.8309,443.8311,0,0,0,0,1,,,,,,,,,,,,,,,,,,,,,,,,,,,,,,,,,,,,,,,,,,,,,,,,,,
,,650222d04fe305c48c9a98ee,29,male,2024-04-24_12h32.29.914,stockport_simplified,2022.2.4,Win32,30.12048193,661e456ee6de07e70aa9ef7b,6628df8d7ffa27dd83fc10c4,,,,,,,,,,,,,,,,,,,,,,,,,,,,,,,,,,,,,,,,,,,,,,,,,,,,,,,,0,44,44,9,1,A,Y,N,o1_image,stimuli/out1.png,stimuli/correct_out1.png,stimuli/out2.png,,,,,,,,,,,,,,,,,,,,,,,,,,,,,,,,,,,,,,
,,650222d04fe305c48c9a98ee,29,male,2024-04-24_12h32.29.914,stockport_simplified,2022.2.4,Win32,30.12048193,661e456ee6de07e70aa9ef7b,6628df8d7ffa27dd83fc10c4,,,,,,,,,,,,,,,,,,,,,,,,,,,,,,,,,,443.8321,446.9321,"[1,7,5,8,2,3,6,4]","[[0.3,0.2],[-0.3,0.2]]","[[0.125,-0.2],[-0.125,-0.2]]",0.112037065,-0.175925954,1,0,0,2.584,o1_image,446.9636,1,447.4647,447.4648,449.464,0,0,0,0,1,,,,,,,,,,,,,,,,,,,,,,,,,,,,,,,,,,,,,,,,,,,,,,,,,,
,,650222d04fe305c48c9a98ee,29,male,2024-04-24_12h32.29.914,stockport_simplified,2022.2.4,Win32,30.12048193,661e456ee6de07e70aa9ef7b,6628df8d7ffa27dd83fc10c4,,,,,,,,,,,,,,,,,,,,,,,,,,,,,,,,,,,,,,,,,,,,,,,,,,,,,,,,0,45,45,5,1,A,Y,N,o1_image,stimuli/out1.png,stimuli/correct_out1.png,stimuli/out2.png,,,,,,,,,,,,,,,,,,,,,,,,,,,,,,,,,,,,,,
,,650222d04fe305c48c9a98ee,29,male,2024-04-24_12h32.29.914,stockport_simplified,2022.2.4,Win32,30.12048193,661e456ee6de07e70aa9ef7b,6628df8d7ffa27dd83fc10c4,,,,,,,,,,,,,,,,,,,,,,,,,,,,,,,,,,449.4649,452.4653,"[1,7,5,8,2,3,6,4]","[[0.3,0.2],[-0.3,0.2]]","[[0.125,-0.2],[-0.125,-0.2]]",-0.077777778,-0.187037065,1,0,0,2.4832,o2_image,452.467,1,452.9516,452.9518,454.9474,0,0,0,0,1,,,,,,,,,,,,,,,,,,,,,,,,,,,,,,,,,,,,,,,,,,,,,,,,,,
,,650222d04fe305c48c9a98ee,29,male,2024-04-24_12h32.29.914,stockport_simplified,2022.2.4,Win32,30.12048193,661e456ee6de07e70aa9ef7b,6628df8d7ffa27dd83fc10c4,,,,,,,,,,,,,,,,,,,,,,,,,,,,,,,,,,,,,,,,,,,,,,,,,,,,,,,,0,46,46,48,1,B,Y,N,o2_image,stimuli/out2.png,stimuli/out1.png,stimuli/correct_out2.png,,,,,,,,,,,,,,,,,,,,,,,,,,,,,,,,,,,,,,
,,650222d04fe305c48c9a98ee,29,male,2024-04-24_12h32.29.914,stockport_simplified,2022.2.4,Win32,30.12048193,661e456ee6de07e70aa9ef7b,6628df8d7ffa27dd83fc10c4,,,,,,,,,,,,,,,,,,,,,,,,,,,,,,,,,,454.9483,458.2639,"[1,7,5,8,2,3,6,4]","[[0.3,0.2],[-0.3,0.2]]","[[-0.125,-0.2],[0.125,-0.2]]",-0.113888889,-0.187037065,1,0,0,2.8066,o1_image,458.2656,0,458.7672,458.7673,460.7979,0,0,0,0,1,,,,,,,,,,,,,,,,,,,,,,,,,,,,,,,,,,,,,,,,,,,,,,,,,,
,,650222d04fe305c48c9a98ee,29,male,2024-04-24_12h32.29.914,stockport_simplified,2022.2.4,Win32,30.12048193,661e456ee6de07e70aa9ef7b,6628df8d7ffa27dd83fc10c4,,,,,,,,,,,,,,,,,,,,,,,,,,,,,,,,,,,,,,,,,,,,,,,,,,,,,,,,0,47,47,12,1,B,X,N,o2_image,stimuli/out2.png,stimuli/out1.png,stimuli/correct_out2.png,,,,,,,,,,,,,,,,,,,,,,,,,,,,,,,,,,,,,,
,,650222d04fe305c48c9a98ee,29,male,2024-04-24_12h32.29.914,stockport_simplified,2022.2.4,Win32,30.12048193,661e456ee6de07e70aa9ef7b,6628df8d7ffa27dd83fc10c4,,,,,,,,,,,,,,,,,,,,,,,,,,,,,,,,,,460.7989,464.082,"[1,7,5,8,2,3,6,4]","[[-0.3,0.2],[0.3,0.2]]","[[-0.125,-0.2],[0.125,-0.2]]",-0.090740712,-0.184259288,1,0,0,2.7515,o1_image,464.0838,0,464.5804,464.5805,466.5973,0,0,0,0,1,,,,,,,,,,,,,,,,,,,,,,,,,,,,,,,,,,,,,,,,,,,,,,,,,,
,,650222d04fe305c48c9a98ee,29,male,2024-04-24_12h32.29.914,stockport_simplified,2022.2.4,Win32,30.12048193,661e456ee6de07e70aa9ef7b,6628df8d7ffa27dd83fc10c4,,,,,,,,,,,,,,,,,,,,,,,,,,,,,,,,,,,,,,,,,,,,,,,,,,,,,,,,0,48,48,11,1,B,X,N,o2_image,stimuli/out2.png,stimuli/out1.png,stimuli/correct_out2.png,,,,,,,,,,,,,,,,,,,,,,,,,,,,,,,,,,,,,,
,,650222d04fe305c48c9a98ee,29,male,2024-04-24_12h32.29.914,stockport_simplified,2022.2.4,Win32,30.12048193,661e456ee6de07e70aa9ef7b,6628df8d7ffa27dd83fc10c4,,,,,,,,,,,,,,,,,,,,,,,,,,,,,,,,,,466.5981,468.6488,"[1,7,5,8,2,3,6,4]","[[-0.3,0.2],[0.3,0.2]]","[[-0.125,-0.2],[0.125,-0.2]]",0.089814843,-0.180555556,1,0,0,1.5347,o2_image,468.6503,1,469.1517,469.1518,471.1301,0,0,0,0,1,,,,,,,,,,,,,,,,,,,,,,,,,,,,,,,,,,,,,,,,,,,,,,,,,,
,,650222d04fe305c48c9a98ee,29,male,2024-04-24_12h32.29.914,stockport_simplified,2022.2.4,Win32,30.12048193,661e456ee6de07e70aa9ef7b,6628df8d7ffa27dd83fc10c4,,,,,,,,,,,,,,,,,,,,,,,,,,,,,,,,,,,,,,,,,,,,,,,,,,,,,,,,0,49,49,44,1,B,X,N,o2_image,stimuli/out2.png,stimuli/out1.png,stimuli/correct_out2.png,,,,,,,,,,,,,,,,,,,,,,,,,,,,,,,,,,,,,,
,,650222d04fe305c48c9a98ee,29,male,2024-04-24_12h32.29.914,stockport_simplified,2022.2.4,Win32,30.12048193,661e456ee6de07e70aa9ef7b,6628df8d7ffa27dd83fc10c4,,,,,,,,,,,,,,,,,,,,,,,,,,,,,,,,,,471.131,474.8324,"[1,7,5,8,2,3,6,4]","[[0.3,0.2],[-0.3,0.2]]","[[-0.125,-0.2],[0.125,-0.2]]",0.136111111,-0.205555556,1,0,0,3.1842,o2_image,474.8638,0,475.3633,475.3634,477.3674,0,0,0,0,1,,,,,,,,,,,,,,,,,,,,,,,,,,,,,,,,,,,,,,,,,,,,,,,,,,
,,650222d04fe305c48c9a98ee,29,male,2024-04-24_12h32.29.914,stockport_simplified,2022.2.4,Win32,30.12048193,661e456ee6de07e70aa9ef7b,6628df8d7ffa27dd83fc10c4,,,,,,,,,,,,,,,,,,,,,,,,,,,,,,,,,,,,,,,,,,,,,,,,,,,,,,,,0,50,50,52,1,N,M,C,o1_image,stimuli/out1.png,stimuli/correct_out1.png,stimuli/out2.png,,,,,,,,,,,,,,,,,,,,,,,,,,,,,,,,,,,,,,
,,650222d04fe305c48c9a98ee,29,male,2024-04-24_12h32.29.914,stockport_simplified,2022.2.4,Win32,30.12048193,661e456ee6de07e70aa9ef7b,6628df8d7ffa27dd83fc10c4,,,,,,,,,,,,,,,,,,,,,,,,,,,,,,,,,,477.3683,479.0254,"[1,7,5,8,2,3,6,4]","[[0.3,0.2],[-0.3,0.2]]","[[-0.125,-0.2],[0.125,-0.2]]",-0.095370314,-0.2,1,0,0,1.1524,o1_image,479.0272,1,479.5313,479.5313,481.531,0,0,0,0,1,,,,,,,,,,,,,,,,,,,,,,,,,,,,,,,,,,,,,,,,,,,,,,,,,,
,,650222d04fe305c48c9a98ee,29,male,2024-04-24_12h32.29.914,stockport_simplified,2022.2.4,Win32,30.12048193,661e456ee6de07e70aa9ef7b,6628df8d7ffa27dd83fc10c4,,,,,,,,,,,,,,,,,,,,,,,,,,,,,,,,,,,,,,,,,,,,,,,,,,,,,,,,0,51,51,22,1,N,M,C,o1_image,stimuli/out1.png,stimuli/correct_out1.png,stimuli/out2.png,,,,,,,,,,,,,,,,,,,,,,,,,,,,,,,,,,,,,,
,,650222d04fe305c48c9a98ee,29,male,2024-04-24_12h32.29.914,stockport_simplified,2022.2.4,Win32,30.12048193,661e456ee6de07e70aa9ef7b,6628df8d7ffa27dd83fc10c4,,,,,,,,,,,,,,,,,,,,,,,,,,,,,,,,,,481.5325,483.3517,"[1,7,5,8,2,3,6,4]","[[-0.3,0.2],[0.3,0.2]]","[[0.125,-0.2],[-0.125,-0.2]]",-0.141666667,-0.200925954,1,0,0,1.2879,o2_image,483.3534,1,483.8635,483.8636,485.8532,0,0,0,0,1,,,,,,,,,,,,,,,,,,,,,,,,,,,,,,,,,,,,,,,,,,,,,,,,,,
,,650222d04fe305c48c9a98ee,29,male,2024-04-24_12h32.29.914,stockport_simplified,2022.2.4,Win32,30.12048193,661e456ee6de07e70aa9ef7b,6628df8d7ffa27dd83fc10c4,,,,,,,,,,,,,,,,,,,,,,,,,,,,,,,,,,,,,,,,,,,,,,,,,,,,,,,,0,52,52,26,1,N,M,D,o2_image,stimuli/out2.png,stimuli/out1.png,stimuli/correct_out2.png,,,,,,,,,,,,,,,,,,,,,,,,,,,,,,,,,,,,,,
,,650222d04fe305c48c9a98ee,29,male,2024-04-24_12h32.29.914,stockport_simplified,2022.2.4,Win32,30.12048193,661e456ee6de07e70aa9ef7b,6628df8d7ffa27dd83fc10c4,,,,,,,,,,,,,,,,,,,,,,,,,,,,,,,,,,485.8541,490.0982,"[1,7,5,8,2,3,6,4]","[[0.3,0.2],[-0.3,0.2]]","[[0.125,-0.2],[-0.125,-0.2]]",-0.076851824,-0.219444444,1,0,0,3.7169,o2_image,490.13,1,490.6302,490.6302,492.6302,0,0,0,0,1,,,,,,,,,,,,,,,,,,,,,,,,,,,,,,,,,,,,,,,,,,,,,,,,,,
,,650222d04fe305c48c9a98ee,29,male,2024-04-24_12h32.29.914,stockport_simplified,2022.2.4,Win32,30.12048193,661e456ee6de07e70aa9ef7b,6628df8d7ffa27dd83fc10c4,,,,,,,,,,,,,,,,,,,,,,,,,,,,,,,,,,,,,,,,,,,,,,,,,,,,,,,,0,53,53,42,1,B,X,N,o2_image,stimuli/out2.png,stimuli/out1.png,stimuli/correct_out2.png,,,,,,,,,,,,,,,,,,,,,,,,,,,,,,,,,,,,,,
,,650222d04fe305c48c9a98ee,29,male,2024-04-24_12h32.29.914,stockport_simplified,2022.2.4,Win32,30.12048193,661e456ee6de07e70aa9ef7b,6628df8d7ffa27dd83fc10c4,,,,,,,,,,,,,,,,,,,,,,,,,,,,,,,,,,492.6311,494.6486,"[1,7,5,8,2,3,6,4]","[[0.3,0.2],[-0.3,0.2]]","[[0.125,-0.2],[-0.125,-0.2]]",-0.110185157,-0.212037065,1,0,0,1.502,o2_image,494.6502,1,495.1333,495.1334,497.1128,0,0,0,0,1,,,,,,,,,,,,,,,,,,,,,,,,,,,,,,,,,,,,,,,,,,,,,,,,,,
,,650222d04fe305c48c9a98ee,29,male,2024-04-24_12h32.29.914,stockport_simplified,2022.2.4,Win32,30.12048193,661e456ee6de07e70aa9ef7b,6628df8d7ffa27dd83fc10c4,,,,,,,,,,,,,,,,,,,,,,,,,,,,,,,,,,,,,,,,,,,,,,,,,,,,,,,,0,54,54,14,1,B,X,N,o2_image,stimuli/out2.png,stimuli/out1.png,stimuli/correct_out2.png,,,,,,,,,,,,,,,,,,,,,,,,,,,,,,,,,,,,,,
,,650222d04fe305c48c9a98ee,29,male,2024-04-24_12h32.29.914,stockport_simplified,2022.2.4,Win32,30.12048193,661e456ee6de07e70aa9ef7b,6628df8d7ffa27dd83fc10c4,,,,,,,,,,,,,,,,,,,,,,,,,,,,,,,,,,497.1137,500.1343,"[1,7,5,8,2,3,6,4]","[[0.3,0.2],[-0.3,0.2]]","[[0.125,-0.2],[-0.125,-0.2]]",-0.097222222,-0.225925954,1,0,0,2.5025,o2_image,500.1363,1,500.631,500.631,502.6304,0,0,0,0,1,,,,,,,,,,,,,,,,,,,,,,,,,,,,,,,,,,,,,,,,,,,,,,,,,,
,,650222d04fe305c48c9a98ee,29,male,2024-04-24_12h32.29.914,stockport_simplified,2022.2.4,Win32,30.12048193,661e456ee6de07e70aa9ef7b,6628df8d7ffa27dd83fc10c4,,,,,,,,,,,,,,,,,,,,,,,,,,,,,,,,,,,,,,,,,,,,,,,,,,,,,,,,0,55,55,28,1,N,M,D,o2_image,stimuli/out2.png,stimuli/out1.png,stimuli/correct_out2.png,,,,,,,,,,,,,,,,,,,,,,,,,,,,,,,,,,,,,,
,,650222d04fe305c48c9a98ee,29,male,2024-04-24_12h32.29.914,stockport_simplified,2022.2.4,Win32,30.12048193,661e456ee6de07e70aa9ef7b,6628df8d7ffa27dd83fc10c4,,,,,,,,,,,,,,,,,,,,,,,,,,,,,,,,,,502.6313,505.531,"[1,7,5,8,2,3,6,4]","[[-0.3,0.2],[0.3,0.2]]","[[-0.125,-0.2],[0.125,-0.2]]",-0.109259203,-0.228703732,1,0,0,2.3825,o1_image,505.5618,0,506.0633,506.0633,508.0772,0,0,0,0,1,,,,,,,,,,,,,,,,,,,,,,,,,,,,,,,,,,,,,,,,,,,,,,,,,,
,,650222d04fe305c48c9a98ee,29,male,2024-04-24_12h32.29.914,stockport_simplified,2022.2.4,Win32,30.12048193,661e456ee6de07e70aa9ef7b,6628df8d7ffa27dd83fc10c4,,,,,,,,,,,,,,,,,,,,,,,,,,,,,,,,,,,,,,,,,,,,,,,,,,,,,,,,0,56,56,10,1,B,X,N,o2_image,stimuli/out2.png,stimuli/out1.png,stimuli/correct_out2.png,,,,,,,,,,,,,,,,,,,,,,,,,,,,,,,,,,,,,,
,,650222d04fe305c48c9a98ee,29,male,2024-04-24_12h32.29.914,stockport_simplified,2022.2.4,Win32,30.12048193,661e456ee6de07e70aa9ef7b,6628df8d7ffa27dd83fc10c4,,,,,,,,,,,,,,,,,,,,,,,,,,,,,,,,,,508.0785,511.8315,"[1,7,5,8,2,3,6,4]","[[-0.3,0.2],[0.3,0.2]]","[[-0.125,-0.2],[0.125,-0.2]]",-0.089814758,-0.232407464,1,0,0,3.2504,o1_image,511.8618,1,512.3798,512.3799,514.3809,0,0,0,0,1,,,,,,,,,,,,,,,,,,,,,,,,,,,,,,,,,,,,,,,,,,,,,,,,,,
,,650222d04fe305c48c9a98ee,29,male,2024-04-24_12h32.29.914,stockport_simplified,2022.2.4,Win32,30.12048193,661e456ee6de07e70aa9ef7b,6628df8d7ffa27dd83fc10c4,,,,,,,,,,,,,,,,,,,,,,,,,,,,,,,,,,,,,,,,,,,,,,,,,,,,,,,,0,57,57,30,1,A,X,N,o1_image,stimuli/out1.png,stimuli/correct_out1.png,stimuli/out2.png,,,,,,,,,,,,,,,,,,,,,,,,,,,,,,,,,,,,,,
,,650222d04fe305c48c9a98ee,29,male,2024-04-24_12h32.29.914,stockport_simplified,2022.2.4,Win32,30.12048193,661e456ee6de07e70aa9ef7b,6628df8d7ffa27dd83fc10c4,,,,,,,,,,,,,,,,,,,,,,,,,,,,,,,,,,514.3817,518.0137,"[1,7,5,8,2,3,6,4]","[[-0.3,0.2],[0.3,0.2]]","[[-0.125,-0.2],[0.125,-0.2]]",0.068518575,-0.203703732,1,0,0,3.1161,o2_image,518.0447,0,518.5506,518.5506,520.5625,0,0,0,0,1,,,,,,,,,,,,,,,,,,,,,,,,,,,,,,,,,,,,,,,,,,,,,,,,,,
,,650222d04fe305c48c9a98ee,29,male,2024-04-24_12h32.29.914,stockport_simplified,2022.2.4,Win32,30.12048193,661e456ee6de07e70aa9ef7b,6628df8d7ffa27dd83fc10c4,,,,,,,,,,,,,,,,,,,,,,,,,,,,,,,,,,,,,,,,,,,,,,,,,,,,,,,,0,58,58,8,1,A,Y,N,o1_image,stimuli/out1.png,stimuli/correct_out1.png,stimuli/out2.png,,,,,,,,,,,,,,,,,,,,,,,,,,,,,,,,,,,,,,
,,650222d04fe305c48c9a98ee,29,male,2024-04-24_12h32.29.914,stockport_simplified,2022.2.4,Win32,30.12048193,661e456ee6de07e70aa9ef7b,6628df8d7ffa27dd83fc10c4,,,,,,,,,,,,,,,,,,,,,,,,,,,,,,,,,,520.5634,524.2472,"[1,7,5,8,2,3,6,4]","[[0.3,0.2],[-0.3,0.2]]","[[0.125,-0.2],[-0.125,-0.2]]",-0.079629601,-0.218518575,1,0,0,3.1673,o2_image,524.2786,0,524.779,524.7791,526.7957,0,0,0,0,1,,,,,,,,,,,,,,,,,,,,,,,,,,,,,,,,,,,,,,,,,,,,,,,,,,
,,650222d04fe305c48c9a98ee,29,male,2024-04-24_12h32.29.914,stockport_simplified,2022.2.4,Win32,30.12048193,661e456ee6de07e70aa9ef7b,6628df8d7ffa27dd83fc10c4,,,,,,,,,,,,,,,,,,,,,,,,,,,,,,,,,,,,,,,,,,,,,,,,,,,,,,,,0,59,59,36,1,A,Y,N,o1_image,stimuli/out1.png,stimuli/correct_out1.png,stimuli/out2.png,,,,,,,,,,,,,,,,,,,,,,,,,,,,,,,,,,,,,,
,,650222d04fe305c48c9a98ee,29,male,2024-04-24_12h32.29.914,stockport_simplified,2022.2.4,Win32,30.12048193,661e456ee6de07e70aa9ef7b,6628df8d7ffa27dd83fc10c4,,,,,,,,,,,,,,,,,,,,,,,,,,,,,,,,,,526.7966,529.398,"[1,7,5,8,2,3,6,4]","[[-0.3,0.2],[0.3,0.2]]","[[0.125,-0.2],[-0.125,-0.2]]",-0.098148092,-0.222222222,1,0,0,2.0841,o2_image,529.3997,1,529.9126,529.9127,531.9146,0,0,0,0,1,,,,,,,,,,,,,,,,,,,,,,,,,,,,,,,,,,,,,,,,,,,,,,,,,,
,,650222d04fe305c48c9a98ee,29,male,2024-04-24_12h32.29.914,stockport_simplified,2022.2.4,Win32,30.12048193,661e456ee6de07e70aa9ef7b,6628df8d7ffa27dd83fc10c4,,,,,,,,,,,,,,,,,,,,,,,,,,,,,,,,,,,,,,,,,,,,,,,,,,,,,,,,1,0,60,55,1,N,M,D,o2_image,stimuli/out2.png,stimuli/out1.png,stimuli/correct_out2.png,,,,,,,,,,,,,,,,,,,,,,,,,,,,,,,,,,,,,,
,,650222d04fe305c48c9a98ee,29,male,2024-04-24_12h32.29.914,stockport_simplified,2022.2.4,Win32,30.12048193,661e456ee6de07e70aa9ef7b,6628df8d7ffa27dd83fc10c4,,,,,,,,,,,,,,,,,,,,,,,,,,,,,,,,,,531.9156,535.4297,"[1,7,5,8,2,3,6,4]","[[0.3,0.2],[-0.3,0.2]]","[[-0.125,-0.2],[0.125,-0.2]]",-0.134259203,-0.220370399,1,0,0,2.9996,o1_image,535.4315,0,535.9324,535.9324,537.9359,0,0,0,0,1,,,,,,,,,,,,,,,,,,,,,,,,,,,,,,,,,,,,,,,,,,,,,,,,,,
,,650222d04fe305c48c9a98ee,29,male,2024-04-24_12h32.29.914,stockport_simplified,2022.2.4,Win32,30.12048193,661e456ee6de07e70aa9ef7b,6628df8d7ffa27dd83fc10c4,,,,,,,,,,,,,,,,,,,,,,,,,,,,,,,,,,,,,,,,,,,,,,,,,,,,,,,,1,1,61,12,1,B,X,N,o2_image,stimuli/out2.png,stimuli/out1.png,stimuli/correct_out2.png,,,,,,,,,,,,,,,,,,,,,,,,,,,,,,,,,,,,,,
,,650222d04fe305c48c9a98ee,29,male,2024-04-24_12h32.29.914,stockport_simplified,2022.2.4,Win32,30.12048193,661e456ee6de07e70aa9ef7b,6628df8d7ffa27dd83fc10c4,,,,,,,,,,,,,,,,,,,,,,,,,,,,,,,,,,537.9368,540.0105,"[1,7,5,8,2,3,6,4]","[[0.3,0.2],[-0.3,0.2]]","[[0.125,-0.2],[-0.125,-0.2]]",-0.119444444,-0.236111111,1,0,0,1.5622,o2_image,540.0122,1,540.4952,540.4952,542.4965,0,0,0,0,1,,,,,,,,,,,,,,,,,,,,,,,,,,,,,,,,,,,,,,,,,,,,,,,,,,
,,650222d04fe305c48c9a98ee,29,male,2024-04-24_12h32.29.914,stockport_simplified,2022.2.4,Win32,30.12048193,661e456ee6de07e70aa9ef7b,6628df8d7ffa27dd83fc10c4,,,,,,,,,,,,,,,,,,,,,,,,,,,,,,,,,,,,,,,,,,,,,,,,,,,,,,,,1,2,62,59,1,N,M,D,o2_image,stimuli/out2.png,stimuli/out1.png,stimuli/correct_out2.png,,,,,,,,,,,,,,,,,,,,,,,,,,,,,,,,,,,,,,
,,650222d04fe305c48c9a98ee,29,male,2024-04-24_12h32.29.914,stockport_simplified,2022.2.4,Win32,30.12048193,661e456ee6de07e70aa9ef7b,6628df8d7ffa27dd83fc10c4,,,,,,,,,,,,,,,,,,,,,,,,,,,,,,,,,,542.4979,547.3648,"[1,7,5,8,2,3,6,4]","[[0.3,0.2],[-0.3,0.2]]","[[-0.125,-0.2],[0.125,-0.2]]",0.082407464,-0.204629644,1,0,0,4.341,o2_image,547.3967,1,547.8823,547.8824,549.8791,0,0,0,0,1,,,,,,,,,,,,,,,,,,,,,,,,,,,,,,,,,,,,,,,,,,,,,,,,,,
,,650222d04fe305c48c9a98ee,29,male,2024-04-24_12h32.29.914,stockport_simplified,2022.2.4,Win32,30.12048193,661e456ee6de07e70aa9ef7b,6628df8d7ffa27dd83fc10c4,,,,,,,,,,,,,,,,,,,,,,,,,,,,,,,,,,,,,,,,,,,,,,,,,,,,,,,,1,3,63,45,1,B,Y,N,o2_image,stimuli/out2.png,stimuli/out1.png,stimuli/correct_out2.png,,,,,,,,,,,,,,,,,,,,,,,,,,,,,,,,,,,,,,
,,650222d04fe305c48c9a98ee,29,male,2024-04-24_12h32.29.914,stockport_simplified,2022.2.4,Win32,30.12048193,661e456ee6de07e70aa9ef7b,6628df8d7ffa27dd83fc10c4,,,,,,,,,,,,,,,,,,,,,,,,,,,,,,,,,,549.8802,552.8806,"[1,7,5,8,2,3,6,4]","[[0.3,0.2],[-0.3,0.2]]","[[-0.125,-0.2],[0.125,-0.2]]",-0.09351849,-0.223148176,1,0,0,2.4923,o1_image,552.8821,1,553.3778,553.3778,555.378,0,0,0,0,1,,,,,,,,,,,,,,,,,,,,,,,,,,,,,,,,,,,,,,,,,,,,,,,,,,
,,650222d04fe305c48c9a98ee,29,male,2024-04-24_12h32.29.914,stockport_simplified,2022.2.4,Win32,30.12048193,661e456ee6de07e70aa9ef7b,6628df8d7ffa27dd83fc10c4,,,,,,,,,,,,,,,,,,,,,,,,,,,,,,,,,,,,,,,,,,,,,,,,,,,,,,,,1,4,64,30,1,A,X,N,o1_image,stimuli/out1.png,stimuli/correct_out1.png,stimuli/out2.png,,,,,,,,,,,,,,,,,,,,,,,,,,,,,,,,,,,,,,
,,650222d04fe305c48c9a98ee,29,male,2024-04-24_12h32.29.914,stockport_simplified,2022.2.4,Win32,30.12048193,661e456ee6de07e70aa9ef7b,6628df8d7ffa27dd83fc10c4,,,,,,,,,,,,,,,,,,,,,,,,,,,,,,,,,,555.3784,558.4492,"[1,7,5,8,2,3,6,4]","[[-0.3,0.2],[0.3,0.2]]","[[-0.125,-0.2],[0.125,-0.2]]",-0.182407379,-0.204629644,1,0,0,2.5546,o1_image,558.4615,1,558.9607,558.9608,560.9551,0,0,0,0,1,,,,,,,,,,,,,,,,,,,,,,,,,,,,,,,,,,,,,,,,,,,,,,,,,,
,,650222d04fe305c48c9a98ee,29,male,2024-04-24_12h32.29.914,stockport_simplified,2022.2.4,Win32,30.12048193,661e456ee6de07e70aa9ef7b,6628df8d7ffa27dd83fc10c4,,,,,,,,,,,,,,,,,,,,,,,,,,,,,,,,,,,,,,,,,,,,,,,,,,,,,,,,1,5,65,21,1,N,M,C,o1_image,stimuli/out1.png,stimuli/correct_out1.png,stimuli/out2.png,,,,,,,,,,,,,,,,,,,,,,,,,,,,,,,,,,,,,,
,,650222d04fe305c48c9a98ee,29,male,2024-04-24_12h32.29.914,stockport_simplified,2022.2.4,Win32,30.12048193,661e456ee6de07e70aa9ef7b,6628df8d7ffa27dd83fc10c4,,,,,,,,,,,,,,,,,,,,,,,,,,,,,,,,,,560.9555,565.2941,"[1,7,5,8,2,3,6,4]","[[0.3,0.2],[-0.3,0.2]]","[[0.125,-0.2],[-0.125,-0.2]]",-0.097222222,-0.216666667,1,0,0,3.8163,o2_image,565.3069,1,565.8108,565.8109,567.8131,0,0,0,0,1,,,,,,,,,,,,,,,,,,,,,,,,,,,,,,,,,,,,,,,,,,,,,,,,,,
,,650222d04fe305c48c9a98ee,29,male,2024-04-24_12h32.29.914,stockport_simplified,2022.2.4,Win32,30.12048193,661e456ee6de07e70aa9ef7b,6628df8d7ffa27dd83fc10c4,,,,,,,,,,,,,,,,,,,,,,,,,,,,,,,,,,,,,,,,,,,,,,,,,,,,,,,,1,6,66,49,1,B,Y,N,o2_image,stimuli/out2.png,stimuli/out1.png,stimuli/correct_out2.png,,,,,,,,,,,,,,,,,,,,,,,,,,,,,,,,,,,,,,
,,650222d04fe305c48c9a98ee,29,male,2024-04-24_12h32.29.914,stockport_simplified,2022.2.4,Win32,30.12048193,661e456ee6de07e70aa9ef7b,6628df8d7ffa27dd83fc10c4,,,,,,,,,,,,,,,,,,,,,,,,,,,,,,,,,,567.8136,569.628,"[1,7,5,8,2,3,6,4]","[[-0.3,0.2],[0.3,0.2]]","[[0.125,-0.2],[-0.125,-0.2]]",0.050925954,-0.203703732,1,0,0,1.3007,o1_image,569.6291,1,570.1291,570.1291,572.1281,0,0,0,0,1,,,,,,,,,,,,,,,,,,,,,,,,,,,,,,,,,,,,,,,,,,,,,,,,,,
,,650222d04fe305c48c9a98ee,29,male,2024-04-24_12h32.29.914,stockport_simplified,2022.2.4,Win32,30.12048193,661e456ee6de07e70aa9ef7b,6628df8d7ffa27dd83fc10c4,,,,,,,,,,,,,,,,,,,,,,,,,,,,,,,,,,,,,,,,,,,,,,,,,,,,,,,,1,7,67,52,1,N,M,C,o1_image,stimuli/out1.png,stimuli/correct_out1.png,stimuli/out2.png,,,,,,,,,,,,,,,,,,,,,,,,,,,,,,,,,,,,,,
,,650222d04fe305c48c9a98ee,29,male,2024-04-24_12h32.29.914,stockport_simplified,2022.2.4,Win32,30.12048193,661e456ee6de07e70aa9ef7b,6628df8d7ffa27dd83fc10c4,,,,,,,,,,,,,,,,,,,,,,,,,,,,,,,,,,572.1286,575.7111,"[1,7,5,8,2,3,6,4]","[[0.3,0.2],[-0.3,0.2]]","[[-0.125,-0.2],[0.125,-0.2]]",0.05,-0.195370399,1,0,0,3.0784,o2_image,575.7119,0,576.2101,576.2101,578.2123,0,0,0,0,1,,,,,,,,,,,,,,,,,,,,,,,,,,,,,,,,,,,,,,,,,,,,,,,,,,
,,650222d04fe305c48c9a98ee,29,male,2024-04-24_12h32.29.914,stockport_simplified,2022.2.4,Win32,30.12048193,661e456ee6de07e70aa9ef7b,6628df8d7ffa27dd83fc10c4,,,,,,,,,,,,,,,,,,,,,,,,,,,,,,,,,,,,,,,,,,,,,,,,,,,,,,,,1,8,68,38,1,A,Y,N,o1_image,stimuli/out1.png,stimuli/correct_out1.png,stimuli/out2.png,,,,,,,,,,,,,,,,,,,,,,,,,,,,,,,,,,,,,,
,,650222d04fe305c48c9a98ee,29,male,2024-04-24_12h32.29.914,stockport_simplified,2022.2.4,Win32,30.12048193,661e456ee6de07e70aa9ef7b,6628df8d7ffa27dd83fc10c4,,,,,,,,,,,,,,,,,,,,,,,,,,,,,,,,,,578.2128,580.8603,"[1,7,5,8,2,3,6,4]","[[0.3,0.2],[-0.3,0.2]]","[[0.125,-0.2],[-0.125,-0.2]]",0.183333333,-0.219444444,1,0,0,2.1331,o1_image,580.8613,1,581.3436,581.3436,583.3437,0,0,0,0,1,,,,,,,,,,,,,,,,,,,,,,,,,,,,,,,,,,,,,,,,,,,,,,,,,,
,,650222d04fe305c48c9a98ee,29,male,2024-04-24_12h32.29.914,stockport_simplified,2022.2.4,Win32,30.12048193,661e456ee6de07e70aa9ef7b,6628df8d7ffa27dd83fc10c4,,,,,,,,,,,,,,,,,,,,,,,,,,,,,,,,,,,,,,,,,,,,,,,,,,,,,,,,1,9,69,8,1,A,Y,N,o1_image,stimuli/out1.png,stimuli/correct_out1.png,stimuli/out2.png,,,,,,,,,,,,,,,,,,,,,,,,,,,,,,,,,,,,,,
,,650222d04fe305c48c9a98ee,29,male,2024-04-24_12h32.29.914,stockport_simplified,2022.2.4,Win32,30.12048193,661e456ee6de07e70aa9ef7b,6628df8d7ffa27dd83fc10c4,,,,,,,,,,,,,,,,,,,,,,,,,,,,,,,,,,583.3442,588.1446,"[1,7,5,8,2,3,6,4]","[[-0.3,0.2],[0.3,0.2]]","[[-0.125,-0.2],[0.125,-0.2]]",0.119444444,-0.208333333,1,0,0,4.2849,o2_image,588.1566,0,588.66,588.6601,590.6545,0,0,0,0,1,,,,,,,,,,,,,,,,,,,,,,,,,,,,,,,,,,,,,,,,,,,,,,,,,,
,,650222d04fe305c48c9a98ee,29,male,2024-04-24_12h32.29.914,stockport_simplified,2022.2.4,Win32,30.12048193,661e456ee6de07e70aa9ef7b,6628df8d7ffa27dd83fc10c4,,,,,,,,,,,,,,,,,,,,,,,,,,,,,,,,,,,,,,,,,,,,,,,,,,,,,,,,1,10,70,35,1,A,Y,N,o1_image,stimuli/out1.png,stimuli/correct_out1.png,stimuli/out2.png,,,,,,,,,,,,,,,,,,,,,,,,,,,,,,,,,,,,,,
,,650222d04fe305c48c9a98ee,29,male,2024-04-24_12h32.29.914,stockport_simplified,2022.2.4,Win32,30.12048193,661e456ee6de07e70aa9ef7b,6628df8d7ffa27dd83fc10c4,,,,,,,,,,,,,,,,,,,,,,,,,,,,,,,,,,590.6549,594.044,"[1,7,5,8,2,3,6,4]","[[0.3,0.2],[-0.3,0.2]]","[[0.125,-0.2],[-0.125,-0.2]]",0.087963019,-0.204629644,1,0,0,2.8672,o1_image,594.0449,1,594.5439,594.544,596.537,0,0,0,0,1,,,,,,,,,,,,,,,,,,,,,,,,,,,,,,,,,,,,,,,,,,,,,,,,,,
,,650222d04fe305c48c9a98ee,29,male,2024-04-24_12h32.29.914,stockport_simplified,2022.2.4,Win32,30.12048193,661e456ee6de07e70aa9ef7b,6628df8d7ffa27dd83fc10c4,,,,,,,,,,,,,,,,,,,,,,,,,,,,,,,,,,,,,,,,,,,,,,,,,,,,,,,,1,11,71,32,1,A,X,N,o1_image,stimuli/out1.png,stimuli/correct_out1.png,stimuli/out2.png,,,,,,,,,,,,,,,,,,,,,,,,,,,,,,,,,,,,,,
,,650222d04fe305c48c9a98ee,29,male,2024-04-24_12h32.29.914,stockport_simplified,2022.2.4,Win32,30.12048193,661e456ee6de07e70aa9ef7b,6628df8d7ffa27dd83fc10c4,,,,,,,,,,,,,,,,,,,,,,,,,,,,,,,,,,596.5375,598.533,"[1,7,5,8,2,3,6,4]","[[0.3,0.2],[-0.3,0.2]]","[[0.125,-0.2],[-0.125,-0.2]]",-0.096296268,-0.197222222,1,0,0,1.4896,o2_image,598.5339,1,599.027,599.027,601.0098,0,0,0,0,1,,,,,,,,,,,,,,,,,,,,,,,,,,,,,,,,,,,,,,,,,,,,,,,,,,
,,650222d04fe305c48c9a98ee,29,male,2024-04-24_12h32.29.914,stockport_simplified,2022.2.4,Win32,30.12048193,661e456ee6de07e70aa9ef7b,6628df8d7ffa27dd83fc10c4,,,,,,,,,,,,,,,,,,,,,,,,,,,,,,,,,,,,,,,,,,,,,,,,,,,,,,,,1,12,72,57,1,N,M,D,o2_image,stimuli/out2.png,stimuli/out1.png,stimuli/correct_out2.png,,,,,,,,,,,,,,,,,,,,,,,,,,,,,,,,,,,,,,
,,650222d04fe305c48c9a98ee,29,male,2024-04-24_12h32.29.914,stockport_simplified,2022.2.4,Win32,30.12048193,661e456ee6de07e70aa9ef7b,6628df8d7ffa27dd83fc10c4,,,,,,,,,,,,,,,,,,,,,,,,,,,,,,,,,,601.0102,603.7779,"[1,7,5,8,2,3,6,4]","[[0.3,0.2],[-0.3,0.2]]","[[-0.125,-0.2],[0.125,-0.2]]",-0.121296268,-0.190740755,1,0,0,2.2505,o1_image,603.7787,0,604.2789,604.2789,606.2763,0,0,0,0,1,,,,,,,,,,,,,,,,,,,,,,,,,,,,,,,,,,,,,,,,,,,,,,,,,,
,,650222d04fe305c48c9a98ee,29,male,2024-04-24_12h32.29.914,stockport_simplified,2022.2.4,Win32,30.12048193,661e456ee6de07e70aa9ef7b,6628df8d7ffa27dd83fc10c4,,,,,,,,,,,,,,,,,,,,,,,,,,,,,,,,,,,,,,,,,,,,,,,,,,,,,,,,1,13,73,15,1,B,Y,N,o2_image,stimuli/out2.png,stimuli/out1.png,stimuli/correct_out2.png,,,,,,,,,,,,,,,,,,,,,,,,,,,,,,,,,,,,,,
,,650222d04fe305c48c9a98ee,29,male,2024-04-24_12h32.29.914,stockport_simplified,2022.2.4,Win32,30.12048193,661e456ee6de07e70aa9ef7b,6628df8d7ffa27dd83fc10c4,,,,,,,,,,,,,,,,,,,,,,,,,,,,,,,,,,606.2768,610.1876,"[1,7,5,8,2,3,6,4]","[[-0.3,0.2],[0.3,0.2]]","[[0.125,-0.2],[-0.125,-0.2]]",-0.11851849,-0.193518533,1,0,0,3.3938,o2_image,610.2003,0,610.6783,610.6783,612.6827,0,0,0,0,1,,,,,,,,,,,,,,,,,,,,,,,,,,,,,,,,,,,,,,,,,,,,,,,,,,
,,650222d04fe305c48c9a98ee,29,male,2024-04-24_12h32.29.914,stockport_simplified,2022.2.4,Win32,30.12048193,661e456ee6de07e70aa9ef7b,6628df8d7ffa27dd83fc10c4,,,,,,,,,,,,,,,,,,,,,,,,,,,,,,,,,,,,,,,,,,,,,,,,,,,,,,,,1,14,74,4,1,A,X,N,o1_image,stimuli/out1.png,stimuli/correct_out1.png,stimuli/out2.png,,,,,,,,,,,,,,,,,,,,,,,,,,,,,,,,,,,,,,
,,650222d04fe305c48c9a98ee,29,male,2024-04-24_12h32.29.914,stockport_simplified,2022.2.4,Win32,30.12048193,661e456ee6de07e70aa9ef7b,6628df8d7ffa27dd83fc10c4,,,,,,,,,,,,,,,,,,,,,,,,,,,,,,,,,,612.6831,616.3438,"[1,7,5,8,2,3,6,4]","[[-0.3,0.2],[0.3,0.2]]","[[0.125,-0.2],[-0.125,-0.2]]",-0.102777778,-0.187037065,1,0,0,3.1496,o2_image,616.3448,1,616.8438,616.8438,618.838,0,0,0,0,1,,,,,,,,,,,,,,,,,,,,,,,,,,,,,,,,,,,,,,,,,,,,,,,,,,
,,650222d04fe305c48c9a98ee,29,male,2024-04-24_12h32.29.914,stockport_simplified,2022.2.4,Win32,30.12048193,661e456ee6de07e70aa9ef7b,6628df8d7ffa27dd83fc10c4,,,,,,,,,,,,,,,,,,,,,,,,,,,,,,,,,,,,,,,,,,,,,,,,,,,,,,,,1,15,75,19,1,B,Y,N,o2_image,stimuli/out2.png,stimuli/out1.png,stimuli/correct_out2.png,,,,,,,,,,,,,,,,,,,,,,,,,,,,,,,,,,,,,,
,,650222d04fe305c48c9a98ee,29,male,2024-04-24_12h32.29.914,stockport_simplified,2022.2.4,Win32,30.12048193,661e456ee6de07e70aa9ef7b,6628df8d7ffa27dd83fc10c4,,,,,,,,,,,,,,,,,,,,,,,,,,,,,,,,,,618.8386,621.8096,"[1,7,5,8,2,3,6,4]","[[0.3,0.2],[-0.3,0.2]]","[[-0.125,-0.2],[0.125,-0.2]]",-0.190740712,-0.161111111,1,0,0,2.4503,o1_image,621.8106,1,622.2986,622.2986,624.2866,0,0,0,0,1,,,,,,,,,,,,,,,,,,,,,,,,,,,,,,,,,,,,,,,,,,,,,,,,,,
,,650222d04fe305c48c9a98ee,29,male,2024-04-24_12h32.29.914,stockport_simplified,2022.2.4,Win32,30.12048193,661e456ee6de07e70aa9ef7b,6628df8d7ffa27dd83fc10c4,,,,,,,,,,,,,,,,,,,,,,,,,,,,,,,,,,,,,,,,,,,,,,,,,,,,,,,,1,16,76,9,1,A,Y,N,o1_image,stimuli/out1.png,stimuli/correct_out1.png,stimuli/out2.png,,,,,,,,,,,,,,,,,,,,,,,,,,,,,,,,,,,,,,
,,650222d04fe305c48c9a98ee,29,male,2024-04-24_12h32.29.914,stockport_simplified,2022.2.4,Win32,30.12048193,661e456ee6de07e70aa9ef7b,6628df8d7ffa27dd83fc10c4,,,,,,,,,,,,,,,,,,,,,,,,,,,,,,,,,,624.2871,627.5651,"[1,7,5,8,2,3,6,4]","[[-0.3,0.2],[0.3,0.2]]","[[0.125,-0.2],[-0.125,-0.2]]",-0.15,-0.216666667,1,0,0,2.7705,o2_image,627.5765,1,628.076,628.076,630.0761,0,0,0,0,1,,,,,,,,,,,,,,,,,,,,,,,,,,,,,,,,,,,,,,,,,,,,,,,,,,
,,650222d04fe305c48c9a98ee,29,male,2024-04-24_12h32.29.914,stockport_simplified,2022.2.4,Win32,30.12048193,661e456ee6de07e70aa9ef7b,6628df8d7ffa27dd83fc10c4,,,,,,,,,,,,,,,,,,,,,,,,,,,,,,,,,,,,,,,,,,,,,,,,,,,,,,,,1,17,77,17,1,B,Y,N,o2_image,stimuli/out2.png,stimuli/out1.png,stimuli/correct_out2.png,,,,,,,,,,,,,,,,,,,,,,,,,,,,,,,,,,,,,,
,,650222d04fe305c48c9a98ee,29,male,2024-04-24_12h32.29.914,stockport_simplified,2022.2.4,Win32,30.12048193,661e456ee6de07e70aa9ef7b,6628df8d7ffa27dd83fc10c4,,,,,,,,,,,,,,,,,,,,,,,,,,,,,,,,,,630.0766,632.8931,"[1,7,5,8,2,3,6,4]","[[-0.3,0.2],[0.3,0.2]]","[[-0.125,-0.2],[0.125,-0.2]]",0.121296353,-0.20648151,1,0,0,2.2987,o2_image,632.9044,1,633.3924,633.3924,635.4089,0,0,0,0,1,,,,,,,,,,,,,,,,,,,,,,,,,,,,,,,,,,,,,,,,,,,,,,,,,,
,,650222d04fe305c48c9a98ee,29,male,2024-04-24_12h32.29.914,stockport_simplified,2022.2.4,Win32,30.12048193,661e456ee6de07e70aa9ef7b,6628df8d7ffa27dd83fc10c4,,,,,,,,,,,,,,,,,,,,,,,,,,,,,,,,,,,,,,,,,,,,,,,,,,,,,,,,1,18,78,28,1,N,M,D,o2_image,stimuli/out2.png,stimuli/out1.png,stimuli/correct_out2.png,,,,,,,,,,,,,,,,,,,,,,,,,,,,,,,,,,,,,,
,,650222d04fe305c48c9a98ee,29,male,2024-04-24_12h32.29.914,stockport_simplified,2022.2.4,Win32,30.12048193,661e456ee6de07e70aa9ef7b,6628df8d7ffa27dd83fc10c4,,,,,,,,,,,,,,,,,,,,,,,,,,,,,,,,,,635.4094,637.8644,"[1,7,5,8,2,3,6,4]","[[0.3,0.2],[-0.3,0.2]]","[[0.125,-0.2],[-0.125,-0.2]]",0.125,-0.193518533,1,0,0,1.9387,o1_image,637.8663,1,638.3632,638.3633,640.3434,0,0,0,0,1,,,,,,,,,,,,,,,,,,,,,,,,,,,,,,,,,,,,,,,,,,,,,,,,,,
,,650222d04fe305c48c9a98ee,29,male,2024-04-24_12h32.29.914,stockport_simplified,2022.2.4,Win32,30.12048193,661e456ee6de07e70aa9ef7b,6628df8d7ffa27dd83fc10c4,,,,,,,,,,,,,,,,,,,,,,,,,,,,,,,,,,,,,,,,,,,,,,,,,,,,,,,,1,19,79,6,1,A,Y,N,o1_image,stimuli/out1.png,stimuli/correct_out1.png,stimuli/out2.png,,,,,,,,,,,,,,,,,,,,,,,,,,,,,,,,,,,,,,
,,650222d04fe305c48c9a98ee,29,male,2024-04-24_12h32.29.914,stockport_simplified,2022.2.4,Win32,30.12048193,661e456ee6de07e70aa9ef7b,6628df8d7ffa27dd83fc10c4,,,,,,,,,,,,,,,,,,,,,,,,,,,,,,,,,,640.3439,643.3105,"[1,7,5,8,2,3,6,4]","[[-0.3,0.2],[0.3,0.2]]","[[0.125,-0.2],[-0.125,-0.2]]",-0.094444444,-0.186111111,1,0,0,2.4534,o2_image,643.3425,1,643.8594,643.8595,645.8592,0,0,0,0,1,,,,,,,,,,,,,,,,,,,,,,,,,,,,,,,,,,,,,,,,,,,,,,,,,,
,,650222d04fe305c48c9a98ee,29,male,2024-04-24_12h32.29.914,stockport_simplified,2022.2.4,Win32,30.12048193,661e456ee6de07e70aa9ef7b,6628df8d7ffa27dd83fc10c4,,,,,,,,,,,,,,,,,,,,,,,,,,,,,,,,,,,,,,,,,,,,,,,,,,,,,,,,1,20,80,41,1,B,X,N,o2_image,stimuli/out2.png,stimuli/out1.png,stimuli/correct_out2.png,,,,,,,,,,,,,,,,,,,,,,,,,,,,,,,,,,,,,,
,,650222d04fe305c48c9a98ee,29,male,2024-04-24_12h32.29.914,stockport_simplified,2022.2.4,Win32,30.12048193,661e456ee6de07e70aa9ef7b,6628df8d7ffa27dd83fc10c4,,,,,,,,,,,,,,,,,,,,,,,,,,,,,,,,,,645.8601,647.7937,"[1,7,5,8,2,3,6,4]","[[0.3,0.2],[-0.3,0.2]]","[[0.125,-0.2],[-0.125,-0.2]]",0.143518575,-0.180555556,1,0,0,1.4294,o1_image,647.7949,1,648.2804,648.2805,650.2763,0,0,0,0,1,,,,,,,,,,,,,,,,,,,,,,,,,,,,,,,,,,,,,,,,,,,,,,,,,,
,,650222d04fe305c48c9a98ee,29,male,2024-04-24_12h32.29.914,stockport_simplified,2022.2.4,Win32,30.12048193,661e456ee6de07e70aa9ef7b,6628df8d7ffa27dd83fc10c4,,,,,,,,,,,,,,,,,,,,,,,,,,,,,,,,,,,,,,,,,,,,,,,,,,,,,,,,1,21,81,54,1,N,M,C,o1_image,stimuli/out1.png,stimuli/correct_out1.png,stimuli/out2.png,,,,,,,,,,,,,,,,,,,,,,,,,,,,,,,,,,,,,,
,,650222d04fe305c48c9a98ee,29,male,2024-04-24_12h32.29.914,stockport_simplified,2022.2.4,Win32,30.12048193,661e456ee6de07e70aa9ef7b,6628df8d7ffa27dd83fc10c4,,,,,,,,,,,,,,,,,,,,,,,,,,,,,,,,,,650.2773,653.2438,"[1,7,5,8,2,3,6,4]","[[0.3,0.2],[-0.3,0.2]]","[[0.125,-0.2],[-0.125,-0.2]]",-0.115740712,-0.197222222,1,0,0,2.4506,o2_image,653.2751,1,653.7651,653.7652,655.7758,0,0,0,0,1,,,,,,,,,,,,,,,,,,,,,,,,,,,,,,,,,,,,,,,,,,,,,,,,,,
,,650222d04fe305c48c9a98ee,29,male,2024-04-24_12h32.29.914,stockport_simplified,2022.2.4,Win32,30.12048193,661e456ee6de07e70aa9ef7b,6628df8d7ffa27dd83fc10c4,,,,,,,,,,,,,,,,,,,,,,,,,,,,,,,,,,,,,,,,,,,,,,,,,,,,,,,,1,22,82,14,1,B,X,N,o2_image,stimuli/out2.png,stimuli/out1.png,stimuli/correct_out2.png,,,,,,,,,,,,,,,,,,,,,,,,,,,,,,,,,,,,,,
,,650222d04fe305c48c9a98ee,29,male,2024-04-24_12h32.29.914,stockport_simplified,2022.2.4,Win32,30.12048193,661e456ee6de07e70aa9ef7b,6628df8d7ffa27dd83fc10c4,,,,,,,,,,,,,,,,,,,,,,,,,,,,,,,,,,655.7769,657.7925,"[1,7,5,8,2,3,6,4]","[[0.3,0.2],[-0.3,0.2]]","[[-0.125,-0.2],[0.125,-0.2]]",0.117592621,-0.194444444,1,0,0,1.483,o2_image,657.7945,0,658.293,658.2931,660.2839,0,0,0,0,1,,,,,,,,,,,,,,,,,,,,,,,,,,,,,,,,,,,,,,,,,,,,,,,,,,
,,650222d04fe305c48c9a98ee,29,male,2024-04-24_12h32.29.914,stockport_simplified,2022.2.4,Win32,30.12048193,661e456ee6de07e70aa9ef7b,6628df8d7ffa27dd83fc10c4,,,,,,,,,,,,,,,,,,,,,,,,,,,,,,,,,,,,,,,,,,,,,,,,,,,,,,,,1,23,83,37,1,A,Y,N,o1_image,stimuli/out1.png,stimuli/correct_out1.png,stimuli/out2.png,,,,,,,,,,,,,,,,,,,,,,,,,,,,,,,,,,,,,,
,,650222d04fe305c48c9a98ee,29,male,2024-04-24_12h32.29.914,stockport_simplified,2022.2.4,Win32,30.12048193,661e456ee6de07e70aa9ef7b,6628df8d7ffa27dd83fc10c4,,,,,,,,,,,,,,,,,,,,,,,,,,,,,,,,,,660.2848,662.5448,"[1,7,5,8,2,3,6,4]","[[-0.3,0.2],[0.3,0.2]]","[[-0.125,-0.2],[0.125,-0.2]]",0.184259288,-0.143518533,1,0,0,1.7337,o2_image,662.5463,1,663.0297,663.0298,665.0189,0,0,0,0,1,,,,,,,,,,,,,,,,,,,,,,,,,,,,,,,,,,,,,,,,,,,,,,,,,,
,,650222d04fe305c48c9a98ee,29,male,2024-04-24_12h32.29.914,stockport_simplified,2022.2.4,Win32,30.12048193,661e456ee6de07e70aa9ef7b,6628df8d7ffa27dd83fc10c4,,,,,,,,,,,,,,,,,,,,,,,,,,,,,,,,,,,,,,,,,,,,,,,,,,,,,,,,1,24,84,56,1,N,M,D,o2_image,stimuli/out2.png,stimuli/out1.png,stimuli/correct_out2.png,,,,,,,,,,,,,,,,,,,,,,,,,,,,,,,,,,,,,,
,,650222d04fe305c48c9a98ee,29,male,2024-04-24_12h32.29.914,stockport_simplified,2022.2.4,Win32,30.12048193,661e456ee6de07e70aa9ef7b,6628df8d7ffa27dd83fc10c4,,,,,,,,,,,,,,,,,,,,,,,,,,,,,,,,,,665.0194,667.0953,"[1,7,5,8,2,3,6,4]","[[-0.3,0.2],[0.3,0.2]]","[[-0.125,-0.2],[0.125,-0.2]]",0.190740797,-0.179629644,1,0,0,1.5528,o2_image,667.0961,1,667.6093,667.6093,669.6083,0,0,0,0,1,,,,,,,,,,,,,,,,,,,,,,,,,,,,,,,,,,,,,,,,,,,,,,,,,,
,,650222d04fe305c48c9a98ee,29,male,2024-04-24_12h32.29.914,stockport_simplified,2022.2.4,Win32,30.12048193,661e456ee6de07e70aa9ef7b,6628df8d7ffa27dd83fc10c4,,,,,,,,,,,,,,,,,,,,,,,,,,,,,,,,,,,,,,,,,,,,,,,,,,,,,,,,1,25,85,43,1,B,X,N,o2_image,stimuli/out2.png,stimuli/out1.png,stimuli/correct_out2.png,,,,,,,,,,,,,,,,,,,,,,,,,,,,,,,,,,,,,,
,,650222d04fe305c48c9a98ee,29,male,2024-04-24_12h32.29.914,stockport_simplified,2022.2.4,Win32,30.12048193,661e456ee6de07e70aa9ef7b,6628df8d7ffa27dd83fc10c4,,,,,,,,,,,,,,,,,,,,,,,,,,,,,,,,,,669.6089,672.3757,"[1,7,5,8,2,3,6,4]","[[-0.3,0.2],[0.3,0.2]]","[[0.125,-0.2],[-0.125,-0.2]]",-0.109259203,-0.200925954,1,0,0,2.2502,o2_image,672.3774,0,672.8629,672.8631,674.859,0,0,0,0,1,,,,,,,,,,,,,,,,,,,,,,,,,,,,,,,,,,,,,,,,,,,,,,,,,,
,,650222d04fe305c48c9a98ee,29,male,2024-04-24_12h32.29.914,stockport_simplified,2022.2.4,Win32,30.12048193,661e456ee6de07e70aa9ef7b,6628df8d7ffa27dd83fc10c4,,,,,,,,,,,,,,,,,,,,,,,,,,,,,,,,,,,,,,,,,,,,,,,,,,,,,,,,1,26,86,0,1,A,X,N,o1_image,stimuli/out1.png,stimuli/correct_out1.png,stimuli/out2.png,,,,,,,,,,,,,,,,,,,,,,,,,,,,,,,,,,,,,,
,,650222d04fe305c48c9a98ee,29,male,2024-04-24_12h32.29.914,stockport_simplified,2022.2.4,Win32,30.12048193,661e456ee6de07e70aa9ef7b,6628df8d7ffa27dd83fc10c4,,,,,,,,,,,,,,,,,,,,,,,,,,,,,,,,,,674.8601,676.6101,"[1,7,5,8,2,3,6,4]","[[-0.3,0.2],[0.3,0.2]]","[[-0.125,-0.2],[0.125,-0.2]]",-0.077777778,-0.197222222,1,0,0,1.2414,o1_image,676.612,1,677.1122,677.1122,679.1251,0,0,0,0,1,,,,,,,,,,,,,,,,,,,,,,,,,,,,,,,,,,,,,,,,,,,,,,,,,,
,,650222d04fe305c48c9a98ee,29,male,2024-04-24_12h32.29.914,stockport_simplified,2022.2.4,Win32,30.12048193,661e456ee6de07e70aa9ef7b,6628df8d7ffa27dd83fc10c4,,,,,,,,,,,,,,,,,,,,,,,,,,,,,,,,,,,,,,,,,,,,,,,,,,,,,,,,1,27,87,24,1,N,M,C,o1_image,stimuli/out1.png,stimuli/correct_out1.png,stimuli/out2.png,,,,,,,,,,,,,,,,,,,,,,,,,,,,,,,,,,,,,,
,,650222d04fe305c48c9a98ee,29,male,2024-04-24_12h32.29.914,stockport_simplified,2022.2.4,Win32,30.12048193,661e456ee6de07e70aa9ef7b,6628df8d7ffa27dd83fc10c4,,,,,,,,,,,,,,,,,,,,,,,,,,,,,,,,,,679.1261,682.056,"[1,7,5,8,2,3,6,4]","[[0.3,0.2],[-0.3,0.2]]","[[0.125,-0.2],[-0.125,-0.2]]",-0.16851849,-0.2,1,0,0,2.3969,o2_image,682.0879,1,682.576,682.576,684.5868,0,0,0,0,1,,,,,,,,,,,,,,,,,,,,,,,,,,,,,,,,,,,,,,,,,,,,,,,,,,
,,650222d04fe305c48c9a98ee,29,male,2024-04-24_12h32.29.914,stockport_simplified,2022.2.4,Win32,30.12048193,661e456ee6de07e70aa9ef7b,6628df8d7ffa27dd83fc10c4,,,,,,,,,,,,,,,,,,,,,,,,,,,,,,,,,,,,,,,,,,,,,,,,,,,,,,,,1,28,88,42,1,B,X,N,o2_image,stimuli/out2.png,stimuli/out1.png,stimuli/correct_out2.png,,,,,,,,,,,,,,,,,,,,,,,,,,,,,,,,,,,,,,
,,650222d04fe305c48c9a98ee,29,male,2024-04-24_12h32.29.914,stockport_simplified,2022.2.4,Win32,30.12048193,661e456ee6de07e70aa9ef7b,6628df8d7ffa27dd83fc10c4,,,,,,,,,,,,,,,,,,,,,,,,,,,,,,,,,,684.5878,688.4173,"[1,7,5,8,2,3,6,4]","[[-0.3,0.2],[0.3,0.2]]","[[0.125,-0.2],[-0.125,-0.2]]",-0.149074046,-0.205555556,1,0,0,3.3088,o2_image,688.4486,1,688.9443,688.9444,690.9425,0,0,0,0,1,,,,,,,,,,,,,,,,,,,,,,,,,,,,,,,,,,,,,,,,,,,,,,,,,,
,,650222d04fe305c48c9a98ee,29,male,2024-04-24_12h32.29.914,stockport_simplified,2022.2.4,Win32,30.12048193,661e456ee6de07e70aa9ef7b,6628df8d7ffa27dd83fc10c4,,,,,,,,,,,,,,,,,,,,,,,,,,,,,,,,,,,,,,,,,,,,,,,,,,,,,,,,1,29,89,16,1,B,Y,N,o2_image,stimuli/out2.png,stimuli/out1.png,stimuli/correct_out2.png,,,,,,,,,,,,,,,,,,,,,,,,,,,,,,,,,,,,,,
,,650222d04fe305c48c9a98ee,29,male,2024-04-24_12h32.29.914,stockport_simplified,2022.2.4,Win32,30.12048193,661e456ee6de07e70aa9ef7b,6628df8d7ffa27dd83fc10c4,,,,,,,,,,,,,,,,,,,,,,,,,,,,,,,,,,690.9434,695.7094,"[1,7,5,8,2,3,6,4]","[[-0.3,0.2],[0.3,0.2]]","[[0.125,-0.2],[-0.125,-0.2]]",-0.079629601,-0.2,1,0,0,4.2504,o2_image,695.7407,0,696.2582,696.2584,698.258,0,0,0,0,1,,,,,,,,,,,,,,,,,,,,,,,,,,,,,,,,,,,,,,,,,,,,,,,,,,
,,650222d04fe305c48c9a98ee,29,male,2024-04-24_12h32.29.914,stockport_simplified,2022.2.4,Win32,30.12048193,661e456ee6de07e70aa9ef7b,6628df8d7ffa27dd83fc10c4,,,,,,,,,,,,,,,,,,,,,,,,,,,,,,,,,,,,,,,,,,,,,,,,,,,,,,,,1,30,90,2,1,A,X,N,o1_image,stimuli/out1.png,stimuli/correct_out1.png,stimuli/out2.png,,,,,,,,,,,,,,,,,,,,,,,,,,,,,,,,,,,,,,
,,650222d04fe305c48c9a98ee,29,male,2024-04-24_12h32.29.914,stockport_simplified,2022.2.4,Win32,30.12048193,661e456ee6de07e70aa9ef7b,6628df8d7ffa27dd83fc10c4,,,,,,,,,,,,,,,,,,,,,,,,,,,,,,,,,,698.2589,702.4593,"[1,7,5,8,2,3,6,4]","[[-0.3,0.2],[0.3,0.2]]","[[-0.125,-0.2],[0.125,-0.2]]",0.083333333,-0.189814843,1,0,0,3.6837,o2_image,702.4908,1,702.9913,702.9914,704.9914,0,0,0,0,1,,,,,,,,,,,,,,,,,,,,,,,,,,,,,,,,,,,,,,,,,,,,,,,,,,
,,650222d04fe305c48c9a98ee,29,male,2024-04-24_12h32.29.914,stockport_simplified,2022.2.4,Win32,30.12048193,661e456ee6de07e70aa9ef7b,6628df8d7ffa27dd83fc10c4,,,,,,,,,,,,,,,,,,,,,,,,,,,,,,,,,,,,,,,,,,,,,,,,,,,,,,,,1,31,91,44,1,B,X,N,o2_image,stimuli/out2.png,stimuli/out1.png,stimuli/correct_out2.png,,,,,,,,,,,,,,,,,,,,,,,,,,,,,,,,,,,,,,
,,650222d04fe305c48c9a98ee,29,male,2024-04-24_12h32.29.914,stockport_simplified,2022.2.4,Win32,30.12048193,661e456ee6de07e70aa9ef7b,6628df8d7ffa27dd83fc10c4,,,,,,,,,,,,,,,,,,,,,,,,,,,,,,,,,,704.9923,706.6698,"[1,7,5,8,2,3,6,4]","[[-0.3,0.2],[0.3,0.2]]","[[0.125,-0.2],[-0.125,-0.2]]",0.1,-0.195370399,1,0,0,1.168,o1_image,706.6715,1,707.1752,707.1752,709.1577,0,0,0,0,1,,,,,,,,,,,,,,,,,,,,,,,,,,,,,,,,,,,,,,,,,,,,,,,,,,
,,650222d04fe305c48c9a98ee,29,male,2024-04-24_12h32.29.914,stockport_simplified,2022.2.4,Win32,30.12048193,661e456ee6de07e70aa9ef7b,6628df8d7ffa27dd83fc10c4,,,,,,,,,,,,,,,,,,,,,,,,,,,,,,,,,,,,,,,,,,,,,,,,,,,,,,,,1,32,92,51,1,N,M,C,o1_image,stimuli/out1.png,stimuli/correct_out1.png,stimuli/out2.png,,,,,,,,,,,,,,,,,,,,,,,,,,,,,,,,,,,,,,
,,650222d04fe305c48c9a98ee,29,male,2024-04-24_12h32.29.914,stockport_simplified,2022.2.4,Win32,30.12048193,661e456ee6de07e70aa9ef7b,6628df8d7ffa27dd83fc10c4,,,,,,,,,,,,,,,,,,,,,,,,,,,,,,,,,,709.1585,710.7923,"[1,7,5,8,2,3,6,4]","[[-0.3,0.2],[0.3,0.2]]","[[-0.125,-0.2],[0.125,-0.2]]",-0.070370314,-0.212037065,1,0,0,1.1176,o1_image,710.794,1,711.2923,711.2924,713.2947,0,0,0,0,1,,,,,,,,,,,,,,,,,,,,,,,,,,,,,,,,,,,,,,,,,,,,,,,,,,
,,650222d04fe305c48c9a98ee,29,male,2024-04-24_12h32.29.914,stockport_simplified,2022.2.4,Win32,30.12048193,661e456ee6de07e70aa9ef7b,6628df8d7ffa27dd83fc10c4,,,,,,,,,,,,,,,,,,,,,,,,,,,,,,,,,,,,,,,,,,,,,,,,,,,,,,,,1,33,93,23,1,N,M,C,o1_image,stimuli/out1.png,stimuli/correct_out1.png,stimuli/out2.png,,,,,,,,,,,,,,,,,,,,,,,,,,,,,,,,,,,,,,
,,650222d04fe305c48c9a98ee,29,male,2024-04-24_12h32.29.914,stockport_simplified,2022.2.4,Win32,30.12048193,661e456ee6de07e70aa9ef7b,6628df8d7ffa27dd83fc10c4,,,,,,,,,,,,,,,,,,,,,,,,,,,,,,,,,,713.2956,717.6575,"[1,7,5,8,2,3,6,4]","[[-0.3,0.2],[0.3,0.2]]","[[0.125,-0.2],[-0.125,-0.2]]",0.121296353,-0.167592621,1,0,0,3.8489,o1_image,717.6892,0,718.1741,718.1741,720.174,0,0,0,0,1,,,,,,,,,,,,,,,,,,,,,,,,,,,,,,,,,,,,,,,,,,,,,,,,,,
,,650222d04fe305c48c9a98ee,29,male,2024-04-24_12h32.29.914,stockport_simplified,2022.2.4,Win32,30.12048193,661e456ee6de07e70aa9ef7b,6628df8d7ffa27dd83fc10c4,,,,,,,,,,,,,,,,,,,,,,,,,,,,,,,,,,,,,,,,,,,,,,,,,,,,,,,,1,34,94,10,1,B,X,N,o2_image,stimuli/out2.png,stimuli/out1.png,stimuli/correct_out2.png,,,,,,,,,,,,,,,,,,,,,,,,,,,,,,,,,,,,,,
,,650222d04fe305c48c9a98ee,29,male,2024-04-24_12h32.29.914,stockport_simplified,2022.2.4,Win32,30.12048193,661e456ee6de07e70aa9ef7b,6628df8d7ffa27dd83fc10c4,,,,,,,,,,,,,,,,,,,,,,,,,,,,,,,,,,720.1752,722.0599,"[1,7,5,8,2,3,6,4]","[[0.3,0.2],[-0.3,0.2]]","[[-0.125,-0.2],[0.125,-0.2]]",0.201851908,-0.192592621,1,0,0,1.3668,o2_image,722.0616,1,722.575,722.5752,724.5744,0,0,0,0,1,,,,,,,,,,,,,,,,,,,,,,,,,,,,,,,,,,,,,,,,,,,,,,,,,,
,,650222d04fe305c48c9a98ee,29,male,2024-04-24_12h32.29.914,stockport_simplified,2022.2.4,Win32,30.12048193,661e456ee6de07e70aa9ef7b,6628df8d7ffa27dd83fc10c4,,,,,,,,,,,,,,,,,,,,,,,,,,,,,,,,,,,,,,,,,,,,,,,,,,,,,,,,1,35,95,26,1,N,M,D,o2_image,stimuli/out2.png,stimuli/out1.png,stimuli/correct_out2.png,,,,,,,,,,,,,,,,,,,,,,,,,,,,,,,,,,,,,,
,,650222d04fe305c48c9a98ee,29,male,2024-04-24_12h32.29.914,stockport_simplified,2022.2.4,Win32,30.12048193,661e456ee6de07e70aa9ef7b,6628df8d7ffa27dd83fc10c4,,,,,,,,,,,,,,,,,,,,,,,,,,,,,,,,,,724.5753,726.0105,"[1,7,5,8,2,3,6,4]","[[0.3,0.2],[-0.3,0.2]]","[[-0.125,-0.2],[0.125,-0.2]]",-0.065740712,-0.17129631,1,0,0,0.9192,o1_image,726.012,1,726.5254,726.5254,728.5245,0,0,0,0,1,,,,,,,,,,,,,,,,,,,,,,,,,,,,,,,,,,,,,,,,,,,,,,,,,,
,,650222d04fe305c48c9a98ee,29,male,2024-04-24_12h32.29.914,stockport_simplified,2022.2.4,Win32,30.12048193,661e456ee6de07e70aa9ef7b,6628df8d7ffa27dd83fc10c4,,,,,,,,,,,,,,,,,,,,,,,,,,,,,,,,,,,,,,,,,,,,,,,,,,,,,,,,1,36,96,20,1,N,M,C,o1_image,stimuli/out1.png,stimuli/correct_out1.png,stimuli/out2.png,,,,,,,,,,,,,,,,,,,,,,,,,,,,,,,,,,,,,,
,,650222d04fe305c48c9a98ee,29,male,2024-04-24_12h32.29.914,stockport_simplified,2022.2.4,Win32,30.12048193,661e456ee6de07e70aa9ef7b,6628df8d7ffa27dd83fc10c4,,,,,,,,,,,,,,,,,,,,,,,,,,,,,,,,,,728.5254,730.8418,"[1,7,5,8,2,3,6,4]","[[0.3,0.2],[-0.3,0.2]]","[[-0.125,-0.2],[0.125,-0.2]]",0.154629686,-0.186111111,1,0,0,1.7841,o2_image,730.8436,1,731.3403,731.3404,733.3446,0,0,0,0,1,,,,,,,,,,,,,,,,,,,,,,,,,,,,,,,,,,,,,,,,,,,,,,,,,,
,,650222d04fe305c48c9a98ee,29,male,2024-04-24_12h32.29.914,stockport_simplified,2022.2.4,Win32,30.12048193,661e456ee6de07e70aa9ef7b,6628df8d7ffa27dd83fc10c4,,,,,,,,,,,,,,,,,,,,,,,,,,,,,,,,,,,,,,,,,,,,,,,,,,,,,,,,1,37,97,11,1,B,X,N,o2_image,stimuli/out2.png,stimuli/out1.png,stimuli/correct_out2.png,,,,,,,,,,,,,,,,,,,,,,,,,,,,,,,,,,,,,,
,,650222d04fe305c48c9a98ee,29,male,2024-04-24_12h32.29.914,stockport_simplified,2022.2.4,Win32,30.12048193,661e456ee6de07e70aa9ef7b,6628df8d7ffa27dd83fc10c4,,,,,,,,,,,,,,,,,,,,,,,,,,,,,,,,,,733.3457,735.7941,"[1,7,5,8,2,3,6,4]","[[0.3,0.2],[-0.3,0.2]]","[[0.125,-0.2],[-0.125,-0.2]]",0.113888889,-0.17129631,1,0,0,1.9362,o1_image,735.7956,1,736.2906,736.2906,738.3072,0,0,0,0,1,,,,,,,,,,,,,,,,,,,,,,,,,,,,,,,,,,,,,,,,,,,,,,,,,,
,,650222d04fe305c48c9a98ee,29,male,2024-04-24_12h32.29.914,stockport_simplified,2022.2.4,Win32,30.12048193,661e456ee6de07e70aa9ef7b,6628df8d7ffa27dd83fc10c4,,,,,,,,,,,,,,,,,,,,,,,,,,,,,,,,,,,,,,,,,,,,,,,,,,,,,,,,1,38,98,3,1,A,X,N,o1_image,stimuli/out1.png,stimuli/correct_out1.png,stimuli/out2.png,,,,,,,,,,,,,,,,,,,,,,,,,,,,,,,,,,,,,,
,,650222d04fe305c48c9a98ee,29,male,2024-04-24_12h32.29.914,stockport_simplified,2022.2.4,Win32,30.12048193,661e456ee6de07e70aa9ef7b,6628df8d7ffa27dd83fc10c4,,,,,,,,,,,,,,,,,,,,,,,,,,,,,,,,,,738.3081,742.8258,"[1,7,5,8,2,3,6,4]","[[-0.3,0.2],[0.3,0.2]]","[[0.125,-0.2],[-0.125,-0.2]]",0.154629686,-0.174074088,1,0,0,4.002,o1_image,742.857,1,743.3491,743.3491,745.3401,0,0,0,0,1,,,,,,,,,,,,,,,,,,,,,,,,,,,,,,,,,,,,,,,,,,,,,,,,,,
,,650222d04fe305c48c9a98ee,29,male,2024-04-24_12h32.29.914,stockport_simplified,2022.2.4,Win32,30.12048193,661e456ee6de07e70aa9ef7b,6628df8d7ffa27dd83fc10c4,,,,,,,,,,,,,,,,,,,,,,,,,,,,,,,,,,,,,,,,,,,,,,,,,,,,,,,,1,39,99,5,1,A,Y,N,o1_image,stimuli/out1.png,stimuli/correct_out1.png,stimuli/out2.png,,,,,,,,,,,,,,,,,,,,,,,,,,,,,,,,,,,,,,
,,650222d04fe305c48c9a98ee,29,male,2024-04-24_12h32.29.914,stockport_simplified,2022.2.4,Win32,30.12048193,661e456ee6de07e70aa9ef7b,6628df8d7ffa27dd83fc10c4,,,,,,,,,,,,,,,,,,,,,,,,,,,,,,,,,,745.3411,746.7251,"[1,7,5,8,2,3,6,4]","[[-0.3,0.2],[0.3,0.2]]","[[-0.125,-0.2],[0.125,-0.2]]",-0.094444444,-0.173148176,1,0,0,0.8673,o1_image,746.7268,1,747.2237,747.2238,749.2237,0,0,0,0,1,,,,,,,,,,,,,,,,,,,,,,,,,,,,,,,,,,,,,,,,,,,,,,,,,,
,,650222d04fe305c48c9a98ee,29,male,2024-04-24_12h32.29.914,stockport_simplified,2022.2.4,Win32,30.12048193,661e456ee6de07e70aa9ef7b,6628df8d7ffa27dd83fc10c4,,,,,,,,,,,,,,,,,,,,,,,,,,,,,,,,,,,,,,,,,,,,,,,,,,,,,,,,1,40,100,22,1,N,M,C,o1_image,stimuli/out1.png,stimuli/correct_out1.png,stimuli/out2.png,,,,,,,,,,,,,,,,,,,,,,,,,,,,,,,,,,,,,,
,,650222d04fe305c48c9a98ee,29,male,2024-04-24_12h32.29.914,stockport_simplified,2022.2.4,Win32,30.12048193,661e456ee6de07e70aa9ef7b,6628df8d7ffa27dd83fc10c4,,,,,,,,,,,,,,,,,,,,,,,,,,,,,,,,,,749.2246,750.8069,"[1,7,5,8,2,3,6,4]","[[-0.3,0.2],[0.3,0.2]]","[[0.125,-0.2],[-0.125,-0.2]]",-0.117592536,-0.199074088,1,0,0,1.0665,o2_image,750.809,1,751.3017,751.302,753.2899,0,0,0,0,1,,,,,,,,,,,,,,,,,,,,,,,,,,,,,,,,,,,,,,,,,,,,,,,,,,
,,650222d04fe305c48c9a98ee,29,male,2024-04-24_12h32.29.914,stockport_simplified,2022.2.4,Win32,30.12048193,661e456ee6de07e70aa9ef7b,6628df8d7ffa27dd83fc10c4,,,,,,,,,,,,,,,,,,,,,,,,,,,,,,,,,,,,,,,,,,,,,,,,,,,,,,,,1,41,101,27,1,N,M,D,o2_image,stimuli/out2.png,stimuli/out1.png,stimuli/correct_out2.png,,,,,,,,,,,,,,,,,,,,,,,,,,,,,,,,,,,,,,
,,650222d04fe305c48c9a98ee,29,male,2024-04-24_12h32.29.914,stockport_simplified,2022.2.4,Win32,30.12048193,661e456ee6de07e70aa9ef7b,6628df8d7ffa27dd83fc10c4,,,,,,,,,,,,,,,,,,,,,,,,,,,,,,,,,,753.291,755.2415,"[1,7,5,8,2,3,6,4]","[[0.3,0.2],[-0.3,0.2]]","[[0.125,-0.2],[-0.125,-0.2]]",-0.196296268,-0.161111111,1,0,0,1.4339,o2_image,755.2432,1,755.7406,755.7407,757.7397,0,0,0,0,1,,,,,,,,,,,,,,,,,,,,,,,,,,,,,,,,,,,,,,,,,,,,,,,,,,
,,650222d04fe305c48c9a98ee,29,male,2024-04-24_12h32.29.914,stockport_simplified,2022.2.4,Win32,30.12048193,661e456ee6de07e70aa9ef7b,6628df8d7ffa27dd83fc10c4,,,,,,,,,,,,,,,,,,,,,,,,,,,,,,,,,,,,,,,,,,,,,,,,,,,,,,,,1,42,102,40,1,B,X,N,o2_image,stimuli/out2.png,stimuli/out1.png,stimuli/correct_out2.png,,,,,,,,,,,,,,,,,,,,,,,,,,,,,,,,,,,,,,
,,650222d04fe305c48c9a98ee,29,male,2024-04-24_12h32.29.914,stockport_simplified,2022.2.4,Win32,30.12048193,661e456ee6de07e70aa9ef7b,6628df8d7ffa27dd83fc10c4,,,,,,,,,,,,,,,,,,,,,,,,,,,,,,,,,,757.7407,759.8021,"[1,7,5,8,2,3,6,4]","[[-0.3,0.2],[0.3,0.2]]","[[0.125,-0.2],[-0.125,-0.2]]",-0.132407379,-0.167592621,1,0,0,1.5522,o2_image,759.8037,0,760.2898,760.2898,762.29,0,0,0,0,1,,,,,,,,,,,,,,,,,,,,,,,,,,,,,,,,,,,,,,,,,,,,,,,,,,
,,650222d04fe305c48c9a98ee,29,male,2024-04-24_12h32.29.914,stockport_simplified,2022.2.4,Win32,30.12048193,661e456ee6de07e70aa9ef7b,6628df8d7ffa27dd83fc10c4,,,,,,,,,,,,,,,,,,,,,,,,,,,,,,,,,,,,,,,,,,,,,,,,,,,,,,,,1,43,103,39,1,A,Y,N,o1_image,stimuli/out1.png,stimuli/correct_out1.png,stimuli/out2.png,,,,,,,,,,,,,,,,,,,,,,,,,,,,,,,,,,,,,,
,,650222d04fe305c48c9a98ee,29,male,2024-04-24_12h32.29.914,stockport_simplified,2022.2.4,Win32,30.12048193,661e456ee6de07e70aa9ef7b,6628df8d7ffa27dd83fc10c4,,,,,,,,,,,,,,,,,,,,,,,,,,,,,,,,,,762.2908,764.7743,"[1,7,5,8,2,3,6,4]","[[-0.3,0.2],[0.3,0.2]]","[[0.125,-0.2],[-0.125,-0.2]]",0.169444444,-0.19629631,1,0,0,1.9674,o1_image,764.8059,1,765.3062,765.3062,767.3063,0,0,0,0,1,,,,,,,,,,,,,,,,,,,,,,,,,,,,,,,,,,,,,,,,,,,,,,,,,,
,,650222d04fe305c48c9a98ee,29,male,2024-04-24_12h32.29.914,stockport_simplified,2022.2.4,Win32,30.12048193,661e456ee6de07e70aa9ef7b,6628df8d7ffa27dd83fc10c4,,,,,,,,,,,,,,,,,,,,,,,,,,,,,,,,,,,,,,,,,,,,,,,,,,,,,,,,1,44,104,31,1,A,X,N,o1_image,stimuli/out1.png,stimuli/correct_out1.png,stimuli/out2.png,,,,,,,,,,,,,,,,,,,,,,,,,,,,,,,,,,,,,,
,,650222d04fe305c48c9a98ee,29,male,2024-04-24_12h32.29.914,stockport_simplified,2022.2.4,Win32,30.12048193,661e456ee6de07e70aa9ef7b,6628df8d7ffa27dd83fc10c4,,,,,,,,,,,,,,,,,,,,,,,,,,,,,,,,,,767.3072,769.4064,"[1,7,5,8,2,3,6,4]","[[0.3,0.2],[-0.3,0.2]]","[[0.125,-0.2],[-0.125,-0.2]]",-0.041666667,-0.173148176,1,0,0,1.0176,o2_image,769.408,1,769.8934,769.8934,771.8912,0,0,0,0,1,,,,,,,,,,,,,,,,,,,,,,,,,,,,,,,,,,,,,,,,,,,,,,,,,,
,,650222d04fe305c48c9a98ee,29,male,2024-04-24_12h32.29.914,stockport_simplified,2022.2.4,Win32,30.12048193,661e456ee6de07e70aa9ef7b,6628df8d7ffa27dd83fc10c4,,,,,,,,,,,,,,,,,,,,,,,,,,,,,,,,,,,,,,,,,,,,,,,,,,,,,,,,1,45,105,25,1,N,M,D,o2_image,stimuli/out2.png,stimuli/out1.png,stimuli/correct_out2.png,,,,,,,,,,,,,,,,,,,,,,,,,,,,,,,,,,,,,,
,,650222d04fe305c48c9a98ee,29,male,2024-04-24_12h32.29.914,stockport_simplified,2022.2.4,Win32,30.12048193,661e456ee6de07e70aa9ef7b,6628df8d7ffa27dd83fc10c4,,,,,,,,,,,,,,,,,,,,,,,,,,,,,,,,,,771.8921,773.281,"[1,7,5,8,2,3,6,4]","[[0.3,0.2],[-0.3,0.2]]","[[0.125,-0.2],[-0.125,-0.2]]",-0.145370314,-0.18148151,1,0,0,0.8744,o2_image,773.2828,1,773.7772,773.7773,775.756,0,0,0,0,1,,,,,,,,,,,,,,,,,,,,,,,,,,,,,,,,,,,,,,,,,,,,,,,,,,
,,650222d04fe305c48c9a98ee,29,male,2024-04-24_12h32.29.914,stockport_simplified,2022.2.4,Win32,30.12048193,661e456ee6de07e70aa9ef7b,6628df8d7ffa27dd83fc10c4,,,,,,,,,,,,,,,,,,,,,,,,,,,,,,,,,,,,,,,,,,,,,,,,,,,,,,,,1,46,106,29,1,N,M,D,o2_image,stimuli/out2.png,stimuli/out1.png,stimuli/correct_out2.png,,,,,,,,,,,,,,,,,,,,,,,,,,,,,,,,,,,,,,
,,650222d04fe305c48c9a98ee,29,male,2024-04-24_12h32.29.914,stockport_simplified,2022.2.4,Win32,30.12048193,661e456ee6de07e70aa9ef7b,6628df8d7ffa27dd83fc10c4,,,,,,,,,,,,,,,,,,,,,,,,,,,,,,,,,,775.7569,779.2974,"[1,7,5,8,2,3,6,4]","[[0.3,0.2],[-0.3,0.2]]","[[0.125,-0.2],[-0.125,-0.2]]",0.027777778,-0.175,1,0,0,2.4503,o1_image,779.329,1,779.8342,779.8343,781.8397,0,0,0,0,1,,,,,,,,,,,,,,,,,,,,,,,,,,,,,,,,,,,,,,,,,,,,,,,,,,
,,650222d04fe305c48c9a98ee,29,male,2024-04-24_12h32.29.914,stockport_simplified,2022.2.4,Win32,30.12048193,661e456ee6de07e70aa9ef7b,6628df8d7ffa27dd83fc10c4,,,,,,,,,,,,,,,,,,,,,,,,,,,,,,,,,,,,,,,,,,,,,,,,,,,,,,,,1,47,107,1,1,A,X,N,o1_image,stimuli/out1.png,stimuli/correct_out1.png,stimuli/out2.png,,,,,,,,,,,,,,,,,,,,,,,,,,,,,,,,,,,,,,
,,650222d04fe305c48c9a98ee,29,male,2024-04-24_12h32.29.914,stockport_simplified,2022.2.4,Win32,30.12048193,661e456ee6de07e70aa9ef7b,6628df8d7ffa27dd83fc10c4,,,,,,,,,,,,,,,,,,,,,,,,,,,,,,,,,,781.8405,783.5419,"[1,7,5,8,2,3,6,4]","[[-0.3,0.2],[0.3,0.2]]","[[0.125,-0.2],[-0.125,-0.2]]",0.182407464,-0.211111111,1,0,0,1.1842,o1_image,783.5435,1,784.0224,784.0225,786.0393,0,0,0,0,1,,,,,,,,,,,,,,,,,,,,,,,,,,,,,,,,,,,,,,,,,,,,,,,,,,
,,650222d04fe305c48c9a98ee,29,male,2024-04-24_12h32.29.914,stockport_simplified,2022.2.4,Win32,30.12048193,661e456ee6de07e70aa9ef7b,6628df8d7ffa27dd83fc10c4,,,,,,,,,,,,,,,,,,,,,,,,,,,,,,,,,,,,,,,,,,,,,,,,,,,,,,,,1,48,108,53,1,N,M,C,o1_image,stimuli/out1.png,stimuli/correct_out1.png,stimuli/out2.png,,,,,,,,,,,,,,,,,,,,,,,,,,,,,,,,,,,,,,
,,650222d04fe305c48c9a98ee,29,male,2024-04-24_12h32.29.914,stockport_simplified,2022.2.4,Win32,30.12048193,661e456ee6de07e70aa9ef7b,6628df8d7ffa27dd83fc10c4,,,,,,,,,,,,,,,,,,,,,,,,,,,,,,,,,,786.0403,787.9903,"[1,7,5,8,2,3,6,4]","[[0.3,0.2],[-0.3,0.2]]","[[0.125,-0.2],[-0.125,-0.2]]",-0.112962935,-0.19629631,1,0,0,1.4331,o2_image,787.9921,1,788.4892,788.4893,790.4723,0,0,0,0,1,,,,,,,,,,,,,,,,,,,,,,,,,,,,,,,,,,,,,,,,,,,,,,,,,,
,,650222d04fe305c48c9a98ee,29,male,2024-04-24_12h32.29.914,stockport_simplified,2022.2.4,Win32,30.12048193,661e456ee6de07e70aa9ef7b,6628df8d7ffa27dd83fc10c4,,,,,,,,,,,,,,,,,,,,,,,,,,,,,,,,,,,,,,,,,,,,,,,,,,,,,,,,1,49,109,48,1,B,Y,N,o2_image,stimuli/out2.png,stimuli/out1.png,stimuli/correct_out2.png,,,,,,,,,,,,,,,,,,,,,,,,,,,,,,,,,,,,,,
,,650222d04fe305c48c9a98ee,29,male,2024-04-24_12h32.29.914,stockport_simplified,2022.2.4,Win32,30.12048193,661e456ee6de07e70aa9ef7b,6628df8d7ffa27dd83fc10c4,,,,,,,,,,,,,,,,,,,,,,,,,,,,,,,,,,790.4731,794.1234,"[1,7,5,8,2,3,6,4]","[[-0.3,0.2],[0.3,0.2]]","[[0.125,-0.2],[-0.125,-0.2]]",0.089814843,-0.192592621,1,0,0,3.1174,o1_image,794.1544,0,794.6555,794.6555,796.6447,0,0,0,0,1,,,,,,,,,,,,,,,,,,,,,,,,,,,,,,,,,,,,,,,,,,,,,,,,,,
,,650222d04fe305c48c9a98ee,29,male,2024-04-24_12h32.29.914,stockport_simplified,2022.2.4,Win32,30.12048193,661e456ee6de07e70aa9ef7b,6628df8d7ffa27dd83fc10c4,,,,,,,,,,,,,,,,,,,,,,,,,,,,,,,,,,,,,,,,,,,,,,,,,,,,,,,,1,50,110,46,1,B,Y,N,o2_image,stimuli/out2.png,stimuli/out1.png,stimuli/correct_out2.png,,,,,,,,,,,,,,,,,,,,,,,,,,,,,,,,,,,,,,
,,650222d04fe305c48c9a98ee,29,male,2024-04-24_12h32.29.914,stockport_simplified,2022.2.4,Win32,30.12048193,661e456ee6de07e70aa9ef7b,6628df8d7ffa27dd83fc10c4,,,,,,,,,,,,,,,,,,,,,,,,,,,,,,,,,,796.6459,797.9908,"[1,7,5,8,2,3,6,4]","[[-0.3,0.2],[0.3,0.2]]","[[0.125,-0.2],[-0.125,-0.2]]",-0.062962935,-0.193518533,1,0,0,0.8188,o2_image,797.9926,1,798.4926,798.4927,800.472,0,0,0,0,1,,,,,,,,,,,,,,,,,,,,,,,,,,,,,,,,,,,,,,,,,,,,,,,,,,
,,650222d04fe305c48c9a98ee,29,male,2024-04-24_12h32.29.914,stockport_simplified,2022.2.4,Win32,30.12048193,661e456ee6de07e70aa9ef7b,6628df8d7ffa27dd83fc10c4,,,,,,,,,,,,,,,,,,,,,,,,,,,,,,,,,,,,,,,,,,,,,,,,,,,,,,,,1,51,111,18,1,B,Y,N,o2_image,stimuli/out2.png,stimuli/out1.png,stimuli/correct_out2.png,,,,,,,,,,,,,,,,,,,,,,,,,,,,,,,,,,,,,,
,,650222d04fe305c48c9a98ee,29,male,2024-04-24_12h32.29.914,stockport_simplified,2022.2.4,Win32,30.12048193,661e456ee6de07e70aa9ef7b,6628df8d7ffa27dd83fc10c4,,,,,,,,,,,,,,,,,,,,,,,,,,,,,,,,,,800.4728,802.8232,"[1,7,5,8,2,3,6,4]","[[-0.3,0.2],[0.3,0.2]]","[[-0.125,-0.2],[0.125,-0.2]]",-0.159259203,-0.188888889,1,0,0,1.8335,o1_image,802.8249,1,803.3098,803.3099,805.3053,0,0,0,0,1,,,,,,,,,,,,,,,,,,,,,,,,,,,,,,,,,,,,,,,,,,,,,,,,,,
,,650222d04fe305c48c9a98ee,29,male,2024-04-24_12h32.29.914,stockport_simplified,2022.2.4,Win32,30.12048193,661e456ee6de07e70aa9ef7b,6628df8d7ffa27dd83fc10c4,,,,,,,,,,,,,,,,,,,,,,,,,,,,,,,,,,,,,,,,,,,,,,,,,,,,,,,,1,52,112,33,1,A,X,N,o1_image,stimuli/out1.png,stimuli/correct_out1.png,stimuli/out2.png,,,,,,,,,,,,,,,,,,,,,,,,,,,,,,,,,,,,,,
,,650222d04fe305c48c9a98ee,29,male,2024-04-24_12h32.29.914,stockport_simplified,2022.2.4,Win32,30.12048193,661e456ee6de07e70aa9ef7b,6628df8d7ffa27dd83fc10c4,,,,,,,,,,,,,,,,,,,,,,,,,,,,,,,,,,805.3062,807.257,"[1,7,5,8,2,3,6,4]","[[0.3,0.2],[-0.3,0.2]]","[[-0.125,-0.2],[0.125,-0.2]]",-0.105555556,-0.203703732,1,0,0,1.4181,o1_image,807.2586,1,807.756,807.756,809.7582,0,0,0,0,1,,,,,,,,,,,,,,,,,,,,,,,,,,,,,,,,,,,,,,,,,,,,,,,,,,
,,650222d04fe305c48c9a98ee,29,male,2024-04-24_12h32.29.914,stockport_simplified,2022.2.4,Win32,30.12048193,661e456ee6de07e70aa9ef7b,6628df8d7ffa27dd83fc10c4,,,,,,,,,,,,,,,,,,,,,,,,,,,,,,,,,,,,,,,,,,,,,,,,,,,,,,,,1,53,113,7,1,A,Y,N,o1_image,stimuli/out1.png,stimuli/correct_out1.png,stimuli/out2.png,,,,,,,,,,,,,,,,,,,,,,,,,,,,,,,,,,,,,,
,,650222d04fe305c48c9a98ee,29,male,2024-04-24_12h32.29.914,stockport_simplified,2022.2.4,Win32,30.12048193,661e456ee6de07e70aa9ef7b,6628df8d7ffa27dd83fc10c4,,,,,,,,,,,,,,,,,,,,,,,,,,,,,,,,,,809.7595,814.122,"[1,7,5,8,2,3,6,4]","[[-0.3,0.2],[0.3,0.2]]","[[0.125,-0.2],[-0.125,-0.2]]",0.05,-0.207407422,1,0,0,3.8329,o1_image,814.1533,0,814.6561,814.6561,816.6555,0,0,0,0,1,,,,,,,,,,,,,,,,,,,,,,,,,,,,,,,,,,,,,,,,,,,,,,,,,,
,,650222d04fe305c48c9a98ee,29,male,2024-04-24_12h32.29.914,stockport_simplified,2022.2.4,Win32,30.12048193,661e456ee6de07e70aa9ef7b,6628df8d7ffa27dd83fc10c4,,,,,,,,,,,,,,,,,,,,,,,,,,,,,,,,,,,,,,,,,,,,,,,,,,,,,,,,1,54,114,13,1,B,X,N,o2_image,stimuli/out2.png,stimuli/out1.png,stimuli/correct_out2.png,,,,,,,,,,,,,,,,,,,,,,,,,,,,,,,,,,,,,,
,,650222d04fe305c48c9a98ee,29,male,2024-04-24_12h32.29.914,stockport_simplified,2022.2.4,Win32,30.12048193,661e456ee6de07e70aa9ef7b,6628df8d7ffa27dd83fc10c4,,,,,,,,,,,,,,,,,,,,,,,,,,,,,,,,,,816.6564,818.8235,"[1,7,5,8,2,3,6,4]","[[-0.3,0.2],[0.3,0.2]]","[[0.125,-0.2],[-0.125,-0.2]]",0.071296353,-0.214814843,1,0,0,1.6587,o1_image,818.8252,1,819.3169,819.317,821.3052,0,0,0,0,1,,,,,,,,,,,,,,,,,,,,,,,,,,,,,,,,,,,,,,,,,,,,,,,,,,
,,650222d04fe305c48c9a98ee,29,male,2024-04-24_12h32.29.914,stockport_simplified,2022.2.4,Win32,30.12048193,661e456ee6de07e70aa9ef7b,6628df8d7ffa27dd83fc10c4,,,,,,,,,,,,,,,,,,,,,,,,,,,,,,,,,,,,,,,,,,,,,,,,,,,,,,,,1,55,115,36,1,A,Y,N,o1_image,stimuli/out1.png,stimuli/correct_out1.png,stimuli/out2.png,,,,,,,,,,,,,,,,,,,,,,,,,,,,,,,,,,,,,,
,,650222d04fe305c48c9a98ee,29,male,2024-04-24_12h32.29.914,stockport_simplified,2022.2.4,Win32,30.12048193,661e456ee6de07e70aa9ef7b,6628df8d7ffa27dd83fc10c4,,,,,,,,,,,,,,,,,,,,,,,,,,,,,,,,,,821.3061,823.5063,"[1,7,5,8,2,3,6,4]","[[-0.3,0.2],[0.3,0.2]]","[[0.125,-0.2],[-0.125,-0.2]]",-0.073148092,-0.2,1,0,0,1.683,o2_image,823.508,1,823.9995,823.9996,825.9886,0,0,0,0,1,,,,,,,,,,,,,,,,,,,,,,,,,,,,,,,,,,,,,,,,,,,,,,,,,,
,,650222d04fe305c48c9a98ee,29,male,2024-04-24_12h32.29.914,stockport_simplified,2022.2.4,Win32,30.12048193,661e456ee6de07e70aa9ef7b,6628df8d7ffa27dd83fc10c4,,,,,,,,,,,,,,,,,,,,,,,,,,,,,,,,,,,,,,,,,,,,,,,,,,,,,,,,1,56,116,58,1,N,M,D,o2_image,stimuli/out2.png,stimuli/out1.png,stimuli/correct_out2.png,,,,,,,,,,,,,,,,,,,,,,,,,,,,,,,,,,,,,,
,,650222d04fe305c48c9a98ee,29,male,2024-04-24_12h32.29.914,stockport_simplified,2022.2.4,Win32,30.12048193,661e456ee6de07e70aa9ef7b,6628df8d7ffa27dd83fc10c4,,,,,,,,,,,,,,,,,,,,,,,,,,,,,,,,,,825.9895,828.3381,"[1,7,5,8,2,3,6,4]","[[-0.3,0.2],[0.3,0.2]]","[[0.125,-0.2],[-0.125,-0.2]]",0.099074131,-0.217592621,1,0,0,1.8399,o1_image,828.3397,1,828.8289,828.829,830.8226,0,0,0,0,1,,,,,,,,,,,,,,,,,,,,,,,,,,,,,,,,,,,,,,,,,,,,,,,,,,
,,650222d04fe305c48c9a98ee,29,male,2024-04-24_12h32.29.914,stockport_simplified,2022.2.4,Win32,30.12048193,661e456ee6de07e70aa9ef7b,6628df8d7ffa27dd83fc10c4,,,,,,,,,,,,,,,,,,,,,,,,,,,,,,,,,,,,,,,,,,,,,,,,,,,,,,,,1,57,117,50,1,N,M,C,o1_image,stimuli/out1.png,stimuli/correct_out1.png,stimuli/out2.png,,,,,,,,,,,,,,,,,,,,,,,,,,,,,,,,,,,,,,
,,650222d04fe305c48c9a98ee,29,male,2024-04-24_12h32.29.914,stockport_simplified,2022.2.4,Win32,30.12048193,661e456ee6de07e70aa9ef7b,6628df8d7ffa27dd83fc10c4,,,,,,,,,,,,,,,,,,,,,,,,,,,,,,,,,,830.8235,834.5913,"[1,7,5,8,2,3,6,4]","[[-0.3,0.2],[0.3,0.2]]","[[-0.125,-0.2],[0.125,-0.2]]",-0.110185157,-0.153703732,1,0,0,3.2593,o1_image,834.6231,1,835.1054,835.1056,837.1053,0,0,0,0,1,,,,,,,,,,,,,,,,,,,,,,,,,,,,,,,,,,,,,,,,,,,,,,,,,,
,,650222d04fe305c48c9a98ee,29,male,2024-04-24_12h32.29.914,stockport_simplified,2022.2.4,Win32,30.12048193,661e456ee6de07e70aa9ef7b,6628df8d7ffa27dd83fc10c4,,,,,,,,,,,,,,,,,,,,,,,,,,,,,,,,,,,,,,,,,,,,,,,,,,,,,,,,1,58,118,34,1,A,X,N,o1_image,stimuli/out1.png,stimuli/correct_out1.png,stimuli/out2.png,,,,,,,,,,,,,,,,,,,,,,,,,,,,,,,,,,,,,,
,,650222d04fe305c48c9a98ee,29,male,2024-04-24_12h32.29.914,stockport_simplified,2022.2.4,Win32,30.12048193,661e456ee6de07e70aa9ef7b,6628df8d7ffa27dd83fc10c4,,,,,,,,,,,,,,,,,,,,,,,,,,,,,,,,,,837.1063,840.3229,"[1,7,5,8,2,3,6,4]","[[-0.3,0.2],[0.3,0.2]]","[[-0.125,-0.2],[0.125,-0.2]]",0.097222222,-0.162962977,1,0,0,2.7,o2_image,840.3546,1,840.849,840.8491,842.8387,0,0,0,0,1,,,,,,,,,,,,,,,,,,,,,,,,,,,,,,,,,,,,,,,,,,,,,,,,,,
,,650222d04fe305c48c9a98ee,29,male,2024-04-24_12h32.29.914,stockport_simplified,2022.2.4,Win32,30.12048193,661e456ee6de07e70aa9ef7b,6628df8d7ffa27dd83fc10c4,,,,,,,,,,,,,,,,,,,,,,,,,,,,,,,,,,,,,,,,,,,,,,,,,,,,,,,,1,59,119,47,1,B,Y,N,o2_image,stimuli/out2.png,stimuli/out1.png,stimuli/correct_out2.png,,,,,,,,,,,,,,,,,,,,,,,,,,,,,,,,,,,,,,
,,650222d04fe305c48c9a98ee,29,male,2024-04-24_12h32.29.914,stockport_simplified,2022.2.4,Win32,30.12048193,661e456ee6de07e70aa9ef7b,6628df8d7ffa27dd83fc10c4,,,,,,,,,,,,,,,,,,,,,,,,,,,,,,,,,,842.8913,846.7059,"[1,7,5,8,2,3,6,4]","[[0.3,0.2],[-0.3,0.2]]","[[-0.125,-0.2],[0.125,-0.2]]",0.069444444,-0.194444444,1,0,0,3.3,o2_image,846.7386,0,847.2431,847.2433,849.2544,,,,,,,,,,,,,,,,,,0,0,0,0,1,,,,,,,,,,,,,,,,,,,,,,,,,,,,,,,,,
,,650222d04fe305c48c9a98ee,29,male,2024-04-24_12h32.29.914,stockport_simplified,2022.2.4,Win32,30.12048193,661e456ee6de07e70aa9ef7b,6628df8d7ffa27dd83fc10c4,,,,,,,,,,,,,,,,,,,,,,,,,,,,,,,,,,,,,,,,,,,,,,,,,,,,,,,,,,,,,B,X,N,o1_image,stimuli/out1.png,stimuli/correct_out1.png,stimuli/out2.png,,,,,,0,0,0,26,1,,,,,,,,,,,,,,,,,,,,,,,,,,,,
,,650222d04fe305c48c9a98ee,29,male,2024-04-24_12h32.29.914,stockport_simplified,2022.2.4,Win32,30.12048193,661e456ee6de07e70aa9ef7b,6628df8d7ffa27dd83fc10c4,,,,,,,,,,,,,,,,,,,,,,,,,,,,,,,,,,849.256,854.79,"[1,7,5,8,2,3,6,4]","[[-0.3,0.2],[0.3,0.2]]","[[-0.125,-0.2],[0.125,-0.2]]",-0.069444444,-0.217592621,1,0,0,5.0178,o1_image,854.8208,1,855.3208,855.3209,857.3038,,,,,,,,,,,,,,,,,,0,0,0,0,1,,,,,,,,,,,,,,,,,,,,,,,,,,,,,,,,,
,,650222d04fe305c48c9a98ee,29,male,2024-04-24_12h32.29.914,stockport_simplified,2022.2.4,Win32,30.12048193,661e456ee6de07e70aa9ef7b,6628df8d7ffa27dd83fc10c4,,,,,,,,,,,,,,,,,,,,,,,,,,,,,,,,,,,,,,,,,,,,,,,,,,,,,,,,,,,,,A,Y,N,o1_image,stimuli/out1.png,stimuli/correct_out1.png,stimuli/out2.png,,,,,,0,1,1,17,1,,,,,,,,,,,,,,,,,,,,,,,,,,,,
,,650222d04fe305c48c9a98ee,29,male,2024-04-24_12h32.29.914,stockport_simplified,2022.2.4,Win32,30.12048193,661e456ee6de07e70aa9ef7b,6628df8d7ffa27dd83fc10c4,,,,,,,,,,,,,,,,,,,,,,,,,,,,,,,,,,857.3047,859.6395,"[1,7,5,8,2,3,6,4]","[[-0.3,0.2],[0.3,0.2]]","[[0.125,-0.2],[-0.125,-0.2]]",0.167592621,-0.224074131,1,0,0,1.8247,o1_image,859.6412,1,860.1205,860.1206,862.1216,,,,,,,,,,,,,,,,,,0,0,0,0,1,,,,,,,,,,,,,,,,,,,,,,,,,,,,,,,,,
,,650222d04fe305c48c9a98ee,29,male,2024-04-24_12h32.29.914,stockport_simplified,2022.2.4,Win32,30.12048193,661e456ee6de07e70aa9ef7b,6628df8d7ffa27dd83fc10c4,,,,,,,,,,,,,,,,,,,,,,,,,,,,,,,,,,,,,,,,,,,,,,,,,,,,,,,,,,,,,N,M,C,o1_image,stimuli/out1.png,stimuli/correct_out1.png,stimuli/out2.png,,,,,,0,2,2,42,1,,,,,,,,,,,,,,,,,,,,,,,,,,,,
,,650222d04fe305c48c9a98ee,29,male,2024-04-24_12h32.29.914,stockport_simplified,2022.2.4,Win32,30.12048193,661e456ee6de07e70aa9ef7b,6628df8d7ffa27dd83fc10c4,,,,,,,,,,,,,,,,,,,,,,,,,,,,,,,,,,862.1226,866.0382,"[1,7,5,8,2,3,6,4]","[[0.3,0.2],[-0.3,0.2]]","[[0.125,-0.2],[-0.125,-0.2]]",-0.113888889,-0.2,1,0,0,3.4128,o2_image,866.0693,1,866.5704,866.5705,868.5706,,,,,,,,,,,,,,,,,,0,0,0,0,1,,,,,,,,,,,,,,,,,,,,,,,,,,,,,,,,,
,,650222d04fe305c48c9a98ee,29,male,2024-04-24_12h32.29.914,stockport_simplified,2022.2.4,Win32,30.12048193,661e456ee6de07e70aa9ef7b,6628df8d7ffa27dd83fc10c4,,,,,,,,,,,,,,,,,,,,,,,,,,,,,,,,,,,,,,,,,,,,,,,,,,,,,,,,,,,,,B,X,N,o2_image,stimuli/out2.png,stimuli/out1.png,stimuli/correct_out2.png,,,,,,0,3,3,21,1,,,,,,,,,,,,,,,,,,,,,,,,,,,,
,,650222d04fe305c48c9a98ee,29,male,2024-04-24_12h32.29.914,stockport_simplified,2022.2.4,Win32,30.12048193,661e456ee6de07e70aa9ef7b,6628df8d7ffa27dd83fc10c4,,,,,,,,,,,,,,,,,,,,,,,,,,,,,,,,,,868.5718,870.2722,"[1,7,5,8,2,3,6,4]","[[-0.3,0.2],[0.3,0.2]]","[[0.125,-0.2],[-0.125,-0.2]]",0.062963019,-0.205555556,1,0,0,1.1675,o1_image,870.2741,1,870.7886,870.7887,872.7886,,,,,,,,,,,,,,,,,,0,0,0,0,1,,,,,,,,,,,,,,,,,,,,,,,,,,,,,,,,,
