counterbalance_2.started,counterbalance_2.stopped,participant,age,gender,date,expName,psychopyVersion,OS,frameRate,STUDY_ID,SESSION_ID,information_2.started,information_2.stopped,information_loop.thisRepN,information_loop.thisTrialN,information_loop.thisN,information_loop.thisIndex,information_loop.ran,information,consent_2.started,consent_2.stopped,slider_1.response,slider_2.response,slider_3.response,slider_4.response,slider_5.response,slider_6.response,instructions.started,instructions.stopped,task1_instr.thisRepN,task1_instr.thisTrialN,task1_instr.thisN,task1_instr.thisIndex,task1_instr.ran,task1,comprehension1_2.started,comprehension1_2.stopped,comp1_mouse.x,comp1_mouse.y,comp1_mouse.leftButton,comp1_mouse.midButton,comp1_mouse.rightButton,comp1_mouse.time,comp1_mouse.clicked_name,cue_o__trial_2.started,cue_o__trial_2.stopped,order,cue_order,out_order,cue_o_mouse.x,cue_o_mouse.y,cue_o_mouse.leftButton,cue_o_mouse.midButton,cue_o_mouse.rightButton,cue_o_mouse.time,cue_o_mouse.clicked_name,cue_selection_2.started,correct_answer,cue_selection_2.stopped,feedback_2.started,feedback_2.stopped,feedback_loop.thisRepN,feedback_loop.thisTrialN,feedback_loop.thisN,feedback_loop.thisIndex,feedback_loop.ran,stage1_trials.thisRepN,stage1_trials.thisTrialN,stage1_trials.thisN,stage1_trials.thisIndex,stage1_trials.ran,cue1,cue2,cue3,outcome,correct_out,o1_feedback,o2_feedback,stage2_feedback_loop.thisRepN,stage2_feedback_loop.thisTrialN,stage2_feedback_loop.thisN,stage2_feedback_loop.thisIndex,stage2_feedback_loop.ran,stage2_trials.thisRepN,stage2_trials.thisTrialN,stage2_trials.thisN,stage2_trials.thisIndex,stage2_trials.ran,stage3_feedback_loop.thisRepN,stage3_feedback_loop.thisTrialN,stage3_feedback_loop.thisN,stage3_feedback_loop.thisIndex,stage3_feedback_loop.ran,stage3_trials.thisRepN,stage3_trials.thisTrialN,stage3_trials.thisN,stage3_trials.thisIndex,stage3_trials.ran,debrief_2.started,debrief_2.stopped,debrief_loop.thisRepN,debrief_loop.thisTrialN,debrief_loop.thisN,debrief_loop.thisIndex,debrief_loop.ran,debrief_img,compr1_completed.thisRepN,compr1_completed.thisTrialN,compr1_completed.thisN,compr1_completed.thisIndex,compr1_completed.ran,consent_loop.thisRepN,consent_loop.thisTrialN,consent_loop.thisN,consent_loop.thisIndex,consent_loop.ran
0.0031,0.0033,60d6e2dd110d9cbe0c20bbc7,38,female,2024-04-24_12h32.11.100,stockport_simplified,2022.2.4,Win32,60.24096386,661e456ee6de07e70aa9ef7b,6628df87fe62ea28a6a7467d,,,,,,,,,,,,,,,,,,,,,,,,,,,,,,,,,,,,,,,,,,,,,,,,,,,,,,,,,,,,,,,,,,,,,,,,,,,,,,,,,,,,,,,,,,,,,,,,,,,,,,,,,
,,60d6e2dd110d9cbe0c20bbc7,38,female,2024-04-24_12h32.11.100,stockport_simplified,2022.2.4,Win32,60.24096386,661e456ee6de07e70aa9ef7b,6628df87fe62ea28a6a7467d,0.0169,940.171,0,0,0,0,1,instructions/info1.png,,,,,,,,,,,,,,,,,,,,,,,,,,,,,,,,,,,,,,,,,,,,,,,,,,,,,,,,,,,,,,,,,,,,,,,,,,,,,,,,,,,,,,,,,,,,,,,,,
,,60d6e2dd110d9cbe0c20bbc7,38,female,2024-04-24_12h32.11.100,stockport_simplified,2022.2.4,Win32,60.24096386,661e456ee6de07e70aa9ef7b,6628df87fe62ea28a6a7467d,940.1717,943.3666,0,1,1,1,1,instructions/info2.png,,,,,,,,,,,,,,,,,,,,,,,,,,,,,,,,,,,,,,,,,,,,,,,,,,,,,,,,,,,,,,,,,,,,,,,,,,,,,,,,,,,,,,,,,,,,,,,,,
,,60d6e2dd110d9cbe0c20bbc7,38,female,2024-04-24_12h32.11.100,stockport_simplified,2022.2.4,Win32,60.24096386,661e456ee6de07e70aa9ef7b,6628df87fe62ea28a6a7467d,943.3672,945.7657,0,2,2,2,1,instructions/info3.png,,,,,,,,,,,,,,,,,,,,,,,,,,,,,,,,,,,,,,,,,,,,,,,,,,,,,,,,,,,,,,,,,,,,,,,,,,,,,,,,,,,,,,,,,,,,,,,,,
,,60d6e2dd110d9cbe0c20bbc7,38,female,2024-04-24_12h32.11.100,stockport_simplified,2022.2.4,Win32,60.24096386,661e456ee6de07e70aa9ef7b,6628df87fe62ea28a6a7467d,,,,,,,,,945.7667,963.2505,1,1,1,1,1,1,,,,,,,,,,,,,,,,,,,,,,,,,,,,,,,,,,,,,,,,,,,,,,,,,,,,,,,,,,,,,,,,,,,,,,,,,,,,,,,,,,,,,,,,,
,,60d6e2dd110d9cbe0c20bbc7,38,female,2024-04-24_12h32.11.100,stockport_simplified,2022.2.4,Win32,60.24096386,661e456ee6de07e70aa9ef7b,6628df87fe62ea28a6a7467d,,,,,,,,,,,,,,,,,963.259,990.0179,0,0,0,0,1,instructions/task1_1.png,,,,,,,,,,,,,,,,,,,,,,,,,,,,,,,,,,,,,,,,,,,,,,,,,,,,,,,,,,,,,,,,,,,,,,,,,,,,,,,,,
,,60d6e2dd110d9cbe0c20bbc7,38,female,2024-04-24_12h32.11.100,stockport_simplified,2022.2.4,Win32,60.24096386,661e456ee6de07e70aa9ef7b,6628df87fe62ea28a6a7467d,,,,,,,,,,,,,,,,,990.0245,1002.5965,0,1,1,1,1,instructions/task1_2.png,,,,,,,,,,,,,,,,,,,,,,,,,,,,,,,,,,,,,,,,,,,,,,,,,,,,,,,,,,,,,,,,,,,,,,,,,,,,,,,,,
,,60d6e2dd110d9cbe0c20bbc7,38,female,2024-04-24_12h32.11.100,stockport_simplified,2022.2.4,Win32,60.24096386,661e456ee6de07e70aa9ef7b,6628df87fe62ea28a6a7467d,,,,,,,,,,,,,,,,,1002.6031,1020.5405,0,2,2,2,1,instructions/task1_3.png,,,,,,,,,,,,,,,,,,,,,,,,,,,,,,,,,,,,,,,,,,,,,,,,,,,,,,,,,,,,,,,,,,,,,,,,,,,,,,,,,
,,60d6e2dd110d9cbe0c20bbc7,38,female,2024-04-24_12h32.11.100,stockport_simplified,2022.2.4,Win32,60.24096386,661e456ee6de07e70aa9ef7b,6628df87fe62ea28a6a7467d,,,,,,,,,,,,,,,,,,,,,,,,,1020.5413,1035.3361,-0.013888889,-0.317592593,1,0,0,14.7941,comp1_resp1,1035.3513,1037.8682,"[1,7,8,4,6,5,3,2]","[[-0.3,0.2],[0.3,0.2]]","[[-0.125,-0.2],[0.125,-0.2]]",-0.141666667,-0.19537037,1,0,0,2.0152,o1_image,1037.8691,1,1038.3686,1038.3688,1040.3671,0,0,0,0,1,,,,,,,,,,,,,,,,,,,,,,,,,,,,,,,,,,,,,,,,,,,,,,,,,,
,,60d6e2dd110d9cbe0c20bbc7,38,female,2024-04-24_12h32.11.100,stockport_simplified,2022.2.4,Win32,60.24096386,661e456ee6de07e70aa9ef7b,6628df87fe62ea28a6a7467d,,,,,,,,,,,,,,,,,,,,,,,,,,,,,,,,,,,,,,,,,,,,,,,,,,,,,,,,0,0,0,34,1,A,X,N,o1_image,stimuli/out1.png,stimuli/correct_out1.png,stimuli/out2.png,,,,,,,,,,,,,,,,,,,,,,,,,,,,,,,,,,,,,,
,,60d6e2dd110d9cbe0c20bbc7,38,female,2024-04-24_12h32.11.100,stockport_simplified,2022.2.4,Win32,60.24096386,661e456ee6de07e70aa9ef7b,6628df87fe62ea28a6a7467d,,,,,,,,,,,,,,,,,,,,,,,,,,,,,,,,,,1040.3676,1043.3658,"[1,7,8,4,6,5,3,2]","[[-0.3,0.2],[0.3,0.2]]","[[0.125,-0.2],[-0.125,-0.2]]",0.103703704,-0.180555556,1,0,0,2.4819,o1_image,1043.3722,0,1043.8659,1043.8659,1045.8652,0,0,0,0,1,,,,,,,,,,,,,,,,,,,,,,,,,,,,,,,,,,,,,,,,,,,,,,,,,,
,,60d6e2dd110d9cbe0c20bbc7,38,female,2024-04-24_12h32.11.100,stockport_simplified,2022.2.4,Win32,60.24096386,661e456ee6de07e70aa9ef7b,6628df87fe62ea28a6a7467d,,,,,,,,,,,,,,,,,,,,,,,,,,,,,,,,,,,,,,,,,,,,,,,,,,,,,,,,0,1,1,55,1,N,M,D,o2_image,stimuli/out2.png,stimuli/out1.png,stimuli/correct_out2.png,,,,,,,,,,,,,,,,,,,,,,,,,,,,,,,,,,,,,,
,,60d6e2dd110d9cbe0c20bbc7,38,female,2024-04-24_12h32.11.100,stockport_simplified,2022.2.4,Win32,60.24096386,661e456ee6de07e70aa9ef7b,6628df87fe62ea28a6a7467d,,,,,,,,,,,,,,,,,,,,,,,,,,,,,,,,,,1045.8655,1048.0478,"[1,7,8,4,6,5,3,2]","[[-0.3,0.2],[0.3,0.2]]","[[0.125,-0.2],[-0.125,-0.2]]",0.159259259,-0.166666667,1,0,0,1.6658,o1_image,1048.0484,0,1048.5376,1048.5377,1050.5301,0,0,0,0,1,,,,,,,,,,,,,,,,,,,,,,,,,,,,,,,,,,,,,,,,,,,,,,,,,,
,,60d6e2dd110d9cbe0c20bbc7,38,female,2024-04-24_12h32.11.100,stockport_simplified,2022.2.4,Win32,60.24096386,661e456ee6de07e70aa9ef7b,6628df87fe62ea28a6a7467d,,,,,,,,,,,,,,,,,,,,,,,,,,,,,,,,,,,,,,,,,,,,,,,,,,,,,,,,0,2,2,13,1,B,X,N,o2_image,stimuli/out2.png,stimuli/out1.png,stimuli/correct_out2.png,,,,,,,,,,,,,,,,,,,,,,,,,,,,,,,,,,,,,,
,,60d6e2dd110d9cbe0c20bbc7,38,female,2024-04-24_12h32.11.100,stockport_simplified,2022.2.4,Win32,60.24096386,661e456ee6de07e70aa9ef7b,6628df87fe62ea28a6a7467d,,,,,,,,,,,,,,,,,,,,,,,,,,,,,,,,,,1050.5304,1053.2127,"[1,7,8,4,6,5,3,2]","[[0.3,0.2],[-0.3,0.2]]","[[0.125,-0.2],[-0.125,-0.2]]",0.092592593,-0.216666667,1,0,0,2.1656,o1_image,1053.2134,1,1053.7126,1053.7126,1055.7119,0,0,0,0,1,,,,,,,,,,,,,,,,,,,,,,,,,,,,,,,,,,,,,,,,,,,,,,,,,,
,,60d6e2dd110d9cbe0c20bbc7,38,female,2024-04-24_12h32.11.100,stockport_simplified,2022.2.4,Win32,60.24096386,661e456ee6de07e70aa9ef7b,6628df87fe62ea28a6a7467d,,,,,,,,,,,,,,,,,,,,,,,,,,,,,,,,,,,,,,,,,,,,,,,,,,,,,,,,0,3,3,31,1,A,X,N,o1_image,stimuli/out1.png,stimuli/correct_out1.png,stimuli/out2.png,,,,,,,,,,,,,,,,,,,,,,,,,,,,,,,,,,,,,,
,,60d6e2dd110d9cbe0c20bbc7,38,female,2024-04-24_12h32.11.100,stockport_simplified,2022.2.4,Win32,60.24096386,661e456ee6de07e70aa9ef7b,6628df87fe62ea28a6a7467d,,,,,,,,,,,,,,,,,,,,,,,,,,,,,,,,,,1055.7121,1057.6445,"[1,7,8,4,6,5,3,2]","[[0.3,0.2],[-0.3,0.2]]","[[0.125,-0.2],[-0.125,-0.2]]",-0.066666667,-0.209259259,1,0,0,1.4158,o2_image,1057.6452,0,1058.1443,1058.1443,1060.1437,0,0,0,0,1,,,,,,,,,,,,,,,,,,,,,,,,,,,,,,,,,,,,,,,,,,,,,,,,,,
,,60d6e2dd110d9cbe0c20bbc7,38,female,2024-04-24_12h32.11.100,stockport_simplified,2022.2.4,Win32,60.24096386,661e456ee6de07e70aa9ef7b,6628df87fe62ea28a6a7467d,,,,,,,,,,,,,,,,,,,,,,,,,,,,,,,,,,,,,,,,,,,,,,,,,,,,,,,,0,4,4,24,1,N,M,C,o1_image,stimuli/out1.png,stimuli/correct_out1.png,stimuli/out2.png,,,,,,,,,,,,,,,,,,,,,,,,,,,,,,,,,,,,,,
,,60d6e2dd110d9cbe0c20bbc7,38,female,2024-04-24_12h32.11.100,stockport_simplified,2022.2.4,Win32,60.24096386,661e456ee6de07e70aa9ef7b,6628df87fe62ea28a6a7467d,,,,,,,,,,,,,,,,,,,,,,,,,,,,,,,,,,1060.1442,1063.615,"[1,7,8,4,6,5,3,2]","[[0.3,0.2],[-0.3,0.2]]","[[-0.125,-0.2],[0.125,-0.2]]",-0.114814815,-0.197222222,1,0,0,2.9542,o1_image,1063.621,1,1064.1089,1064.1089,1066.1083,0,0,0,0,1,,,,,,,,,,,,,,,,,,,,,,,,,,,,,,,,,,,,,,,,,,,,,,,,,,
,,60d6e2dd110d9cbe0c20bbc7,38,female,2024-04-24_12h32.11.100,stockport_simplified,2022.2.4,Win32,60.24096386,661e456ee6de07e70aa9ef7b,6628df87fe62ea28a6a7467d,,,,,,,,,,,,,,,,,,,,,,,,,,,,,,,,,,,,,,,,,,,,,,,,,,,,,,,,0,5,5,38,1,A,Y,N,o1_image,stimuli/out1.png,stimuli/correct_out1.png,stimuli/out2.png,,,,,,,,,,,,,,,,,,,,,,,,,,,,,,,,,,,,,,
,,60d6e2dd110d9cbe0c20bbc7,38,female,2024-04-24_12h32.11.100,stockport_simplified,2022.2.4,Win32,60.24096386,661e456ee6de07e70aa9ef7b,6628df87fe62ea28a6a7467d,,,,,,,,,,,,,,,,,,,,,,,,,,,,,,,,,,1066.1087,1069.1408,"[1,7,8,4,6,5,3,2]","[[-0.3,0.2],[0.3,0.2]]","[[-0.125,-0.2],[0.125,-0.2]]",-0.091666667,-0.189814815,1,0,0,2.5156,o1_image,1069.1415,1,1069.6406,1069.6406,1071.64,0,0,0,0,1,,,,,,,,,,,,,,,,,,,,,,,,,,,,,,,,,,,,,,,,,,,,,,,,,,
,,60d6e2dd110d9cbe0c20bbc7,38,female,2024-04-24_12h32.11.100,stockport_simplified,2022.2.4,Win32,60.24096386,661e456ee6de07e70aa9ef7b,6628df87fe62ea28a6a7467d,,,,,,,,,,,,,,,,,,,,,,,,,,,,,,,,,,,,,,,,,,,,,,,,,,,,,,,,0,6,6,2,1,A,X,N,o1_image,stimuli/out1.png,stimuli/correct_out1.png,stimuli/out2.png,,,,,,,,,,,,,,,,,,,,,,,,,,,,,,,,,,,,,,
,,60d6e2dd110d9cbe0c20bbc7,38,female,2024-04-24_12h32.11.100,stockport_simplified,2022.2.4,Win32,60.24096386,661e456ee6de07e70aa9ef7b,6628df87fe62ea28a6a7467d,,,,,,,,,,,,,,,,,,,,,,,,,,,,,,,,,,1071.6405,1075.1386,"[1,7,8,4,6,5,3,2]","[[-0.3,0.2],[0.3,0.2]]","[[0.125,-0.2],[-0.125,-0.2]]",0.094444444,-0.214814815,1,0,0,2.9811,o1_image,1075.139,0,1075.6382,1075.6382,1077.6377,0,0,0,0,1,,,,,,,,,,,,,,,,,,,,,,,,,,,,,,,,,,,,,,,,,,,,,,,,,,
,,60d6e2dd110d9cbe0c20bbc7,38,female,2024-04-24_12h32.11.100,stockport_simplified,2022.2.4,Win32,60.24096386,661e456ee6de07e70aa9ef7b,6628df87fe62ea28a6a7467d,,,,,,,,,,,,,,,,,,,,,,,,,,,,,,,,,,,,,,,,,,,,,,,,,,,,,,,,0,7,7,16,1,B,Y,N,o2_image,stimuli/out2.png,stimuli/out1.png,stimuli/correct_out2.png,,,,,,,,,,,,,,,,,,,,,,,,,,,,,,,,,,,,,,
,,60d6e2dd110d9cbe0c20bbc7,38,female,2024-04-24_12h32.11.100,stockport_simplified,2022.2.4,Win32,60.24096386,661e456ee6de07e70aa9ef7b,6628df87fe62ea28a6a7467d,,,,,,,,,,,,,,,,,,,,,,,,,,,,,,,,,,1077.6381,1079.8538,"[1,7,8,4,6,5,3,2]","[[0.3,0.2],[-0.3,0.2]]","[[-0.125,-0.2],[0.125,-0.2]]",0.068518519,-0.185185185,1,0,0,1.6988,o2_image,1079.8546,0,1080.3536,1080.3536,1082.3422,0,0,0,0,1,,,,,,,,,,,,,,,,,,,,,,,,,,,,,,,,,,,,,,,,,,,,,,,,,,
,,60d6e2dd110d9cbe0c20bbc7,38,female,2024-04-24_12h32.11.100,stockport_simplified,2022.2.4,Win32,60.24096386,661e456ee6de07e70aa9ef7b,6628df87fe62ea28a6a7467d,,,,,,,,,,,,,,,,,,,,,,,,,,,,,,,,,,,,,,,,,,,,,,,,,,,,,,,,0,8,8,21,1,N,M,C,o1_image,stimuli/out1.png,stimuli/correct_out1.png,stimuli/out2.png,,,,,,,,,,,,,,,,,,,,,,,,,,,,,,,,,,,,,,
,,60d6e2dd110d9cbe0c20bbc7,38,female,2024-04-24_12h32.11.100,stockport_simplified,2022.2.4,Win32,60.24096386,661e456ee6de07e70aa9ef7b,6628df87fe62ea28a6a7467d,,,,,,,,,,,,,,,,,,,,,,,,,,,,,,,,,,1082.3425,1085.3255,"[1,7,8,4,6,5,3,2]","[[-0.3,0.2],[0.3,0.2]]","[[0.125,-0.2],[-0.125,-0.2]]",0.158333333,-0.199074074,1,0,0,2.4666,o1_image,1085.326,1,1085.8182,1085.8182,1087.8079,0,0,0,0,1,,,,,,,,,,,,,,,,,,,,,,,,,,,,,,,,,,,,,,,,,,,,,,,,,,
,,60d6e2dd110d9cbe0c20bbc7,38,female,2024-04-24_12h32.11.100,stockport_simplified,2022.2.4,Win32,60.24096386,661e456ee6de07e70aa9ef7b,6628df87fe62ea28a6a7467d,,,,,,,,,,,,,,,,,,,,,,,,,,,,,,,,,,,,,,,,,,,,,,,,,,,,,,,,0,9,9,8,1,A,Y,N,o1_image,stimuli/out1.png,stimuli/correct_out1.png,stimuli/out2.png,,,,,,,,,,,,,,,,,,,,,,,,,,,,,,,,,,,,,,
,,60d6e2dd110d9cbe0c20bbc7,38,female,2024-04-24_12h32.11.100,stockport_simplified,2022.2.4,Win32,60.24096386,661e456ee6de07e70aa9ef7b,6628df87fe62ea28a6a7467d,,,,,,,,,,,,,,,,,,,,,,,,,,,,,,,,,,1087.8083,1090.0502,"[1,7,8,4,6,5,3,2]","[[-0.3,0.2],[0.3,0.2]]","[[0.125,-0.2],[-0.125,-0.2]]",-0.056481481,-0.208333333,1,0,0,1.7272,o2_image,1090.0507,1,1090.55,1090.55,1092.5493,0,0,0,0,1,,,,,,,,,,,,,,,,,,,,,,,,,,,,,,,,,,,,,,,,,,,,,,,,,,
,,60d6e2dd110d9cbe0c20bbc7,38,female,2024-04-24_12h32.11.100,stockport_simplified,2022.2.4,Win32,60.24096386,661e456ee6de07e70aa9ef7b,6628df87fe62ea28a6a7467d,,,,,,,,,,,,,,,,,,,,,,,,,,,,,,,,,,,,,,,,,,,,,,,,,,,,,,,,0,10,10,40,1,B,X,N,o2_image,stimuli/out2.png,stimuli/out1.png,stimuli/correct_out2.png,,,,,,,,,,,,,,,,,,,,,,,,,,,,,,,,,,,,,,
,,60d6e2dd110d9cbe0c20bbc7,38,female,2024-04-24_12h32.11.100,stockport_simplified,2022.2.4,Win32,60.24096386,661e456ee6de07e70aa9ef7b,6628df87fe62ea28a6a7467d,,,,,,,,,,,,,,,,,,,,,,,,,,,,,,,,,,1092.5497,1095.3558,"[1,7,8,4,6,5,3,2]","[[-0.3,0.2],[0.3,0.2]]","[[-0.125,-0.2],[0.125,-0.2]]",0.188888889,-0.237962963,1,0,0,2.2899,o2_image,1095.3562,1,1095.8483,1095.8483,1097.8475,0,0,0,0,1,,,,,,,,,,,,,,,,,,,,,,,,,,,,,,,,,,,,,,,,,,,,,,,,,,
,,60d6e2dd110d9cbe0c20bbc7,38,female,2024-04-24_12h32.11.100,stockport_simplified,2022.2.4,Win32,60.24096386,661e456ee6de07e70aa9ef7b,6628df87fe62ea28a6a7467d,,,,,,,,,,,,,,,,,,,,,,,,,,,,,,,,,,,,,,,,,,,,,,,,,,,,,,,,0,11,11,41,1,B,X,N,o2_image,stimuli/out2.png,stimuli/out1.png,stimuli/correct_out2.png,,,,,,,,,,,,,,,,,,,,,,,,,,,,,,,,,,,,,,
,,60d6e2dd110d9cbe0c20bbc7,38,female,2024-04-24_12h32.11.100,stockport_simplified,2022.2.4,Win32,60.24096386,661e456ee6de07e70aa9ef7b,6628df87fe62ea28a6a7467d,,,,,,,,,,,,,,,,,,,,,,,,,,,,,,,,,,1097.8479,1100.5041,"[1,7,8,4,6,5,3,2]","[[0.3,0.2],[-0.3,0.2]]","[[0.125,-0.2],[-0.125,-0.2]]",0.099074074,-0.234259259,1,0,0,2.1397,o1_image,1100.5044,1,1100.9965,1100.9965,1103.0029,0,0,0,0,1,,,,,,,,,,,,,,,,,,,,,,,,,,,,,,,,,,,,,,,,,,,,,,,,,,
,,60d6e2dd110d9cbe0c20bbc7,38,female,2024-04-24_12h32.11.100,stockport_simplified,2022.2.4,Win32,60.24096386,661e456ee6de07e70aa9ef7b,6628df87fe62ea28a6a7467d,,,,,,,,,,,,,,,,,,,,,,,,,,,,,,,,,,,,,,,,,,,,,,,,,,,,,,,,0,12,12,4,1,A,X,N,o1_image,stimuli/out1.png,stimuli/correct_out1.png,stimuli/out2.png,,,,,,,,,,,,,,,,,,,,,,,,,,,,,,,,,,,,,,
,,60d6e2dd110d9cbe0c20bbc7,38,female,2024-04-24_12h32.11.100,stockport_simplified,2022.2.4,Win32,60.24096386,661e456ee6de07e70aa9ef7b,6628df87fe62ea28a6a7467d,,,,,,,,,,,,,,,,,,,,,,,,,,,,,,,,,,1103.0032,1105.6616,"[1,7,8,4,6,5,3,2]","[[-0.3,0.2],[0.3,0.2]]","[[0.125,-0.2],[-0.125,-0.2]]",0.150925926,-0.188888889,1,0,0,2.1439,o1_image,1105.6677,1,1106.1614,1106.1614,1108.1606,0,0,0,0,1,,,,,,,,,,,,,,,,,,,,,,,,,,,,,,,,,,,,,,,,,,,,,,,,,,
,,60d6e2dd110d9cbe0c20bbc7,38,female,2024-04-24_12h32.11.100,stockport_simplified,2022.2.4,Win32,60.24096386,661e456ee6de07e70aa9ef7b,6628df87fe62ea28a6a7467d,,,,,,,,,,,,,,,,,,,,,,,,,,,,,,,,,,,,,,,,,,,,,,,,,,,,,,,,0,13,13,37,1,A,Y,N,o1_image,stimuli/out1.png,stimuli/correct_out1.png,stimuli/out2.png,,,,,,,,,,,,,,,,,,,,,,,,,,,,,,,,,,,,,,
,,60d6e2dd110d9cbe0c20bbc7,38,female,2024-04-24_12h32.11.100,stockport_simplified,2022.2.4,Win32,60.24096386,661e456ee6de07e70aa9ef7b,6628df87fe62ea28a6a7467d,,,,,,,,,,,,,,,,,,,,,,,,,,,,,,,,,,1108.1609,1110.8265,"[1,7,8,4,6,5,3,2]","[[0.3,0.2],[-0.3,0.2]]","[[-0.125,-0.2],[0.125,-0.2]]",0.155555556,-0.194444444,1,0,0,2.1426,o2_image,1110.8271,0,1111.3263,1111.3263,1113.3254,0,0,0,0,1,,,,,,,,,,,,,,,,,,,,,,,,,,,,,,,,,,,,,,,,,,,,,,,,,,
,,60d6e2dd110d9cbe0c20bbc7,38,female,2024-04-24_12h32.11.100,stockport_simplified,2022.2.4,Win32,60.24096386,661e456ee6de07e70aa9ef7b,6628df87fe62ea28a6a7467d,,,,,,,,,,,,,,,,,,,,,,,,,,,,,,,,,,,,,,,,,,,,,,,,,,,,,,,,0,14,14,6,1,A,Y,N,o1_image,stimuli/out1.png,stimuli/correct_out1.png,stimuli/out2.png,,,,,,,,,,,,,,,,,,,,,,,,,,,,,,,,,,,,,,
,,60d6e2dd110d9cbe0c20bbc7,38,female,2024-04-24_12h32.11.100,stockport_simplified,2022.2.4,Win32,60.24096386,661e456ee6de07e70aa9ef7b,6628df87fe62ea28a6a7467d,,,,,,,,,,,,,,,,,,,,,,,,,,,,,,,,,,1113.3256,1117.2744,"[1,7,8,4,6,5,3,2]","[[0.3,0.2],[-0.3,0.2]]","[[-0.125,-0.2],[0.125,-0.2]]",0.093518519,-0.208333333,1,0,0,3.432,o2_image,1117.2805,0,1117.7741,1117.7741,1119.7735,0,0,0,0,1,,,,,,,,,,,,,,,,,,,,,,,,,,,,,,,,,,,,,,,,,,,,,,,,,,
,,60d6e2dd110d9cbe0c20bbc7,38,female,2024-04-24_12h32.11.100,stockport_simplified,2022.2.4,Win32,60.24096386,661e456ee6de07e70aa9ef7b,6628df87fe62ea28a6a7467d,,,,,,,,,,,,,,,,,,,,,,,,,,,,,,,,,,,,,,,,,,,,,,,,,,,,,,,,0,15,15,3,1,A,X,N,o1_image,stimuli/out1.png,stimuli/correct_out1.png,stimuli/out2.png,,,,,,,,,,,,,,,,,,,,,,,,,,,,,,,,,,,,,,
,,60d6e2dd110d9cbe0c20bbc7,38,female,2024-04-24_12h32.11.100,stockport_simplified,2022.2.4,Win32,60.24096386,661e456ee6de07e70aa9ef7b,6628df87fe62ea28a6a7467d,,,,,,,,,,,,,,,,,,,,,,,,,,,,,,,,,,1119.774,1122.3559,"[1,7,8,4,6,5,3,2]","[[0.3,0.2],[-0.3,0.2]]","[[-0.125,-0.2],[0.125,-0.2]]",0.134259259,-0.227777778,1,0,0,2.0758,o2_image,1122.3565,1,1122.8557,1122.8558,1124.8552,0,0,0,0,1,,,,,,,,,,,,,,,,,,,,,,,,,,,,,,,,,,,,,,,,,,,,,,,,,,
,,60d6e2dd110d9cbe0c20bbc7,38,female,2024-04-24_12h32.11.100,stockport_simplified,2022.2.4,Win32,60.24096386,661e456ee6de07e70aa9ef7b,6628df87fe62ea28a6a7467d,,,,,,,,,,,,,,,,,,,,,,,,,,,,,,,,,,,,,,,,,,,,,,,,,,,,,,,,0,16,16,12,1,B,X,N,o2_image,stimuli/out2.png,stimuli/out1.png,stimuli/correct_out2.png,,,,,,,,,,,,,,,,,,,,,,,,,,,,,,,,,,,,,,
,,60d6e2dd110d9cbe0c20bbc7,38,female,2024-04-24_12h32.11.100,stockport_simplified,2022.2.4,Win32,60.24096386,661e456ee6de07e70aa9ef7b,6628df87fe62ea28a6a7467d,,,,,,,,,,,,,,,,,,,,,,,,,,,,,,,,,,1124.8553,1127.4875,"[1,7,8,4,6,5,3,2]","[[0.3,0.2],[-0.3,0.2]]","[[0.125,-0.2],[-0.125,-0.2]]",-0.126851852,-0.187962963,1,0,0,2.1158,o2_image,1127.4881,1,1127.9777,1127.9777,1129.9771,0,0,0,0,1,,,,,,,,,,,,,,,,,,,,,,,,,,,,,,,,,,,,,,,,,,,,,,,,,,
,,60d6e2dd110d9cbe0c20bbc7,38,female,2024-04-24_12h32.11.100,stockport_simplified,2022.2.4,Win32,60.24096386,661e456ee6de07e70aa9ef7b,6628df87fe62ea28a6a7467d,,,,,,,,,,,,,,,,,,,,,,,,,,,,,,,,,,,,,,,,,,,,,,,,,,,,,,,,0,17,17,47,1,B,Y,N,o2_image,stimuli/out2.png,stimuli/out1.png,stimuli/correct_out2.png,,,,,,,,,,,,,,,,,,,,,,,,,,,,,,,,,,,,,,
,,60d6e2dd110d9cbe0c20bbc7,38,female,2024-04-24_12h32.11.100,stockport_simplified,2022.2.4,Win32,60.24096386,661e456ee6de07e70aa9ef7b,6628df87fe62ea28a6a7467d,,,,,,,,,,,,,,,,,,,,,,,,,,,,,,,,,,1129.9773,1133.3522,"[1,7,8,4,6,5,3,2]","[[0.3,0.2],[-0.3,0.2]]","[[-0.125,-0.2],[0.125,-0.2]]",-0.142592593,-0.175925926,1,0,0,2.8653,o1_image,1133.3527,1,1133.852,1133.852,1135.8571,0,0,0,0,1,,,,,,,,,,,,,,,,,,,,,,,,,,,,,,,,,,,,,,,,,,,,,,,,,,
,,60d6e2dd110d9cbe0c20bbc7,38,female,2024-04-24_12h32.11.100,stockport_simplified,2022.2.4,Win32,60.24096386,661e456ee6de07e70aa9ef7b,6628df87fe62ea28a6a7467d,,,,,,,,,,,,,,,,,,,,,,,,,,,,,,,,,,,,,,,,,,,,,,,,,,,,,,,,0,18,18,51,1,N,M,C,o1_image,stimuli/out1.png,stimuli/correct_out1.png,stimuli/out2.png,,,,,,,,,,,,,,,,,,,,,,,,,,,,,,,,,,,,,,
,,60d6e2dd110d9cbe0c20bbc7,38,female,2024-04-24_12h32.11.100,stockport_simplified,2022.2.4,Win32,60.24096386,661e456ee6de07e70aa9ef7b,6628df87fe62ea28a6a7467d,,,,,,,,,,,,,,,,,,,,,,,,,,,,,,,,,,1135.8574,1139.5334,"[1,7,8,4,6,5,3,2]","[[-0.3,0.2],[0.3,0.2]]","[[-0.125,-0.2],[0.125,-0.2]]",0.092592593,-0.206481481,1,0,0,3.1594,o2_image,1139.534,1,1140.0333,1140.0333,1142.0326,0,0,0,0,1,,,,,,,,,,,,,,,,,,,,,,,,,,,,,,,,,,,,,,,,,,,,,,,,,,
,,60d6e2dd110d9cbe0c20bbc7,38,female,2024-04-24_12h32.11.100,stockport_simplified,2022.2.4,Win32,60.24096386,661e456ee6de07e70aa9ef7b,6628df87fe62ea28a6a7467d,,,,,,,,,,,,,,,,,,,,,,,,,,,,,,,,,,,,,,,,,,,,,,,,,,,,,,,,0,19,19,26,1,N,M,D,o2_image,stimuli/out2.png,stimuli/out1.png,stimuli/correct_out2.png,,,,,,,,,,,,,,,,,,,,,,,,,,,,,,,,,,,,,,
,,60d6e2dd110d9cbe0c20bbc7,38,female,2024-04-24_12h32.11.100,stockport_simplified,2022.2.4,Win32,60.24096386,661e456ee6de07e70aa9ef7b,6628df87fe62ea28a6a7467d,,,,,,,,,,,,,,,,,,,,,,,,,,,,,,,,,,1142.0328,1145.1149,"[1,7,8,4,6,5,3,2]","[[0.3,0.2],[-0.3,0.2]]","[[-0.125,-0.2],[0.125,-0.2]]",0.117592593,-0.202777778,1,0,0,2.5655,o2_image,1145.1155,1,1145.6146,1145.6147,1147.6035,0,0,0,0,1,,,,,,,,,,,,,,,,,,,,,,,,,,,,,,,,,,,,,,,,,,,,,,,,,,
,,60d6e2dd110d9cbe0c20bbc7,38,female,2024-04-24_12h32.11.100,stockport_simplified,2022.2.4,Win32,60.24096386,661e456ee6de07e70aa9ef7b,6628df87fe62ea28a6a7467d,,,,,,,,,,,,,,,,,,,,,,,,,,,,,,,,,,,,,,,,,,,,,,,,,,,,,,,,0,20,20,15,1,B,Y,N,o2_image,stimuli/out2.png,stimuli/out1.png,stimuli/correct_out2.png,,,,,,,,,,,,,,,,,,,,,,,,,,,,,,,,,,,,,,
,,60d6e2dd110d9cbe0c20bbc7,38,female,2024-04-24_12h32.11.100,stockport_simplified,2022.2.4,Win32,60.24096386,661e456ee6de07e70aa9ef7b,6628df87fe62ea28a6a7467d,,,,,,,,,,,,,,,,,,,,,,,,,,,,,,,,,,1147.6039,1150.0632,"[1,7,8,4,6,5,3,2]","[[-0.3,0.2],[0.3,0.2]]","[[-0.125,-0.2],[0.125,-0.2]]",-0.132407407,-0.200925926,1,0,0,1.9489,o1_image,1150.0698,1,1150.563,1150.5631,1152.5691,0,0,0,0,1,,,,,,,,,,,,,,,,,,,,,,,,,,,,,,,,,,,,,,,,,,,,,,,,,,
,,60d6e2dd110d9cbe0c20bbc7,38,female,2024-04-24_12h32.11.100,stockport_simplified,2022.2.4,Win32,60.24096386,661e456ee6de07e70aa9ef7b,6628df87fe62ea28a6a7467d,,,,,,,,,,,,,,,,,,,,,,,,,,,,,,,,,,,,,,,,,,,,,,,,,,,,,,,,0,21,21,20,1,N,M,C,o1_image,stimuli/out1.png,stimuli/correct_out1.png,stimuli/out2.png,,,,,,,,,,,,,,,,,,,,,,,,,,,,,,,,,,,,,,
,,60d6e2dd110d9cbe0c20bbc7,38,female,2024-04-24_12h32.11.100,stockport_simplified,2022.2.4,Win32,60.24096386,661e456ee6de07e70aa9ef7b,6628df87fe62ea28a6a7467d,,,,,,,,,,,,,,,,,,,,,,,,,,,,,,,,,,1152.5694,1154.6116,"[1,7,8,4,6,5,3,2]","[[-0.3,0.2],[0.3,0.2]]","[[0.125,-0.2],[-0.125,-0.2]]",0.135185185,-0.262962963,1,0,0,1.5328,o1_image,1154.6122,1,1155.1114,1155.1115,1157.1107,0,0,0,0,1,,,,,,,,,,,,,,,,,,,,,,,,,,,,,,,,,,,,,,,,,,,,,,,,,,
,,60d6e2dd110d9cbe0c20bbc7,38,female,2024-04-24_12h32.11.100,stockport_simplified,2022.2.4,Win32,60.24096386,661e456ee6de07e70aa9ef7b,6628df87fe62ea28a6a7467d,,,,,,,,,,,,,,,,,,,,,,,,,,,,,,,,,,,,,,,,,,,,,,,,,,,,,,,,0,22,22,53,1,N,M,C,o1_image,stimuli/out1.png,stimuli/correct_out1.png,stimuli/out2.png,,,,,,,,,,,,,,,,,,,,,,,,,,,,,,,,,,,,,,
,,60d6e2dd110d9cbe0c20bbc7,38,female,2024-04-24_12h32.11.100,stockport_simplified,2022.2.4,Win32,60.24096386,661e456ee6de07e70aa9ef7b,6628df87fe62ea28a6a7467d,,,,,,,,,,,,,,,,,,,,,,,,,,,,,,,,,,1157.111,1159.7766,"[1,7,8,4,6,5,3,2]","[[0.3,0.2],[-0.3,0.2]]","[[-0.125,-0.2],[0.125,-0.2]]",0.162037037,-0.203703704,1,0,0,2.1591,o2_image,1159.7827,1,1160.2764,1160.2764,1162.266,0,0,0,0,1,,,,,,,,,,,,,,,,,,,,,,,,,,,,,,,,,,,,,,,,,,,,,,,,,,
,,60d6e2dd110d9cbe0c20bbc7,38,female,2024-04-24_12h32.11.100,stockport_simplified,2022.2.4,Win32,60.24096386,661e456ee6de07e70aa9ef7b,6628df87fe62ea28a6a7467d,,,,,,,,,,,,,,,,,,,,,,,,,,,,,,,,,,,,,,,,,,,,,,,,,,,,,,,,0,23,23,17,1,B,Y,N,o2_image,stimuli/out2.png,stimuli/out1.png,stimuli/correct_out2.png,,,,,,,,,,,,,,,,,,,,,,,,,,,,,,,,,,,,,,
,,60d6e2dd110d9cbe0c20bbc7,38,female,2024-04-24_12h32.11.100,stockport_simplified,2022.2.4,Win32,60.24096386,661e456ee6de07e70aa9ef7b,6628df87fe62ea28a6a7467d,,,,,,,,,,,,,,,,,,,,,,,,,,,,,,,,,,1162.2664,1164.7913,"[1,7,8,4,6,5,3,2]","[[0.3,0.2],[-0.3,0.2]]","[[0.125,-0.2],[-0.125,-0.2]]",0.118518519,-0.187037037,1,0,0,2.0156,o1_image,1164.7917,1,1165.2914,1165.2914,1167.2973,0,0,0,0,1,,,,,,,,,,,,,,,,,,,,,,,,,,,,,,,,,,,,,,,,,,,,,,,,,,
,,60d6e2dd110d9cbe0c20bbc7,38,female,2024-04-24_12h32.11.100,stockport_simplified,2022.2.4,Win32,60.24096386,661e456ee6de07e70aa9ef7b,6628df87fe62ea28a6a7467d,,,,,,,,,,,,,,,,,,,,,,,,,,,,,,,,,,,,,,,,,,,,,,,,,,,,,,,,0,24,24,36,1,A,Y,N,o1_image,stimuli/out1.png,stimuli/correct_out1.png,stimuli/out2.png,,,,,,,,,,,,,,,,,,,,,,,,,,,,,,,,,,,,,,
,,60d6e2dd110d9cbe0c20bbc7,38,female,2024-04-24_12h32.11.100,stockport_simplified,2022.2.4,Win32,60.24096386,661e456ee6de07e70aa9ef7b,6628df87fe62ea28a6a7467d,,,,,,,,,,,,,,,,,,,,,,,,,,,,,,,,,,1167.2977,1170.173,"[1,7,8,4,6,5,3,2]","[[0.3,0.2],[-0.3,0.2]]","[[-0.125,-0.2],[0.125,-0.2]]",0.116666667,-0.187962963,1,0,0,2.3622,o2_image,1170.1792,1,1170.6729,1170.6729,1172.6722,0,0,0,0,1,,,,,,,,,,,,,,,,,,,,,,,,,,,,,,,,,,,,,,,,,,,,,,,,,,
,,60d6e2dd110d9cbe0c20bbc7,38,female,2024-04-24_12h32.11.100,stockport_simplified,2022.2.4,Win32,60.24096386,661e456ee6de07e70aa9ef7b,6628df87fe62ea28a6a7467d,,,,,,,,,,,,,,,,,,,,,,,,,,,,,,,,,,,,,,,,,,,,,,,,,,,,,,,,0,25,25,46,1,B,Y,N,o2_image,stimuli/out2.png,stimuli/out1.png,stimuli/correct_out2.png,,,,,,,,,,,,,,,,,,,,,,,,,,,,,,,,,,,,,,
,,60d6e2dd110d9cbe0c20bbc7,38,female,2024-04-24_12h32.11.100,stockport_simplified,2022.2.4,Win32,60.24096386,661e456ee6de07e70aa9ef7b,6628df87fe62ea28a6a7467d,,,,,,,,,,,,,,,,,,,,,,,,,,,,,,,,,,1172.6724,1175.3046,"[1,7,8,4,6,5,3,2]","[[0.3,0.2],[-0.3,0.2]]","[[0.125,-0.2],[-0.125,-0.2]]",-0.060185185,-0.186111111,1,0,0,2.1155,o2_image,1175.3052,1,1175.8043,1175.8043,1177.804,0,0,0,0,1,,,,,,,,,,,,,,,,,,,,,,,,,,,,,,,,,,,,,,,,,,,,,,,,,,
,,60d6e2dd110d9cbe0c20bbc7,38,female,2024-04-24_12h32.11.100,stockport_simplified,2022.2.4,Win32,60.24096386,661e456ee6de07e70aa9ef7b,6628df87fe62ea28a6a7467d,,,,,,,,,,,,,,,,,,,,,,,,,,,,,,,,,,,,,,,,,,,,,,,,,,,,,,,,0,26,26,27,1,N,M,D,o2_image,stimuli/out2.png,stimuli/out1.png,stimuli/correct_out2.png,,,,,,,,,,,,,,,,,,,,,,,,,,,,,,,,,,,,,,
,,60d6e2dd110d9cbe0c20bbc7,38,female,2024-04-24_12h32.11.100,stockport_simplified,2022.2.4,Win32,60.24096386,661e456ee6de07e70aa9ef7b,6628df87fe62ea28a6a7467d,,,,,,,,,,,,,,,,,,,,,,,,,,,,,,,,,,1177.8046,1182.3754,"[1,7,8,4,6,5,3,2]","[[0.3,0.2],[-0.3,0.2]]","[[-0.125,-0.2],[0.125,-0.2]]",-0.102777778,-0.201851852,1,0,0,4.0548,o1_image,1182.3813,1,1182.8854,1182.8854,1184.8847,0,0,0,0,1,,,,,,,,,,,,,,,,,,,,,,,,,,,,,,,,,,,,,,,,,,,,,,,,,,
,,60d6e2dd110d9cbe0c20bbc7,38,female,2024-04-24_12h32.11.100,stockport_simplified,2022.2.4,Win32,60.24096386,661e456ee6de07e70aa9ef7b,6628df87fe62ea28a6a7467d,,,,,,,,,,,,,,,,,,,,,,,,,,,,,,,,,,,,,,,,,,,,,,,,,,,,,,,,0,27,27,32,1,A,X,N,o1_image,stimuli/out1.png,stimuli/correct_out1.png,stimuli/out2.png,,,,,,,,,,,,,,,,,,,,,,,,,,,,,,,,,,,,,,
,,60d6e2dd110d9cbe0c20bbc7,38,female,2024-04-24_12h32.11.100,stockport_simplified,2022.2.4,Win32,60.24096386,661e456ee6de07e70aa9ef7b,6628df87fe62ea28a6a7467d,,,,,,,,,,,,,,,,,,,,,,,,,,,,,,,,,,1184.885,1188.0502,"[1,7,8,4,6,5,3,2]","[[-0.3,0.2],[0.3,0.2]]","[[-0.125,-0.2],[0.125,-0.2]]",-0.062962963,-0.219444444,1,0,0,2.6487,o1_image,1188.0562,0,1188.5501,1188.5501,1190.5494,0,0,0,0,1,,,,,,,,,,,,,,,,,,,,,,,,,,,,,,,,,,,,,,,,,,,,,,,,,,
,,60d6e2dd110d9cbe0c20bbc7,38,female,2024-04-24_12h32.11.100,stockport_simplified,2022.2.4,Win32,60.24096386,661e456ee6de07e70aa9ef7b,6628df87fe62ea28a6a7467d,,,,,,,,,,,,,,,,,,,,,,,,,,,,,,,,,,,,,,,,,,,,,,,,,,,,,,,,0,28,28,49,1,B,Y,N,o2_image,stimuli/out2.png,stimuli/out1.png,stimuli/correct_out2.png,,,,,,,,,,,,,,,,,,,,,,,,,,,,,,,,,,,,,,
,,60d6e2dd110d9cbe0c20bbc7,38,female,2024-04-24_12h32.11.100,stockport_simplified,2022.2.4,Win32,60.24096386,661e456ee6de07e70aa9ef7b,6628df87fe62ea28a6a7467d,,,,,,,,,,,,,,,,,,,,,,,,,,,,,,,,,,1190.5496,1193.9048,"[1,7,8,4,6,5,3,2]","[[0.3,0.2],[-0.3,0.2]]","[[0.125,-0.2],[-0.125,-0.2]]",-0.163888889,-0.182407407,1,0,0,2.8389,o2_image,1193.911,1,1194.421,1194.421,1196.4203,0,0,0,0,1,,,,,,,,,,,,,,,,,,,,,,,,,,,,,,,,,,,,,,,,,,,,,,,,,,
,,60d6e2dd110d9cbe0c20bbc7,38,female,2024-04-24_12h32.11.100,stockport_simplified,2022.2.4,Win32,60.24096386,661e456ee6de07e70aa9ef7b,6628df87fe62ea28a6a7467d,,,,,,,,,,,,,,,,,,,,,,,,,,,,,,,,,,,,,,,,,,,,,,,,,,,,,,,,0,29,29,19,1,B,Y,N,o2_image,stimuli/out2.png,stimuli/out1.png,stimuli/correct_out2.png,,,,,,,,,,,,,,,,,,,,,,,,,,,,,,,,,,,,,,
,,60d6e2dd110d9cbe0c20bbc7,38,female,2024-04-24_12h32.11.100,stockport_simplified,2022.2.4,Win32,60.24096386,661e456ee6de07e70aa9ef7b,6628df87fe62ea28a6a7467d,,,,,,,,,,,,,,,,,,,,,,,,,,,,,,,,,,1196.4206,1199.163,"[1,7,8,4,6,5,3,2]","[[-0.3,0.2],[0.3,0.2]]","[[-0.125,-0.2],[0.125,-0.2]]",-0.124074074,-0.187037037,1,0,0,2.2324,o1_image,1199.1633,0,1199.6631,1199.6631,1201.669,0,0,0,0,1,,,,,,,,,,,,,,,,,,,,,,,,,,,,,,,,,,,,,,,,,,,,,,,,,,
,,60d6e2dd110d9cbe0c20bbc7,38,female,2024-04-24_12h32.11.100,stockport_simplified,2022.2.4,Win32,60.24096386,661e456ee6de07e70aa9ef7b,6628df87fe62ea28a6a7467d,,,,,,,,,,,,,,,,,,,,,,,,,,,,,,,,,,,,,,,,,,,,,,,,,,,,,,,,0,30,30,42,1,B,X,N,o2_image,stimuli/out2.png,stimuli/out1.png,stimuli/correct_out2.png,,,,,,,,,,,,,,,,,,,,,,,,,,,,,,,,,,,,,,
,,60d6e2dd110d9cbe0c20bbc7,38,female,2024-04-24_12h32.11.100,stockport_simplified,2022.2.4,Win32,60.24096386,661e456ee6de07e70aa9ef7b,6628df87fe62ea28a6a7467d,,,,,,,,,,,,,,,,,,,,,,,,,,,,,,,,,,1201.6693,1203.5688,"[1,7,8,4,6,5,3,2]","[[0.3,0.2],[-0.3,0.2]]","[[-0.125,-0.2],[0.125,-0.2]]",-0.111111111,-0.196296296,1,0,0,1.3895,o1_image,1203.5692,0,1204.0616,1204.0616,1206.0609,0,0,0,0,1,,,,,,,,,,,,,,,,,,,,,,,,,,,,,,,,,,,,,,,,,,,,,,,,,,
,,60d6e2dd110d9cbe0c20bbc7,38,female,2024-04-24_12h32.11.100,stockport_simplified,2022.2.4,Win32,60.24096386,661e456ee6de07e70aa9ef7b,6628df87fe62ea28a6a7467d,,,,,,,,,,,,,,,,,,,,,,,,,,,,,,,,,,,,,,,,,,,,,,,,,,,,,,,,0,31,31,25,1,N,M,D,o2_image,stimuli/out2.png,stimuli/out1.png,stimuli/correct_out2.png,,,,,,,,,,,,,,,,,,,,,,,,,,,,,,,,,,,,,,
,,60d6e2dd110d9cbe0c20bbc7,38,female,2024-04-24_12h32.11.100,stockport_simplified,2022.2.4,Win32,60.24096386,661e456ee6de07e70aa9ef7b,6628df87fe62ea28a6a7467d,,,,,,,,,,,,,,,,,,,,,,,,,,,,,,,,,,1206.0611,1208.3268,"[1,7,8,4,6,5,3,2]","[[-0.3,0.2],[0.3,0.2]]","[[0.125,-0.2],[-0.125,-0.2]]",0.097222222,-0.255555556,1,0,0,1.7424,o1_image,1208.3273,0,1208.8266,1208.8266,1210.8161,0,0,0,0,1,,,,,,,,,,,,,,,,,,,,,,,,,,,,,,,,,,,,,,,,,,,,,,,,,,
,,60d6e2dd110d9cbe0c20bbc7,38,female,2024-04-24_12h32.11.100,stockport_simplified,2022.2.4,Win32,60.24096386,661e456ee6de07e70aa9ef7b,6628df87fe62ea28a6a7467d,,,,,,,,,,,,,,,,,,,,,,,,,,,,,,,,,,,,,,,,,,,,,,,,,,,,,,,,0,32,32,43,1,B,X,N,o2_image,stimuli/out2.png,stimuli/out1.png,stimuli/correct_out2.png,,,,,,,,,,,,,,,,,,,,,,,,,,,,,,,,,,,,,,
,,60d6e2dd110d9cbe0c20bbc7,38,female,2024-04-24_12h32.11.100,stockport_simplified,2022.2.4,Win32,60.24096386,661e456ee6de07e70aa9ef7b,6628df87fe62ea28a6a7467d,,,,,,,,,,,,,,,,,,,,,,,,,,,,,,,,,,1210.8164,1214.9079,"[1,7,8,4,6,5,3,2]","[[-0.3,0.2],[0.3,0.2]]","[[0.125,-0.2],[-0.125,-0.2]]",-0.118518519,-0.169444444,1,0,0,3.582,o2_image,1214.914,1,1215.4077,1215.4077,1217.4071,0,0,0,0,1,,,,,,,,,,,,,,,,,,,,,,,,,,,,,,,,,,,,,,,,,,,,,,,,,,
,,60d6e2dd110d9cbe0c20bbc7,38,female,2024-04-24_12h32.11.100,stockport_simplified,2022.2.4,Win32,60.24096386,661e456ee6de07e70aa9ef7b,6628df87fe62ea28a6a7467d,,,,,,,,,,,,,,,,,,,,,,,,,,,,,,,,,,,,,,,,,,,,,,,,,,,,,,,,0,33,33,11,1,B,X,N,o2_image,stimuli/out2.png,stimuli/out1.png,stimuli/correct_out2.png,,,,,,,,,,,,,,,,,,,,,,,,,,,,,,,,,,,,,,
,,60d6e2dd110d9cbe0c20bbc7,38,female,2024-04-24_12h32.11.100,stockport_simplified,2022.2.4,Win32,60.24096386,661e456ee6de07e70aa9ef7b,6628df87fe62ea28a6a7467d,,,,,,,,,,,,,,,,,,,,,,,,,,,,,,,,,,1217.4073,1219.7726,"[1,7,8,4,6,5,3,2]","[[-0.3,0.2],[0.3,0.2]]","[[0.125,-0.2],[-0.125,-0.2]]",0.078703704,-0.211111111,1,0,0,1.8489,o1_image,1219.7729,1,1220.2727,1220.2728,1222.2721,0,0,0,0,1,,,,,,,,,,,,,,,,,,,,,,,,,,,,,,,,,,,,,,,,,,,,,,,,,,
,,60d6e2dd110d9cbe0c20bbc7,38,female,2024-04-24_12h32.11.100,stockport_simplified,2022.2.4,Win32,60.24096386,661e456ee6de07e70aa9ef7b,6628df87fe62ea28a6a7467d,,,,,,,,,,,,,,,,,,,,,,,,,,,,,,,,,,,,,,,,,,,,,,,,,,,,,,,,0,34,34,7,1,A,Y,N,o1_image,stimuli/out1.png,stimuli/correct_out1.png,stimuli/out2.png,,,,,,,,,,,,,,,,,,,,,,,,,,,,,,,,,,,,,,
,,60d6e2dd110d9cbe0c20bbc7,38,female,2024-04-24_12h32.11.100,stockport_simplified,2022.2.4,Win32,60.24096386,661e456ee6de07e70aa9ef7b,6628df87fe62ea28a6a7467d,,,,,,,,,,,,,,,,,,,,,,,,,,,,,,,,,,1222.2724,1224.5714,"[1,7,8,4,6,5,3,2]","[[-0.3,0.2],[0.3,0.2]]","[[-0.125,-0.2],[0.125,-0.2]]",-0.125925926,-0.167592593,1,0,0,1.7827,o1_image,1224.5719,1,1225.0711,1225.0711,1227.0702,0,0,0,0,1,,,,,,,,,,,,,,,,,,,,,,,,,,,,,,,,,,,,,,,,,,,,,,,,,,
,,60d6e2dd110d9cbe0c20bbc7,38,female,2024-04-24_12h32.11.100,stockport_simplified,2022.2.4,Win32,60.24096386,661e456ee6de07e70aa9ef7b,6628df87fe62ea28a6a7467d,,,,,,,,,,,,,,,,,,,,,,,,,,,,,,,,,,,,,,,,,,,,,,,,,,,,,,,,0,35,35,39,1,A,Y,N,o1_image,stimuli/out1.png,stimuli/correct_out1.png,stimuli/out2.png,,,,,,,,,,,,,,,,,,,,,,,,,,,,,,,,,,,,,,
,,60d6e2dd110d9cbe0c20bbc7,38,female,2024-04-24_12h32.11.100,stockport_simplified,2022.2.4,Win32,60.24096386,661e456ee6de07e70aa9ef7b,6628df87fe62ea28a6a7467d,,,,,,,,,,,,,,,,,,,,,,,,,,,,,,,,,,1227.0705,1229.0697,"[1,7,8,4,6,5,3,2]","[[0.3,0.2],[-0.3,0.2]]","[[0.125,-0.2],[-0.125,-0.2]]",0.150925926,-0.185185185,1,0,0,1.4824,o1_image,1229.0702,1,1229.5779,1229.5779,1231.5687,0,0,0,0,1,,,,,,,,,,,,,,,,,,,,,,,,,,,,,,,,,,,,,,,,,,,,,,,,,,
,,60d6e2dd110d9cbe0c20bbc7,38,female,2024-04-24_12h32.11.100,stockport_simplified,2022.2.4,Win32,60.24096386,661e456ee6de07e70aa9ef7b,6628df87fe62ea28a6a7467d,,,,,,,,,,,,,,,,,,,,,,,,,,,,,,,,,,,,,,,,,,,,,,,,,,,,,,,,0,36,36,50,1,N,M,C,o1_image,stimuli/out1.png,stimuli/correct_out1.png,stimuli/out2.png,,,,,,,,,,,,,,,,,,,,,,,,,,,,,,,,,,,,,,
,,60d6e2dd110d9cbe0c20bbc7,38,female,2024-04-24_12h32.11.100,stockport_simplified,2022.2.4,Win32,60.24096386,661e456ee6de07e70aa9ef7b,6628df87fe62ea28a6a7467d,,,,,,,,,,,,,,,,,,,,,,,,,,,,,,,,,,1231.569,1235.0678,"[1,7,8,4,6,5,3,2]","[[-0.3,0.2],[0.3,0.2]]","[[-0.125,-0.2],[0.125,-0.2]]",0.173148148,-0.177777778,1,0,0,2.9819,o2_image,1235.0739,0,1235.5675,1235.5676,1237.5563,0,0,0,0,1,,,,,,,,,,,,,,,,,,,,,,,,,,,,,,,,,,,,,,,,,,,,,,,,,,
,,60d6e2dd110d9cbe0c20bbc7,38,female,2024-04-24_12h32.11.100,stockport_simplified,2022.2.4,Win32,60.24096386,661e456ee6de07e70aa9ef7b,6628df87fe62ea28a6a7467d,,,,,,,,,,,,,,,,,,,,,,,,,,,,,,,,,,,,,,,,,,,,,,,,,,,,,,,,0,37,37,35,1,A,Y,N,o1_image,stimuli/out1.png,stimuli/correct_out1.png,stimuli/out2.png,,,,,,,,,,,,,,,,,,,,,,,,,,,,,,,,,,,,,,
,,60d6e2dd110d9cbe0c20bbc7,38,female,2024-04-24_12h32.11.100,stockport_simplified,2022.2.4,Win32,60.24096386,661e456ee6de07e70aa9ef7b,6628df87fe62ea28a6a7467d,,,,,,,,,,,,,,,,,,,,,,,,,,,,,,,,,,1237.5566,1240.0158,"[1,7,8,4,6,5,3,2]","[[0.3,0.2],[-0.3,0.2]]","[[0.125,-0.2],[-0.125,-0.2]]",-0.072222222,-0.188888889,1,0,0,1.9489,o2_image,1240.0217,1,1240.5157,1240.5158,1242.5212,0,0,0,0,1,,,,,,,,,,,,,,,,,,,,,,,,,,,,,,,,,,,,,,,,,,,,,,,,,,
,,60d6e2dd110d9cbe0c20bbc7,38,female,2024-04-24_12h32.11.100,stockport_simplified,2022.2.4,Win32,60.24096386,661e456ee6de07e70aa9ef7b,6628df87fe62ea28a6a7467d,,,,,,,,,,,,,,,,,,,,,,,,,,,,,,,,,,,,,,,,,,,,,,,,,,,,,,,,0,38,38,45,1,B,Y,N,o2_image,stimuli/out2.png,stimuli/out1.png,stimuli/correct_out2.png,,,,,,,,,,,,,,,,,,,,,,,,,,,,,,,,,,,,,,
,,60d6e2dd110d9cbe0c20bbc7,38,female,2024-04-24_12h32.11.100,stockport_simplified,2022.2.4,Win32,60.24096386,661e456ee6de07e70aa9ef7b,6628df87fe62ea28a6a7467d,,,,,,,,,,,,,,,,,,,,,,,,,,,,,,,,,,1242.5216,1245.6642,"[1,7,8,4,6,5,3,2]","[[0.3,0.2],[-0.3,0.2]]","[[-0.125,-0.2],[0.125,-0.2]]",0.055555556,-0.181481481,1,0,0,2.6322,o2_image,1245.6647,0,1246.1687,1246.1687,1248.1633,0,0,0,0,1,,,,,,,,,,,,,,,,,,,,,,,,,,,,,,,,,,,,,,,,,,,,,,,,,,
,,60d6e2dd110d9cbe0c20bbc7,38,female,2024-04-24_12h32.11.100,stockport_simplified,2022.2.4,Win32,60.24096386,661e456ee6de07e70aa9ef7b,6628df87fe62ea28a6a7467d,,,,,,,,,,,,,,,,,,,,,,,,,,,,,,,,,,,,,,,,,,,,,,,,,,,,,,,,0,39,39,0,1,A,X,N,o1_image,stimuli/out1.png,stimuli/correct_out1.png,stimuli/out2.png,,,,,,,,,,,,,,,,,,,,,,,,,,,,,,,,,,,,,,
,,60d6e2dd110d9cbe0c20bbc7,38,female,2024-04-24_12h32.11.100,stockport_simplified,2022.2.4,Win32,60.24096386,661e456ee6de07e70aa9ef7b,6628df87fe62ea28a6a7467d,,,,,,,,,,,,,,,,,,,,,,,,,,,,,,,,,,1248.1636,1250.4792,"[1,7,8,4,6,5,3,2]","[[-0.3,0.2],[0.3,0.2]]","[[0.125,-0.2],[-0.125,-0.2]]",-0.086111111,-0.211111111,1,0,0,1.7991,o2_image,1250.4798,1,1250.9691,1250.9691,1252.9618,0,0,0,0,1,,,,,,,,,,,,,,,,,,,,,,,,,,,,,,,,,,,,,,,,,,,,,,,,,,
,,60d6e2dd110d9cbe0c20bbc7,38,female,2024-04-24_12h32.11.100,stockport_simplified,2022.2.4,Win32,60.24096386,661e456ee6de07e70aa9ef7b,6628df87fe62ea28a6a7467d,,,,,,,,,,,,,,,,,,,,,,,,,,,,,,,,,,,,,,,,,,,,,,,,,,,,,,,,0,40,40,56,1,N,M,D,o2_image,stimuli/out2.png,stimuli/out1.png,stimuli/correct_out2.png,,,,,,,,,,,,,,,,,,,,,,,,,,,,,,,,,,,,,,
,,60d6e2dd110d9cbe0c20bbc7,38,female,2024-04-24_12h32.11.100,stockport_simplified,2022.2.4,Win32,60.24096386,661e456ee6de07e70aa9ef7b,6628df87fe62ea28a6a7467d,,,,,,,,,,,,,,,,,,,,,,,,,,,,,,,,,,1252.9621,1255.2443,"[1,7,8,4,6,5,3,2]","[[-0.3,0.2],[0.3,0.2]]","[[0.125,-0.2],[-0.125,-0.2]]",0.127777778,-0.219444444,1,0,0,1.7657,o1_image,1255.2448,1,1255.7512,1255.7512,1257.7435,0,0,0,0,1,,,,,,,,,,,,,,,,,,,,,,,,,,,,,,,,,,,,,,,,,,,,,,,,,,
,,60d6e2dd110d9cbe0c20bbc7,38,female,2024-04-24_12h32.11.100,stockport_simplified,2022.2.4,Win32,60.24096386,661e456ee6de07e70aa9ef7b,6628df87fe62ea28a6a7467d,,,,,,,,,,,,,,,,,,,,,,,,,,,,,,,,,,,,,,,,,,,,,,,,,,,,,,,,0,41,41,5,1,A,Y,N,o1_image,stimuli/out1.png,stimuli/correct_out1.png,stimuli/out2.png,,,,,,,,,,,,,,,,,,,,,,,,,,,,,,,,,,,,,,
,,60d6e2dd110d9cbe0c20bbc7,38,female,2024-04-24_12h32.11.100,stockport_simplified,2022.2.4,Win32,60.24096386,661e456ee6de07e70aa9ef7b,6628df87fe62ea28a6a7467d,,,,,,,,,,,,,,,,,,,,,,,,,,,,,,,,,,1257.7437,1260.9923,"[1,7,8,4,6,5,3,2]","[[0.3,0.2],[-0.3,0.2]]","[[-0.125,-0.2],[0.125,-0.2]]",-0.090740741,-0.22037037,1,0,0,2.7321,o1_image,1260.9988,1,1261.4918,1261.4918,1263.4914,0,0,0,0,1,,,,,,,,,,,,,,,,,,,,,,,,,,,,,,,,,,,,,,,,,,,,,,,,,,
,,60d6e2dd110d9cbe0c20bbc7,38,female,2024-04-24_12h32.11.100,stockport_simplified,2022.2.4,Win32,60.24096386,661e456ee6de07e70aa9ef7b,6628df87fe62ea28a6a7467d,,,,,,,,,,,,,,,,,,,,,,,,,,,,,,,,,,,,,,,,,,,,,,,,,,,,,,,,0,42,42,33,1,A,X,N,o1_image,stimuli/out1.png,stimuli/correct_out1.png,stimuli/out2.png,,,,,,,,,,,,,,,,,,,,,,,,,,,,,,,,,,,,,,
,,60d6e2dd110d9cbe0c20bbc7,38,female,2024-04-24_12h32.11.100,stockport_simplified,2022.2.4,Win32,60.24096386,661e456ee6de07e70aa9ef7b,6628df87fe62ea28a6a7467d,,,,,,,,,,,,,,,,,,,,,,,,,,,,,,,,,,1263.4917,1266.3904,"[1,7,8,4,6,5,3,2]","[[-0.3,0.2],[0.3,0.2]]","[[0.125,-0.2],[-0.125,-0.2]]",0.082407407,-0.228703704,1,0,0,2.3822,o1_image,1266.3965,0,1266.8902,1266.8902,1268.8894,0,0,0,0,1,,,,,,,,,,,,,,,,,,,,,,,,,,,,,,,,,,,,,,,,,,,,,,,,,,
,,60d6e2dd110d9cbe0c20bbc7,38,female,2024-04-24_12h32.11.100,stockport_simplified,2022.2.4,Win32,60.24096386,661e456ee6de07e70aa9ef7b,6628df87fe62ea28a6a7467d,,,,,,,,,,,,,,,,,,,,,,,,,,,,,,,,,,,,,,,,,,,,,,,,,,,,,,,,0,43,43,48,1,B,Y,N,o2_image,stimuli/out2.png,stimuli/out1.png,stimuli/correct_out2.png,,,,,,,,,,,,,,,,,,,,,,,,,,,,,,,,,,,,,,
,,60d6e2dd110d9cbe0c20bbc7,38,female,2024-04-24_12h32.11.100,stockport_simplified,2022.2.4,Win32,60.24096386,661e456ee6de07e70aa9ef7b,6628df87fe62ea28a6a7467d,,,,,,,,,,,,,,,,,,,,,,,,,,,,,,,,,,1268.8897,1271.1555,"[1,7,8,4,6,5,3,2]","[[0.3,0.2],[-0.3,0.2]]","[[-0.125,-0.2],[0.125,-0.2]]",-0.078703704,-0.239814815,1,0,0,1.7491,o1_image,1271.1561,1,1271.6553,1271.6553,1273.6546,0,0,0,0,1,,,,,,,,,,,,,,,,,,,,,,,,,,,,,,,,,,,,,,,,,,,,,,,,,,
,,60d6e2dd110d9cbe0c20bbc7,38,female,2024-04-24_12h32.11.100,stockport_simplified,2022.2.4,Win32,60.24096386,661e456ee6de07e70aa9ef7b,6628df87fe62ea28a6a7467d,,,,,,,,,,,,,,,,,,,,,,,,,,,,,,,,,,,,,,,,,,,,,,,,,,,,,,,,0,44,44,22,1,N,M,C,o1_image,stimuli/out1.png,stimuli/correct_out1.png,stimuli/out2.png,,,,,,,,,,,,,,,,,,,,,,,,,,,,,,,,,,,,,,
,,60d6e2dd110d9cbe0c20bbc7,38,female,2024-04-24_12h32.11.100,stockport_simplified,2022.2.4,Win32,60.24096386,661e456ee6de07e70aa9ef7b,6628df87fe62ea28a6a7467d,,,,,,,,,,,,,,,,,,,,,,,,,,,,,,,,,,1273.6549,1275.5207,"[1,7,8,4,6,5,3,2]","[[0.3,0.2],[-0.3,0.2]]","[[-0.125,-0.2],[0.125,-0.2]]",-0.085185185,-0.240740741,1,0,0,1.3495,o1_image,1275.5214,1,1276.0205,1276.0205,1278.0198,0,0,0,0,1,,,,,,,,,,,,,,,,,,,,,,,,,,,,,,,,,,,,,,,,,,,,,,,,,,
,,60d6e2dd110d9cbe0c20bbc7,38,female,2024-04-24_12h32.11.100,stockport_simplified,2022.2.4,Win32,60.24096386,661e456ee6de07e70aa9ef7b,6628df87fe62ea28a6a7467d,,,,,,,,,,,,,,,,,,,,,,,,,,,,,,,,,,,,,,,,,,,,,,,,,,,,,,,,0,45,45,54,1,N,M,C,o1_image,stimuli/out1.png,stimuli/correct_out1.png,stimuli/out2.png,,,,,,,,,,,,,,,,,,,,,,,,,,,,,,,,,,,,,,
,,60d6e2dd110d9cbe0c20bbc7,38,female,2024-04-24_12h32.11.100,stockport_simplified,2022.2.4,Win32,60.24096386,661e456ee6de07e70aa9ef7b,6628df87fe62ea28a6a7467d,,,,,,,,,,,,,,,,,,,,,,,,,,,,,,,,,,1278.0201,1280.8355,"[1,7,8,4,6,5,3,2]","[[-0.3,0.2],[0.3,0.2]]","[[-0.125,-0.2],[0.125,-0.2]]",-0.085185185,-0.240740741,1,0,0,2.2991,o1_image,1280.8416,0,1281.3353,1281.3353,1283.3347,0,0,0,0,1,,,,,,,,,,,,,,,,,,,,,,,,,,,,,,,,,,,,,,,,,,,,,,,,,,
,,60d6e2dd110d9cbe0c20bbc7,38,female,2024-04-24_12h32.11.100,stockport_simplified,2022.2.4,Win32,60.24096386,661e456ee6de07e70aa9ef7b,6628df87fe62ea28a6a7467d,,,,,,,,,,,,,,,,,,,,,,,,,,,,,,,,,,,,,,,,,,,,,,,,,,,,,,,,0,46,46,18,1,B,Y,N,o2_image,stimuli/out2.png,stimuli/out1.png,stimuli/correct_out2.png,,,,,,,,,,,,,,,,,,,,,,,,,,,,,,,,,,,,,,
,,60d6e2dd110d9cbe0c20bbc7,38,female,2024-04-24_12h32.11.100,stockport_simplified,2022.2.4,Win32,60.24096386,661e456ee6de07e70aa9ef7b,6628df87fe62ea28a6a7467d,,,,,,,,,,,,,,,,,,,,,,,,,,,,,,,,,,1283.3349,1285.4542,"[1,7,8,4,6,5,3,2]","[[-0.3,0.2],[0.3,0.2]]","[[0.125,-0.2],[-0.125,-0.2]]",0.132407407,-0.259259259,1,0,0,1.6025,o1_image,1285.4545,1,1285.9505,1285.9505,1287.9497,0,0,0,0,1,,,,,,,,,,,,,,,,,,,,,,,,,,,,,,,,,,,,,,,,,,,,,,,,,,
,,60d6e2dd110d9cbe0c20bbc7,38,female,2024-04-24_12h32.11.100,stockport_simplified,2022.2.4,Win32,60.24096386,661e456ee6de07e70aa9ef7b,6628df87fe62ea28a6a7467d,,,,,,,,,,,,,,,,,,,,,,,,,,,,,,,,,,,,,,,,,,,,,,,,,,,,,,,,0,47,47,23,1,N,M,C,o1_image,stimuli/out1.png,stimuli/correct_out1.png,stimuli/out2.png,,,,,,,,,,,,,,,,,,,,,,,,,,,,,,,,,,,,,,
,,60d6e2dd110d9cbe0c20bbc7,38,female,2024-04-24_12h32.11.100,stockport_simplified,2022.2.4,Win32,60.24096386,661e456ee6de07e70aa9ef7b,6628df87fe62ea28a6a7467d,,,,,,,,,,,,,,,,,,,,,,,,,,,,,,,,,,1287.9502,1290.7988,"[1,7,8,4,6,5,3,2]","[[0.3,0.2],[-0.3,0.2]]","[[0.125,-0.2],[-0.125,-0.2]]",-0.059259259,-0.226851852,1,0,0,2.3321,o2_image,1290.8049,1,1291.2986,1291.2986,1293.298,0,0,0,0,1,,,,,,,,,,,,,,,,,,,,,,,,,,,,,,,,,,,,,,,,,,,,,,,,,,
,,60d6e2dd110d9cbe0c20bbc7,38,female,2024-04-24_12h32.11.100,stockport_simplified,2022.2.4,Win32,60.24096386,661e456ee6de07e70aa9ef7b,6628df87fe62ea28a6a7467d,,,,,,,,,,,,,,,,,,,,,,,,,,,,,,,,,,,,,,,,,,,,,,,,,,,,,,,,0,48,48,29,1,N,M,D,o2_image,stimuli/out2.png,stimuli/out1.png,stimuli/correct_out2.png,,,,,,,,,,,,,,,,,,,,,,,,,,,,,,,,,,,,,,
,,60d6e2dd110d9cbe0c20bbc7,38,female,2024-04-24_12h32.11.100,stockport_simplified,2022.2.4,Win32,60.24096386,661e456ee6de07e70aa9ef7b,6628df87fe62ea28a6a7467d,,,,,,,,,,,,,,,,,,,,,,,,,,,,,,,,,,1293.2983,1296.2971,"[1,7,8,4,6,5,3,2]","[[0.3,0.2],[-0.3,0.2]]","[[0.125,-0.2],[-0.125,-0.2]]",-0.085185185,-0.22037037,1,0,0,2.4822,o2_image,1296.3034,0,1296.7969,1296.7969,1298.7959,0,0,0,0,1,,,,,,,,,,,,,,,,,,,,,,,,,,,,,,,,,,,,,,,,,,,,,,,,,,
,,60d6e2dd110d9cbe0c20bbc7,38,female,2024-04-24_12h32.11.100,stockport_simplified,2022.2.4,Win32,60.24096386,661e456ee6de07e70aa9ef7b,6628df87fe62ea28a6a7467d,,,,,,,,,,,,,,,,,,,,,,,,,,,,,,,,,,,,,,,,,,,,,,,,,,,,,,,,0,49,49,30,1,A,X,N,o1_image,stimuli/out1.png,stimuli/correct_out1.png,stimuli/out2.png,,,,,,,,,,,,,,,,,,,,,,,,,,,,,,,,,,,,,,
,,60d6e2dd110d9cbe0c20bbc7,38,female,2024-04-24_12h32.11.100,stockport_simplified,2022.2.4,Win32,60.24096386,661e456ee6de07e70aa9ef7b,6628df87fe62ea28a6a7467d,,,,,,,,,,,,,,,,,,,,,,,,,,,,,,,,,,1298.7962,1301.0621,"[1,7,8,4,6,5,3,2]","[[0.3,0.2],[-0.3,0.2]]","[[0.125,-0.2],[-0.125,-0.2]]",0.071296296,-0.231481481,1,0,0,1.749,o1_image,1301.0627,1,1301.5619,1301.5619,1303.5612,0,0,0,0,1,,,,,,,,,,,,,,,,,,,,,,,,,,,,,,,,,,,,,,,,,,,,,,,,,,
,,60d6e2dd110d9cbe0c20bbc7,38,female,2024-04-24_12h32.11.100,stockport_simplified,2022.2.4,Win32,60.24096386,661e456ee6de07e70aa9ef7b,6628df87fe62ea28a6a7467d,,,,,,,,,,,,,,,,,,,,,,,,,,,,,,,,,,,,,,,,,,,,,,,,,,,,,,,,0,50,50,52,1,N,M,C,o1_image,stimuli/out1.png,stimuli/correct_out1.png,stimuli/out2.png,,,,,,,,,,,,,,,,,,,,,,,,,,,,,,,,,,,,,,
,,60d6e2dd110d9cbe0c20bbc7,38,female,2024-04-24_12h32.11.100,stockport_simplified,2022.2.4,Win32,60.24096386,661e456ee6de07e70aa9ef7b,6628df87fe62ea28a6a7467d,,,,,,,,,,,,,,,,,,,,,,,,,,,,,,,,,,1303.5616,1310.0591,"[1,7,8,4,6,5,3,2]","[[-0.3,0.2],[0.3,0.2]]","[[-0.125,-0.2],[0.125,-0.2]]",-0.083333333,-0.17962963,1,0,0,5.9808,o1_image,1310.0652,0,1310.5589,1310.5589,1312.5582,0,0,0,0,1,,,,,,,,,,,,,,,,,,,,,,,,,,,,,,,,,,,,,,,,,,,,,,,,,,
,,60d6e2dd110d9cbe0c20bbc7,38,female,2024-04-24_12h32.11.100,stockport_simplified,2022.2.4,Win32,60.24096386,661e456ee6de07e70aa9ef7b,6628df87fe62ea28a6a7467d,,,,,,,,,,,,,,,,,,,,,,,,,,,,,,,,,,,,,,,,,,,,,,,,,,,,,,,,0,51,51,10,1,B,X,N,o2_image,stimuli/out2.png,stimuli/out1.png,stimuli/correct_out2.png,,,,,,,,,,,,,,,,,,,,,,,,,,,,,,,,,,,,,,
,,60d6e2dd110d9cbe0c20bbc7,38,female,2024-04-24_12h32.11.100,stockport_simplified,2022.2.4,Win32,60.24096386,661e456ee6de07e70aa9ef7b,6628df87fe62ea28a6a7467d,,,,,,,,,,,,,,,,,,,,,,,,,,,,,,,,,,1312.5584,1314.3572,"[1,7,8,4,6,5,3,2]","[[0.3,0.2],[-0.3,0.2]]","[[-0.125,-0.2],[0.125,-0.2]]",-0.083333333,-0.192592593,1,0,0,1.2823,o1_image,1314.3577,0,1314.8573,1314.8574,1316.8636,0,0,0,0,1,,,,,,,,,,,,,,,,,,,,,,,,,,,,,,,,,,,,,,,,,,,,,,,,,,
,,60d6e2dd110d9cbe0c20bbc7,38,female,2024-04-24_12h32.11.100,stockport_simplified,2022.2.4,Win32,60.24096386,661e456ee6de07e70aa9ef7b,6628df87fe62ea28a6a7467d,,,,,,,,,,,,,,,,,,,,,,,,,,,,,,,,,,,,,,,,,,,,,,,,,,,,,,,,0,52,52,59,1,N,M,D,o2_image,stimuli/out2.png,stimuli/out1.png,stimuli/correct_out2.png,,,,,,,,,,,,,,,,,,,,,,,,,,,,,,,,,,,,,,
,,60d6e2dd110d9cbe0c20bbc7,38,female,2024-04-24_12h32.11.100,stockport_simplified,2022.2.4,Win32,60.24096386,661e456ee6de07e70aa9ef7b,6628df87fe62ea28a6a7467d,,,,,,,,,,,,,,,,,,,,,,,,,,,,,,,,,,1316.8638,1318.9464,"[1,7,8,4,6,5,3,2]","[[0.3,0.2],[-0.3,0.2]]","[[-0.125,-0.2],[0.125,-0.2]]",-0.083333333,-0.192592593,1,0,0,1.5729,o1_image,1318.9469,1,1319.4391,1319.4391,1321.4384,0,0,0,0,1,,,,,,,,,,,,,,,,,,,,,,,,,,,,,,,,,,,,,,,,,,,,,,,,,,
,,60d6e2dd110d9cbe0c20bbc7,38,female,2024-04-24_12h32.11.100,stockport_simplified,2022.2.4,Win32,60.24096386,661e456ee6de07e70aa9ef7b,6628df87fe62ea28a6a7467d,,,,,,,,,,,,,,,,,,,,,,,,,,,,,,,,,,,,,,,,,,,,,,,,,,,,,,,,0,53,53,9,1,A,Y,N,o1_image,stimuli/out1.png,stimuli/correct_out1.png,stimuli/out2.png,,,,,,,,,,,,,,,,,,,,,,,,,,,,,,,,,,,,,,
,,60d6e2dd110d9cbe0c20bbc7,38,female,2024-04-24_12h32.11.100,stockport_simplified,2022.2.4,Win32,60.24096386,661e456ee6de07e70aa9ef7b,6628df87fe62ea28a6a7467d,,,,,,,,,,,,,,,,,,,,,,,,,,,,,,,,,,1321.4387,1323.0785,"[1,7,8,4,6,5,3,2]","[[-0.3,0.2],[0.3,0.2]]","[[-0.125,-0.2],[0.125,-0.2]]",-0.083333333,-0.192592593,1,0,0,1.123,o1_image,1323.0789,0,1323.5711,1323.5711,1325.5704,0,0,0,0,1,,,,,,,,,,,,,,,,,,,,,,,,,,,,,,,,,,,,,,,,,,,,,,,,,,
,,60d6e2dd110d9cbe0c20bbc7,38,female,2024-04-24_12h32.11.100,stockport_simplified,2022.2.4,Win32,60.24096386,661e456ee6de07e70aa9ef7b,6628df87fe62ea28a6a7467d,,,,,,,,,,,,,,,,,,,,,,,,,,,,,,,,,,,,,,,,,,,,,,,,,,,,,,,,0,54,54,28,1,N,M,D,o2_image,stimuli/out2.png,stimuli/out1.png,stimuli/correct_out2.png,,,,,,,,,,,,,,,,,,,,,,,,,,,,,,,,,,,,,,
,,60d6e2dd110d9cbe0c20bbc7,38,female,2024-04-24_12h32.11.100,stockport_simplified,2022.2.4,Win32,60.24096386,661e456ee6de07e70aa9ef7b,6628df87fe62ea28a6a7467d,,,,,,,,,,,,,,,,,,,,,,,,,,,,,,,,,,1325.5706,1327.7697,"[1,7,8,4,6,5,3,2]","[[0.3,0.2],[-0.3,0.2]]","[[-0.125,-0.2],[0.125,-0.2]]",0.105555556,-0.227777778,1,0,0,1.6828,o2_image,1327.7701,1,1328.2694,1328.2694,1330.2687,0,0,0,0,1,,,,,,,,,,,,,,,,,,,,,,,,,,,,,,,,,,,,,,,,,,,,,,,,,,
,,60d6e2dd110d9cbe0c20bbc7,38,female,2024-04-24_12h32.11.100,stockport_simplified,2022.2.4,Win32,60.24096386,661e456ee6de07e70aa9ef7b,6628df87fe62ea28a6a7467d,,,,,,,,,,,,,,,,,,,,,,,,,,,,,,,,,,,,,,,,,,,,,,,,,,,,,,,,0,55,55,57,1,N,M,D,o2_image,stimuli/out2.png,stimuli/out1.png,stimuli/correct_out2.png,,,,,,,,,,,,,,,,,,,,,,,,,,,,,,,,,,,,,,
,,60d6e2dd110d9cbe0c20bbc7,38,female,2024-04-24_12h32.11.100,stockport_simplified,2022.2.4,Win32,60.24096386,661e456ee6de07e70aa9ef7b,6628df87fe62ea28a6a7467d,,,,,,,,,,,,,,,,,,,,,,,,,,,,,,,,,,1330.2689,1332.518,"[1,7,8,4,6,5,3,2]","[[0.3,0.2],[-0.3,0.2]]","[[0.125,-0.2],[-0.125,-0.2]]",-0.142592593,-0.237037037,1,0,0,1.7326,o2_image,1332.5187,1,1333.0179,1333.0179,1335.0172,0,0,0,0,1,,,,,,,,,,,,,,,,,,,,,,,,,,,,,,,,,,,,,,,,,,,,,,,,,,
,,60d6e2dd110d9cbe0c20bbc7,38,female,2024-04-24_12h32.11.100,stockport_simplified,2022.2.4,Win32,60.24096386,661e456ee6de07e70aa9ef7b,6628df87fe62ea28a6a7467d,,,,,,,,,,,,,,,,,,,,,,,,,,,,,,,,,,,,,,,,,,,,,,,,,,,,,,,,0,56,56,58,1,N,M,D,o2_image,stimuli/out2.png,stimuli/out1.png,stimuli/correct_out2.png,,,,,,,,,,,,,,,,,,,,,,,,,,,,,,,,,,,,,,
,,60d6e2dd110d9cbe0c20bbc7,38,female,2024-04-24_12h32.11.100,stockport_simplified,2022.2.4,Win32,60.24096386,661e456ee6de07e70aa9ef7b,6628df87fe62ea28a6a7467d,,,,,,,,,,,,,,,,,,,,,,,,,,,,,,,,,,1335.0175,1337.6902,"[1,7,8,4,6,5,3,2]","[[0.3,0.2],[-0.3,0.2]]","[[-0.125,-0.2],[0.125,-0.2]]",0.132407407,-0.168518519,1,0,0,2.1561,o2_image,1337.6906,1,1338.1828,1338.1829,1340.1819,0,0,0,0,1,,,,,,,,,,,,,,,,,,,,,,,,,,,,,,,,,,,,,,,,,,,,,,,,,,
,,60d6e2dd110d9cbe0c20bbc7,38,female,2024-04-24_12h32.11.100,stockport_simplified,2022.2.4,Win32,60.24096386,661e456ee6de07e70aa9ef7b,6628df87fe62ea28a6a7467d,,,,,,,,,,,,,,,,,,,,,,,,,,,,,,,,,,,,,,,,,,,,,,,,,,,,,,,,0,57,57,44,1,B,X,N,o2_image,stimuli/out2.png,stimuli/out1.png,stimuli/correct_out2.png,,,,,,,,,,,,,,,,,,,,,,,,,,,,,,,,,,,,,,
,,60d6e2dd110d9cbe0c20bbc7,38,female,2024-04-24_12h32.11.100,stockport_simplified,2022.2.4,Win32,60.24096386,661e456ee6de07e70aa9ef7b,6628df87fe62ea28a6a7467d,,,,,,,,,,,,,,,,,,,,,,,,,,,,,,,,,,1340.1822,1342.7479,"[1,7,8,4,6,5,3,2]","[[0.3,0.2],[-0.3,0.2]]","[[0.125,-0.2],[-0.125,-0.2]]",-0.160185185,-0.212962963,1,0,0,2.0461,o2_image,1342.7484,0,1343.2477,1343.2477,1345.254,0,0,0,0,1,,,,,,,,,,,,,,,,,,,,,,,,,,,,,,,,,,,,,,,,,,,,,,,,,,
,,60d6e2dd110d9cbe0c20bbc7,38,female,2024-04-24_12h32.11.100,stockport_simplified,2022.2.4,Win32,60.24096386,661e456ee6de07e70aa9ef7b,6628df87fe62ea28a6a7467d,,,,,,,,,,,,,,,,,,,,,,,,,,,,,,,,,,,,,,,,,,,,,,,,,,,,,,,,0,58,58,1,1,A,X,N,o1_image,stimuli/out1.png,stimuli/correct_out1.png,stimuli/out2.png,,,,,,,,,,,,,,,,,,,,,,,,,,,,,,,,,,,,,,
,,60d6e2dd110d9cbe0c20bbc7,38,female,2024-04-24_12h32.11.100,stockport_simplified,2022.2.4,Win32,60.24096386,661e456ee6de07e70aa9ef7b,6628df87fe62ea28a6a7467d,,,,,,,,,,,,,,,,,,,,,,,,,,,,,,,,,,1345.2543,1348.546,"[1,7,8,4,6,5,3,2]","[[-0.3,0.2],[0.3,0.2]]","[[-0.125,-0.2],[0.125,-0.2]]",0.065740741,-0.240740741,1,0,0,2.7822,o2_image,1348.5521,1,1349.0458,1349.0458,1351.0521,0,0,0,0,1,,,,,,,,,,,,,,,,,,,,,,,,,,,,,,,,,,,,,,,,,,,,,,,,,,
,,60d6e2dd110d9cbe0c20bbc7,38,female,2024-04-24_12h32.11.100,stockport_simplified,2022.2.4,Win32,60.24096386,661e456ee6de07e70aa9ef7b,6628df87fe62ea28a6a7467d,,,,,,,,,,,,,,,,,,,,,,,,,,,,,,,,,,,,,,,,,,,,,,,,,,,,,,,,0,59,59,14,1,B,X,N,o2_image,stimuli/out2.png,stimuli/out1.png,stimuli/correct_out2.png,,,,,,,,,,,,,,,,,,,,,,,,,,,,,,,,,,,,,,
,,60d6e2dd110d9cbe0c20bbc7,38,female,2024-04-24_12h32.11.100,stockport_simplified,2022.2.4,Win32,60.24096386,661e456ee6de07e70aa9ef7b,6628df87fe62ea28a6a7467d,,,,,,,,,,,,,,,,,,,,,,,,,,,,,,,,,,1351.0524,1354.0605,"[1,7,8,4,6,5,3,2]","[[-0.3,0.2],[0.3,0.2]]","[[-0.125,-0.2],[0.125,-0.2]]",-0.062962963,-0.211111111,1,0,0,2.4987,o1_image,1354.0607,1,1354.566,1354.566,1356.5599,0,0,0,0,1,,,,,,,,,,,,,,,,,,,,,,,,,,,,,,,,,,,,,,,,,,,,,,,,,,
,,60d6e2dd110d9cbe0c20bbc7,38,female,2024-04-24_12h32.11.100,stockport_simplified,2022.2.4,Win32,60.24096386,661e456ee6de07e70aa9ef7b,6628df87fe62ea28a6a7467d,,,,,,,,,,,,,,,,,,,,,,,,,,,,,,,,,,,,,,,,,,,,,,,,,,,,,,,,1,0,60,52,1,N,M,C,o1_image,stimuli/out1.png,stimuli/correct_out1.png,stimuli/out2.png,,,,,,,,,,,,,,,,,,,,,,,,,,,,,,,,,,,,,,
,,60d6e2dd110d9cbe0c20bbc7,38,female,2024-04-24_12h32.11.100,stockport_simplified,2022.2.4,Win32,60.24096386,661e456ee6de07e70aa9ef7b,6628df87fe62ea28a6a7467d,,,,,,,,,,,,,,,,,,,,,,,,,,,,,,,,,,1356.5601,1358.6926,"[1,7,8,4,6,5,3,2]","[[-0.3,0.2],[0.3,0.2]]","[[0.125,-0.2],[-0.125,-0.2]]",0.150925926,-0.162037037,1,0,0,1.6161,o1_image,1358.6931,1,1359.1924,1359.1924,1361.1916,0,0,0,0,1,,,,,,,,,,,,,,,,,,,,,,,,,,,,,,,,,,,,,,,,,,,,,,,,,,
,,60d6e2dd110d9cbe0c20bbc7,38,female,2024-04-24_12h32.11.100,stockport_simplified,2022.2.4,Win32,60.24096386,661e456ee6de07e70aa9ef7b,6628df87fe62ea28a6a7467d,,,,,,,,,,,,,,,,,,,,,,,,,,,,,,,,,,,,,,,,,,,,,,,,,,,,,,,,1,1,61,54,1,N,M,C,o1_image,stimuli/out1.png,stimuli/correct_out1.png,stimuli/out2.png,,,,,,,,,,,,,,,,,,,,,,,,,,,,,,,,,,,,,,
,,60d6e2dd110d9cbe0c20bbc7,38,female,2024-04-24_12h32.11.100,stockport_simplified,2022.2.4,Win32,60.24096386,661e456ee6de07e70aa9ef7b,6628df87fe62ea28a6a7467d,,,,,,,,,,,,,,,,,,,,,,,,,,,,,,,,,,1361.1919,1364.0907,"[1,7,8,4,6,5,3,2]","[[0.3,0.2],[-0.3,0.2]]","[[-0.125,-0.2],[0.125,-0.2]]",-0.109259259,-0.171296296,1,0,0,2.3825,o1_image,1364.0913,1,1364.5902,1364.5902,1366.5898,0,0,0,0,1,,,,,,,,,,,,,,,,,,,,,,,,,,,,,,,,,,,,,,,,,,,,,,,,,,
,,60d6e2dd110d9cbe0c20bbc7,38,female,2024-04-24_12h32.11.100,stockport_simplified,2022.2.4,Win32,60.24096386,661e456ee6de07e70aa9ef7b,6628df87fe62ea28a6a7467d,,,,,,,,,,,,,,,,,,,,,,,,,,,,,,,,,,,,,,,,,,,,,,,,,,,,,,,,1,2,62,1,1,A,X,N,o1_image,stimuli/out1.png,stimuli/correct_out1.png,stimuli/out2.png,,,,,,,,,,,,,,,,,,,,,,,,,,,,,,,,,,,,,,
,,60d6e2dd110d9cbe0c20bbc7,38,female,2024-04-24_12h32.11.100,stockport_simplified,2022.2.4,Win32,60.24096386,661e456ee6de07e70aa9ef7b,6628df87fe62ea28a6a7467d,,,,,,,,,,,,,,,,,,,,,,,,,,,,,,,,,,1366.5901,1368.8224,"[1,7,8,4,6,5,3,2]","[[-0.3,0.2],[0.3,0.2]]","[[-0.125,-0.2],[0.125,-0.2]]",-0.109259259,-0.171296296,1,0,0,1.7159,o1_image,1368.8229,0,1369.3223,1369.3223,1371.3216,0,0,0,0,1,,,,,,,,,,,,,,,,,,,,,,,,,,,,,,,,,,,,,,,,,,,,,,,,,,
,,60d6e2dd110d9cbe0c20bbc7,38,female,2024-04-24_12h32.11.100,stockport_simplified,2022.2.4,Win32,60.24096386,661e456ee6de07e70aa9ef7b,6628df87fe62ea28a6a7467d,,,,,,,,,,,,,,,,,,,,,,,,,,,,,,,,,,,,,,,,,,,,,,,,,,,,,,,,1,3,63,57,1,N,M,D,o2_image,stimuli/out2.png,stimuli/out1.png,stimuli/correct_out2.png,,,,,,,,,,,,,,,,,,,,,,,,,,,,,,,,,,,,,,
,,60d6e2dd110d9cbe0c20bbc7,38,female,2024-04-24_12h32.11.100,stockport_simplified,2022.2.4,Win32,60.24096386,661e456ee6de07e70aa9ef7b,6628df87fe62ea28a6a7467d,,,,,,,,,,,,,,,,,,,,,,,,,,,,,,,,,,1371.3218,1373.3709,"[1,7,8,4,6,5,3,2]","[[0.3,0.2],[-0.3,0.2]]","[[-0.125,-0.2],[0.125,-0.2]]",0.100925926,-0.22037037,1,0,0,1.5327,o2_image,1373.3714,1,1373.8775,1373.8775,1375.87,0,0,0,0,1,,,,,,,,,,,,,,,,,,,,,,,,,,,,,,,,,,,,,,,,,,,,,,,,,,
,,60d6e2dd110d9cbe0c20bbc7,38,female,2024-04-24_12h32.11.100,stockport_simplified,2022.2.4,Win32,60.24096386,661e456ee6de07e70aa9ef7b,6628df87fe62ea28a6a7467d,,,,,,,,,,,,,,,,,,,,,,,,,,,,,,,,,,,,,,,,,,,,,,,,,,,,,,,,1,4,64,16,1,B,Y,N,o2_image,stimuli/out2.png,stimuli/out1.png,stimuli/correct_out2.png,,,,,,,,,,,,,,,,,,,,,,,,,,,,,,,,,,,,,,
,,60d6e2dd110d9cbe0c20bbc7,38,female,2024-04-24_12h32.11.100,stockport_simplified,2022.2.4,Win32,60.24096386,661e456ee6de07e70aa9ef7b,6628df87fe62ea28a6a7467d,,,,,,,,,,,,,,,,,,,,,,,,,,,,,,,,,,1375.8703,1378.3023,"[1,7,8,4,6,5,3,2]","[[0.3,0.2],[-0.3,0.2]]","[[-0.125,-0.2],[0.125,-0.2]]",-0.063888889,-0.194444444,1,0,0,1.9154,o1_image,1378.3084,1,1378.8021,1378.8021,1380.8018,0,0,0,0,1,,,,,,,,,,,,,,,,,,,,,,,,,,,,,,,,,,,,,,,,,,,,,,,,,,
,,60d6e2dd110d9cbe0c20bbc7,38,female,2024-04-24_12h32.11.100,stockport_simplified,2022.2.4,Win32,60.24096386,661e456ee6de07e70aa9ef7b,6628df87fe62ea28a6a7467d,,,,,,,,,,,,,,,,,,,,,,,,,,,,,,,,,,,,,,,,,,,,,,,,,,,,,,,,1,5,65,21,1,N,M,C,o1_image,stimuli/out1.png,stimuli/correct_out1.png,stimuli/out2.png,,,,,,,,,,,,,,,,,,,,,,,,,,,,,,,,,,,,,,
,,60d6e2dd110d9cbe0c20bbc7,38,female,2024-04-24_12h32.11.100,stockport_simplified,2022.2.4,Win32,60.24096386,661e456ee6de07e70aa9ef7b,6628df87fe62ea28a6a7467d,,,,,,,,,,,,,,,,,,,,,,,,,,,,,,,,,,1380.8021,1383.8507,"[1,7,8,4,6,5,3,2]","[[-0.3,0.2],[0.3,0.2]]","[[0.125,-0.2],[-0.125,-0.2]]",-0.194444444,-0.298148148,1,0,0,2.532,o2_image,1383.8514,1,1384.3505,1384.3506,1386.3391,0,0,0,0,1,,,,,,,,,,,,,,,,,,,,,,,,,,,,,,,,,,,,,,,,,,,,,,,,,,
,,60d6e2dd110d9cbe0c20bbc7,38,female,2024-04-24_12h32.11.100,stockport_simplified,2022.2.4,Win32,60.24096386,661e456ee6de07e70aa9ef7b,6628df87fe62ea28a6a7467d,,,,,,,,,,,,,,,,,,,,,,,,,,,,,,,,,,,,,,,,,,,,,,,,,,,,,,,,1,6,66,14,1,B,X,N,o2_image,stimuli/out2.png,stimuli/out1.png,stimuli/correct_out2.png,,,,,,,,,,,,,,,,,,,,,,,,,,,,,,,,,,,,,,
,,60d6e2dd110d9cbe0c20bbc7,38,female,2024-04-24_12h32.11.100,stockport_simplified,2022.2.4,Win32,60.24096386,661e456ee6de07e70aa9ef7b,6628df87fe62ea28a6a7467d,,,,,,,,,,,,,,,,,,,,,,,,,,,,,,,,,,1386.3394,1388.772,"[1,7,8,4,6,5,3,2]","[[-0.3,0.2],[0.3,0.2]]","[[0.125,-0.2],[-0.125,-0.2]]",-0.131481481,-0.234259259,1,0,0,1.9163,o2_image,1388.7723,0,1389.2716,1389.2716,1391.2709,0,0,0,0,1,,,,,,,,,,,,,,,,,,,,,,,,,,,,,,,,,,,,,,,,,,,,,,,,,,
,,60d6e2dd110d9cbe0c20bbc7,38,female,2024-04-24_12h32.11.100,stockport_simplified,2022.2.4,Win32,60.24096386,661e456ee6de07e70aa9ef7b,6628df87fe62ea28a6a7467d,,,,,,,,,,,,,,,,,,,,,,,,,,,,,,,,,,,,,,,,,,,,,,,,,,,,,,,,1,7,67,6,1,A,Y,N,o1_image,stimuli/out1.png,stimuli/correct_out1.png,stimuli/out2.png,,,,,,,,,,,,,,,,,,,,,,,,,,,,,,,,,,,,,,
,,60d6e2dd110d9cbe0c20bbc7,38,female,2024-04-24_12h32.11.100,stockport_simplified,2022.2.4,Win32,60.24096386,661e456ee6de07e70aa9ef7b,6628df87fe62ea28a6a7467d,,,,,,,,,,,,,,,,,,,,,,,,,,,,,,,,,,1391.2712,1394.8197,"[1,7,8,4,6,5,3,2]","[[0.3,0.2],[-0.3,0.2]]","[[-0.125,-0.2],[0.125,-0.2]]",0.166666667,-0.242592593,1,0,0,3.0326,o2_image,1394.8267,0,1395.3194,1395.3195,1397.3187,0,0,0,0,1,,,,,,,,,,,,,,,,,,,,,,,,,,,,,,,,,,,,,,,,,,,,,,,,,,
,,60d6e2dd110d9cbe0c20bbc7,38,female,2024-04-24_12h32.11.100,stockport_simplified,2022.2.4,Win32,60.24096386,661e456ee6de07e70aa9ef7b,6628df87fe62ea28a6a7467d,,,,,,,,,,,,,,,,,,,,,,,,,,,,,,,,,,,,,,,,,,,,,,,,,,,,,,,,1,8,68,36,1,A,Y,N,o1_image,stimuli/out1.png,stimuli/correct_out1.png,stimuli/out2.png,,,,,,,,,,,,,,,,,,,,,,,,,,,,,,,,,,,,,,
,,60d6e2dd110d9cbe0c20bbc7,38,female,2024-04-24_12h32.11.100,stockport_simplified,2022.2.4,Win32,60.24096386,661e456ee6de07e70aa9ef7b,6628df87fe62ea28a6a7467d,,,,,,,,,,,,,,,,,,,,,,,,,,,,,,,,,,1397.3189,1399.6119,"[1,7,8,4,6,5,3,2]","[[0.3,0.2],[-0.3,0.2]]","[[-0.125,-0.2],[0.125,-0.2]]",-0.080555556,-0.17037037,1,0,0,1.7766,o1_image,1399.6124,0,1400.1021,1400.1021,1402.0944,0,0,0,0,1,,,,,,,,,,,,,,,,,,,,,,,,,,,,,,,,,,,,,,,,,,,,,,,,,,
,,60d6e2dd110d9cbe0c20bbc7,38,female,2024-04-24_12h32.11.100,stockport_simplified,2022.2.4,Win32,60.24096386,661e456ee6de07e70aa9ef7b,6628df87fe62ea28a6a7467d,,,,,,,,,,,,,,,,,,,,,,,,,,,,,,,,,,,,,,,,,,,,,,,,,,,,,,,,1,9,69,26,1,N,M,D,o2_image,stimuli/out2.png,stimuli/out1.png,stimuli/correct_out2.png,,,,,,,,,,,,,,,,,,,,,,,,,,,,,,,,,,,,,,
,,60d6e2dd110d9cbe0c20bbc7,38,female,2024-04-24_12h32.11.100,stockport_simplified,2022.2.4,Win32,60.24096386,661e456ee6de07e70aa9ef7b,6628df87fe62ea28a6a7467d,,,,,,,,,,,,,,,,,,,,,,,,,,,,,,,,,,1402.0947,1405.4598,"[1,7,8,4,6,5,3,2]","[[0.3,0.2],[-0.3,0.2]]","[[0.125,-0.2],[-0.125,-0.2]]",-0.12962963,-0.159259259,1,0,0,2.8487,o2_image,1405.4659,0,1405.9598,1405.9598,1407.966,0,0,0,0,1,,,,,,,,,,,,,,,,,,,,,,,,,,,,,,,,,,,,,,,,,,,,,,,,,,
,,60d6e2dd110d9cbe0c20bbc7,38,female,2024-04-24_12h32.11.100,stockport_simplified,2022.2.4,Win32,60.24096386,661e456ee6de07e70aa9ef7b,6628df87fe62ea28a6a7467d,,,,,,,,,,,,,,,,,,,,,,,,,,,,,,,,,,,,,,,,,,,,,,,,,,,,,,,,1,10,70,38,1,A,Y,N,o1_image,stimuli/out1.png,stimuli/correct_out1.png,stimuli/out2.png,,,,,,,,,,,,,,,,,,,,,,,,,,,,,,,,,,,,,,
,,60d6e2dd110d9cbe0c20bbc7,38,female,2024-04-24_12h32.11.100,stockport_simplified,2022.2.4,Win32,60.24096386,661e456ee6de07e70aa9ef7b,6628df87fe62ea28a6a7467d,,,,,,,,,,,,,,,,,,,,,,,,,,,,,,,,,,1407.9662,1411.0081,"[1,7,8,4,6,5,3,2]","[[0.3,0.2],[-0.3,0.2]]","[[-0.125,-0.2],[0.125,-0.2]]",-0.068518519,-0.192592593,1,0,0,2.532,o1_image,1411.0147,1,1411.5079,1411.508,1413.5073,0,0,0,0,1,,,,,,,,,,,,,,,,,,,,,,,,,,,,,,,,,,,,,,,,,,,,,,,,,,
,,60d6e2dd110d9cbe0c20bbc7,38,female,2024-04-24_12h32.11.100,stockport_simplified,2022.2.4,Win32,60.24096386,661e456ee6de07e70aa9ef7b,6628df87fe62ea28a6a7467d,,,,,,,,,,,,,,,,,,,,,,,,,,,,,,,,,,,,,,,,,,,,,,,,,,,,,,,,1,11,71,20,1,N,M,C,o1_image,stimuli/out1.png,stimuli/correct_out1.png,stimuli/out2.png,,,,,,,,,,,,,,,,,,,,,,,,,,,,,,,,,,,,,,
,,60d6e2dd110d9cbe0c20bbc7,38,female,2024-04-24_12h32.11.100,stockport_simplified,2022.2.4,Win32,60.24096386,661e456ee6de07e70aa9ef7b,6628df87fe62ea28a6a7467d,,,,,,,,,,,,,,,,,,,,,,,,,,,,,,,,,,1413.5075,1415.5899,"[1,7,8,4,6,5,3,2]","[[0.3,0.2],[-0.3,0.2]]","[[-0.125,-0.2],[0.125,-0.2]]",0.124074074,-0.20462963,1,0,0,1.5762,o2_image,1415.5905,1,1416.0965,1416.0965,1418.089,0,0,0,0,1,,,,,,,,,,,,,,,,,,,,,,,,,,,,,,,,,,,,,,,,,,,,,,,,,,
,,60d6e2dd110d9cbe0c20bbc7,38,female,2024-04-24_12h32.11.100,stockport_simplified,2022.2.4,Win32,60.24096386,661e456ee6de07e70aa9ef7b,6628df87fe62ea28a6a7467d,,,,,,,,,,,,,,,,,,,,,,,,,,,,,,,,,,,,,,,,,,,,,,,,,,,,,,,,1,12,72,25,1,N,M,D,o2_image,stimuli/out2.png,stimuli/out1.png,stimuli/correct_out2.png,,,,,,,,,,,,,,,,,,,,,,,,,,,,,,,,,,,,,,
,,60d6e2dd110d9cbe0c20bbc7,38,female,2024-04-24_12h32.11.100,stockport_simplified,2022.2.4,Win32,60.24096386,661e456ee6de07e70aa9ef7b,6628df87fe62ea28a6a7467d,,,,,,,,,,,,,,,,,,,,,,,,,,,,,,,,,,1418.0893,1421.6951,"[1,7,8,4,6,5,3,2]","[[-0.3,0.2],[0.3,0.2]]","[[0.125,-0.2],[-0.125,-0.2]]",-0.064814815,-0.175,1,0,0,3.0892,o2_image,1421.701,0,1422.2112,1422.2112,1424.2036,0,0,0,0,1,,,,,,,,,,,,,,,,,,,,,,,,,,,,,,,,,,,,,,,,,,,,,,,,,,
,,60d6e2dd110d9cbe0c20bbc7,38,female,2024-04-24_12h32.11.100,stockport_simplified,2022.2.4,Win32,60.24096386,661e456ee6de07e70aa9ef7b,6628df87fe62ea28a6a7467d,,,,,,,,,,,,,,,,,,,,,,,,,,,,,,,,,,,,,,,,,,,,,,,,,,,,,,,,1,13,73,53,1,N,M,C,o1_image,stimuli/out1.png,stimuli/correct_out1.png,stimuli/out2.png,,,,,,,,,,,,,,,,,,,,,,,,,,,,,,,,,,,,,,
,,60d6e2dd110d9cbe0c20bbc7,38,female,2024-04-24_12h32.11.100,stockport_simplified,2022.2.4,Win32,60.24096386,661e456ee6de07e70aa9ef7b,6628df87fe62ea28a6a7467d,,,,,,,,,,,,,,,,,,,,,,,,,,,,,,,,,,1424.2039,1428.5522,"[1,7,8,4,6,5,3,2]","[[0.3,0.2],[-0.3,0.2]]","[[0.125,-0.2],[-0.125,-0.2]]",-0.084259259,-0.187962963,1,0,0,3.8318,o2_image,1428.5583,0,1429.052,1429.052,1431.0583,0,0,0,0,1,,,,,,,,,,,,,,,,,,,,,,,,,,,,,,,,,,,,,,,,,,,,,,,,,,
,,60d6e2dd110d9cbe0c20bbc7,38,female,2024-04-24_12h32.11.100,stockport_simplified,2022.2.4,Win32,60.24096386,661e456ee6de07e70aa9ef7b,6628df87fe62ea28a6a7467d,,,,,,,,,,,,,,,,,,,,,,,,,,,,,,,,,,,,,,,,,,,,,,,,,,,,,,,,1,14,74,5,1,A,Y,N,o1_image,stimuli/out1.png,stimuli/correct_out1.png,stimuli/out2.png,,,,,,,,,,,,,,,,,,,,,,,,,,,,,,,,,,,,,,
,,60d6e2dd110d9cbe0c20bbc7,38,female,2024-04-24_12h32.11.100,stockport_simplified,2022.2.4,Win32,60.24096386,661e456ee6de07e70aa9ef7b,6628df87fe62ea28a6a7467d,,,,,,,,,,,,,,,,,,,,,,,,,,,,,,,,,,1431.0587,1434.9667,"[1,7,8,4,6,5,3,2]","[[-0.3,0.2],[0.3,0.2]]","[[0.125,-0.2],[-0.125,-0.2]]",-0.153703704,-0.224074074,1,0,0,3.3989,o2_image,1434.9728,1,1435.4664,1435.4664,1437.4658,0,0,0,0,1,,,,,,,,,,,,,,,,,,,,,,,,,,,,,,,,,,,,,,,,,,,,,,,,,,
,,60d6e2dd110d9cbe0c20bbc7,38,female,2024-04-24_12h32.11.100,stockport_simplified,2022.2.4,Win32,60.24096386,661e456ee6de07e70aa9ef7b,6628df87fe62ea28a6a7467d,,,,,,,,,,,,,,,,,,,,,,,,,,,,,,,,,,,,,,,,,,,,,,,,,,,,,,,,1,15,75,18,1,B,Y,N,o2_image,stimuli/out2.png,stimuli/out1.png,stimuli/correct_out2.png,,,,,,,,,,,,,,,,,,,,,,,,,,,,,,,,,,,,,,
,,60d6e2dd110d9cbe0c20bbc7,38,female,2024-04-24_12h32.11.100,stockport_simplified,2022.2.4,Win32,60.24096386,661e456ee6de07e70aa9ef7b,6628df87fe62ea28a6a7467d,,,,,,,,,,,,,,,,,,,,,,,,,,,,,,,,,,1437.466,1440.2819,"[1,7,8,4,6,5,3,2]","[[0.3,0.2],[-0.3,0.2]]","[[0.125,-0.2],[-0.125,-0.2]]",0.075,-0.22962963,1,0,0,2.2993,o1_image,1440.2823,1,1440.7814,1440.7814,1442.7805,0,0,0,0,1,,,,,,,,,,,,,,,,,,,,,,,,,,,,,,,,,,,,,,,,,,,,,,,,,,
,,60d6e2dd110d9cbe0c20bbc7,38,female,2024-04-24_12h32.11.100,stockport_simplified,2022.2.4,Win32,60.24096386,661e456ee6de07e70aa9ef7b,6628df87fe62ea28a6a7467d,,,,,,,,,,,,,,,,,,,,,,,,,,,,,,,,,,,,,,,,,,,,,,,,,,,,,,,,1,16,76,51,1,N,M,C,o1_image,stimuli/out1.png,stimuli/correct_out1.png,stimuli/out2.png,,,,,,,,,,,,,,,,,,,,,,,,,,,,,,,,,,,,,,
,,60d6e2dd110d9cbe0c20bbc7,38,female,2024-04-24_12h32.11.100,stockport_simplified,2022.2.4,Win32,60.24096386,661e456ee6de07e70aa9ef7b,6628df87fe62ea28a6a7467d,,,,,,,,,,,,,,,,,,,,,,,,,,,,,,,,,,1442.781,1445.7131,"[1,7,8,4,6,5,3,2]","[[-0.3,0.2],[0.3,0.2]]","[[0.125,-0.2],[-0.125,-0.2]]",0.094444444,-0.225925926,1,0,0,2.4155,o1_image,1445.7137,1,1446.2129,1446.213,1448.2123,0,0,0,0,1,,,,,,,,,,,,,,,,,,,,,,,,,,,,,,,,,,,,,,,,,,,,,,,,,,
,,60d6e2dd110d9cbe0c20bbc7,38,female,2024-04-24_12h32.11.100,stockport_simplified,2022.2.4,Win32,60.24096386,661e456ee6de07e70aa9ef7b,6628df87fe62ea28a6a7467d,,,,,,,,,,,,,,,,,,,,,,,,,,,,,,,,,,,,,,,,,,,,,,,,,,,,,,,,1,17,77,9,1,A,Y,N,o1_image,stimuli/out1.png,stimuli/correct_out1.png,stimuli/out2.png,,,,,,,,,,,,,,,,,,,,,,,,,,,,,,,,,,,,,,
,,60d6e2dd110d9cbe0c20bbc7,38,female,2024-04-24_12h32.11.100,stockport_simplified,2022.2.4,Win32,60.24096386,661e456ee6de07e70aa9ef7b,6628df87fe62ea28a6a7467d,,,,,,,,,,,,,,,,,,,,,,,,,,,,,,,,,,1448.2127,1450.828,"[1,7,8,4,6,5,3,2]","[[-0.3,0.2],[0.3,0.2]]","[[0.125,-0.2],[-0.125,-0.2]]",0.094444444,-0.225925926,1,0,0,2.0992,o1_image,1450.8341,1,1451.3278,1451.3279,1453.3272,0,0,0,0,1,,,,,,,,,,,,,,,,,,,,,,,,,,,,,,,,,,,,,,,,,,,,,,,,,,
,,60d6e2dd110d9cbe0c20bbc7,38,female,2024-04-24_12h32.11.100,stockport_simplified,2022.2.4,Win32,60.24096386,661e456ee6de07e70aa9ef7b,6628df87fe62ea28a6a7467d,,,,,,,,,,,,,,,,,,,,,,,,,,,,,,,,,,,,,,,,,,,,,,,,,,,,,,,,1,18,78,4,1,A,X,N,o1_image,stimuli/out1.png,stimuli/correct_out1.png,stimuli/out2.png,,,,,,,,,,,,,,,,,,,,,,,,,,,,,,,,,,,,,,
,,60d6e2dd110d9cbe0c20bbc7,38,female,2024-04-24_12h32.11.100,stockport_simplified,2022.2.4,Win32,60.24096386,661e456ee6de07e70aa9ef7b,6628df87fe62ea28a6a7467d,,,,,,,,,,,,,,,,,,,,,,,,,,,,,,,,,,1453.3275,1456.0596,"[1,7,8,4,6,5,3,2]","[[-0.3,0.2],[0.3,0.2]]","[[-0.125,-0.2],[0.125,-0.2]]",-0.153703704,-0.202777778,1,0,0,2.2159,o1_image,1456.0602,1,1456.5594,1456.5594,1458.5586,0,0,0,0,1,,,,,,,,,,,,,,,,,,,,,,,,,,,,,,,,,,,,,,,,,,,,,,,,,,
,,60d6e2dd110d9cbe0c20bbc7,38,female,2024-04-24_12h32.11.100,stockport_simplified,2022.2.4,Win32,60.24096386,661e456ee6de07e70aa9ef7b,6628df87fe62ea28a6a7467d,,,,,,,,,,,,,,,,,,,,,,,,,,,,,,,,,,,,,,,,,,,,,,,,,,,,,,,,1,19,79,2,1,A,X,N,o1_image,stimuli/out1.png,stimuli/correct_out1.png,stimuli/out2.png,,,,,,,,,,,,,,,,,,,,,,,,,,,,,,,,,,,,,,
,,60d6e2dd110d9cbe0c20bbc7,38,female,2024-04-24_12h32.11.100,stockport_simplified,2022.2.4,Win32,60.24096386,661e456ee6de07e70aa9ef7b,6628df87fe62ea28a6a7467d,,,,,,,,,,,,,,,,,,,,,,,,,,,,,,,,,,1458.5592,1460.9413,"[1,7,8,4,6,5,3,2]","[[-0.3,0.2],[0.3,0.2]]","[[0.125,-0.2],[-0.125,-0.2]]",0.085185185,-0.201851852,1,0,0,1.8655,o1_image,1460.9419,1,1461.4411,1461.4411,1463.4405,0,0,0,0,1,,,,,,,,,,,,,,,,,,,,,,,,,,,,,,,,,,,,,,,,,,,,,,,,,,
,,60d6e2dd110d9cbe0c20bbc7,38,female,2024-04-24_12h32.11.100,stockport_simplified,2022.2.4,Win32,60.24096386,661e456ee6de07e70aa9ef7b,6628df87fe62ea28a6a7467d,,,,,,,,,,,,,,,,,,,,,,,,,,,,,,,,,,,,,,,,,,,,,,,,,,,,,,,,1,20,80,24,1,N,M,C,o1_image,stimuli/out1.png,stimuli/correct_out1.png,stimuli/out2.png,,,,,,,,,,,,,,,,,,,,,,,,,,,,,,,,,,,,,,
,,60d6e2dd110d9cbe0c20bbc7,38,female,2024-04-24_12h32.11.100,stockport_simplified,2022.2.4,Win32,60.24096386,661e456ee6de07e70aa9ef7b,6628df87fe62ea28a6a7467d,,,,,,,,,,,,,,,,,,,,,,,,,,,,,,,,,,1463.4408,1466.2392,"[1,7,8,4,6,5,3,2]","[[0.3,0.2],[-0.3,0.2]]","[[0.125,-0.2],[-0.125,-0.2]]",0.15,-0.212962963,1,0,0,2.282,o1_image,1466.2395,1,1466.7393,1466.7393,1468.7386,0,0,0,0,1,,,,,,,,,,,,,,,,,,,,,,,,,,,,,,,,,,,,,,,,,,,,,,,,,,
,,60d6e2dd110d9cbe0c20bbc7,38,female,2024-04-24_12h32.11.100,stockport_simplified,2022.2.4,Win32,60.24096386,661e456ee6de07e70aa9ef7b,6628df87fe62ea28a6a7467d,,,,,,,,,,,,,,,,,,,,,,,,,,,,,,,,,,,,,,,,,,,,,,,,,,,,,,,,1,21,81,35,1,A,Y,N,o1_image,stimuli/out1.png,stimuli/correct_out1.png,stimuli/out2.png,,,,,,,,,,,,,,,,,,,,,,,,,,,,,,,,,,,,,,
,,60d6e2dd110d9cbe0c20bbc7,38,female,2024-04-24_12h32.11.100,stockport_simplified,2022.2.4,Win32,60.24096386,661e456ee6de07e70aa9ef7b,6628df87fe62ea28a6a7467d,,,,,,,,,,,,,,,,,,,,,,,,,,,,,,,,,,1468.739,1473.5037,"[1,7,8,4,6,5,3,2]","[[-0.3,0.2],[0.3,0.2]]","[[0.125,-0.2],[-0.125,-0.2]]",0.112962963,-0.203703704,1,0,0,4.2483,o1_image,1473.51,1,1474.0035,1474.0035,1476.0028,0,0,0,0,1,,,,,,,,,,,,,,,,,,,,,,,,,,,,,,,,,,,,,,,,,,,,,,,,,,
,,60d6e2dd110d9cbe0c20bbc7,38,female,2024-04-24_12h32.11.100,stockport_simplified,2022.2.4,Win32,60.24096386,661e456ee6de07e70aa9ef7b,6628df87fe62ea28a6a7467d,,,,,,,,,,,,,,,,,,,,,,,,,,,,,,,,,,,,,,,,,,,,,,,,,,,,,,,,1,22,82,32,1,A,X,N,o1_image,stimuli/out1.png,stimuli/correct_out1.png,stimuli/out2.png,,,,,,,,,,,,,,,,,,,,,,,,,,,,,,,,,,,,,,
,,60d6e2dd110d9cbe0c20bbc7,38,female,2024-04-24_12h32.11.100,stockport_simplified,2022.2.4,Win32,60.24096386,661e456ee6de07e70aa9ef7b,6628df87fe62ea28a6a7467d,,,,,,,,,,,,,,,,,,,,,,,,,,,,,,,,,,1476.0033,1480.9845,"[1,7,8,4,6,5,3,2]","[[-0.3,0.2],[0.3,0.2]]","[[-0.125,-0.2],[0.125,-0.2]]",0.067592593,-0.221296296,1,0,0,4.4647,o2_image,1480.9907,1,1481.4842,1481.4842,1483.4904,0,0,0,0,1,,,,,,,,,,,,,,,,,,,,,,,,,,,,,,,,,,,,,,,,,,,,,,,,,,
,,60d6e2dd110d9cbe0c20bbc7,38,female,2024-04-24_12h32.11.100,stockport_simplified,2022.2.4,Win32,60.24096386,661e456ee6de07e70aa9ef7b,6628df87fe62ea28a6a7467d,,,,,,,,,,,,,,,,,,,,,,,,,,,,,,,,,,,,,,,,,,,,,,,,,,,,,,,,1,23,83,56,1,N,M,D,o2_image,stimuli/out2.png,stimuli/out1.png,stimuli/correct_out2.png,,,,,,,,,,,,,,,,,,,,,,,,,,,,,,,,,,,,,,
,,60d6e2dd110d9cbe0c20bbc7,38,female,2024-04-24_12h32.11.100,stockport_simplified,2022.2.4,Win32,60.24096386,661e456ee6de07e70aa9ef7b,6628df87fe62ea28a6a7467d,,,,,,,,,,,,,,,,,,,,,,,,,,,,,,,,,,1483.4906,1485.8231,"[1,7,8,4,6,5,3,2]","[[-0.3,0.2],[0.3,0.2]]","[[-0.125,-0.2],[0.125,-0.2]]",0.134259259,-0.202777778,1,0,0,1.8228,o2_image,1485.8235,1,1486.3159,1486.3159,1488.3152,0,0,0,0,1,,,,,,,,,,,,,,,,,,,,,,,,,,,,,,,,,,,,,,,,,,,,,,,,,,
,,60d6e2dd110d9cbe0c20bbc7,38,female,2024-04-24_12h32.11.100,stockport_simplified,2022.2.4,Win32,60.24096386,661e456ee6de07e70aa9ef7b,6628df87fe62ea28a6a7467d,,,,,,,,,,,,,,,,,,,,,,,,,,,,,,,,,,,,,,,,,,,,,,,,,,,,,,,,1,24,84,15,1,B,Y,N,o2_image,stimuli/out2.png,stimuli/out1.png,stimuli/correct_out2.png,,,,,,,,,,,,,,,,,,,,,,,,,,,,,,,,,,,,,,
,,60d6e2dd110d9cbe0c20bbc7,38,female,2024-04-24_12h32.11.100,stockport_simplified,2022.2.4,Win32,60.24096386,661e456ee6de07e70aa9ef7b,6628df87fe62ea28a6a7467d,,,,,,,,,,,,,,,,,,,,,,,,,,,,,,,,,,1488.3156,1491.6474,"[1,7,8,4,6,5,3,2]","[[-0.3,0.2],[0.3,0.2]]","[[0.125,-0.2],[-0.125,-0.2]]",-0.137037037,-0.20462963,1,0,0,2.8085,o2_image,1491.6535,1,1492.1473,1492.1473,1494.1466,0,0,0,0,1,,,,,,,,,,,,,,,,,,,,,,,,,,,,,,,,,,,,,,,,,,,,,,,,,,
,,60d6e2dd110d9cbe0c20bbc7,38,female,2024-04-24_12h32.11.100,stockport_simplified,2022.2.4,Win32,60.24096386,661e456ee6de07e70aa9ef7b,6628df87fe62ea28a6a7467d,,,,,,,,,,,,,,,,,,,,,,,,,,,,,,,,,,,,,,,,,,,,,,,,,,,,,,,,1,25,85,48,1,B,Y,N,o2_image,stimuli/out2.png,stimuli/out1.png,stimuli/correct_out2.png,,,,,,,,,,,,,,,,,,,,,,,,,,,,,,,,,,,,,,
,,60d6e2dd110d9cbe0c20bbc7,38,female,2024-04-24_12h32.11.100,stockport_simplified,2022.2.4,Win32,60.24096386,661e456ee6de07e70aa9ef7b,6628df87fe62ea28a6a7467d,,,,,,,,,,,,,,,,,,,,,,,,,,,,,,,,,,1494.1468,1496.7794,"[1,7,8,4,6,5,3,2]","[[-0.3,0.2],[0.3,0.2]]","[[-0.125,-0.2],[0.125,-0.2]]",-0.111111111,-0.203703704,1,0,0,2.1161,o1_image,1496.7853,1,1497.2787,1497.2787,1499.2782,0,0,0,0,1,,,,,,,,,,,,,,,,,,,,,,,,,,,,,,,,,,,,,,,,,,,,,,,,,,
,,60d6e2dd110d9cbe0c20bbc7,38,female,2024-04-24_12h32.11.100,stockport_simplified,2022.2.4,Win32,60.24096386,661e456ee6de07e70aa9ef7b,6628df87fe62ea28a6a7467d,,,,,,,,,,,,,,,,,,,,,,,,,,,,,,,,,,,,,,,,,,,,,,,,,,,,,,,,1,26,86,3,1,A,X,N,o1_image,stimuli/out1.png,stimuli/correct_out1.png,stimuli/out2.png,,,,,,,,,,,,,,,,,,,,,,,,,,,,,,,,,,,,,,
,,60d6e2dd110d9cbe0c20bbc7,38,female,2024-04-24_12h32.11.100,stockport_simplified,2022.2.4,Win32,60.24096386,661e456ee6de07e70aa9ef7b,6628df87fe62ea28a6a7467d,,,,,,,,,,,,,,,,,,,,,,,,,,,,,,,,,,1499.2784,1505.2595,"[1,7,8,4,6,5,3,2]","[[-0.3,0.2],[0.3,0.2]]","[[-0.125,-0.2],[0.125,-0.2]]",-0.037037037,-0.215740741,1,0,0,4.1315,o2_image,1505.2658,1,1505.7592,1505.7592,1507.7588,0,0,0,0,1,,,,,,,,,,,,,,,,,,,,,,,,,,,,,,,,,,,,,,,,,,,,,,,,,,
,,60d6e2dd110d9cbe0c20bbc7,38,female,2024-04-24_12h32.11.100,stockport_simplified,2022.2.4,Win32,60.24096386,661e456ee6de07e70aa9ef7b,6628df87fe62ea28a6a7467d,,,,,,,,,,,,,,,,,,,,,,,,,,,,,,,,,,,,,,,,,,,,,,,,,,,,,,,,1,27,87,59,1,N,M,D,o2_image,stimuli/out2.png,stimuli/out1.png,stimuli/correct_out2.png,,,,,,,,,,,,,,,,,,,,,,,,,,,,,,,,,,,,,,
,,60d6e2dd110d9cbe0c20bbc7,38,female,2024-04-24_12h32.11.100,stockport_simplified,2022.2.4,Win32,60.24096386,661e456ee6de07e70aa9ef7b,6628df87fe62ea28a6a7467d,,,,,,,,,,,,,,,,,,,,,,,,,,,,,,,,,,1507.7592,1510.5911,"[1,7,8,4,6,5,3,2]","[[-0.3,0.2],[0.3,0.2]]","[[0.125,-0.2],[-0.125,-0.2]]",-0.124074074,-0.202777778,1,0,0,2.3159,o2_image,1510.5978,1,1511.0909,1511.0909,1513.0902,0,0,0,0,1,,,,,,,,,,,,,,,,,,,,,,,,,,,,,,,,,,,,,,,,,,,,,,,,,,
,,60d6e2dd110d9cbe0c20bbc7,38,female,2024-04-24_12h32.11.100,stockport_simplified,2022.2.4,Win32,60.24096386,661e456ee6de07e70aa9ef7b,6628df87fe62ea28a6a7467d,,,,,,,,,,,,,,,,,,,,,,,,,,,,,,,,,,,,,,,,,,,,,,,,,,,,,,,,1,28,88,29,1,N,M,D,o2_image,stimuli/out2.png,stimuli/out1.png,stimuli/correct_out2.png,,,,,,,,,,,,,,,,,,,,,,,,,,,,,,,,,,,,,,
,,60d6e2dd110d9cbe0c20bbc7,38,female,2024-04-24_12h32.11.100,stockport_simplified,2022.2.4,Win32,60.24096386,661e456ee6de07e70aa9ef7b,6628df87fe62ea28a6a7467d,,,,,,,,,,,,,,,,,,,,,,,,,,,,,,,,,,1513.0906,1515.0894,"[1,7,8,4,6,5,3,2]","[[-0.3,0.2],[0.3,0.2]]","[[0.125,-0.2],[-0.125,-0.2]]",-0.124074074,-0.202777778,1,0,0,1.4826,o2_image,1515.09,1,1515.5893,1515.5894,1517.5887,0,0,0,0,1,,,,,,,,,,,,,,,,,,,,,,,,,,,,,,,,,,,,,,,,,,,,,,,,,,
,,60d6e2dd110d9cbe0c20bbc7,38,female,2024-04-24_12h32.11.100,stockport_simplified,2022.2.4,Win32,60.24096386,661e456ee6de07e70aa9ef7b,6628df87fe62ea28a6a7467d,,,,,,,,,,,,,,,,,,,,,,,,,,,,,,,,,,,,,,,,,,,,,,,,,,,,,,,,1,29,89,58,1,N,M,D,o2_image,stimuli/out2.png,stimuli/out1.png,stimuli/correct_out2.png,,,,,,,,,,,,,,,,,,,,,,,,,,,,,,,,,,,,,,
,,60d6e2dd110d9cbe0c20bbc7,38,female,2024-04-24_12h32.11.100,stockport_simplified,2022.2.4,Win32,60.24096386,661e456ee6de07e70aa9ef7b,6628df87fe62ea28a6a7467d,,,,,,,,,,,,,,,,,,,,,,,,,,,,,,,,,,1517.5891,1520.0544,"[1,7,8,4,6,5,3,2]","[[0.3,0.2],[-0.3,0.2]]","[[-0.125,-0.2],[0.125,-0.2]]",-0.124074074,-0.202777778,1,0,0,1.9486,o1_image,1520.0548,0,1520.5542,1520.5543,1522.543,0,0,0,0,1,,,,,,,,,,,,,,,,,,,,,,,,,,,,,,,,,,,,,,,,,,,,,,,,,,
,,60d6e2dd110d9cbe0c20bbc7,38,female,2024-04-24_12h32.11.100,stockport_simplified,2022.2.4,Win32,60.24096386,661e456ee6de07e70aa9ef7b,6628df87fe62ea28a6a7467d,,,,,,,,,,,,,,,,,,,,,,,,,,,,,,,,,,,,,,,,,,,,,,,,,,,,,,,,1,30,90,41,1,B,X,N,o2_image,stimuli/out2.png,stimuli/out1.png,stimuli/correct_out2.png,,,,,,,,,,,,,,,,,,,,,,,,,,,,,,,,,,,,,,
,,60d6e2dd110d9cbe0c20bbc7,38,female,2024-04-24_12h32.11.100,stockport_simplified,2022.2.4,Win32,60.24096386,661e456ee6de07e70aa9ef7b,6628df87fe62ea28a6a7467d,,,,,,,,,,,,,,,,,,,,,,,,,,,,,,,,,,1522.5433,1524.7426,"[1,7,8,4,6,5,3,2]","[[0.3,0.2],[-0.3,0.2]]","[[0.125,-0.2],[-0.125,-0.2]]",-0.084259259,-0.200925926,1,0,0,1.6832,o2_image,1524.7485,1,1525.242,1525.2421,1527.2417,0,0,0,0,1,,,,,,,,,,,,,,,,,,,,,,,,,,,,,,,,,,,,,,,,,,,,,,,,,,
,,60d6e2dd110d9cbe0c20bbc7,38,female,2024-04-24_12h32.11.100,stockport_simplified,2022.2.4,Win32,60.24096386,661e456ee6de07e70aa9ef7b,6628df87fe62ea28a6a7467d,,,,,,,,,,,,,,,,,,,,,,,,,,,,,,,,,,,,,,,,,,,,,,,,,,,,,,,,1,31,91,17,1,B,Y,N,o2_image,stimuli/out2.png,stimuli/out1.png,stimuli/correct_out2.png,,,,,,,,,,,,,,,,,,,,,,,,,,,,,,,,,,,,,,
,,60d6e2dd110d9cbe0c20bbc7,38,female,2024-04-24_12h32.11.100,stockport_simplified,2022.2.4,Win32,60.24096386,661e456ee6de07e70aa9ef7b,6628df87fe62ea28a6a7467d,,,,,,,,,,,,,,,,,,,,,,,,,,,,,,,,,,1527.2419,1529.5013,"[1,7,8,4,6,5,3,2]","[[-0.3,0.2],[0.3,0.2]]","[[-0.125,-0.2],[0.125,-0.2]]",-0.099074074,-0.196296296,1,0,0,1.7434,o1_image,1529.5019,1,1529.99,1529.99,1531.9838,0,0,0,0,1,,,,,,,,,,,,,,,,,,,,,,,,,,,,,,,,,,,,,,,,,,,,,,,,,,
,,60d6e2dd110d9cbe0c20bbc7,38,female,2024-04-24_12h32.11.100,stockport_simplified,2022.2.4,Win32,60.24096386,661e456ee6de07e70aa9ef7b,6628df87fe62ea28a6a7467d,,,,,,,,,,,,,,,,,,,,,,,,,,,,,,,,,,,,,,,,,,,,,,,,,,,,,,,,1,32,92,22,1,N,M,C,o1_image,stimuli/out1.png,stimuli/correct_out1.png,stimuli/out2.png,,,,,,,,,,,,,,,,,,,,,,,,,,,,,,,,,,,,,,
,,60d6e2dd110d9cbe0c20bbc7,38,female,2024-04-24_12h32.11.100,stockport_simplified,2022.2.4,Win32,60.24096386,661e456ee6de07e70aa9ef7b,6628df87fe62ea28a6a7467d,,,,,,,,,,,,,,,,,,,,,,,,,,,,,,,,,,1531.984,1534.7161,"[1,7,8,4,6,5,3,2]","[[0.3,0.2],[-0.3,0.2]]","[[0.125,-0.2],[-0.125,-0.2]]",0.158333333,-0.200925926,1,0,0,2.2154,o1_image,1534.7226,1,1535.216,1535.216,1537.2153,0,0,0,0,1,,,,,,,,,,,,,,,,,,,,,,,,,,,,,,,,,,,,,,,,,,,,,,,,,,
,,60d6e2dd110d9cbe0c20bbc7,38,female,2024-04-24_12h32.11.100,stockport_simplified,2022.2.4,Win32,60.24096386,661e456ee6de07e70aa9ef7b,6628df87fe62ea28a6a7467d,,,,,,,,,,,,,,,,,,,,,,,,,,,,,,,,,,,,,,,,,,,,,,,,,,,,,,,,1,33,93,0,1,A,X,N,o1_image,stimuli/out1.png,stimuli/correct_out1.png,stimuli/out2.png,,,,,,,,,,,,,,,,,,,,,,,,,,,,,,,,,,,,,,
,,60d6e2dd110d9cbe0c20bbc7,38,female,2024-04-24_12h32.11.100,stockport_simplified,2022.2.4,Win32,60.24096386,661e456ee6de07e70aa9ef7b,6628df87fe62ea28a6a7467d,,,,,,,,,,,,,,,,,,,,,,,,,,,,,,,,,,1537.2156,1539.5646,"[1,7,8,4,6,5,3,2]","[[-0.3,0.2],[0.3,0.2]]","[[0.125,-0.2],[-0.125,-0.2]]",-0.136111111,-0.137037037,1,0,0,1.8326,o2_image,1539.565,1,1540.0644,1540.0644,1542.0637,0,0,0,0,1,,,,,,,,,,,,,,,,,,,,,,,,,,,,,,,,,,,,,,,,,,,,,,,,,,
,,60d6e2dd110d9cbe0c20bbc7,38,female,2024-04-24_12h32.11.100,stockport_simplified,2022.2.4,Win32,60.24096386,661e456ee6de07e70aa9ef7b,6628df87fe62ea28a6a7467d,,,,,,,,,,,,,,,,,,,,,,,,,,,,,,,,,,,,,,,,,,,,,,,,,,,,,,,,1,34,94,19,1,B,Y,N,o2_image,stimuli/out2.png,stimuli/out1.png,stimuli/correct_out2.png,,,,,,,,,,,,,,,,,,,,,,,,,,,,,,,,,,,,,,
,,60d6e2dd110d9cbe0c20bbc7,38,female,2024-04-24_12h32.11.100,stockport_simplified,2022.2.4,Win32,60.24096386,661e456ee6de07e70aa9ef7b,6628df87fe62ea28a6a7467d,,,,,,,,,,,,,,,,,,,,,,,,,,,,,,,,,,1542.0638,1544.8961,"[1,7,8,4,6,5,3,2]","[[-0.3,0.2],[0.3,0.2]]","[[0.125,-0.2],[-0.125,-0.2]]",0.175,-0.19537037,1,0,0,2.3256,o1_image,1544.9026,1,1545.3959,1545.3959,1547.3952,0,0,0,0,1,,,,,,,,,,,,,,,,,,,,,,,,,,,,,,,,,,,,,,,,,,,,,,,,,,
,,60d6e2dd110d9cbe0c20bbc7,38,female,2024-04-24_12h32.11.100,stockport_simplified,2022.2.4,Win32,60.24096386,661e456ee6de07e70aa9ef7b,6628df87fe62ea28a6a7467d,,,,,,,,,,,,,,,,,,,,,,,,,,,,,,,,,,,,,,,,,,,,,,,,,,,,,,,,1,35,95,34,1,A,X,N,o1_image,stimuli/out1.png,stimuli/correct_out1.png,stimuli/out2.png,,,,,,,,,,,,,,,,,,,,,,,,,,,,,,,,,,,,,,
,,60d6e2dd110d9cbe0c20bbc7,38,female,2024-04-24_12h32.11.100,stockport_simplified,2022.2.4,Win32,60.24096386,661e456ee6de07e70aa9ef7b,6628df87fe62ea28a6a7467d,,,,,,,,,,,,,,,,,,,,,,,,,,,,,,,,,,1547.3954,1549.8777,"[1,7,8,4,6,5,3,2]","[[0.3,0.2],[-0.3,0.2]]","[[0.125,-0.2],[-0.125,-0.2]]",0.163888889,-0.193518519,1,0,0,1.9658,o1_image,1549.8783,0,1550.3775,1550.3775,1552.3769,0,0,0,0,1,,,,,,,,,,,,,,,,,,,,,,,,,,,,,,,,,,,,,,,,,,,,,,,,,,
,,60d6e2dd110d9cbe0c20bbc7,38,female,2024-04-24_12h32.11.100,stockport_simplified,2022.2.4,Win32,60.24096386,661e456ee6de07e70aa9ef7b,6628df87fe62ea28a6a7467d,,,,,,,,,,,,,,,,,,,,,,,,,,,,,,,,,,,,,,,,,,,,,,,,,,,,,,,,1,36,96,10,1,B,X,N,o2_image,stimuli/out2.png,stimuli/out1.png,stimuli/correct_out2.png,,,,,,,,,,,,,,,,,,,,,,,,,,,,,,,,,,,,,,
,,60d6e2dd110d9cbe0c20bbc7,38,female,2024-04-24_12h32.11.100,stockport_simplified,2022.2.4,Win32,60.24096386,661e456ee6de07e70aa9ef7b,6628df87fe62ea28a6a7467d,,,,,,,,,,,,,,,,,,,,,,,,,,,,,,,,,,1552.3771,1554.9996,"[1,7,8,4,6,5,3,2]","[[0.3,0.2],[-0.3,0.2]]","[[-0.125,-0.2],[0.125,-0.2]]",0.086111111,-0.187037037,1,0,0,2.1062,o2_image,1555.0055,1,1555.516,1555.516,1557.5084,0,0,0,0,1,,,,,,,,,,,,,,,,,,,,,,,,,,,,,,,,,,,,,,,,,,,,,,,,,,
,,60d6e2dd110d9cbe0c20bbc7,38,female,2024-04-24_12h32.11.100,stockport_simplified,2022.2.4,Win32,60.24096386,661e456ee6de07e70aa9ef7b,6628df87fe62ea28a6a7467d,,,,,,,,,,,,,,,,,,,,,,,,,,,,,,,,,,,,,,,,,,,,,,,,,,,,,,,,1,37,97,47,1,B,Y,N,o2_image,stimuli/out2.png,stimuli/out1.png,stimuli/correct_out2.png,,,,,,,,,,,,,,,,,,,,,,,,,,,,,,,,,,,,,,
,,60d6e2dd110d9cbe0c20bbc7,38,female,2024-04-24_12h32.11.100,stockport_simplified,2022.2.4,Win32,60.24096386,661e456ee6de07e70aa9ef7b,6628df87fe62ea28a6a7467d,,,,,,,,,,,,,,,,,,,,,,,,,,,,,,,,,,1557.5087,1560.5074,"[1,7,8,4,6,5,3,2]","[[-0.3,0.2],[0.3,0.2]]","[[0.125,-0.2],[-0.125,-0.2]]",0.1,-0.183333333,1,0,0,2.4769,o1_image,1560.5079,1,1561.0073,1561.0073,1563.0065,0,0,0,0,1,,,,,,,,,,,,,,,,,,,,,,,,,,,,,,,,,,,,,,,,,,,,,,,,,,
,,60d6e2dd110d9cbe0c20bbc7,38,female,2024-04-24_12h32.11.100,stockport_simplified,2022.2.4,Win32,60.24096386,661e456ee6de07e70aa9ef7b,6628df87fe62ea28a6a7467d,,,,,,,,,,,,,,,,,,,,,,,,,,,,,,,,,,,,,,,,,,,,,,,,,,,,,,,,1,38,98,31,1,A,X,N,o1_image,stimuli/out1.png,stimuli/correct_out1.png,stimuli/out2.png,,,,,,,,,,,,,,,,,,,,,,,,,,,,,,,,,,,,,,
,,60d6e2dd110d9cbe0c20bbc7,38,female,2024-04-24_12h32.11.100,stockport_simplified,2022.2.4,Win32,60.24096386,661e456ee6de07e70aa9ef7b,6628df87fe62ea28a6a7467d,,,,,,,,,,,,,,,,,,,,,,,,,,,,,,,,,,1563.0069,1566.872,"[1,7,8,4,6,5,3,2]","[[-0.3,0.2],[0.3,0.2]]","[[0.125,-0.2],[-0.125,-0.2]]",-0.148148148,-0.180555556,1,0,0,3.3488,o2_image,1566.8782,1,1567.3717,1567.3717,1569.3711,0,0,0,0,1,,,,,,,,,,,,,,,,,,,,,,,,,,,,,,,,,,,,,,,,,,,,,,,,,,
,,60d6e2dd110d9cbe0c20bbc7,38,female,2024-04-24_12h32.11.100,stockport_simplified,2022.2.4,Win32,60.24096386,661e456ee6de07e70aa9ef7b,6628df87fe62ea28a6a7467d,,,,,,,,,,,,,,,,,,,,,,,,,,,,,,,,,,,,,,,,,,,,,,,,,,,,,,,,1,39,99,55,1,N,M,D,o2_image,stimuli/out2.png,stimuli/out1.png,stimuli/correct_out2.png,,,,,,,,,,,,,,,,,,,,,,,,,,,,,,,,,,,,,,
,,60d6e2dd110d9cbe0c20bbc7,38,female,2024-04-24_12h32.11.100,stockport_simplified,2022.2.4,Win32,60.24096386,661e456ee6de07e70aa9ef7b,6628df87fe62ea28a6a7467d,,,,,,,,,,,,,,,,,,,,,,,,,,,,,,,,,,1569.3714,1572.2108,"[1,7,8,4,6,5,3,2]","[[0.3,0.2],[-0.3,0.2]]","[[-0.125,-0.2],[0.125,-0.2]]",-0.175,-0.187037037,1,0,0,2.3228,o1_image,1572.2111,1,1572.7031,1572.7032,1574.7026,0,0,0,0,1,,,,,,,,,,,,,,,,,,,,,,,,,,,,,,,,,,,,,,,,,,,,,,,,,,
,,60d6e2dd110d9cbe0c20bbc7,38,female,2024-04-24_12h32.11.100,stockport_simplified,2022.2.4,Win32,60.24096386,661e456ee6de07e70aa9ef7b,6628df87fe62ea28a6a7467d,,,,,,,,,,,,,,,,,,,,,,,,,,,,,,,,,,,,,,,,,,,,,,,,,,,,,,,,1,40,100,8,1,A,Y,N,o1_image,stimuli/out1.png,stimuli/correct_out1.png,stimuli/out2.png,,,,,,,,,,,,,,,,,,,,,,,,,,,,,,,,,,,,,,
,,60d6e2dd110d9cbe0c20bbc7,38,female,2024-04-24_12h32.11.100,stockport_simplified,2022.2.4,Win32,60.24096386,661e456ee6de07e70aa9ef7b,6628df87fe62ea28a6a7467d,,,,,,,,,,,,,,,,,,,,,,,,,,,,,,,,,,1574.703,1577.6182,"[1,7,8,4,6,5,3,2]","[[-0.3,0.2],[0.3,0.2]]","[[0.125,-0.2],[-0.125,-0.2]]",0.050925926,-0.209259259,1,0,0,2.3988,o1_image,1577.6247,1,1578.1182,1578.1182,1580.1173,0,0,0,0,1,,,,,,,,,,,,,,,,,,,,,,,,,,,,,,,,,,,,,,,,,,,,,,,,,,
,,60d6e2dd110d9cbe0c20bbc7,38,female,2024-04-24_12h32.11.100,stockport_simplified,2022.2.4,Win32,60.24096386,661e456ee6de07e70aa9ef7b,6628df87fe62ea28a6a7467d,,,,,,,,,,,,,,,,,,,,,,,,,,,,,,,,,,,,,,,,,,,,,,,,,,,,,,,,1,41,101,30,1,A,X,N,o1_image,stimuli/out1.png,stimuli/correct_out1.png,stimuli/out2.png,,,,,,,,,,,,,,,,,,,,,,,,,,,,,,,,,,,,,,
,,60d6e2dd110d9cbe0c20bbc7,38,female,2024-04-24_12h32.11.100,stockport_simplified,2022.2.4,Win32,60.24096386,661e456ee6de07e70aa9ef7b,6628df87fe62ea28a6a7467d,,,,,,,,,,,,,,,,,,,,,,,,,,,,,,,,,,1580.1176,1583.1332,"[1,7,8,4,6,5,3,2]","[[-0.3,0.2],[0.3,0.2]]","[[-0.125,-0.2],[0.125,-0.2]]",0.150925926,-0.198148148,1,0,0,2.4989,o2_image,1583.1392,1,1583.633,1583.633,1585.6323,0,0,0,0,1,,,,,,,,,,,,,,,,,,,,,,,,,,,,,,,,,,,,,,,,,,,,,,,,,,
,,60d6e2dd110d9cbe0c20bbc7,38,female,2024-04-24_12h32.11.100,stockport_simplified,2022.2.4,Win32,60.24096386,661e456ee6de07e70aa9ef7b,6628df87fe62ea28a6a7467d,,,,,,,,,,,,,,,,,,,,,,,,,,,,,,,,,,,,,,,,,,,,,,,,,,,,,,,,1,42,102,11,1,B,X,N,o2_image,stimuli/out2.png,stimuli/out1.png,stimuli/correct_out2.png,,,,,,,,,,,,,,,,,,,,,,,,,,,,,,,,,,,,,,
,,60d6e2dd110d9cbe0c20bbc7,38,female,2024-04-24_12h32.11.100,stockport_simplified,2022.2.4,Win32,60.24096386,661e456ee6de07e70aa9ef7b,6628df87fe62ea28a6a7467d,,,,,,,,,,,,,,,,,,,,,,,,,,,,,,,,,,1585.6327,1590.0642,"[1,7,8,4,6,5,3,2]","[[0.3,0.2],[-0.3,0.2]]","[[0.125,-0.2],[-0.125,-0.2]]",0.001851852,-0.208333333,1,0,0,2.066,o2_image,1590.0709,1,1590.564,1590.564,1592.5633,0,0,0,0,1,,,,,,,,,,,,,,,,,,,,,,,,,,,,,,,,,,,,,,,,,,,,,,,,,,
,,60d6e2dd110d9cbe0c20bbc7,38,female,2024-04-24_12h32.11.100,stockport_simplified,2022.2.4,Win32,60.24096386,661e456ee6de07e70aa9ef7b,6628df87fe62ea28a6a7467d,,,,,,,,,,,,,,,,,,,,,,,,,,,,,,,,,,,,,,,,,,,,,,,,,,,,,,,,1,43,103,42,1,B,X,N,o2_image,stimuli/out2.png,stimuli/out1.png,stimuli/correct_out2.png,,,,,,,,,,,,,,,,,,,,,,,,,,,,,,,,,,,,,,
,,60d6e2dd110d9cbe0c20bbc7,38,female,2024-04-24_12h32.11.100,stockport_simplified,2022.2.4,Win32,60.24096386,661e456ee6de07e70aa9ef7b,6628df87fe62ea28a6a7467d,,,,,,,,,,,,,,,,,,,,,,,,,,,,,,,,,,1592.5637,1595.8289,"[1,7,8,4,6,5,3,2]","[[-0.3,0.2],[0.3,0.2]]","[[-0.125,-0.2],[0.125,-0.2]]",-0.075925926,-0.186111111,1,0,0,2.7489,o1_image,1595.835,1,1596.3287,1596.3287,1598.3281,0,0,0,0,1,,,,,,,,,,,,,,,,,,,,,,,,,,,,,,,,,,,,,,,,,,,,,,,,,,
,,60d6e2dd110d9cbe0c20bbc7,38,female,2024-04-24_12h32.11.100,stockport_simplified,2022.2.4,Win32,60.24096386,661e456ee6de07e70aa9ef7b,6628df87fe62ea28a6a7467d,,,,,,,,,,,,,,,,,,,,,,,,,,,,,,,,,,,,,,,,,,,,,,,,,,,,,,,,1,44,104,33,1,A,X,N,o1_image,stimuli/out1.png,stimuli/correct_out1.png,stimuli/out2.png,,,,,,,,,,,,,,,,,,,,,,,,,,,,,,,,,,,,,,
,,60d6e2dd110d9cbe0c20bbc7,38,female,2024-04-24_12h32.11.100,stockport_simplified,2022.2.4,Win32,60.24096386,661e456ee6de07e70aa9ef7b,6628df87fe62ea28a6a7467d,,,,,,,,,,,,,,,,,,,,,,,,,,,,,,,,,,1598.3285,1601.0272,"[1,7,8,4,6,5,3,2]","[[-0.3,0.2],[0.3,0.2]]","[[-0.125,-0.2],[0.125,-0.2]]",0.126851852,-0.22037037,1,0,0,2.1825,o2_image,1601.0332,1,1601.527,1601.527,1603.5263,0,0,0,0,1,,,,,,,,,,,,,,,,,,,,,,,,,,,,,,,,,,,,,,,,,,,,,,,,,,
,,60d6e2dd110d9cbe0c20bbc7,38,female,2024-04-24_12h32.11.100,stockport_simplified,2022.2.4,Win32,60.24096386,661e456ee6de07e70aa9ef7b,6628df87fe62ea28a6a7467d,,,,,,,,,,,,,,,,,,,,,,,,,,,,,,,,,,,,,,,,,,,,,,,,,,,,,,,,1,45,105,13,1,B,X,N,o2_image,stimuli/out2.png,stimuli/out1.png,stimuli/correct_out2.png,,,,,,,,,,,,,,,,,,,,,,,,,,,,,,,,,,,,,,
,,60d6e2dd110d9cbe0c20bbc7,38,female,2024-04-24_12h32.11.100,stockport_simplified,2022.2.4,Win32,60.24096386,661e456ee6de07e70aa9ef7b,6628df87fe62ea28a6a7467d,,,,,,,,,,,,,,,,,,,,,,,,,,,,,,,,,,1603.5267,1606.1254,"[1,7,8,4,6,5,3,2]","[[0.3,0.2],[-0.3,0.2]]","[[0.125,-0.2],[-0.125,-0.2]]",0.075,-0.17962963,1,0,0,2.0822,o1_image,1606.126,1,1606.6251,1606.6251,1608.6246,0,0,0,0,1,,,,,,,,,,,,,,,,,,,,,,,,,,,,,,,,,,,,,,,,,,,,,,,,,,
,,60d6e2dd110d9cbe0c20bbc7,38,female,2024-04-24_12h32.11.100,stockport_simplified,2022.2.4,Win32,60.24096386,661e456ee6de07e70aa9ef7b,6628df87fe62ea28a6a7467d,,,,,,,,,,,,,,,,,,,,,,,,,,,,,,,,,,,,,,,,,,,,,,,,,,,,,,,,1,46,106,39,1,A,Y,N,o1_image,stimuli/out1.png,stimuli/correct_out1.png,stimuli/out2.png,,,,,,,,,,,,,,,,,,,,,,,,,,,,,,,,,,,,,,
,,60d6e2dd110d9cbe0c20bbc7,38,female,2024-04-24_12h32.11.100,stockport_simplified,2022.2.4,Win32,60.24096386,661e456ee6de07e70aa9ef7b,6628df87fe62ea28a6a7467d,,,,,,,,,,,,,,,,,,,,,,,,,,,,,,,,,,1608.625,1611.6068,"[1,7,8,4,6,5,3,2]","[[-0.3,0.2],[0.3,0.2]]","[[-0.125,-0.2],[0.125,-0.2]]",-0.064814815,-0.200925926,1,0,0,2.4658,o1_image,1611.6131,1,1612.1067,1612.1067,1614.106,0,0,0,0,1,,,,,,,,,,,,,,,,,,,,,,,,,,,,,,,,,,,,,,,,,,,,,,,,,,
,,60d6e2dd110d9cbe0c20bbc7,38,female,2024-04-24_12h32.11.100,stockport_simplified,2022.2.4,Win32,60.24096386,661e456ee6de07e70aa9ef7b,6628df87fe62ea28a6a7467d,,,,,,,,,,,,,,,,,,,,,,,,,,,,,,,,,,,,,,,,,,,,,,,,,,,,,,,,1,47,107,37,1,A,Y,N,o1_image,stimuli/out1.png,stimuli/correct_out1.png,stimuli/out2.png,,,,,,,,,,,,,,,,,,,,,,,,,,,,,,,,,,,,,,
,,60d6e2dd110d9cbe0c20bbc7,38,female,2024-04-24_12h32.11.100,stockport_simplified,2022.2.4,Win32,60.24096386,661e456ee6de07e70aa9ef7b,6628df87fe62ea28a6a7467d,,,,,,,,,,,,,,,,,,,,,,,,,,,,,,,,,,1614.1064,1615.7721,"[1,7,8,4,6,5,3,2]","[[0.3,0.2],[-0.3,0.2]]","[[-0.125,-0.2],[0.125,-0.2]]",-0.064814815,-0.200925926,1,0,0,1.1493,o1_image,1615.7728,0,1616.2719,1616.272,1618.271,0,0,0,0,1,,,,,,,,,,,,,,,,,,,,,,,,,,,,,,,,,,,,,,,,,,,,,,,,,,
,,60d6e2dd110d9cbe0c20bbc7,38,female,2024-04-24_12h32.11.100,stockport_simplified,2022.2.4,Win32,60.24096386,661e456ee6de07e70aa9ef7b,6628df87fe62ea28a6a7467d,,,,,,,,,,,,,,,,,,,,,,,,,,,,,,,,,,,,,,,,,,,,,,,,,,,,,,,,1,48,108,28,1,N,M,D,o2_image,stimuli/out2.png,stimuli/out1.png,stimuli/correct_out2.png,,,,,,,,,,,,,,,,,,,,,,,,,,,,,,,,,,,,,,
,,60d6e2dd110d9cbe0c20bbc7,38,female,2024-04-24_12h32.11.100,stockport_simplified,2022.2.4,Win32,60.24096386,661e456ee6de07e70aa9ef7b,6628df87fe62ea28a6a7467d,,,,,,,,,,,,,,,,,,,,,,,,,,,,,,,,,,1618.2713,1620.2705,"[1,7,8,4,6,5,3,2]","[[-0.3,0.2],[0.3,0.2]]","[[-0.125,-0.2],[0.125,-0.2]]",-0.096296296,-0.2,1,0,0,1.4825,o1_image,1620.271,1,1620.7609,1620.7609,1622.76,0,0,0,0,1,,,,,,,,,,,,,,,,,,,,,,,,,,,,,,,,,,,,,,,,,,,,,,,,,,
,,60d6e2dd110d9cbe0c20bbc7,38,female,2024-04-24_12h32.11.100,stockport_simplified,2022.2.4,Win32,60.24096386,661e456ee6de07e70aa9ef7b,6628df87fe62ea28a6a7467d,,,,,,,,,,,,,,,,,,,,,,,,,,,,,,,,,,,,,,,,,,,,,,,,,,,,,,,,1,49,109,50,1,N,M,C,o1_image,stimuli/out1.png,stimuli/correct_out1.png,stimuli/out2.png,,,,,,,,,,,,,,,,,,,,,,,,,,,,,,,,,,,,,,
,,60d6e2dd110d9cbe0c20bbc7,38,female,2024-04-24_12h32.11.100,stockport_simplified,2022.2.4,Win32,60.24096386,661e456ee6de07e70aa9ef7b,6628df87fe62ea28a6a7467d,,,,,,,,,,,,,,,,,,,,,,,,,,,,,,,,,,1622.7602,1626.6519,"[1,7,8,4,6,5,3,2]","[[-0.3,0.2],[0.3,0.2]]","[[-0.125,-0.2],[0.125,-0.2]]",0.119444444,-0.225,1,0,0,3.3822,o2_image,1626.6586,1,1627.1515,1627.1515,1629.1576,0,0,0,0,1,,,,,,,,,,,,,,,,,,,,,,,,,,,,,,,,,,,,,,,,,,,,,,,,,,
,,60d6e2dd110d9cbe0c20bbc7,38,female,2024-04-24_12h32.11.100,stockport_simplified,2022.2.4,Win32,60.24096386,661e456ee6de07e70aa9ef7b,6628df87fe62ea28a6a7467d,,,,,,,,,,,,,,,,,,,,,,,,,,,,,,,,,,,,,,,,,,,,,,,,,,,,,,,,1,50,110,45,1,B,Y,N,o2_image,stimuli/out2.png,stimuli/out1.png,stimuli/correct_out2.png,,,,,,,,,,,,,,,,,,,,,,,,,,,,,,,,,,,,,,
,,60d6e2dd110d9cbe0c20bbc7,38,female,2024-04-24_12h32.11.100,stockport_simplified,2022.2.4,Win32,60.24096386,661e456ee6de07e70aa9ef7b,6628df87fe62ea28a6a7467d,,,,,,,,,,,,,,,,,,,,,,,,,,,,,,,,,,1629.1578,1631.4999,"[1,7,8,4,6,5,3,2]","[[0.3,0.2],[-0.3,0.2]]","[[-0.125,-0.2],[0.125,-0.2]]",0.119444444,-0.225,1,0,0,1.8326,o2_image,1631.5005,1,1631.9904,1631.9904,1633.9825,0,0,0,0,1,,,,,,,,,,,,,,,,,,,,,,,,,,,,,,,,,,,,,,,,,,,,,,,,,,
,,60d6e2dd110d9cbe0c20bbc7,38,female,2024-04-24_12h32.11.100,stockport_simplified,2022.2.4,Win32,60.24096386,661e456ee6de07e70aa9ef7b,6628df87fe62ea28a6a7467d,,,,,,,,,,,,,,,,,,,,,,,,,,,,,,,,,,,,,,,,,,,,,,,,,,,,,,,,1,51,111,49,1,B,Y,N,o2_image,stimuli/out2.png,stimuli/out1.png,stimuli/correct_out2.png,,,,,,,,,,,,,,,,,,,,,,,,,,,,,,,,,,,,,,
,,60d6e2dd110d9cbe0c20bbc7,38,female,2024-04-24_12h32.11.100,stockport_simplified,2022.2.4,Win32,60.24096386,661e456ee6de07e70aa9ef7b,6628df87fe62ea28a6a7467d,,,,,,,,,,,,,,,,,,,,,,,,,,,,,,,,,,1633.9827,1636.4817,"[1,7,8,4,6,5,3,2]","[[-0.3,0.2],[0.3,0.2]]","[[0.125,-0.2],[-0.125,-0.2]]",-0.074074074,-0.206481481,1,0,0,1.9826,o2_image,1636.4823,1,1636.9869,1636.9869,1638.9879,0,0,0,0,1,,,,,,,,,,,,,,,,,,,,,,,,,,,,,,,,,,,,,,,,,,,,,,,,,,
,,60d6e2dd110d9cbe0c20bbc7,38,female,2024-04-24_12h32.11.100,stockport_simplified,2022.2.4,Win32,60.24096386,661e456ee6de07e70aa9ef7b,6628df87fe62ea28a6a7467d,,,,,,,,,,,,,,,,,,,,,,,,,,,,,,,,,,,,,,,,,,,,,,,,,,,,,,,,1,52,112,46,1,B,Y,N,o2_image,stimuli/out2.png,stimuli/out1.png,stimuli/correct_out2.png,,,,,,,,,,,,,,,,,,,,,,,,,,,,,,,,,,,,,,
,,60d6e2dd110d9cbe0c20bbc7,38,female,2024-04-24_12h32.11.100,stockport_simplified,2022.2.4,Win32,60.24096386,661e456ee6de07e70aa9ef7b,6628df87fe62ea28a6a7467d,,,,,,,,,,,,,,,,,,,,,,,,,,,,,,,,,,1638.9883,1641.8465,"[1,7,8,4,6,5,3,2]","[[-0.3,0.2],[0.3,0.2]]","[[0.125,-0.2],[-0.125,-0.2]]",0.099074074,-0.22037037,1,0,0,2.3489,o1_image,1641.8471,1,1642.3464,1642.3464,1644.3464,0,0,0,0,1,,,,,,,,,,,,,,,,,,,,,,,,,,,,,,,,,,,,,,,,,,,,,,,,,,
,,60d6e2dd110d9cbe0c20bbc7,38,female,2024-04-24_12h32.11.100,stockport_simplified,2022.2.4,Win32,60.24096386,661e456ee6de07e70aa9ef7b,6628df87fe62ea28a6a7467d,,,,,,,,,,,,,,,,,,,,,,,,,,,,,,,,,,,,,,,,,,,,,,,,,,,,,,,,1,53,113,23,1,N,M,C,o1_image,stimuli/out1.png,stimuli/correct_out1.png,stimuli/out2.png,,,,,,,,,,,,,,,,,,,,,,,,,,,,,,,,,,,,,,
,,60d6e2dd110d9cbe0c20bbc7,38,female,2024-04-24_12h32.11.100,stockport_simplified,2022.2.4,Win32,60.24096386,661e456ee6de07e70aa9ef7b,6628df87fe62ea28a6a7467d,,,,,,,,,,,,,,,,,,,,,,,,,,,,,,,,,,1644.3466,1646.7285,"[1,7,8,4,6,5,3,2]","[[0.3,0.2],[-0.3,0.2]]","[[0.125,-0.2],[-0.125,-0.2]]",-0.082407407,-0.188888889,1,0,0,1.866,o2_image,1646.7288,1,1647.2282,1647.2282,1649.2274,0,0,0,0,1,,,,,,,,,,,,,,,,,,,,,,,,,,,,,,,,,,,,,,,,,,,,,,,,,,
,,60d6e2dd110d9cbe0c20bbc7,38,female,2024-04-24_12h32.11.100,stockport_simplified,2022.2.4,Win32,60.24096386,661e456ee6de07e70aa9ef7b,6628df87fe62ea28a6a7467d,,,,,,,,,,,,,,,,,,,,,,,,,,,,,,,,,,,,,,,,,,,,,,,,,,,,,,,,1,54,114,43,1,B,X,N,o2_image,stimuli/out2.png,stimuli/out1.png,stimuli/correct_out2.png,,,,,,,,,,,,,,,,,,,,,,,,,,,,,,,,,,,,,,
,,60d6e2dd110d9cbe0c20bbc7,38,female,2024-04-24_12h32.11.100,stockport_simplified,2022.2.4,Win32,60.24096386,661e456ee6de07e70aa9ef7b,6628df87fe62ea28a6a7467d,,,,,,,,,,,,,,,,,,,,,,,,,,,,,,,,,,1649.2278,1651.51,"[1,7,8,4,6,5,3,2]","[[0.3,0.2],[-0.3,0.2]]","[[0.125,-0.2],[-0.125,-0.2]]",-0.1,-0.188888889,1,0,0,1.766,o2_image,1651.5106,1,1652.0097,1652.0098,1654.0089,0,0,0,0,1,,,,,,,,,,,,,,,,,,,,,,,,,,,,,,,,,,,,,,,,,,,,,,,,,,
,,60d6e2dd110d9cbe0c20bbc7,38,female,2024-04-24_12h32.11.100,stockport_simplified,2022.2.4,Win32,60.24096386,661e456ee6de07e70aa9ef7b,6628df87fe62ea28a6a7467d,,,,,,,,,,,,,,,,,,,,,,,,,,,,,,,,,,,,,,,,,,,,,,,,,,,,,,,,1,55,115,12,1,B,X,N,o2_image,stimuli/out2.png,stimuli/out1.png,stimuli/correct_out2.png,,,,,,,,,,,,,,,,,,,,,,,,,,,,,,,,,,,,,,
,,60d6e2dd110d9cbe0c20bbc7,38,female,2024-04-24_12h32.11.100,stockport_simplified,2022.2.4,Win32,60.24096386,661e456ee6de07e70aa9ef7b,6628df87fe62ea28a6a7467d,,,,,,,,,,,,,,,,,,,,,,,,,,,,,,,,,,1654.0093,1656.0753,"[1,7,8,4,6,5,3,2]","[[-0.3,0.2],[0.3,0.2]]","[[0.125,-0.2],[-0.125,-0.2]]",-0.1,-0.188888889,1,0,0,1.549,o2_image,1656.0761,1,1656.575,1656.575,1658.5743,0,0,0,0,1,,,,,,,,,,,,,,,,,,,,,,,,,,,,,,,,,,,,,,,,,,,,,,,,,,
,,60d6e2dd110d9cbe0c20bbc7,38,female,2024-04-24_12h32.11.100,stockport_simplified,2022.2.4,Win32,60.24096386,661e456ee6de07e70aa9ef7b,6628df87fe62ea28a6a7467d,,,,,,,,,,,,,,,,,,,,,,,,,,,,,,,,,,,,,,,,,,,,,,,,,,,,,,,,1,56,116,27,1,N,M,D,o2_image,stimuli/out2.png,stimuli/out1.png,stimuli/correct_out2.png,,,,,,,,,,,,,,,,,,,,,,,,,,,,,,,,,,,,,,
,,60d6e2dd110d9cbe0c20bbc7,38,female,2024-04-24_12h32.11.100,stockport_simplified,2022.2.4,Win32,60.24096386,661e456ee6de07e70aa9ef7b,6628df87fe62ea28a6a7467d,,,,,,,,,,,,,,,,,,,,,,,,,,,,,,,,,,1658.5748,1660.8734,"[1,7,8,4,6,5,3,2]","[[-0.3,0.2],[0.3,0.2]]","[[0.125,-0.2],[-0.125,-0.2]]",-0.1,-0.188888889,1,0,0,1.7826,o2_image,1660.8794,1,1661.3733,1661.3733,1663.3796,0,0,0,0,1,,,,,,,,,,,,,,,,,,,,,,,,,,,,,,,,,,,,,,,,,,,,,,,,,,
,,60d6e2dd110d9cbe0c20bbc7,38,female,2024-04-24_12h32.11.100,stockport_simplified,2022.2.4,Win32,60.24096386,661e456ee6de07e70aa9ef7b,6628df87fe62ea28a6a7467d,,,,,,,,,,,,,,,,,,,,,,,,,,,,,,,,,,,,,,,,,,,,,,,,,,,,,,,,1,57,117,40,1,B,X,N,o2_image,stimuli/out2.png,stimuli/out1.png,stimuli/correct_out2.png,,,,,,,,,,,,,,,,,,,,,,,,,,,,,,,,,,,,,,
,,60d6e2dd110d9cbe0c20bbc7,38,female,2024-04-24_12h32.11.100,stockport_simplified,2022.2.4,Win32,60.24096386,661e456ee6de07e70aa9ef7b,6628df87fe62ea28a6a7467d,,,,,,,,,,,,,,,,,,,,,,,,,,,,,,,,,,1663.3798,1665.6384,"[1,7,8,4,6,5,3,2]","[[0.3,0.2],[-0.3,0.2]]","[[0.125,-0.2],[-0.125,-0.2]]",-0.1,-0.188888889,1,0,0,1.7494,o2_image,1665.6388,1,1666.1382,1666.1382,1668.1376,0,0,0,0,1,,,,,,,,,,,,,,,,,,,,,,,,,,,,,,,,,,,,,,,,,,,,,,,,,,
,,60d6e2dd110d9cbe0c20bbc7,38,female,2024-04-24_12h32.11.100,stockport_simplified,2022.2.4,Win32,60.24096386,661e456ee6de07e70aa9ef7b,6628df87fe62ea28a6a7467d,,,,,,,,,,,,,,,,,,,,,,,,,,,,,,,,,,,,,,,,,,,,,,,,,,,,,,,,1,58,118,44,1,B,X,N,o2_image,stimuli/out2.png,stimuli/out1.png,stimuli/correct_out2.png,,,,,,,,,,,,,,,,,,,,,,,,,,,,,,,,,,,,,,
,,60d6e2dd110d9cbe0c20bbc7,38,female,2024-04-24_12h32.11.100,stockport_simplified,2022.2.4,Win32,60.24096386,661e456ee6de07e70aa9ef7b,6628df87fe62ea28a6a7467d,,,,,,,,,,,,,,,,,,,,,,,,,,,,,,,,,,1668.1378,1672.5028,"[1,7,8,4,6,5,3,2]","[[-0.3,0.2],[0.3,0.2]]","[[0.125,-0.2],[-0.125,-0.2]]",0.087037037,-0.228703704,1,0,0,3.8484,o1_image,1672.5088,1,1673.0026,1673.0026,1675.0019,0,0,0,0,1,,,,,,,,,,,,,,,,,,,,,,,,,,,,,,,,,,,,,,,,,,,,,,,,,,
,,60d6e2dd110d9cbe0c20bbc7,38,female,2024-04-24_12h32.11.100,stockport_simplified,2022.2.4,Win32,60.24096386,661e456ee6de07e70aa9ef7b,6628df87fe62ea28a6a7467d,,,,,,,,,,,,,,,,,,,,,,,,,,,,,,,,,,,,,,,,,,,,,,,,,,,,,,,,1,59,119,7,1,A,Y,N,o1_image,stimuli/out1.png,stimuli/correct_out1.png,stimuli/out2.png,,,,,,,,,,,,,,,,,,,,,,,,,,,,,,,,,,,,,,
,,60d6e2dd110d9cbe0c20bbc7,38,female,2024-04-24_12h32.11.100,stockport_simplified,2022.2.4,Win32,60.24096386,661e456ee6de07e70aa9ef7b,6628df87fe62ea28a6a7467d,,,,,,,,,,,,,,,,,,,,,,,,,,,,,,,,,,1675.011,1679.6671,"[1,7,8,4,6,5,3,2]","[[0.3,0.2],[-0.3,0.2]]","[[-0.125,-0.2],[0.125,-0.2]]",-0.037037037,-0.213888889,1,0,0,3.0394,o1_image,1679.6735,1,1680.167,1680.167,1682.1663,,,,,,,,,,,,,,,,,,0,0,0,0,1,,,,,,,,,,,,,,,,,,,,,,,,,,,,,,,,,
,,60d6e2dd110d9cbe0c20bbc7,38,female,2024-04-24_12h32.11.100,stockport_simplified,2022.2.4,Win32,60.24096386,661e456ee6de07e70aa9ef7b,6628df87fe62ea28a6a7467d,,,,,,,,,,,,,,,,,,,,,,,,,,,,,,,,,,,,,,,,,,,,,,,,,,,,,,,,,,,,,N,M,C,o1_image,stimuli/out1.png,stimuli/correct_out1.png,stimuli/out2.png,,,,,,0,0,0,40,1,,,,,,,,,,,,,,,,,,,,,,,,,,,,
,,60d6e2dd110d9cbe0c20bbc7,38,female,2024-04-24_12h32.11.100,stockport_simplified,2022.2.4,Win32,60.24096386,661e456ee6de07e70aa9ef7b,6628df87fe62ea28a6a7467d,,,,,,,,,,,,,,,,,,,,,,,,,,,,,,,,,,1682.1668,1685.3819,"[1,7,8,4,6,5,3,2]","[[0.3,0.2],[-0.3,0.2]]","[[-0.125,-0.2],[0.125,-0.2]]",0.1,-0.216666667,1,0,0,2.699,o2_image,1685.3881,0,1685.8816,1685.8816,1687.8809,,,,,,,,,,,,,,,,,,0,0,0,0,1,,,,,,,,,,,,,,,,,,,,,,,,,,,,,,,,,
,,60d6e2dd110d9cbe0c20bbc7,38,female,2024-04-24_12h32.11.100,stockport_simplified,2022.2.4,Win32,60.24096386,661e456ee6de07e70aa9ef7b,6628df87fe62ea28a6a7467d,,,,,,,,,,,,,,,,,,,,,,,,,,,,,,,,,,,,,,,,,,,,,,,,,,,,,,,,,,,,,B,X,N,o1_image,stimuli/out1.png,stimuli/correct_out1.png,stimuli/out2.png,,,,,,0,1,1,29,1,,,,,,,,,,,,,,,,,,,,,,,,,,,,
,,60d6e2dd110d9cbe0c20bbc7,38,female,2024-04-24_12h32.11.100,stockport_simplified,2022.2.4,Win32,60.24096386,661e456ee6de07e70aa9ef7b,6628df87fe62ea28a6a7467d,,,,,,,,,,,,,,,,,,,,,,,,,,,,,,,,,,1687.8812,1690.7466,"[1,7,8,4,6,5,3,2]","[[0.3,0.2],[-0.3,0.2]]","[[-0.125,-0.2],[0.125,-0.2]]",-0.062037037,-0.217592593,1,0,0,2.3489,o1_image,1690.747,1,1691.2465,1691.2465,1693.2458,,,,,,,,,,,,,,,,,,0,0,0,0,1,,,,,,,,,,,,,,,,,,,,,,,,,,,,,,,,,
