counterbalance_2.started,counterbalance_2.stopped,participant,age,gender,date,expName,psychopyVersion,OS,frameRate,STUDY_ID,SESSION_ID,information_2.started,information_2.stopped,information_loop.thisRepN,information_loop.thisTrialN,information_loop.thisN,information_loop.thisIndex,information_loop.ran,information,consent_2.started,consent_2.stopped,slider_1.response,slider_2.response,slider_3.response,slider_4.response,slider_5.response,slider_6.response,instructions.started,instructions.stopped,task1_instr.thisRepN,task1_instr.thisTrialN,task1_instr.thisN,task1_instr.thisIndex,task1_instr.ran,task1,comprehension1_2.started,comprehension1_2.stopped,comp1_mouse.x,comp1_mouse.y,comp1_mouse.leftButton,comp1_mouse.midButton,comp1_mouse.rightButton,comp1_mouse.time,comp1_mouse.clicked_name,cue_o__trial_2.started,cue_o__trial_2.stopped,order,cue_order,out_order,cue_o_mouse.x,cue_o_mouse.y,cue_o_mouse.leftButton,cue_o_mouse.midButton,cue_o_mouse.rightButton,cue_o_mouse.time,cue_o_mouse.clicked_name,cue_selection_2.started,correct_answer,cue_selection_2.stopped,feedback_2.started,feedback_2.stopped,feedback_loop.thisRepN,feedback_loop.thisTrialN,feedback_loop.thisN,feedback_loop.thisIndex,feedback_loop.ran,stage1_trials.thisRepN,stage1_trials.thisTrialN,stage1_trials.thisN,stage1_trials.thisIndex,stage1_trials.ran,cue1,cue2,cue3,outcome,correct_out,o1_feedback,o2_feedback,stage2_feedback_loop.thisRepN,stage2_feedback_loop.thisTrialN,stage2_feedback_loop.thisN,stage2_feedback_loop.thisIndex,stage2_feedback_loop.ran,stage2_trials.thisRepN,stage2_trials.thisTrialN,stage2_trials.thisN,stage2_trials.thisIndex,stage2_trials.ran,stage3_feedback_loop.thisRepN,stage3_feedback_loop.thisTrialN,stage3_feedback_loop.thisN,stage3_feedback_loop.thisIndex,stage3_feedback_loop.ran,stage3_trials.thisRepN,stage3_trials.thisTrialN,stage3_trials.thisN,stage3_trials.thisIndex,stage3_trials.ran,debrief_2.started,debrief_2.stopped,debrief_loop.thisRepN,debrief_loop.thisTrialN,debrief_loop.thisN,debrief_loop.thisIndex,debrief_loop.ran,debrief_img,compr1_completed.thisRepN,compr1_completed.thisTrialN,compr1_completed.thisN,compr1_completed.thisIndex,compr1_completed.ran,consent_loop.thisRepN,consent_loop.thisTrialN,consent_loop.thisN,consent_loop.thisIndex,consent_loop.ran
0.0006,0.0013,6550cb1d00eb83c79f10bad9,34,male,2024-04-16_12h22.21.197,stockport_simplified,2022.2.4,Win32,29.94011976,661e456ee6de07e70aa9ef7b,661e51118cbfa20c53924e58,,,,,,,,,,,,,,,,,,,,,,,,,,,,,,,,,,,,,,,,,,,,,,,,,,,,,,,,,,,,,,,,,,,,,,,,,,,,,,,,,,,,,,,,,,,,,,,,,,,,,,,,,
,,6550cb1d00eb83c79f10bad9,34,male,2024-04-16_12h22.21.197,stockport_simplified,2022.2.4,Win32,29.94011976,661e456ee6de07e70aa9ef7b,661e51118cbfa20c53924e58,0.0617,36.9491,0,0,0,0,1,instructions/info1.png,,,,,,,,,,,,,,,,,,,,,,,,,,,,,,,,,,,,,,,,,,,,,,,,,,,,,,,,,,,,,,,,,,,,,,,,,,,,,,,,,,,,,,,,,,,,,,,,,
,,6550cb1d00eb83c79f10bad9,34,male,2024-04-16_12h22.21.197,stockport_simplified,2022.2.4,Win32,29.94011976,661e456ee6de07e70aa9ef7b,661e51118cbfa20c53924e58,36.9503,43.3955,0,1,1,1,1,instructions/info2.png,,,,,,,,,,,,,,,,,,,,,,,,,,,,,,,,,,,,,,,,,,,,,,,,,,,,,,,,,,,,,,,,,,,,,,,,,,,,,,,,,,,,,,,,,,,,,,,,,
,,6550cb1d00eb83c79f10bad9,34,male,2024-04-16_12h22.21.197,stockport_simplified,2022.2.4,Win32,29.94011976,661e456ee6de07e70aa9ef7b,661e51118cbfa20c53924e58,43.4107,51.7227,0,2,2,2,1,instructions/info3.png,,,,,,,,,,,,,,,,,,,,,,,,,,,,,,,,,,,,,,,,,,,,,,,,,,,,,,,,,,,,,,,,,,,,,,,,,,,,,,,,,,,,,,,,,,,,,,,,,
,,6550cb1d00eb83c79f10bad9,34,male,2024-04-16_12h22.21.197,stockport_simplified,2022.2.4,Win32,29.94011976,661e456ee6de07e70aa9ef7b,661e51118cbfa20c53924e58,,,,,,,,,51.7544,84.8106,1,1,1,1,1,1,,,,,,,,,,,,,,,,,,,,,,,,,,,,,,,,,,,,,,,,,,,,,,,,,,,,,,,,,,,,,,,,,,,,,,,,,,,,,,,,,,,,,,,,,
,,6550cb1d00eb83c79f10bad9,34,male,2024-04-16_12h22.21.197,stockport_simplified,2022.2.4,Win32,29.94011976,661e456ee6de07e70aa9ef7b,661e51118cbfa20c53924e58,,,,,,,,,,,,,,,,,84.8323,112.5127,0,0,0,0,1,instructions/task1_1.png,,,,,,,,,,,,,,,,,,,,,,,,,,,,,,,,,,,,,,,,,,,,,,,,,,,,,,,,,,,,,,,,,,,,,,,,,,,,,,,,,
,,6550cb1d00eb83c79f10bad9,34,male,2024-04-16_12h22.21.197,stockport_simplified,2022.2.4,Win32,29.94011976,661e456ee6de07e70aa9ef7b,661e51118cbfa20c53924e58,,,,,,,,,,,,,,,,,112.5312,140.6885,0,1,1,1,1,instructions/task1_2.png,,,,,,,,,,,,,,,,,,,,,,,,,,,,,,,,,,,,,,,,,,,,,,,,,,,,,,,,,,,,,,,,,,,,,,,,,,,,,,,,,
,,6550cb1d00eb83c79f10bad9,34,male,2024-04-16_12h22.21.197,stockport_simplified,2022.2.4,Win32,29.94011976,661e456ee6de07e70aa9ef7b,661e51118cbfa20c53924e58,,,,,,,,,,,,,,,,,140.7109,1262.5178,0,2,2,2,1,instructions/task1_3.png,,,,,,,,,,,,,,,,,,,,,,,,,,,,,,,,,,,,,,,,,,,,,,,,,,,,,,,,,,,,,,,,,,,,,,,,,,,,,,,,,
,,6550cb1d00eb83c79f10bad9,34,male,2024-04-16_12h22.21.197,stockport_simplified,2022.2.4,Win32,29.94011976,661e456ee6de07e70aa9ef7b,661e51118cbfa20c53924e58,,,,,,,,,,,,,,,,,,,,,,,,,1262.5188,1291.2084,-0.039814758,-0.319444444,1,0,0,28.6855,comp1_resp1,1291.2939,1295.2364,"[4,6,5,8,2,7,3,1]","[[0.3,0.2],[-0.3,0.2]]","[[-0.125,-0.2],[0.125,-0.2]]",-0.116666667,-0.212963019,1,0,0,3.4323,o1_image,1295.2425,1,1295.7651,1295.7663,1297.7635,0,0,0,0,1,,,,,,,,,,,,,,,,,,,,,,,,,,,,,,,,,,,,,,,,,,,,,,,,,,
,,6550cb1d00eb83c79f10bad9,34,male,2024-04-16_12h22.21.197,stockport_simplified,2022.2.4,Win32,29.94011976,661e456ee6de07e70aa9ef7b,661e51118cbfa20c53924e58,,,,,,,,,,,,,,,,,,,,,,,,,,,,,,,,,,,,,,,,,,,,,,,,,,,,,,,,0,0,0,23,1,N,M,C,o1_image,stimuli/out1.png,stimuli/correct_out1.png,stimuli/out2.png,,,,,,,,,,,,,,,,,,,,,,,,,,,,,,,,,,,,,,
,,6550cb1d00eb83c79f10bad9,34,male,2024-04-16_12h22.21.197,stockport_simplified,2022.2.4,Win32,29.94011976,661e456ee6de07e70aa9ef7b,661e51118cbfa20c53924e58,,,,,,,,,,,,,,,,,,,,,,,,,,,,,,,,,,1297.7671,1299.3286,"[4,6,5,8,2,7,3,1]","[[0.3,0.2],[-0.3,0.2]]","[[-0.125,-0.2],[0.125,-0.2]]",-0.116666667,-0.212963019,1,0,0,1.0537,o1_image,1299.3302,1,1299.8304,1299.8306,1301.8276,0,0,0,0,1,,,,,,,,,,,,,,,,,,,,,,,,,,,,,,,,,,,,,,,,,,,,,,,,,,
,,6550cb1d00eb83c79f10bad9,34,male,2024-04-16_12h22.21.197,stockport_simplified,2022.2.4,Win32,29.94011976,661e456ee6de07e70aa9ef7b,661e51118cbfa20c53924e58,,,,,,,,,,,,,,,,,,,,,,,,,,,,,,,,,,,,,,,,,,,,,,,,,,,,,,,,0,1,1,22,1,N,M,C,o1_image,stimuli/out1.png,stimuli/correct_out1.png,stimuli/out2.png,,,,,,,,,,,,,,,,,,,,,,,,,,,,,,,,,,,,,,
,,6550cb1d00eb83c79f10bad9,34,male,2024-04-16_12h22.21.197,stockport_simplified,2022.2.4,Win32,29.94011976,661e456ee6de07e70aa9ef7b,661e51118cbfa20c53924e58,,,,,,,,,,,,,,,,,,,,,,,,,,,,,,,,,,1301.8288,1303.1856,"[4,6,5,8,2,7,3,1]","[[-0.3,0.2],[0.3,0.2]]","[[-0.125,-0.2],[0.125,-0.2]]",-0.116666667,-0.212963019,1,0,0,0.8344,o1_image,1303.1911,1,1303.6897,1303.6898,1305.6951,0,0,0,0,1,,,,,,,,,,,,,,,,,,,,,,,,,,,,,,,,,,,,,,,,,,,,,,,,,,
,,6550cb1d00eb83c79f10bad9,34,male,2024-04-16_12h22.21.197,stockport_simplified,2022.2.4,Win32,29.94011976,661e456ee6de07e70aa9ef7b,661e51118cbfa20c53924e58,,,,,,,,,,,,,,,,,,,,,,,,,,,,,,,,,,,,,,,,,,,,,,,,,,,,,,,,0,2,2,51,1,N,M,C,o1_image,stimuli/out1.png,stimuli/correct_out1.png,stimuli/out2.png,,,,,,,,,,,,,,,,,,,,,,,,,,,,,,,,,,,,,,
,,6550cb1d00eb83c79f10bad9,34,male,2024-04-16_12h22.21.197,stockport_simplified,2022.2.4,Win32,29.94011976,661e456ee6de07e70aa9ef7b,661e51118cbfa20c53924e58,,,,,,,,,,,,,,,,,,,,,,,,,,,,,,,,,,1305.6973,1307.8427,"[4,6,5,8,2,7,3,1]","[[-0.3,0.2],[0.3,0.2]]","[[0.125,-0.2],[-0.125,-0.2]]",0.142592621,-0.200925954,1,0,0,1.6371,o1_image,1307.8453,1,1308.3404,1308.3404,1310.3216,0,0,0,0,1,,,,,,,,,,,,,,,,,,,,,,,,,,,,,,,,,,,,,,,,,,,,,,,,,,
,,6550cb1d00eb83c79f10bad9,34,male,2024-04-16_12h22.21.197,stockport_simplified,2022.2.4,Win32,29.94011976,661e456ee6de07e70aa9ef7b,661e51118cbfa20c53924e58,,,,,,,,,,,,,,,,,,,,,,,,,,,,,,,,,,,,,,,,,,,,,,,,,,,,,,,,0,3,3,54,1,N,M,C,o1_image,stimuli/out1.png,stimuli/correct_out1.png,stimuli/out2.png,,,,,,,,,,,,,,,,,,,,,,,,,,,,,,,,,,,,,,
,,6550cb1d00eb83c79f10bad9,34,male,2024-04-16_12h22.21.197,stockport_simplified,2022.2.4,Win32,29.94011976,661e456ee6de07e70aa9ef7b,661e51118cbfa20c53924e58,,,,,,,,,,,,,,,,,,,,,,,,,,,,,,,,,,1310.3228,1313.1684,"[4,6,5,8,2,7,3,1]","[[-0.3,0.2],[0.3,0.2]]","[[0.125,-0.2],[-0.125,-0.2]]",-0.114814758,-0.212963019,1,0,0,2.3288,o2_image,1313.1722,0,1313.6669,1313.6672,1315.6585,0,0,0,0,1,,,,,,,,,,,,,,,,,,,,,,,,,,,,,,,,,,,,,,,,,,,,,,,,,,
,,6550cb1d00eb83c79f10bad9,34,male,2024-04-16_12h22.21.197,stockport_simplified,2022.2.4,Win32,29.94011976,661e456ee6de07e70aa9ef7b,661e51118cbfa20c53924e58,,,,,,,,,,,,,,,,,,,,,,,,,,,,,,,,,,,,,,,,,,,,,,,,,,,,,,,,0,4,4,0,1,A,X,N,o1_image,stimuli/out1.png,stimuli/correct_out1.png,stimuli/out2.png,,,,,,,,,,,,,,,,,,,,,,,,,,,,,,,,,,,,,,
,,6550cb1d00eb83c79f10bad9,34,male,2024-04-16_12h22.21.197,stockport_simplified,2022.2.4,Win32,29.94011976,661e456ee6de07e70aa9ef7b,661e51118cbfa20c53924e58,,,,,,,,,,,,,,,,,,,,,,,,,,,,,,,,,,1315.6599,1317.4861,"[4,6,5,8,2,7,3,1]","[[-0.3,0.2],[0.3,0.2]]","[[0.125,-0.2],[-0.125,-0.2]]",0.146296353,-0.19629631,1,0,0,1.3156,o1_image,1317.49,0,1317.9961,1317.9963,1319.9929,0,0,0,0,1,,,,,,,,,,,,,,,,,,,,,,,,,,,,,,,,,,,,,,,,,,,,,,,,,,
,,6550cb1d00eb83c79f10bad9,34,male,2024-04-16_12h22.21.197,stockport_simplified,2022.2.4,Win32,29.94011976,661e456ee6de07e70aa9ef7b,661e51118cbfa20c53924e58,,,,,,,,,,,,,,,,,,,,,,,,,,,,,,,,,,,,,,,,,,,,,,,,,,,,,,,,0,5,5,15,1,B,Y,N,o2_image,stimuli/out2.png,stimuli/out1.png,stimuli/correct_out2.png,,,,,,,,,,,,,,,,,,,,,,,,,,,,,,,,,,,,,,
,,6550cb1d00eb83c79f10bad9,34,male,2024-04-16_12h22.21.197,stockport_simplified,2022.2.4,Win32,29.94011976,661e456ee6de07e70aa9ef7b,661e51118cbfa20c53924e58,,,,,,,,,,,,,,,,,,,,,,,,,,,,,,,,,,1319.9945,1321.5655,"[4,6,5,8,2,7,3,1]","[[0.3,0.2],[-0.3,0.2]]","[[-0.125,-0.2],[0.125,-0.2]]",-0.139814758,-0.237037065,1,0,0,1.0639,o1_image,1321.5702,1,1322.0669,1322.0671,1324.0747,0,0,0,0,1,,,,,,,,,,,,,,,,,,,,,,,,,,,,,,,,,,,,,,,,,,,,,,,,,,
,,6550cb1d00eb83c79f10bad9,34,male,2024-04-16_12h22.21.197,stockport_simplified,2022.2.4,Win32,29.94011976,661e456ee6de07e70aa9ef7b,661e51118cbfa20c53924e58,,,,,,,,,,,,,,,,,,,,,,,,,,,,,,,,,,,,,,,,,,,,,,,,,,,,,,,,0,6,6,53,1,N,M,C,o1_image,stimuli/out1.png,stimuli/correct_out1.png,stimuli/out2.png,,,,,,,,,,,,,,,,,,,,,,,,,,,,,,,,,,,,,,
,,6550cb1d00eb83c79f10bad9,34,male,2024-04-16_12h22.21.197,stockport_simplified,2022.2.4,Win32,29.94011976,661e456ee6de07e70aa9ef7b,661e51118cbfa20c53924e58,,,,,,,,,,,,,,,,,,,,,,,,,,,,,,,,,,1324.0776,1326.4441,"[4,6,5,8,2,7,3,1]","[[0.3,0.2],[-0.3,0.2]]","[[-0.125,-0.2],[0.125,-0.2]]",-0.116666667,-0.227777778,1,0,0,1.8449,o1_image,1326.4475,0,1326.9535,1326.9536,1328.9534,0,0,0,0,1,,,,,,,,,,,,,,,,,,,,,,,,,,,,,,,,,,,,,,,,,,,,,,,,,,
,,6550cb1d00eb83c79f10bad9,34,male,2024-04-16_12h22.21.197,stockport_simplified,2022.2.4,Win32,29.94011976,661e456ee6de07e70aa9ef7b,661e51118cbfa20c53924e58,,,,,,,,,,,,,,,,,,,,,,,,,,,,,,,,,,,,,,,,,,,,,,,,,,,,,,,,0,7,7,45,1,B,Y,N,o2_image,stimuli/out2.png,stimuli/out1.png,stimuli/correct_out2.png,,,,,,,,,,,,,,,,,,,,,,,,,,,,,,,,,,,,,,
,,6550cb1d00eb83c79f10bad9,34,male,2024-04-16_12h22.21.197,stockport_simplified,2022.2.4,Win32,29.94011976,661e456ee6de07e70aa9ef7b,661e51118cbfa20c53924e58,,,,,,,,,,,,,,,,,,,,,,,,,,,,,,,,,,1328.9564,1330.2874,"[4,6,5,8,2,7,3,1]","[[-0.3,0.2],[0.3,0.2]]","[[-0.125,-0.2],[0.125,-0.2]]",-0.116666667,-0.227777778,1,0,0,0.8085,o1_image,1330.291,0,1330.7713,1330.7715,1332.7701,0,0,0,0,1,,,,,,,,,,,,,,,,,,,,,,,,,,,,,,,,,,,,,,,,,,,,,,,,,,
,,6550cb1d00eb83c79f10bad9,34,male,2024-04-16_12h22.21.197,stockport_simplified,2022.2.4,Win32,29.94011976,661e456ee6de07e70aa9ef7b,661e51118cbfa20c53924e58,,,,,,,,,,,,,,,,,,,,,,,,,,,,,,,,,,,,,,,,,,,,,,,,,,,,,,,,0,8,8,28,1,N,M,D,o2_image,stimuli/out2.png,stimuli/out1.png,stimuli/correct_out2.png,,,,,,,,,,,,,,,,,,,,,,,,,,,,,,,,,,,,,,
,,6550cb1d00eb83c79f10bad9,34,male,2024-04-16_12h22.21.197,stockport_simplified,2022.2.4,Win32,29.94011976,661e456ee6de07e70aa9ef7b,661e51118cbfa20c53924e58,,,,,,,,,,,,,,,,,,,,,,,,,,,,,,,,,,1332.7716,1335.191,"[4,6,5,8,2,7,3,1]","[[-0.3,0.2],[0.3,0.2]]","[[0.125,-0.2],[-0.125,-0.2]]",-0.101851824,-0.223148176,1,0,0,1.8944,o2_image,1335.1979,1,1335.6917,1335.6917,1337.6796,0,0,0,0,1,,,,,,,,,,,,,,,,,,,,,,,,,,,,,,,,,,,,,,,,,,,,,,,,,,
,,6550cb1d00eb83c79f10bad9,34,male,2024-04-16_12h22.21.197,stockport_simplified,2022.2.4,Win32,29.94011976,661e456ee6de07e70aa9ef7b,661e51118cbfa20c53924e58,,,,,,,,,,,,,,,,,,,,,,,,,,,,,,,,,,,,,,,,,,,,,,,,,,,,,,,,0,9,9,46,1,B,Y,N,o2_image,stimuli/out2.png,stimuli/out1.png,stimuli/correct_out2.png,,,,,,,,,,,,,,,,,,,,,,,,,,,,,,,,,,,,,,
,,6550cb1d00eb83c79f10bad9,34,male,2024-04-16_12h22.21.197,stockport_simplified,2022.2.4,Win32,29.94011976,661e456ee6de07e70aa9ef7b,661e51118cbfa20c53924e58,,,,,,,,,,,,,,,,,,,,,,,,,,,,,,,,,,1337.6812,1340.5616,"[4,6,5,8,2,7,3,1]","[[-0.3,0.2],[0.3,0.2]]","[[0.125,-0.2],[-0.125,-0.2]]",-0.076851824,-0.194444444,1,0,0,2.3675,o2_image,1340.6045,0,1341.0993,1341.0993,1343.0764,0,0,0,0,1,,,,,,,,,,,,,,,,,,,,,,,,,,,,,,,,,,,,,,,,,,,,,,,,,,
,,6550cb1d00eb83c79f10bad9,34,male,2024-04-16_12h22.21.197,stockport_simplified,2022.2.4,Win32,29.94011976,661e456ee6de07e70aa9ef7b,661e51118cbfa20c53924e58,,,,,,,,,,,,,,,,,,,,,,,,,,,,,,,,,,,,,,,,,,,,,,,,,,,,,,,,0,10,10,35,1,A,Y,N,o1_image,stimuli/out1.png,stimuli/correct_out1.png,stimuli/out2.png,,,,,,,,,,,,,,,,,,,,,,,,,,,,,,,,,,,,,,
,,6550cb1d00eb83c79f10bad9,34,male,2024-04-16_12h22.21.197,stockport_simplified,2022.2.4,Win32,29.94011976,661e456ee6de07e70aa9ef7b,661e51118cbfa20c53924e58,,,,,,,,,,,,,,,,,,,,,,,,,,,,,,,,,,1343.0783,1346.6549,"[4,6,5,8,2,7,3,1]","[[0.3,0.2],[-0.3,0.2]]","[[-0.125,-0.2],[0.125,-0.2]]",-0.111111111,-0.197222222,1,0,0,3.0705,o1_image,1346.6768,1,1347.1758,1347.1759,1349.2118,0,0,0,0,1,,,,,,,,,,,,,,,,,,,,,,,,,,,,,,,,,,,,,,,,,,,,,,,,,,
,,6550cb1d00eb83c79f10bad9,34,male,2024-04-16_12h22.21.197,stockport_simplified,2022.2.4,Win32,29.94011976,661e456ee6de07e70aa9ef7b,661e51118cbfa20c53924e58,,,,,,,,,,,,,,,,,,,,,,,,,,,,,,,,,,,,,,,,,,,,,,,,,,,,,,,,0,11,11,32,1,A,X,N,o1_image,stimuli/out1.png,stimuli/correct_out1.png,stimuli/out2.png,,,,,,,,,,,,,,,,,,,,,,,,,,,,,,,,,,,,,,
,,6550cb1d00eb83c79f10bad9,34,male,2024-04-16_12h22.21.197,stockport_simplified,2022.2.4,Win32,29.94011976,661e456ee6de07e70aa9ef7b,661e51118cbfa20c53924e58,,,,,,,,,,,,,,,,,,,,,,,,,,,,,,,,,,1349.2126,1351.1786,"[4,6,5,8,2,7,3,1]","[[-0.3,0.2],[0.3,0.2]]","[[-0.125,-0.2],[0.125,-0.2]]",-0.099074046,-0.228703732,1,0,0,1.4535,o1_image,1351.1803,1,1351.6697,1351.6698,1353.6714,0,0,0,0,1,,,,,,,,,,,,,,,,,,,,,,,,,,,,,,,,,,,,,,,,,,,,,,,,,,
,,6550cb1d00eb83c79f10bad9,34,male,2024-04-16_12h22.21.197,stockport_simplified,2022.2.4,Win32,29.94011976,661e456ee6de07e70aa9ef7b,661e51118cbfa20c53924e58,,,,,,,,,,,,,,,,,,,,,,,,,,,,,,,,,,,,,,,,,,,,,,,,,,,,,,,,0,12,12,50,1,N,M,C,o1_image,stimuli/out1.png,stimuli/correct_out1.png,stimuli/out2.png,,,,,,,,,,,,,,,,,,,,,,,,,,,,,,,,,,,,,,
,,6550cb1d00eb83c79f10bad9,34,male,2024-04-16_12h22.21.197,stockport_simplified,2022.2.4,Win32,29.94011976,661e456ee6de07e70aa9ef7b,661e51118cbfa20c53924e58,,,,,,,,,,,,,,,,,,,,,,,,,,,,,,,,,,1353.6745,1355.9694,"[4,6,5,8,2,7,3,1]","[[-0.3,0.2],[0.3,0.2]]","[[0.125,-0.2],[-0.125,-0.2]]",-0.121296268,-0.185185199,1,0,0,1.7911,o2_image,1355.9716,1,1356.4504,1356.4504,1358.4782,0,0,0,0,1,,,,,,,,,,,,,,,,,,,,,,,,,,,,,,,,,,,,,,,,,,,,,,,,,,
,,6550cb1d00eb83c79f10bad9,34,male,2024-04-16_12h22.21.197,stockport_simplified,2022.2.4,Win32,29.94011976,661e456ee6de07e70aa9ef7b,661e51118cbfa20c53924e58,,,,,,,,,,,,,,,,,,,,,,,,,,,,,,,,,,,,,,,,,,,,,,,,,,,,,,,,0,13,13,42,1,B,X,N,o2_image,stimuli/out2.png,stimuli/out1.png,stimuli/correct_out2.png,,,,,,,,,,,,,,,,,,,,,,,,,,,,,,,,,,,,,,
,,6550cb1d00eb83c79f10bad9,34,male,2024-04-16_12h22.21.197,stockport_simplified,2022.2.4,Win32,29.94011976,661e456ee6de07e70aa9ef7b,661e51118cbfa20c53924e58,,,,,,,,,,,,,,,,,,,,,,,,,,,,,,,,,,1358.4815,1360.5775,"[4,6,5,8,2,7,3,1]","[[-0.3,0.2],[0.3,0.2]]","[[-0.125,-0.2],[0.125,-0.2]]",0.085185242,-0.179629644,1,0,0,1.566,o2_image,1360.5809,1,1361.0934,1361.0934,1363.0933,0,0,0,0,1,,,,,,,,,,,,,,,,,,,,,,,,,,,,,,,,,,,,,,,,,,,,,,,,,,
,,6550cb1d00eb83c79f10bad9,34,male,2024-04-16_12h22.21.197,stockport_simplified,2022.2.4,Win32,29.94011976,661e456ee6de07e70aa9ef7b,661e51118cbfa20c53924e58,,,,,,,,,,,,,,,,,,,,,,,,,,,,,,,,,,,,,,,,,,,,,,,,,,,,,,,,0,14,14,57,1,N,M,D,o2_image,stimuli/out2.png,stimuli/out1.png,stimuli/correct_out2.png,,,,,,,,,,,,,,,,,,,,,,,,,,,,,,,,,,,,,,
,,6550cb1d00eb83c79f10bad9,34,male,2024-04-16_12h22.21.197,stockport_simplified,2022.2.4,Win32,29.94011976,661e456ee6de07e70aa9ef7b,661e51118cbfa20c53924e58,,,,,,,,,,,,,,,,,,,,,,,,,,,,,,,,,,1363.0943,1366.6455,"[4,6,5,8,2,7,3,1]","[[-0.3,0.2],[0.3,0.2]]","[[0.125,-0.2],[-0.125,-0.2]]",-0.117592536,-0.191666667,1,0,0,3.0182,o2_image,1366.6744,0,1367.1683,1367.1683,1369.1636,0,0,0,0,1,,,,,,,,,,,,,,,,,,,,,,,,,,,,,,,,,,,,,,,,,,,,,,,,,,
,,6550cb1d00eb83c79f10bad9,34,male,2024-04-16_12h22.21.197,stockport_simplified,2022.2.4,Win32,29.94011976,661e456ee6de07e70aa9ef7b,661e51118cbfa20c53924e58,,,,,,,,,,,,,,,,,,,,,,,,,,,,,,,,,,,,,,,,,,,,,,,,,,,,,,,,0,15,15,9,1,A,Y,N,o1_image,stimuli/out1.png,stimuli/correct_out1.png,stimuli/out2.png,,,,,,,,,,,,,,,,,,,,,,,,,,,,,,,,,,,,,,
,,6550cb1d00eb83c79f10bad9,34,male,2024-04-16_12h22.21.197,stockport_simplified,2022.2.4,Win32,29.94011976,661e456ee6de07e70aa9ef7b,661e51118cbfa20c53924e58,,,,,,,,,,,,,,,,,,,,,,,,,,,,,,,,,,1369.1665,1372.0216,"[4,6,5,8,2,7,3,1]","[[0.3,0.2],[-0.3,0.2]]","[[0.125,-0.2],[-0.125,-0.2]]",0.127777778,-0.180555556,1,0,0,2.3339,o1_image,1372.0248,1,1372.5062,1372.5063,1374.5175,0,0,0,0,1,,,,,,,,,,,,,,,,,,,,,,,,,,,,,,,,,,,,,,,,,,,,,,,,,,
,,6550cb1d00eb83c79f10bad9,34,male,2024-04-16_12h22.21.197,stockport_simplified,2022.2.4,Win32,29.94011976,661e456ee6de07e70aa9ef7b,661e51118cbfa20c53924e58,,,,,,,,,,,,,,,,,,,,,,,,,,,,,,,,,,,,,,,,,,,,,,,,,,,,,,,,0,16,16,33,1,A,X,N,o1_image,stimuli/out1.png,stimuli/correct_out1.png,stimuli/out2.png,,,,,,,,,,,,,,,,,,,,,,,,,,,,,,,,,,,,,,
,,6550cb1d00eb83c79f10bad9,34,male,2024-04-16_12h22.21.197,stockport_simplified,2022.2.4,Win32,29.94011976,661e456ee6de07e70aa9ef7b,661e51118cbfa20c53924e58,,,,,,,,,,,,,,,,,,,,,,,,,,,,,,,,,,1374.5197,1376.3348,"[4,6,5,8,2,7,3,1]","[[-0.3,0.2],[0.3,0.2]]","[[0.125,-0.2],[-0.125,-0.2]]",0.13148151,-0.185185199,1,0,0,1.2779,o1_image,1376.3373,1,1376.8339,1376.834,1378.8212,0,0,0,0,1,,,,,,,,,,,,,,,,,,,,,,,,,,,,,,,,,,,,,,,,,,,,,,,,,,
,,6550cb1d00eb83c79f10bad9,34,male,2024-04-16_12h22.21.197,stockport_simplified,2022.2.4,Win32,29.94011976,661e456ee6de07e70aa9ef7b,661e51118cbfa20c53924e58,,,,,,,,,,,,,,,,,,,,,,,,,,,,,,,,,,,,,,,,,,,,,,,,,,,,,,,,0,17,17,36,1,A,Y,N,o1_image,stimuli/out1.png,stimuli/correct_out1.png,stimuli/out2.png,,,,,,,,,,,,,,,,,,,,,,,,,,,,,,,,,,,,,,
,,6550cb1d00eb83c79f10bad9,34,male,2024-04-16_12h22.21.197,stockport_simplified,2022.2.4,Win32,29.94011976,661e456ee6de07e70aa9ef7b,661e51118cbfa20c53924e58,,,,,,,,,,,,,,,,,,,,,,,,,,,,,,,,,,1378.8227,1381.1213,"[4,6,5,8,2,7,3,1]","[[0.3,0.2],[-0.3,0.2]]","[[0.125,-0.2],[-0.125,-0.2]]",-0.133333333,-0.205555556,1,0,0,1.7884,o2_image,1381.1237,1,1381.6169,1381.6171,1383.5968,0,0,0,0,1,,,,,,,,,,,,,,,,,,,,,,,,,,,,,,,,,,,,,,,,,,,,,,,,,,
,,6550cb1d00eb83c79f10bad9,34,male,2024-04-16_12h22.21.197,stockport_simplified,2022.2.4,Win32,29.94011976,661e456ee6de07e70aa9ef7b,661e51118cbfa20c53924e58,,,,,,,,,,,,,,,,,,,,,,,,,,,,,,,,,,,,,,,,,,,,,,,,,,,,,,,,0,18,18,55,1,N,M,D,o2_image,stimuli/out2.png,stimuli/out1.png,stimuli/correct_out2.png,,,,,,,,,,,,,,,,,,,,,,,,,,,,,,,,,,,,,,
,,6550cb1d00eb83c79f10bad9,34,male,2024-04-16_12h22.21.197,stockport_simplified,2022.2.4,Win32,29.94011976,661e456ee6de07e70aa9ef7b,661e51118cbfa20c53924e58,,,,,,,,,,,,,,,,,,,,,,,,,,,,,,,,,,1383.5994,1386.0578,"[4,6,5,8,2,7,3,1]","[[0.3,0.2],[-0.3,0.2]]","[[0.125,-0.2],[-0.125,-0.2]]",-0.1,-0.185185199,1,0,0,1.9434,o2_image,1386.0609,0,1386.5442,1386.5443,1388.5554,0,0,0,0,1,,,,,,,,,,,,,,,,,,,,,,,,,,,,,,,,,,,,,,,,,,,,,,,,,,
,,6550cb1d00eb83c79f10bad9,34,male,2024-04-16_12h22.21.197,stockport_simplified,2022.2.4,Win32,29.94011976,661e456ee6de07e70aa9ef7b,661e51118cbfa20c53924e58,,,,,,,,,,,,,,,,,,,,,,,,,,,,,,,,,,,,,,,,,,,,,,,,,,,,,,,,0,19,19,2,1,A,X,N,o1_image,stimuli/out1.png,stimuli/correct_out1.png,stimuli/out2.png,,,,,,,,,,,,,,,,,,,,,,,,,,,,,,,,,,,,,,
,,6550cb1d00eb83c79f10bad9,34,male,2024-04-16_12h22.21.197,stockport_simplified,2022.2.4,Win32,29.94011976,661e456ee6de07e70aa9ef7b,661e51118cbfa20c53924e58,,,,,,,,,,,,,,,,,,,,,,,,,,,,,,,,,,1388.5578,1395.1955,"[4,6,5,8,2,7,3,1]","[[0.3,0.2],[-0.3,0.2]]","[[-0.125,-0.2],[0.125,-0.2]]",0.138888889,-0.186111111,1,0,0,6.132,o2_image,1395.2186,1,1395.7031,1395.7033,1397.6881,0,0,0,0,1,,,,,,,,,,,,,,,,,,,,,,,,,,,,,,,,,,,,,,,,,,,,,,,,,,
,,6550cb1d00eb83c79f10bad9,34,male,2024-04-16_12h22.21.197,stockport_simplified,2022.2.4,Win32,29.94011976,661e456ee6de07e70aa9ef7b,661e51118cbfa20c53924e58,,,,,,,,,,,,,,,,,,,,,,,,,,,,,,,,,,,,,,,,,,,,,,,,,,,,,,,,0,20,20,11,1,B,X,N,o2_image,stimuli/out2.png,stimuli/out1.png,stimuli/correct_out2.png,,,,,,,,,,,,,,,,,,,,,,,,,,,,,,,,,,,,,,
,,6550cb1d00eb83c79f10bad9,34,male,2024-04-16_12h22.21.197,stockport_simplified,2022.2.4,Win32,29.94011976,661e456ee6de07e70aa9ef7b,661e51118cbfa20c53924e58,,,,,,,,,,,,,,,,,,,,,,,,,,,,,,,,,,1397.6899,1399.7277,"[4,6,5,8,2,7,3,1]","[[-0.3,0.2],[0.3,0.2]]","[[0.125,-0.2],[-0.125,-0.2]]",-0.098148092,-0.201851866,1,0,0,1.5121,o2_image,1399.7299,1,1400.2162,1400.2164,1402.1979,0,0,0,0,1,,,,,,,,,,,,,,,,,,,,,,,,,,,,,,,,,,,,,,,,,,,,,,,,,,
,,6550cb1d00eb83c79f10bad9,34,male,2024-04-16_12h22.21.197,stockport_simplified,2022.2.4,Win32,29.94011976,661e456ee6de07e70aa9ef7b,661e51118cbfa20c53924e58,,,,,,,,,,,,,,,,,,,,,,,,,,,,,,,,,,,,,,,,,,,,,,,,,,,,,,,,0,21,21,27,1,N,M,D,o2_image,stimuli/out2.png,stimuli/out1.png,stimuli/correct_out2.png,,,,,,,,,,,,,,,,,,,,,,,,,,,,,,,,,,,,,,
,,6550cb1d00eb83c79f10bad9,34,male,2024-04-16_12h22.21.197,stockport_simplified,2022.2.4,Win32,29.94011976,661e456ee6de07e70aa9ef7b,661e51118cbfa20c53924e58,,,,,,,,,,,,,,,,,,,,,,,,,,,,,,,,,,1402.2004,1405.6625,"[4,6,5,8,2,7,3,1]","[[0.3,0.2],[-0.3,0.2]]","[[-0.125,-0.2],[0.125,-0.2]]",-0.110185157,-0.190740755,1,0,0,2.9268,o1_image,1405.6815,1,1406.1745,1406.1746,1408.1654,0,0,0,0,1,,,,,,,,,,,,,,,,,,,,,,,,,,,,,,,,,,,,,,,,,,,,,,,,,,
,,6550cb1d00eb83c79f10bad9,34,male,2024-04-16_12h22.21.197,stockport_simplified,2022.2.4,Win32,29.94011976,661e456ee6de07e70aa9ef7b,661e51118cbfa20c53924e58,,,,,,,,,,,,,,,,,,,,,,,,,,,,,,,,,,,,,,,,,,,,,,,,,,,,,,,,0,22,22,34,1,A,X,N,o1_image,stimuli/out1.png,stimuli/correct_out1.png,stimuli/out2.png,,,,,,,,,,,,,,,,,,,,,,,,,,,,,,,,,,,,,,
,,6550cb1d00eb83c79f10bad9,34,male,2024-04-16_12h22.21.197,stockport_simplified,2022.2.4,Win32,29.94011976,661e456ee6de07e70aa9ef7b,661e51118cbfa20c53924e58,,,,,,,,,,,,,,,,,,,,,,,,,,,,,,,,,,1408.1667,1410.0393,"[4,6,5,8,2,7,3,1]","[[-0.3,0.2],[0.3,0.2]]","[[-0.125,-0.2],[0.125,-0.2]]",0.115740797,-0.188888889,1,0,0,1.3522,o2_image,1410.0417,1,1410.5201,1410.5201,1412.4977,0,0,0,0,1,,,,,,,,,,,,,,,,,,,,,,,,,,,,,,,,,,,,,,,,,,,,,,,,,,
,,6550cb1d00eb83c79f10bad9,34,male,2024-04-16_12h22.21.197,stockport_simplified,2022.2.4,Win32,29.94011976,661e456ee6de07e70aa9ef7b,661e51118cbfa20c53924e58,,,,,,,,,,,,,,,,,,,,,,,,,,,,,,,,,,,,,,,,,,,,,,,,,,,,,,,,0,23,23,17,1,B,Y,N,o2_image,stimuli/out2.png,stimuli/out1.png,stimuli/correct_out2.png,,,,,,,,,,,,,,,,,,,,,,,,,,,,,,,,,,,,,,
,,6550cb1d00eb83c79f10bad9,34,male,2024-04-16_12h22.21.197,stockport_simplified,2022.2.4,Win32,29.94011976,661e456ee6de07e70aa9ef7b,661e51118cbfa20c53924e58,,,,,,,,,,,,,,,,,,,,,,,,,,,,,,,,,,1412.4999,1414.2573,"[4,6,5,8,2,7,3,1]","[[0.3,0.2],[-0.3,0.2]]","[[-0.125,-0.2],[0.125,-0.2]]",0.116666667,-0.187962977,1,0,0,1.2352,o2_image,1414.2593,1,1414.7667,1414.7668,1416.7663,0,0,0,0,1,,,,,,,,,,,,,,,,,,,,,,,,,,,,,,,,,,,,,,,,,,,,,,,,,,
,,6550cb1d00eb83c79f10bad9,34,male,2024-04-16_12h22.21.197,stockport_simplified,2022.2.4,Win32,29.94011976,661e456ee6de07e70aa9ef7b,661e51118cbfa20c53924e58,,,,,,,,,,,,,,,,,,,,,,,,,,,,,,,,,,,,,,,,,,,,,,,,,,,,,,,,0,24,24,58,1,N,M,D,o2_image,stimuli/out2.png,stimuli/out1.png,stimuli/correct_out2.png,,,,,,,,,,,,,,,,,,,,,,,,,,,,,,,,,,,,,,
,,6550cb1d00eb83c79f10bad9,34,male,2024-04-16_12h22.21.197,stockport_simplified,2022.2.4,Win32,29.94011976,661e456ee6de07e70aa9ef7b,661e51118cbfa20c53924e58,,,,,,,,,,,,,,,,,,,,,,,,,,,,,,,,,,1416.7679,1419.0135,"[4,6,5,8,2,7,3,1]","[[0.3,0.2],[-0.3,0.2]]","[[0.125,-0.2],[-0.125,-0.2]]",0.116666667,-0.187037065,1,0,0,1.7411,o1_image,1419.0151,0,1419.5135,1419.5136,1421.5179,0,0,0,0,1,,,,,,,,,,,,,,,,,,,,,,,,,,,,,,,,,,,,,,,,,,,,,,,,,,
,,6550cb1d00eb83c79f10bad9,34,male,2024-04-16_12h22.21.197,stockport_simplified,2022.2.4,Win32,29.94011976,661e456ee6de07e70aa9ef7b,661e51118cbfa20c53924e58,,,,,,,,,,,,,,,,,,,,,,,,,,,,,,,,,,,,,,,,,,,,,,,,,,,,,,,,0,25,25,14,1,B,X,N,o2_image,stimuli/out2.png,stimuli/out1.png,stimuli/correct_out2.png,,,,,,,,,,,,,,,,,,,,,,,,,,,,,,,,,,,,,,
,,6550cb1d00eb83c79f10bad9,34,male,2024-04-16_12h22.21.197,stockport_simplified,2022.2.4,Win32,29.94011976,661e456ee6de07e70aa9ef7b,661e51118cbfa20c53924e58,,,,,,,,,,,,,,,,,,,,,,,,,,,,,,,,,,1421.52,1423.452,"[4,6,5,8,2,7,3,1]","[[0.3,0.2],[-0.3,0.2]]","[[-0.125,-0.2],[0.125,-0.2]]",0.116666667,-0.19629631,1,0,0,1.4134,o2_image,1423.4548,1,1423.9304,1423.9305,1425.941,0,0,0,0,1,,,,,,,,,,,,,,,,,,,,,,,,,,,,,,,,,,,,,,,,,,,,,,,,,,
,,6550cb1d00eb83c79f10bad9,34,male,2024-04-16_12h22.21.197,stockport_simplified,2022.2.4,Win32,29.94011976,661e456ee6de07e70aa9ef7b,661e51118cbfa20c53924e58,,,,,,,,,,,,,,,,,,,,,,,,,,,,,,,,,,,,,,,,,,,,,,,,,,,,,,,,0,26,26,10,1,B,X,N,o2_image,stimuli/out2.png,stimuli/out1.png,stimuli/correct_out2.png,,,,,,,,,,,,,,,,,,,,,,,,,,,,,,,,,,,,,,
,,6550cb1d00eb83c79f10bad9,34,male,2024-04-16_12h22.21.197,stockport_simplified,2022.2.4,Win32,29.94011976,661e456ee6de07e70aa9ef7b,661e51118cbfa20c53924e58,,,,,,,,,,,,,,,,,,,,,,,,,,,,,,,,,,1425.9429,1428.1403,"[4,6,5,8,2,7,3,1]","[[0.3,0.2],[-0.3,0.2]]","[[-0.125,-0.2],[0.125,-0.2]]",-0.137962935,-0.210185199,1,0,0,1.6949,o1_image,1428.1427,1,1428.6446,1428.6447,1430.6226,0,0,0,0,1,,,,,,,,,,,,,,,,,,,,,,,,,,,,,,,,,,,,,,,,,,,,,,,,,,
,,6550cb1d00eb83c79f10bad9,34,male,2024-04-16_12h22.21.197,stockport_simplified,2022.2.4,Win32,29.94011976,661e456ee6de07e70aa9ef7b,661e51118cbfa20c53924e58,,,,,,,,,,,,,,,,,,,,,,,,,,,,,,,,,,,,,,,,,,,,,,,,,,,,,,,,0,27,27,4,1,A,X,N,o1_image,stimuli/out1.png,stimuli/correct_out1.png,stimuli/out2.png,,,,,,,,,,,,,,,,,,,,,,,,,,,,,,,,,,,,,,
,,6550cb1d00eb83c79f10bad9,34,male,2024-04-16_12h22.21.197,stockport_simplified,2022.2.4,Win32,29.94011976,661e456ee6de07e70aa9ef7b,661e51118cbfa20c53924e58,,,,,,,,,,,,,,,,,,,,,,,,,,,,,,,,,,1430.6235,1432.812,"[4,6,5,8,2,7,3,1]","[[0.3,0.2],[-0.3,0.2]]","[[-0.125,-0.2],[0.125,-0.2]]",-0.112962935,-0.211111111,1,0,0,1.6806,o1_image,1432.8167,1,1433.3175,1433.3177,1435.3059,0,0,0,0,1,,,,,,,,,,,,,,,,,,,,,,,,,,,,,,,,,,,,,,,,,,,,,,,,,,
,,6550cb1d00eb83c79f10bad9,34,male,2024-04-16_12h22.21.197,stockport_simplified,2022.2.4,Win32,29.94011976,661e456ee6de07e70aa9ef7b,661e51118cbfa20c53924e58,,,,,,,,,,,,,,,,,,,,,,,,,,,,,,,,,,,,,,,,,,,,,,,,,,,,,,,,0,28,28,30,1,A,X,N,o1_image,stimuli/out1.png,stimuli/correct_out1.png,stimuli/out2.png,,,,,,,,,,,,,,,,,,,,,,,,,,,,,,,,,,,,,,
,,6550cb1d00eb83c79f10bad9,34,male,2024-04-16_12h22.21.197,stockport_simplified,2022.2.4,Win32,29.94011976,661e456ee6de07e70aa9ef7b,661e51118cbfa20c53924e58,,,,,,,,,,,,,,,,,,,,,,,,,,,,,,,,,,1435.3081,1437.7505,"[4,6,5,8,2,7,3,1]","[[-0.3,0.2],[0.3,0.2]]","[[0.125,-0.2],[-0.125,-0.2]]",-0.107407379,-0.205555556,1,0,0,1.9264,o2_image,1437.7543,0,1438.2539,1438.2539,1440.2399,0,0,0,0,1,,,,,,,,,,,,,,,,,,,,,,,,,,,,,,,,,,,,,,,,,,,,,,,,,,
,,6550cb1d00eb83c79f10bad9,34,male,2024-04-16_12h22.21.197,stockport_simplified,2022.2.4,Win32,29.94011976,661e456ee6de07e70aa9ef7b,661e51118cbfa20c53924e58,,,,,,,,,,,,,,,,,,,,,,,,,,,,,,,,,,,,,,,,,,,,,,,,,,,,,,,,0,29,29,7,1,A,Y,N,o1_image,stimuli/out1.png,stimuli/correct_out1.png,stimuli/out2.png,,,,,,,,,,,,,,,,,,,,,,,,,,,,,,,,,,,,,,
,,6550cb1d00eb83c79f10bad9,34,male,2024-04-16_12h22.21.197,stockport_simplified,2022.2.4,Win32,29.94011976,661e456ee6de07e70aa9ef7b,661e51118cbfa20c53924e58,,,,,,,,,,,,,,,,,,,,,,,,,,,,,,,,,,1440.2415,1442.3668,"[4,6,5,8,2,7,3,1]","[[0.3,0.2],[-0.3,0.2]]","[[-0.125,-0.2],[0.125,-0.2]]",0.112963019,-0.215740797,1,0,0,1.6208,o2_image,1442.37,0,1442.8628,1442.863,1444.8678,0,0,0,0,1,,,,,,,,,,,,,,,,,,,,,,,,,,,,,,,,,,,,,,,,,,,,,,,,,,
,,6550cb1d00eb83c79f10bad9,34,male,2024-04-16_12h22.21.197,stockport_simplified,2022.2.4,Win32,29.94011976,661e456ee6de07e70aa9ef7b,661e51118cbfa20c53924e58,,,,,,,,,,,,,,,,,,,,,,,,,,,,,,,,,,,,,,,,,,,,,,,,,,,,,,,,0,30,30,8,1,A,Y,N,o1_image,stimuli/out1.png,stimuli/correct_out1.png,stimuli/out2.png,,,,,,,,,,,,,,,,,,,,,,,,,,,,,,,,,,,,,,
,,6550cb1d00eb83c79f10bad9,34,male,2024-04-16_12h22.21.197,stockport_simplified,2022.2.4,Win32,29.94011976,661e456ee6de07e70aa9ef7b,661e51118cbfa20c53924e58,,,,,,,,,,,,,,,,,,,,,,,,,,,,,,,,,,1444.8696,1446.6449,"[4,6,5,8,2,7,3,1]","[[0.3,0.2],[-0.3,0.2]]","[[-0.125,-0.2],[0.125,-0.2]]",-0.105555556,-0.2,1,0,0,1.2645,o1_image,1446.6485,1,1447.1435,1447.1436,1449.1471,0,0,0,0,1,,,,,,,,,,,,,,,,,,,,,,,,,,,,,,,,,,,,,,,,,,,,,,,,,,
,,6550cb1d00eb83c79f10bad9,34,male,2024-04-16_12h22.21.197,stockport_simplified,2022.2.4,Win32,29.94011976,661e456ee6de07e70aa9ef7b,661e51118cbfa20c53924e58,,,,,,,,,,,,,,,,,,,,,,,,,,,,,,,,,,,,,,,,,,,,,,,,,,,,,,,,0,31,31,20,1,N,M,C,o1_image,stimuli/out1.png,stimuli/correct_out1.png,stimuli/out2.png,,,,,,,,,,,,,,,,,,,,,,,,,,,,,,,,,,,,,,
,,6550cb1d00eb83c79f10bad9,34,male,2024-04-16_12h22.21.197,stockport_simplified,2022.2.4,Win32,29.94011976,661e456ee6de07e70aa9ef7b,661e51118cbfa20c53924e58,,,,,,,,,,,,,,,,,,,,,,,,,,,,,,,,,,1449.1499,1450.7081,"[4,6,5,8,2,7,3,1]","[[-0.3,0.2],[0.3,0.2]]","[[-0.125,-0.2],[0.125,-0.2]]",0.104629686,-0.179629644,1,0,0,1.053,o2_image,1450.7098,1,1451.2062,1451.2065,1453.2022,0,0,0,0,1,,,,,,,,,,,,,,,,,,,,,,,,,,,,,,,,,,,,,,,,,,,,,,,,,,
,,6550cb1d00eb83c79f10bad9,34,male,2024-04-16_12h22.21.197,stockport_simplified,2022.2.4,Win32,29.94011976,661e456ee6de07e70aa9ef7b,661e51118cbfa20c53924e58,,,,,,,,,,,,,,,,,,,,,,,,,,,,,,,,,,,,,,,,,,,,,,,,,,,,,,,,0,32,32,29,1,N,M,D,o2_image,stimuli/out2.png,stimuli/out1.png,stimuli/correct_out2.png,,,,,,,,,,,,,,,,,,,,,,,,,,,,,,,,,,,,,,
,,6550cb1d00eb83c79f10bad9,34,male,2024-04-16_12h22.21.197,stockport_simplified,2022.2.4,Win32,29.94011976,661e456ee6de07e70aa9ef7b,661e51118cbfa20c53924e58,,,,,,,,,,,,,,,,,,,,,,,,,,,,,,,,,,1453.2046,1454.654,"[4,6,5,8,2,7,3,1]","[[0.3,0.2],[-0.3,0.2]]","[[-0.125,-0.2],[0.125,-0.2]]",-0.134259203,-0.208333333,1,0,0,0.9189,o1_image,1454.6565,1,1455.1841,1455.1842,1457.1857,0,0,0,0,1,,,,,,,,,,,,,,,,,,,,,,,,,,,,,,,,,,,,,,,,,,,,,,,,,,
,,6550cb1d00eb83c79f10bad9,34,male,2024-04-16_12h22.21.197,stockport_simplified,2022.2.4,Win32,29.94011976,661e456ee6de07e70aa9ef7b,661e51118cbfa20c53924e58,,,,,,,,,,,,,,,,,,,,,,,,,,,,,,,,,,,,,,,,,,,,,,,,,,,,,,,,0,33,33,21,1,N,M,C,o1_image,stimuli/out1.png,stimuli/correct_out1.png,stimuli/out2.png,,,,,,,,,,,,,,,,,,,,,,,,,,,,,,,,,,,,,,
,,6550cb1d00eb83c79f10bad9,34,male,2024-04-16_12h22.21.197,stockport_simplified,2022.2.4,Win32,29.94011976,661e456ee6de07e70aa9ef7b,661e51118cbfa20c53924e58,,,,,,,,,,,,,,,,,,,,,,,,,,,,,,,,,,1457.1888,1459.407,"[4,6,5,8,2,7,3,1]","[[-0.3,0.2],[0.3,0.2]]","[[-0.125,-0.2],[0.125,-0.2]]",0.087963019,-0.177777778,1,0,0,1.7072,o2_image,1459.4097,1,1459.8978,1459.8978,1461.8945,0,0,0,0,1,,,,,,,,,,,,,,,,,,,,,,,,,,,,,,,,,,,,,,,,,,,,,,,,,,
,,6550cb1d00eb83c79f10bad9,34,male,2024-04-16_12h22.21.197,stockport_simplified,2022.2.4,Win32,29.94011976,661e456ee6de07e70aa9ef7b,661e51118cbfa20c53924e58,,,,,,,,,,,,,,,,,,,,,,,,,,,,,,,,,,,,,,,,,,,,,,,,,,,,,,,,0,34,34,59,1,N,M,D,o2_image,stimuli/out2.png,stimuli/out1.png,stimuli/correct_out2.png,,,,,,,,,,,,,,,,,,,,,,,,,,,,,,,,,,,,,,
,,6550cb1d00eb83c79f10bad9,34,male,2024-04-16_12h22.21.197,stockport_simplified,2022.2.4,Win32,29.94011976,661e456ee6de07e70aa9ef7b,661e51118cbfa20c53924e58,,,,,,,,,,,,,,,,,,,,,,,,,,,,,,,,,,1461.8974,1463.9291,"[4,6,5,8,2,7,3,1]","[[-0.3,0.2],[0.3,0.2]]","[[-0.125,-0.2],[0.125,-0.2]]",0.132407464,-0.183333333,1,0,0,1.5191,o2_image,1463.9324,1,1464.427,1464.4271,1466.4324,0,0,0,0,1,,,,,,,,,,,,,,,,,,,,,,,,,,,,,,,,,,,,,,,,,,,,,,,,,,
,,6550cb1d00eb83c79f10bad9,34,male,2024-04-16_12h22.21.197,stockport_simplified,2022.2.4,Win32,29.94011976,661e456ee6de07e70aa9ef7b,661e51118cbfa20c53924e58,,,,,,,,,,,,,,,,,,,,,,,,,,,,,,,,,,,,,,,,,,,,,,,,,,,,,,,,0,35,35,48,1,B,Y,N,o2_image,stimuli/out2.png,stimuli/out1.png,stimuli/correct_out2.png,,,,,,,,,,,,,,,,,,,,,,,,,,,,,,,,,,,,,,
,,6550cb1d00eb83c79f10bad9,34,male,2024-04-16_12h22.21.197,stockport_simplified,2022.2.4,Win32,29.94011976,661e456ee6de07e70aa9ef7b,661e51118cbfa20c53924e58,,,,,,,,,,,,,,,,,,,,,,,,,,,,,,,,,,1466.4349,1467.8276,"[4,6,5,8,2,7,3,1]","[[-0.3,0.2],[0.3,0.2]]","[[0.125,-0.2],[-0.125,-0.2]]",0.135185242,-0.185185199,1,0,0,0.87,o1_image,1467.831,0,1468.3301,1468.3302,1470.3076,0,0,0,0,1,,,,,,,,,,,,,,,,,,,,,,,,,,,,,,,,,,,,,,,,,,,,,,,,,,
,,6550cb1d00eb83c79f10bad9,34,male,2024-04-16_12h22.21.197,stockport_simplified,2022.2.4,Win32,29.94011976,661e456ee6de07e70aa9ef7b,661e51118cbfa20c53924e58,,,,,,,,,,,,,,,,,,,,,,,,,,,,,,,,,,,,,,,,,,,,,,,,,,,,,,,,0,36,36,19,1,B,Y,N,o2_image,stimuli/out2.png,stimuli/out1.png,stimuli/correct_out2.png,,,,,,,,,,,,,,,,,,,,,,,,,,,,,,,,,,,,,,
,,6550cb1d00eb83c79f10bad9,34,male,2024-04-16_12h22.21.197,stockport_simplified,2022.2.4,Win32,29.94011976,661e456ee6de07e70aa9ef7b,661e51118cbfa20c53924e58,,,,,,,,,,,,,,,,,,,,,,,,,,,,,,,,,,1470.3094,1472.6407,"[4,6,5,8,2,7,3,1]","[[-0.3,0.2],[0.3,0.2]]","[[0.125,-0.2],[-0.125,-0.2]]",0.153703732,-0.198148176,1,0,0,1.8132,o1_image,1472.677,1,1473.1864,1473.1866,1475.1665,0,0,0,0,1,,,,,,,,,,,,,,,,,,,,,,,,,,,,,,,,,,,,,,,,,,,,,,,,,,
,,6550cb1d00eb83c79f10bad9,34,male,2024-04-16_12h22.21.197,stockport_simplified,2022.2.4,Win32,29.94011976,661e456ee6de07e70aa9ef7b,661e51118cbfa20c53924e58,,,,,,,,,,,,,,,,,,,,,,,,,,,,,,,,,,,,,,,,,,,,,,,,,,,,,,,,0,37,37,38,1,A,Y,N,o1_image,stimuli/out1.png,stimuli/correct_out1.png,stimuli/out2.png,,,,,,,,,,,,,,,,,,,,,,,,,,,,,,,,,,,,,,
,,6550cb1d00eb83c79f10bad9,34,male,2024-04-16_12h22.21.197,stockport_simplified,2022.2.4,Win32,29.94011976,661e456ee6de07e70aa9ef7b,661e51118cbfa20c53924e58,,,,,,,,,,,,,,,,,,,,,,,,,,,,,,,,,,1475.1684,1477.7347,"[4,6,5,8,2,7,3,1]","[[-0.3,0.2],[0.3,0.2]]","[[-0.125,-0.2],[0.125,-0.2]]",-0.097222222,-0.230555556,1,0,0,2.0502,o1_image,1477.738,1,1478.2197,1478.2197,1480.217,0,0,0,0,1,,,,,,,,,,,,,,,,,,,,,,,,,,,,,,,,,,,,,,,,,,,,,,,,,,
,,6550cb1d00eb83c79f10bad9,34,male,2024-04-16_12h22.21.197,stockport_simplified,2022.2.4,Win32,29.94011976,661e456ee6de07e70aa9ef7b,661e51118cbfa20c53924e58,,,,,,,,,,,,,,,,,,,,,,,,,,,,,,,,,,,,,,,,,,,,,,,,,,,,,,,,0,38,38,39,1,A,Y,N,o1_image,stimuli/out1.png,stimuli/correct_out1.png,stimuli/out2.png,,,,,,,,,,,,,,,,,,,,,,,,,,,,,,,,,,,,,,
,,6550cb1d00eb83c79f10bad9,34,male,2024-04-16_12h22.21.197,stockport_simplified,2022.2.4,Win32,29.94011976,661e456ee6de07e70aa9ef7b,661e51118cbfa20c53924e58,,,,,,,,,,,,,,,,,,,,,,,,,,,,,,,,,,1480.2195,1482.7062,"[4,6,5,8,2,7,3,1]","[[-0.3,0.2],[0.3,0.2]]","[[-0.125,-0.2],[0.125,-0.2]]",-0.09351849,-0.226851908,1,0,0,1.9738,o1_image,1482.74,1,1483.2437,1483.2437,1485.2437,0,0,0,0,1,,,,,,,,,,,,,,,,,,,,,,,,,,,,,,,,,,,,,,,,,,,,,,,,,,
,,6550cb1d00eb83c79f10bad9,34,male,2024-04-16_12h22.21.197,stockport_simplified,2022.2.4,Win32,29.94011976,661e456ee6de07e70aa9ef7b,661e51118cbfa20c53924e58,,,,,,,,,,,,,,,,,,,,,,,,,,,,,,,,,,,,,,,,,,,,,,,,,,,,,,,,0,39,39,6,1,A,Y,N,o1_image,stimuli/out1.png,stimuli/correct_out1.png,stimuli/out2.png,,,,,,,,,,,,,,,,,,,,,,,,,,,,,,,,,,,,,,
,,6550cb1d00eb83c79f10bad9,34,male,2024-04-16_12h22.21.197,stockport_simplified,2022.2.4,Win32,29.94011976,661e456ee6de07e70aa9ef7b,661e51118cbfa20c53924e58,,,,,,,,,,,,,,,,,,,,,,,,,,,,,,,,,,1485.2472,1487.1198,"[4,6,5,8,2,7,3,1]","[[0.3,0.2],[-0.3,0.2]]","[[-0.125,-0.2],[0.125,-0.2]]",0.128703732,-0.214814843,1,0,0,1.3595,o2_image,1487.1225,1,1487.6255,1487.6257,1489.6051,0,0,0,0,1,,,,,,,,,,,,,,,,,,,,,,,,,,,,,,,,,,,,,,,,,,,,,,,,,,
,,6550cb1d00eb83c79f10bad9,34,male,2024-04-16_12h22.21.197,stockport_simplified,2022.2.4,Win32,29.94011976,661e456ee6de07e70aa9ef7b,661e51118cbfa20c53924e58,,,,,,,,,,,,,,,,,,,,,,,,,,,,,,,,,,,,,,,,,,,,,,,,,,,,,,,,0,40,40,44,1,B,X,N,o2_image,stimuli/out2.png,stimuli/out1.png,stimuli/correct_out2.png,,,,,,,,,,,,,,,,,,,,,,,,,,,,,,,,,,,,,,
,,6550cb1d00eb83c79f10bad9,34,male,2024-04-16_12h22.21.197,stockport_simplified,2022.2.4,Win32,29.94011976,661e456ee6de07e70aa9ef7b,661e51118cbfa20c53924e58,,,,,,,,,,,,,,,,,,,,,,,,,,,,,,,,,,1489.6066,1491.2867,"[4,6,5,8,2,7,3,1]","[[0.3,0.2],[-0.3,0.2]]","[[-0.125,-0.2],[0.125,-0.2]]",-0.129629601,-0.228703732,1,0,0,1.1745,o1_image,1491.2901,1,1491.779,1491.7791,1493.7681,0,0,0,0,1,,,,,,,,,,,,,,,,,,,,,,,,,,,,,,,,,,,,,,,,,,,,,,,,,,
,,6550cb1d00eb83c79f10bad9,34,male,2024-04-16_12h22.21.197,stockport_simplified,2022.2.4,Win32,29.94011976,661e456ee6de07e70aa9ef7b,661e51118cbfa20c53924e58,,,,,,,,,,,,,,,,,,,,,,,,,,,,,,,,,,,,,,,,,,,,,,,,,,,,,,,,0,41,41,24,1,N,M,C,o1_image,stimuli/out1.png,stimuli/correct_out1.png,stimuli/out2.png,,,,,,,,,,,,,,,,,,,,,,,,,,,,,,,,,,,,,,
,,6550cb1d00eb83c79f10bad9,34,male,2024-04-16_12h22.21.197,stockport_simplified,2022.2.4,Win32,29.94011976,661e456ee6de07e70aa9ef7b,661e51118cbfa20c53924e58,,,,,,,,,,,,,,,,,,,,,,,,,,,,,,,,,,1493.7701,1496.1197,"[4,6,5,8,2,7,3,1]","[[0.3,0.2],[-0.3,0.2]]","[[-0.125,-0.2],[0.125,-0.2]]",-0.116666667,-0.220370399,1,0,0,1.8432,o1_image,1496.1233,1,1496.6248,1496.6252,1498.6197,0,0,0,0,1,,,,,,,,,,,,,,,,,,,,,,,,,,,,,,,,,,,,,,,,,,,,,,,,,,
,,6550cb1d00eb83c79f10bad9,34,male,2024-04-16_12h22.21.197,stockport_simplified,2022.2.4,Win32,29.94011976,661e456ee6de07e70aa9ef7b,661e51118cbfa20c53924e58,,,,,,,,,,,,,,,,,,,,,,,,,,,,,,,,,,,,,,,,,,,,,,,,,,,,,,,,0,42,42,5,1,A,Y,N,o1_image,stimuli/out1.png,stimuli/correct_out1.png,stimuli/out2.png,,,,,,,,,,,,,,,,,,,,,,,,,,,,,,,,,,,,,,
,,6550cb1d00eb83c79f10bad9,34,male,2024-04-16_12h22.21.197,stockport_simplified,2022.2.4,Win32,29.94011976,661e456ee6de07e70aa9ef7b,661e51118cbfa20c53924e58,,,,,,,,,,,,,,,,,,,,,,,,,,,,,,,,,,1498.6222,1500.5251,"[4,6,5,8,2,7,3,1]","[[-0.3,0.2],[0.3,0.2]]","[[0.125,-0.2],[-0.125,-0.2]]",0.094444444,-0.217592621,1,0,0,1.3951,o1_image,1500.5299,1,1501.0308,1501.0309,1503.0267,0,0,0,0,1,,,,,,,,,,,,,,,,,,,,,,,,,,,,,,,,,,,,,,,,,,,,,,,,,,
,,6550cb1d00eb83c79f10bad9,34,male,2024-04-16_12h22.21.197,stockport_simplified,2022.2.4,Win32,29.94011976,661e456ee6de07e70aa9ef7b,661e51118cbfa20c53924e58,,,,,,,,,,,,,,,,,,,,,,,,,,,,,,,,,,,,,,,,,,,,,,,,,,,,,,,,0,43,43,52,1,N,M,C,o1_image,stimuli/out1.png,stimuli/correct_out1.png,stimuli/out2.png,,,,,,,,,,,,,,,,,,,,,,,,,,,,,,,,,,,,,,
,,6550cb1d00eb83c79f10bad9,34,male,2024-04-16_12h22.21.197,stockport_simplified,2022.2.4,Win32,29.94011976,661e456ee6de07e70aa9ef7b,661e51118cbfa20c53924e58,,,,,,,,,,,,,,,,,,,,,,,,,,,,,,,,,,1503.0284,1505.4385,"[4,6,5,8,2,7,3,1]","[[0.3,0.2],[-0.3,0.2]]","[[0.125,-0.2],[-0.125,-0.2]]",0.125,-0.208333333,1,0,0,1.8927,o1_image,1505.4415,1,1505.9172,1505.9173,1507.902,0,0,0,0,1,,,,,,,,,,,,,,,,,,,,,,,,,,,,,,,,,,,,,,,,,,,,,,,,,,
,,6550cb1d00eb83c79f10bad9,34,male,2024-04-16_12h22.21.197,stockport_simplified,2022.2.4,Win32,29.94011976,661e456ee6de07e70aa9ef7b,661e51118cbfa20c53924e58,,,,,,,,,,,,,,,,,,,,,,,,,,,,,,,,,,,,,,,,,,,,,,,,,,,,,,,,0,44,44,3,1,A,X,N,o1_image,stimuli/out1.png,stimuli/correct_out1.png,stimuli/out2.png,,,,,,,,,,,,,,,,,,,,,,,,,,,,,,,,,,,,,,
,,6550cb1d00eb83c79f10bad9,34,male,2024-04-16_12h22.21.197,stockport_simplified,2022.2.4,Win32,29.94011976,661e456ee6de07e70aa9ef7b,661e51118cbfa20c53924e58,,,,,,,,,,,,,,,,,,,,,,,,,,,,,,,,,,1507.9045,1510.3327,"[4,6,5,8,2,7,3,1]","[[0.3,0.2],[-0.3,0.2]]","[[-0.125,-0.2],[0.125,-0.2]]",0.144444444,-0.194444444,1,0,0,1.9141,o2_image,1510.3359,1,1510.8311,1510.8312,1512.8363,0,0,0,0,1,,,,,,,,,,,,,,,,,,,,,,,,,,,,,,,,,,,,,,,,,,,,,,,,,,
,,6550cb1d00eb83c79f10bad9,34,male,2024-04-16_12h22.21.197,stockport_simplified,2022.2.4,Win32,29.94011976,661e456ee6de07e70aa9ef7b,661e51118cbfa20c53924e58,,,,,,,,,,,,,,,,,,,,,,,,,,,,,,,,,,,,,,,,,,,,,,,,,,,,,,,,0,45,45,16,1,B,Y,N,o2_image,stimuli/out2.png,stimuli/out1.png,stimuli/correct_out2.png,,,,,,,,,,,,,,,,,,,,,,,,,,,,,,,,,,,,,,
,,6550cb1d00eb83c79f10bad9,34,male,2024-04-16_12h22.21.197,stockport_simplified,2022.2.4,Win32,29.94011976,661e456ee6de07e70aa9ef7b,661e51118cbfa20c53924e58,,,,,,,,,,,,,,,,,,,,,,,,,,,,,,,,,,1512.8379,1514.3214,"[4,6,5,8,2,7,3,1]","[[-0.3,0.2],[0.3,0.2]]","[[-0.125,-0.2],[0.125,-0.2]]",0.144444444,-0.194444444,1,0,0,0.9776,o2_image,1514.3242,1,1514.8054,1514.8055,1516.8084,0,0,0,0,1,,,,,,,,,,,,,,,,,,,,,,,,,,,,,,,,,,,,,,,,,,,,,,,,,,
,,6550cb1d00eb83c79f10bad9,34,male,2024-04-16_12h22.21.197,stockport_simplified,2022.2.4,Win32,29.94011976,661e456ee6de07e70aa9ef7b,661e51118cbfa20c53924e58,,,,,,,,,,,,,,,,,,,,,,,,,,,,,,,,,,,,,,,,,,,,,,,,,,,,,,,,0,46,46,43,1,B,X,N,o2_image,stimuli/out2.png,stimuli/out1.png,stimuli/correct_out2.png,,,,,,,,,,,,,,,,,,,,,,,,,,,,,,,,,,,,,,
,,6550cb1d00eb83c79f10bad9,34,male,2024-04-16_12h22.21.197,stockport_simplified,2022.2.4,Win32,29.94011976,661e456ee6de07e70aa9ef7b,661e51118cbfa20c53924e58,,,,,,,,,,,,,,,,,,,,,,,,,,,,,,,,,,1516.8107,1518.7555,"[4,6,5,8,2,7,3,1]","[[0.3,0.2],[-0.3,0.2]]","[[0.125,-0.2],[-0.125,-0.2]]",-0.097222222,-0.211111111,1,0,0,1.4311,o2_image,1518.7589,1,1519.2542,1519.2542,1521.2447,0,0,0,0,1,,,,,,,,,,,,,,,,,,,,,,,,,,,,,,,,,,,,,,,,,,,,,,,,,,
,,6550cb1d00eb83c79f10bad9,34,male,2024-04-16_12h22.21.197,stockport_simplified,2022.2.4,Win32,29.94011976,661e456ee6de07e70aa9ef7b,661e51118cbfa20c53924e58,,,,,,,,,,,,,,,,,,,,,,,,,,,,,,,,,,,,,,,,,,,,,,,,,,,,,,,,0,47,47,26,1,N,M,D,o2_image,stimuli/out2.png,stimuli/out1.png,stimuli/correct_out2.png,,,,,,,,,,,,,,,,,,,,,,,,,,,,,,,,,,,,,,
,,6550cb1d00eb83c79f10bad9,34,male,2024-04-16_12h22.21.197,stockport_simplified,2022.2.4,Win32,29.94011976,661e456ee6de07e70aa9ef7b,661e51118cbfa20c53924e58,,,,,,,,,,,,,,,,,,,,,,,,,,,,,,,,,,1521.2475,1523.1851,"[4,6,5,8,2,7,3,1]","[[-0.3,0.2],[0.3,0.2]]","[[0.125,-0.2],[-0.125,-0.2]]",-0.097222222,-0.212037065,1,0,0,1.4135,o2_image,1523.1879,1,1523.6639,1523.6639,1525.6757,0,0,0,0,1,,,,,,,,,,,,,,,,,,,,,,,,,,,,,,,,,,,,,,,,,,,,,,,,,,
,,6550cb1d00eb83c79f10bad9,34,male,2024-04-16_12h22.21.197,stockport_simplified,2022.2.4,Win32,29.94011976,661e456ee6de07e70aa9ef7b,661e51118cbfa20c53924e58,,,,,,,,,,,,,,,,,,,,,,,,,,,,,,,,,,,,,,,,,,,,,,,,,,,,,,,,0,48,48,13,1,B,X,N,o2_image,stimuli/out2.png,stimuli/out1.png,stimuli/correct_out2.png,,,,,,,,,,,,,,,,,,,,,,,,,,,,,,,,,,,,,,
,,6550cb1d00eb83c79f10bad9,34,male,2024-04-16_12h22.21.197,stockport_simplified,2022.2.4,Win32,29.94011976,661e456ee6de07e70aa9ef7b,661e51118cbfa20c53924e58,,,,,,,,,,,,,,,,,,,,,,,,,,,,,,,,,,1525.6786,1527.5248,"[4,6,5,8,2,7,3,1]","[[-0.3,0.2],[0.3,0.2]]","[[0.125,-0.2],[-0.125,-0.2]]",-0.097222222,-0.212037065,1,0,0,1.3415,o2_image,1527.5276,1,1528.0243,1528.0244,1530.0095,0,0,0,0,1,,,,,,,,,,,,,,,,,,,,,,,,,,,,,,,,,,,,,,,,,,,,,,,,,,
,,6550cb1d00eb83c79f10bad9,34,male,2024-04-16_12h22.21.197,stockport_simplified,2022.2.4,Win32,29.94011976,661e456ee6de07e70aa9ef7b,661e51118cbfa20c53924e58,,,,,,,,,,,,,,,,,,,,,,,,,,,,,,,,,,,,,,,,,,,,,,,,,,,,,,,,0,49,49,49,1,B,Y,N,o2_image,stimuli/out2.png,stimuli/out1.png,stimuli/correct_out2.png,,,,,,,,,,,,,,,,,,,,,,,,,,,,,,,,,,,,,,
,,6550cb1d00eb83c79f10bad9,34,male,2024-04-16_12h22.21.197,stockport_simplified,2022.2.4,Win32,29.94011976,661e456ee6de07e70aa9ef7b,661e51118cbfa20c53924e58,,,,,,,,,,,,,,,,,,,,,,,,,,,,,,,,,,1530.0128,1531.9077,"[4,6,5,8,2,7,3,1]","[[-0.3,0.2],[0.3,0.2]]","[[0.125,-0.2],[-0.125,-0.2]]",-0.097222222,-0.212963019,1,0,0,1.3686,o2_image,1531.9111,1,1532.4044,1532.4045,1534.4106,0,0,0,0,1,,,,,,,,,,,,,,,,,,,,,,,,,,,,,,,,,,,,,,,,,,,,,,,,,,
,,6550cb1d00eb83c79f10bad9,34,male,2024-04-16_12h22.21.197,stockport_simplified,2022.2.4,Win32,29.94011976,661e456ee6de07e70aa9ef7b,661e51118cbfa20c53924e58,,,,,,,,,,,,,,,,,,,,,,,,,,,,,,,,,,,,,,,,,,,,,,,,,,,,,,,,0,50,50,12,1,B,X,N,o2_image,stimuli/out2.png,stimuli/out1.png,stimuli/correct_out2.png,,,,,,,,,,,,,,,,,,,,,,,,,,,,,,,,,,,,,,
,,6550cb1d00eb83c79f10bad9,34,male,2024-04-16_12h22.21.197,stockport_simplified,2022.2.4,Win32,29.94011976,661e456ee6de07e70aa9ef7b,661e51118cbfa20c53924e58,,,,,,,,,,,,,,,,,,,,,,,,,,,,,,,,,,1534.4126,1536.2582,"[4,6,5,8,2,7,3,1]","[[-0.3,0.2],[0.3,0.2]]","[[0.125,-0.2],[-0.125,-0.2]]",-0.097222222,-0.212963019,1,0,0,1.3122,o2_image,1536.2611,1,1536.7397,1536.7398,1538.7369,0,0,0,0,1,,,,,,,,,,,,,,,,,,,,,,,,,,,,,,,,,,,,,,,,,,,,,,,,,,
,,6550cb1d00eb83c79f10bad9,34,male,2024-04-16_12h22.21.197,stockport_simplified,2022.2.4,Win32,29.94011976,661e456ee6de07e70aa9ef7b,661e51118cbfa20c53924e58,,,,,,,,,,,,,,,,,,,,,,,,,,,,,,,,,,,,,,,,,,,,,,,,,,,,,,,,0,51,51,56,1,N,M,D,o2_image,stimuli/out2.png,stimuli/out1.png,stimuli/correct_out2.png,,,,,,,,,,,,,,,,,,,,,,,,,,,,,,,,,,,,,,
,,6550cb1d00eb83c79f10bad9,34,male,2024-04-16_12h22.21.197,stockport_simplified,2022.2.4,Win32,29.94011976,661e456ee6de07e70aa9ef7b,661e51118cbfa20c53924e58,,,,,,,,,,,,,,,,,,,,,,,,,,,,,,,,,,1538.7397,1540.4556,"[4,6,5,8,2,7,3,1]","[[0.3,0.2],[-0.3,0.2]]","[[0.125,-0.2],[-0.125,-0.2]]",-0.097222222,-0.212963019,1,0,0,1.2079,o2_image,1540.459,1,1540.9666,1540.9666,1542.9639,0,0,0,0,1,,,,,,,,,,,,,,,,,,,,,,,,,,,,,,,,,,,,,,,,,,,,,,,,,,
,,6550cb1d00eb83c79f10bad9,34,male,2024-04-16_12h22.21.197,stockport_simplified,2022.2.4,Win32,29.94011976,661e456ee6de07e70aa9ef7b,661e51118cbfa20c53924e58,,,,,,,,,,,,,,,,,,,,,,,,,,,,,,,,,,,,,,,,,,,,,,,,,,,,,,,,0,52,52,40,1,B,X,N,o2_image,stimuli/out2.png,stimuli/out1.png,stimuli/correct_out2.png,,,,,,,,,,,,,,,,,,,,,,,,,,,,,,,,,,,,,,
,,6550cb1d00eb83c79f10bad9,34,male,2024-04-16_12h22.21.197,stockport_simplified,2022.2.4,Win32,29.94011976,661e456ee6de07e70aa9ef7b,661e51118cbfa20c53924e58,,,,,,,,,,,,,,,,,,,,,,,,,,,,,,,,,,1542.967,1545.0171,"[4,6,5,8,2,7,3,1]","[[-0.3,0.2],[0.3,0.2]]","[[0.125,-0.2],[-0.125,-0.2]]",0.08148151,-0.200925954,1,0,0,1.5221,o1_image,1545.0204,1,1545.5265,1545.5265,1547.5273,0,0,0,0,1,,,,,,,,,,,,,,,,,,,,,,,,,,,,,,,,,,,,,,,,,,,,,,,,,,
,,6550cb1d00eb83c79f10bad9,34,male,2024-04-16_12h22.21.197,stockport_simplified,2022.2.4,Win32,29.94011976,661e456ee6de07e70aa9ef7b,661e51118cbfa20c53924e58,,,,,,,,,,,,,,,,,,,,,,,,,,,,,,,,,,,,,,,,,,,,,,,,,,,,,,,,0,53,53,31,1,A,X,N,o1_image,stimuli/out1.png,stimuli/correct_out1.png,stimuli/out2.png,,,,,,,,,,,,,,,,,,,,,,,,,,,,,,,,,,,,,,
,,6550cb1d00eb83c79f10bad9,34,male,2024-04-16_12h22.21.197,stockport_simplified,2022.2.4,Win32,29.94011976,661e456ee6de07e70aa9ef7b,661e51118cbfa20c53924e58,,,,,,,,,,,,,,,,,,,,,,,,,,,,,,,,,,1547.5299,1548.9649,"[4,6,5,8,2,7,3,1]","[[-0.3,0.2],[0.3,0.2]]","[[0.125,-0.2],[-0.125,-0.2]]",-0.097222222,-0.221296353,1,0,0,0.9159,o2_image,1548.9673,1,1549.4599,1549.4601,1551.4549,0,0,0,0,1,,,,,,,,,,,,,,,,,,,,,,,,,,,,,,,,,,,,,,,,,,,,,,,,,,
,,6550cb1d00eb83c79f10bad9,34,male,2024-04-16_12h22.21.197,stockport_simplified,2022.2.4,Win32,29.94011976,661e456ee6de07e70aa9ef7b,661e51118cbfa20c53924e58,,,,,,,,,,,,,,,,,,,,,,,,,,,,,,,,,,,,,,,,,,,,,,,,,,,,,,,,0,54,54,41,1,B,X,N,o2_image,stimuli/out2.png,stimuli/out1.png,stimuli/correct_out2.png,,,,,,,,,,,,,,,,,,,,,,,,,,,,,,,,,,,,,,
,,6550cb1d00eb83c79f10bad9,34,male,2024-04-16_12h22.21.197,stockport_simplified,2022.2.4,Win32,29.94011976,661e456ee6de07e70aa9ef7b,661e51118cbfa20c53924e58,,,,,,,,,,,,,,,,,,,,,,,,,,,,,,,,,,1551.4575,1553.4988,"[4,6,5,8,2,7,3,1]","[[-0.3,0.2],[0.3,0.2]]","[[0.125,-0.2],[-0.125,-0.2]]",0.089814843,-0.221296353,1,0,0,1.5221,o1_image,1553.5043,1,1554.0077,1554.0077,1555.9885,0,0,0,0,1,,,,,,,,,,,,,,,,,,,,,,,,,,,,,,,,,,,,,,,,,,,,,,,,,,
,,6550cb1d00eb83c79f10bad9,34,male,2024-04-16_12h22.21.197,stockport_simplified,2022.2.4,Win32,29.94011976,661e456ee6de07e70aa9ef7b,661e51118cbfa20c53924e58,,,,,,,,,,,,,,,,,,,,,,,,,,,,,,,,,,,,,,,,,,,,,,,,,,,,,,,,0,55,55,37,1,A,Y,N,o1_image,stimuli/out1.png,stimuli/correct_out1.png,stimuli/out2.png,,,,,,,,,,,,,,,,,,,,,,,,,,,,,,,,,,,,,,
,,6550cb1d00eb83c79f10bad9,34,male,2024-04-16_12h22.21.197,stockport_simplified,2022.2.4,Win32,29.94011976,661e456ee6de07e70aa9ef7b,661e51118cbfa20c53924e58,,,,,,,,,,,,,,,,,,,,,,,,,,,,,,,,,,1555.9916,1557.5533,"[4,6,5,8,2,7,3,1]","[[-0.3,0.2],[0.3,0.2]]","[[0.125,-0.2],[-0.125,-0.2]]",-0.092592536,-0.222222222,1,0,0,1.0533,o2_image,1557.556,1,1558.0536,1558.0538,1560.0488,0,0,0,0,1,,,,,,,,,,,,,,,,,,,,,,,,,,,,,,,,,,,,,,,,,,,,,,,,,,
,,6550cb1d00eb83c79f10bad9,34,male,2024-04-16_12h22.21.197,stockport_simplified,2022.2.4,Win32,29.94011976,661e456ee6de07e70aa9ef7b,661e51118cbfa20c53924e58,,,,,,,,,,,,,,,,,,,,,,,,,,,,,,,,,,,,,,,,,,,,,,,,,,,,,,,,0,56,56,18,1,B,Y,N,o2_image,stimuli/out2.png,stimuli/out1.png,stimuli/correct_out2.png,,,,,,,,,,,,,,,,,,,,,,,,,,,,,,,,,,,,,,
,,6550cb1d00eb83c79f10bad9,34,male,2024-04-16_12h22.21.197,stockport_simplified,2022.2.4,Win32,29.94011976,661e456ee6de07e70aa9ef7b,661e51118cbfa20c53924e58,,,,,,,,,,,,,,,,,,,,,,,,,,,,,,,,,,1560.0505,1562.3447,"[4,6,5,8,2,7,3,1]","[[-0.3,0.2],[0.3,0.2]]","[[0.125,-0.2],[-0.125,-0.2]]",0.112963019,-0.190740755,1,0,0,1.7899,o1_image,1562.349,1,1562.8497,1562.8498,1564.8559,0,0,0,0,1,,,,,,,,,,,,,,,,,,,,,,,,,,,,,,,,,,,,,,,,,,,,,,,,,,
,,6550cb1d00eb83c79f10bad9,34,male,2024-04-16_12h22.21.197,stockport_simplified,2022.2.4,Win32,29.94011976,661e456ee6de07e70aa9ef7b,661e51118cbfa20c53924e58,,,,,,,,,,,,,,,,,,,,,,,,,,,,,,,,,,,,,,,,,,,,,,,,,,,,,,,,0,57,57,1,1,A,X,N,o1_image,stimuli/out1.png,stimuli/correct_out1.png,stimuli/out2.png,,,,,,,,,,,,,,,,,,,,,,,,,,,,,,,,,,,,,,
,,6550cb1d00eb83c79f10bad9,34,male,2024-04-16_12h22.21.197,stockport_simplified,2022.2.4,Win32,29.94011976,661e456ee6de07e70aa9ef7b,661e51118cbfa20c53924e58,,,,,,,,,,,,,,,,,,,,,,,,,,,,,,,,,,1564.8582,1566.4308,"[4,6,5,8,2,7,3,1]","[[-0.3,0.2],[0.3,0.2]]","[[0.125,-0.2],[-0.125,-0.2]]",-0.078703647,-0.223148176,1,0,0,1.0511,o2_image,1566.4341,1,1566.9388,1566.939,1568.9272,0,0,0,0,1,,,,,,,,,,,,,,,,,,,,,,,,,,,,,,,,,,,,,,,,,,,,,,,,,,
,,6550cb1d00eb83c79f10bad9,34,male,2024-04-16_12h22.21.197,stockport_simplified,2022.2.4,Win32,29.94011976,661e456ee6de07e70aa9ef7b,661e51118cbfa20c53924e58,,,,,,,,,,,,,,,,,,,,,,,,,,,,,,,,,,,,,,,,,,,,,,,,,,,,,,,,0,58,58,47,1,B,Y,N,o2_image,stimuli/out2.png,stimuli/out1.png,stimuli/correct_out2.png,,,,,,,,,,,,,,,,,,,,,,,,,,,,,,,,,,,,,,
,,6550cb1d00eb83c79f10bad9,34,male,2024-04-16_12h22.21.197,stockport_simplified,2022.2.4,Win32,29.94011976,661e456ee6de07e70aa9ef7b,661e51118cbfa20c53924e58,,,,,,,,,,,,,,,,,,,,,,,,,,,,,,,,,,1568.9301,1571.0747,"[4,6,5,8,2,7,3,1]","[[-0.3,0.2],[0.3,0.2]]","[[-0.125,-0.2],[0.125,-0.2]]",0.147222222,-0.185185199,1,0,0,1.6162,o2_image,1571.0761,1,1571.5762,1571.5762,1573.5719,0,0,0,0,1,,,,,,,,,,,,,,,,,,,,,,,,,,,,,,,,,,,,,,,,,,,,,,,,,,
,,6550cb1d00eb83c79f10bad9,34,male,2024-04-16_12h22.21.197,stockport_simplified,2022.2.4,Win32,29.94011976,661e456ee6de07e70aa9ef7b,661e51118cbfa20c53924e58,,,,,,,,,,,,,,,,,,,,,,,,,,,,,,,,,,,,,,,,,,,,,,,,,,,,,,,,0,59,59,25,1,N,M,D,o2_image,stimuli/out2.png,stimuli/out1.png,stimuli/correct_out2.png,,,,,,,,,,,,,,,,,,,,,,,,,,,,,,,,,,,,,,
,,6550cb1d00eb83c79f10bad9,34,male,2024-04-16_12h22.21.197,stockport_simplified,2022.2.4,Win32,29.94011976,661e456ee6de07e70aa9ef7b,661e51118cbfa20c53924e58,,,,,,,,,,,,,,,,,,,,,,,,,,,,,,,,,,1573.5734,1575.8841,"[4,6,5,8,2,7,3,1]","[[0.3,0.2],[-0.3,0.2]]","[[-0.125,-0.2],[0.125,-0.2]]",-0.123148092,-0.205555556,1,0,0,1.8016,o1_image,1575.8871,1,1576.384,1576.3841,1578.3838,0,0,0,0,1,,,,,,,,,,,,,,,,,,,,,,,,,,,,,,,,,,,,,,,,,,,,,,,,,,
,,6550cb1d00eb83c79f10bad9,34,male,2024-04-16_12h22.21.197,stockport_simplified,2022.2.4,Win32,29.94011976,661e456ee6de07e70aa9ef7b,661e51118cbfa20c53924e58,,,,,,,,,,,,,,,,,,,,,,,,,,,,,,,,,,,,,,,,,,,,,,,,,,,,,,,,1,0,60,1,1,A,X,N,o1_image,stimuli/out1.png,stimuli/correct_out1.png,stimuli/out2.png,,,,,,,,,,,,,,,,,,,,,,,,,,,,,,,,,,,,,,
,,6550cb1d00eb83c79f10bad9,34,male,2024-04-16_12h22.21.197,stockport_simplified,2022.2.4,Win32,29.94011976,661e456ee6de07e70aa9ef7b,661e51118cbfa20c53924e58,,,,,,,,,,,,,,,,,,,,,,,,,,,,,,,,,,1578.3853,1581.0205,"[4,6,5,8,2,7,3,1]","[[-0.3,0.2],[0.3,0.2]]","[[0.125,-0.2],[-0.125,-0.2]]",0.132407464,-0.189814843,1,0,0,2.1328,o1_image,1581.0223,1,1581.5062,1581.5062,1583.5139,0,0,0,0,1,,,,,,,,,,,,,,,,,,,,,,,,,,,,,,,,,,,,,,,,,,,,,,,,,,
,,6550cb1d00eb83c79f10bad9,34,male,2024-04-16_12h22.21.197,stockport_simplified,2022.2.4,Win32,29.94011976,661e456ee6de07e70aa9ef7b,661e51118cbfa20c53924e58,,,,,,,,,,,,,,,,,,,,,,,,,,,,,,,,,,,,,,,,,,,,,,,,,,,,,,,,1,1,61,34,1,A,X,N,o1_image,stimuli/out1.png,stimuli/correct_out1.png,stimuli/out2.png,,,,,,,,,,,,,,,,,,,,,,,,,,,,,,,,,,,,,,
,,6550cb1d00eb83c79f10bad9,34,male,2024-04-16_12h22.21.197,stockport_simplified,2022.2.4,Win32,29.94011976,661e456ee6de07e70aa9ef7b,661e51118cbfa20c53924e58,,,,,,,,,,,,,,,,,,,,,,,,,,,,,,,,,,1583.5156,1585.4513,"[4,6,5,8,2,7,3,1]","[[0.3,0.2],[-0.3,0.2]]","[[0.125,-0.2],[-0.125,-0.2]]",0.126851908,-0.197222222,1,0,0,1.4135,o1_image,1585.4528,1,1585.9468,1585.9468,1587.9417,0,0,0,0,1,,,,,,,,,,,,,,,,,,,,,,,,,,,,,,,,,,,,,,,,,,,,,,,,,,
,,6550cb1d00eb83c79f10bad9,34,male,2024-04-16_12h22.21.197,stockport_simplified,2022.2.4,Win32,29.94011976,661e456ee6de07e70aa9ef7b,661e51118cbfa20c53924e58,,,,,,,,,,,,,,,,,,,,,,,,,,,,,,,,,,,,,,,,,,,,,,,,,,,,,,,,1,2,62,33,1,A,X,N,o1_image,stimuli/out1.png,stimuli/correct_out1.png,stimuli/out2.png,,,,,,,,,,,,,,,,,,,,,,,,,,,,,,,,,,,,,,
,,6550cb1d00eb83c79f10bad9,34,male,2024-04-16_12h22.21.197,stockport_simplified,2022.2.4,Win32,29.94011976,661e456ee6de07e70aa9ef7b,661e51118cbfa20c53924e58,,,,,,,,,,,,,,,,,,,,,,,,,,,,,,,,,,1587.9441,1590.2134,"[4,6,5,8,2,7,3,1]","[[-0.3,0.2],[0.3,0.2]]","[[-0.125,-0.2],[0.125,-0.2]]",0.117592621,-0.192592621,1,0,0,1.7596,o2_image,1590.2374,1,1590.7278,1590.7278,1592.7288,0,0,0,0,1,,,,,,,,,,,,,,,,,,,,,,,,,,,,,,,,,,,,,,,,,,,,,,,,,,
,,6550cb1d00eb83c79f10bad9,34,male,2024-04-16_12h22.21.197,stockport_simplified,2022.2.4,Win32,29.94011976,661e456ee6de07e70aa9ef7b,661e51118cbfa20c53924e58,,,,,,,,,,,,,,,,,,,,,,,,,,,,,,,,,,,,,,,,,,,,,,,,,,,,,,,,1,3,63,47,1,B,Y,N,o2_image,stimuli/out2.png,stimuli/out1.png,stimuli/correct_out2.png,,,,,,,,,,,,,,,,,,,,,,,,,,,,,,,,,,,,,,
,,6550cb1d00eb83c79f10bad9,34,male,2024-04-16_12h22.21.197,stockport_simplified,2022.2.4,Win32,29.94011976,661e456ee6de07e70aa9ef7b,661e51118cbfa20c53924e58,,,,,,,,,,,,,,,,,,,,,,,,,,,,,,,,,,1592.7311,1595.0039,"[4,6,5,8,2,7,3,1]","[[-0.3,0.2],[0.3,0.2]]","[[0.125,-0.2],[-0.125,-0.2]]",0.126851908,-0.188888889,1,0,0,1.7676,o1_image,1595.0074,1,1595.5013,1595.5014,1597.499,0,0,0,0,1,,,,,,,,,,,,,,,,,,,,,,,,,,,,,,,,,,,,,,,,,,,,,,,,,,
,,6550cb1d00eb83c79f10bad9,34,male,2024-04-16_12h22.21.197,stockport_simplified,2022.2.4,Win32,29.94011976,661e456ee6de07e70aa9ef7b,661e51118cbfa20c53924e58,,,,,,,,,,,,,,,,,,,,,,,,,,,,,,,,,,,,,,,,,,,,,,,,,,,,,,,,1,4,64,4,1,A,X,N,o1_image,stimuli/out1.png,stimuli/correct_out1.png,stimuli/out2.png,,,,,,,,,,,,,,,,,,,,,,,,,,,,,,,,,,,,,,
,,6550cb1d00eb83c79f10bad9,34,male,2024-04-16_12h22.21.197,stockport_simplified,2022.2.4,Win32,29.94011976,661e456ee6de07e70aa9ef7b,661e51118cbfa20c53924e58,,,,,,,,,,,,,,,,,,,,,,,,,,,,,,,,,,1597.5015,1599.3048,"[4,6,5,8,2,7,3,1]","[[0.3,0.2],[-0.3,0.2]]","[[0.125,-0.2],[-0.125,-0.2]]",0.126851908,-0.188888889,1,0,0,1.2824,o1_image,1599.3079,1,1599.7913,1599.7913,1601.7681,0,0,0,0,1,,,,,,,,,,,,,,,,,,,,,,,,,,,,,,,,,,,,,,,,,,,,,,,,,,
,,6550cb1d00eb83c79f10bad9,34,male,2024-04-16_12h22.21.197,stockport_simplified,2022.2.4,Win32,29.94011976,661e456ee6de07e70aa9ef7b,661e51118cbfa20c53924e58,,,,,,,,,,,,,,,,,,,,,,,,,,,,,,,,,,,,,,,,,,,,,,,,,,,,,,,,1,5,65,31,1,A,X,N,o1_image,stimuli/out1.png,stimuli/correct_out1.png,stimuli/out2.png,,,,,,,,,,,,,,,,,,,,,,,,,,,,,,,,,,,,,,
,,6550cb1d00eb83c79f10bad9,34,male,2024-04-16_12h22.21.197,stockport_simplified,2022.2.4,Win32,29.94011976,661e456ee6de07e70aa9ef7b,661e51118cbfa20c53924e58,,,,,,,,,,,,,,,,,,,,,,,,,,,,,,,,,,1601.7708,1604.23,"[4,6,5,8,2,7,3,1]","[[-0.3,0.2],[0.3,0.2]]","[[0.125,-0.2],[-0.125,-0.2]]",0.126851908,-0.188888889,1,0,0,1.9454,o1_image,1604.2333,1,1604.7454,1604.7455,1606.7258,0,0,0,0,1,,,,,,,,,,,,,,,,,,,,,,,,,,,,,,,,,,,,,,,,,,,,,,,,,,
,,6550cb1d00eb83c79f10bad9,34,male,2024-04-16_12h22.21.197,stockport_simplified,2022.2.4,Win32,29.94011976,661e456ee6de07e70aa9ef7b,661e51118cbfa20c53924e58,,,,,,,,,,,,,,,,,,,,,,,,,,,,,,,,,,,,,,,,,,,,,,,,,,,,,,,,1,6,66,7,1,A,Y,N,o1_image,stimuli/out1.png,stimuli/correct_out1.png,stimuli/out2.png,,,,,,,,,,,,,,,,,,,,,,,,,,,,,,,,,,,,,,
,,6550cb1d00eb83c79f10bad9,34,male,2024-04-16_12h22.21.197,stockport_simplified,2022.2.4,Win32,29.94011976,661e456ee6de07e70aa9ef7b,661e51118cbfa20c53924e58,,,,,,,,,,,,,,,,,,,,,,,,,,,,,,,,,,1606.7285,1608.1324,"[4,6,5,8,2,7,3,1]","[[-0.3,0.2],[0.3,0.2]]","[[0.125,-0.2],[-0.125,-0.2]]",0.126851908,-0.188888889,1,0,0,0.9002,o1_image,1608.1342,1,1608.6376,1608.6404,1610.6209,0,0,0,0,1,,,,,,,,,,,,,,,,,,,,,,,,,,,,,,,,,,,,,,,,,,,,,,,,,,
,,6550cb1d00eb83c79f10bad9,34,male,2024-04-16_12h22.21.197,stockport_simplified,2022.2.4,Win32,29.94011976,661e456ee6de07e70aa9ef7b,661e51118cbfa20c53924e58,,,,,,,,,,,,,,,,,,,,,,,,,,,,,,,,,,,,,,,,,,,,,,,,,,,,,,,,1,7,67,23,1,N,M,C,o1_image,stimuli/out1.png,stimuli/correct_out1.png,stimuli/out2.png,,,,,,,,,,,,,,,,,,,,,,,,,,,,,,,,,,,,,,
,,6550cb1d00eb83c79f10bad9,34,male,2024-04-16_12h22.21.197,stockport_simplified,2022.2.4,Win32,29.94011976,661e456ee6de07e70aa9ef7b,661e51118cbfa20c53924e58,,,,,,,,,,,,,,,,,,,,,,,,,,,,,,,,,,1610.6227,1612.4836,"[4,6,5,8,2,7,3,1]","[[-0.3,0.2],[0.3,0.2]]","[[0.125,-0.2],[-0.125,-0.2]]",-0.09351849,-0.186111111,1,0,0,1.3394,o2_image,1612.4878,1,1612.9874,1612.9875,1614.9736,0,0,0,0,1,,,,,,,,,,,,,,,,,,,,,,,,,,,,,,,,,,,,,,,,,,,,,,,,,,
,,6550cb1d00eb83c79f10bad9,34,male,2024-04-16_12h22.21.197,stockport_simplified,2022.2.4,Win32,29.94011976,661e456ee6de07e70aa9ef7b,661e51118cbfa20c53924e58,,,,,,,,,,,,,,,,,,,,,,,,,,,,,,,,,,,,,,,,,,,,,,,,,,,,,,,,1,8,68,29,1,N,M,D,o2_image,stimuli/out2.png,stimuli/out1.png,stimuli/correct_out2.png,,,,,,,,,,,,,,,,,,,,,,,,,,,,,,,,,,,,,,
,,6550cb1d00eb83c79f10bad9,34,male,2024-04-16_12h22.21.197,stockport_simplified,2022.2.4,Win32,29.94011976,661e456ee6de07e70aa9ef7b,661e51118cbfa20c53924e58,,,,,,,,,,,,,,,,,,,,,,,,,,,,,,,,,,1614.9758,1616.7265,"[4,6,5,8,2,7,3,1]","[[0.3,0.2],[-0.3,0.2]]","[[-0.125,-0.2],[0.125,-0.2]]",0.127777778,-0.178703732,1,0,0,1.237,o2_image,1616.7296,1,1617.2342,1617.2343,1619.2363,0,0,0,0,1,,,,,,,,,,,,,,,,,,,,,,,,,,,,,,,,,,,,,,,,,,,,,,,,,,
,,6550cb1d00eb83c79f10bad9,34,male,2024-04-16_12h22.21.197,stockport_simplified,2022.2.4,Win32,29.94011976,661e456ee6de07e70aa9ef7b,661e51118cbfa20c53924e58,,,,,,,,,,,,,,,,,,,,,,,,,,,,,,,,,,,,,,,,,,,,,,,,,,,,,,,,1,9,69,55,1,N,M,D,o2_image,stimuli/out2.png,stimuli/out1.png,stimuli/correct_out2.png,,,,,,,,,,,,,,,,,,,,,,,,,,,,,,,,,,,,,,
,,6550cb1d00eb83c79f10bad9,34,male,2024-04-16_12h22.21.197,stockport_simplified,2022.2.4,Win32,29.94011976,661e456ee6de07e70aa9ef7b,661e51118cbfa20c53924e58,,,,,,,,,,,,,,,,,,,,,,,,,,,,,,,,,,1619.2395,1621.5464,"[4,6,5,8,2,7,3,1]","[[0.3,0.2],[-0.3,0.2]]","[[-0.125,-0.2],[0.125,-0.2]]",-0.195370356,-0.197222222,1,0,0,1.7982,o1_image,1621.5483,1,1622.0294,1622.0295,1624.032,0,0,0,0,1,,,,,,,,,,,,,,,,,,,,,,,,,,,,,,,,,,,,,,,,,,,,,,,,,,
,,6550cb1d00eb83c79f10bad9,34,male,2024-04-16_12h22.21.197,stockport_simplified,2022.2.4,Win32,29.94011976,661e456ee6de07e70aa9ef7b,661e51118cbfa20c53924e58,,,,,,,,,,,,,,,,,,,,,,,,,,,,,,,,,,,,,,,,,,,,,,,,,,,,,,,,1,10,70,36,1,A,Y,N,o1_image,stimuli/out1.png,stimuli/correct_out1.png,stimuli/out2.png,,,,,,,,,,,,,,,,,,,,,,,,,,,,,,,,,,,,,,
,,6550cb1d00eb83c79f10bad9,34,male,2024-04-16_12h22.21.197,stockport_simplified,2022.2.4,Win32,29.94011976,661e456ee6de07e70aa9ef7b,661e51118cbfa20c53924e58,,,,,,,,,,,,,,,,,,,,,,,,,,,,,,,,,,1624.035,1625.8168,"[4,6,5,8,2,7,3,1]","[[-0.3,0.2],[0.3,0.2]]","[[0.125,-0.2],[-0.125,-0.2]]",0.118518575,-0.212963019,1,0,0,1.2635,o1_image,1625.8202,1,1626.2988,1626.2989,1628.2961,0,0,0,0,1,,,,,,,,,,,,,,,,,,,,,,,,,,,,,,,,,,,,,,,,,,,,,,,,,,
,,6550cb1d00eb83c79f10bad9,34,male,2024-04-16_12h22.21.197,stockport_simplified,2022.2.4,Win32,29.94011976,661e456ee6de07e70aa9ef7b,661e51118cbfa20c53924e58,,,,,,,,,,,,,,,,,,,,,,,,,,,,,,,,,,,,,,,,,,,,,,,,,,,,,,,,1,11,71,30,1,A,X,N,o1_image,stimuli/out1.png,stimuli/correct_out1.png,stimuli/out2.png,,,,,,,,,,,,,,,,,,,,,,,,,,,,,,,,,,,,,,
,,6550cb1d00eb83c79f10bad9,34,male,2024-04-16_12h22.21.197,stockport_simplified,2022.2.4,Win32,29.94011976,661e456ee6de07e70aa9ef7b,661e51118cbfa20c53924e58,,,,,,,,,,,,,,,,,,,,,,,,,,,,,,,,,,1628.2995,1630.2426,"[4,6,5,8,2,7,3,1]","[[-0.3,0.2],[0.3,0.2]]","[[0.125,-0.2],[-0.125,-0.2]]",-0.072222222,-0.226851908,1,0,0,1.4374,o2_image,1630.2443,1,1630.7477,1630.7479,1632.725,0,0,0,0,1,,,,,,,,,,,,,,,,,,,,,,,,,,,,,,,,,,,,,,,,,,,,,,,,,,
,,6550cb1d00eb83c79f10bad9,34,male,2024-04-16_12h22.21.197,stockport_simplified,2022.2.4,Win32,29.94011976,661e456ee6de07e70aa9ef7b,661e51118cbfa20c53924e58,,,,,,,,,,,,,,,,,,,,,,,,,,,,,,,,,,,,,,,,,,,,,,,,,,,,,,,,1,12,72,14,1,B,X,N,o2_image,stimuli/out2.png,stimuli/out1.png,stimuli/correct_out2.png,,,,,,,,,,,,,,,,,,,,,,,,,,,,,,,,,,,,,,
,,6550cb1d00eb83c79f10bad9,34,male,2024-04-16_12h22.21.197,stockport_simplified,2022.2.4,Win32,29.94011976,661e456ee6de07e70aa9ef7b,661e51118cbfa20c53924e58,,,,,,,,,,,,,,,,,,,,,,,,,,,,,,,,,,1632.7274,1635.1247,"[4,6,5,8,2,7,3,1]","[[-0.3,0.2],[0.3,0.2]]","[[-0.125,-0.2],[0.125,-0.2]]",-0.138888889,-0.217592621,1,0,0,1.8827,o1_image,1635.1281,1,1635.6196,1635.6196,1637.6212,0,0,0,0,1,,,,,,,,,,,,,,,,,,,,,,,,,,,,,,,,,,,,,,,,,,,,,,,,,,
,,6550cb1d00eb83c79f10bad9,34,male,2024-04-16_12h22.21.197,stockport_simplified,2022.2.4,Win32,29.94011976,661e456ee6de07e70aa9ef7b,661e51118cbfa20c53924e58,,,,,,,,,,,,,,,,,,,,,,,,,,,,,,,,,,,,,,,,,,,,,,,,,,,,,,,,1,13,73,5,1,A,Y,N,o1_image,stimuli/out1.png,stimuli/correct_out1.png,stimuli/out2.png,,,,,,,,,,,,,,,,,,,,,,,,,,,,,,,,,,,,,,
,,6550cb1d00eb83c79f10bad9,34,male,2024-04-16_12h22.21.197,stockport_simplified,2022.2.4,Win32,29.94011976,661e456ee6de07e70aa9ef7b,661e51118cbfa20c53924e58,,,,,,,,,,,,,,,,,,,,,,,,,,,,,,,,,,1637.6237,1639.4554,"[4,6,5,8,2,7,3,1]","[[0.3,0.2],[-0.3,0.2]]","[[-0.125,-0.2],[0.125,-0.2]]",0.114814843,-0.229629686,1,0,0,1.3206,o2_image,1639.4588,1,1639.9491,1639.9493,1641.9505,0,0,0,0,1,,,,,,,,,,,,,,,,,,,,,,,,,,,,,,,,,,,,,,,,,,,,,,,,,,
,,6550cb1d00eb83c79f10bad9,34,male,2024-04-16_12h22.21.197,stockport_simplified,2022.2.4,Win32,29.94011976,661e456ee6de07e70aa9ef7b,661e51118cbfa20c53924e58,,,,,,,,,,,,,,,,,,,,,,,,,,,,,,,,,,,,,,,,,,,,,,,,,,,,,,,,1,14,74,26,1,N,M,D,o2_image,stimuli/out2.png,stimuli/out1.png,stimuli/correct_out2.png,,,,,,,,,,,,,,,,,,,,,,,,,,,,,,,,,,,,,,
,,6550cb1d00eb83c79f10bad9,34,male,2024-04-16_12h22.21.197,stockport_simplified,2022.2.4,Win32,29.94011976,661e456ee6de07e70aa9ef7b,661e51118cbfa20c53924e58,,,,,,,,,,,,,,,,,,,,,,,,,,,,,,,,,,1641.9524,1643.9625,"[4,6,5,8,2,7,3,1]","[[-0.3,0.2],[0.3,0.2]]","[[0.125,-0.2],[-0.125,-0.2]]",-0.082407379,-0.209259288,1,0,0,1.4976,o2_image,1643.9646,1,1644.4562,1644.4563,1646.4503,0,0,0,0,1,,,,,,,,,,,,,,,,,,,,,,,,,,,,,,,,,,,,,,,,,,,,,,,,,,
,,6550cb1d00eb83c79f10bad9,34,male,2024-04-16_12h22.21.197,stockport_simplified,2022.2.4,Win32,29.94011976,661e456ee6de07e70aa9ef7b,661e51118cbfa20c53924e58,,,,,,,,,,,,,,,,,,,,,,,,,,,,,,,,,,,,,,,,,,,,,,,,,,,,,,,,1,15,75,46,1,B,Y,N,o2_image,stimuli/out2.png,stimuli/out1.png,stimuli/correct_out2.png,,,,,,,,,,,,,,,,,,,,,,,,,,,,,,,,,,,,,,
,,6550cb1d00eb83c79f10bad9,34,male,2024-04-16_12h22.21.197,stockport_simplified,2022.2.4,Win32,29.94011976,661e456ee6de07e70aa9ef7b,661e51118cbfa20c53924e58,,,,,,,,,,,,,,,,,,,,,,,,,,,,,,,,,,1646.4529,1648.111,"[4,6,5,8,2,7,3,1]","[[0.3,0.2],[-0.3,0.2]]","[[-0.125,-0.2],[0.125,-0.2]]",0.113888889,-0.163888889,1,0,0,1.1468,o2_image,1648.114,1,1648.6249,1648.6249,1650.6078,0,0,0,0,1,,,,,,,,,,,,,,,,,,,,,,,,,,,,,,,,,,,,,,,,,,,,,,,,,,
,,6550cb1d00eb83c79f10bad9,34,male,2024-04-16_12h22.21.197,stockport_simplified,2022.2.4,Win32,29.94011976,661e456ee6de07e70aa9ef7b,661e51118cbfa20c53924e58,,,,,,,,,,,,,,,,,,,,,,,,,,,,,,,,,,,,,,,,,,,,,,,,,,,,,,,,1,16,76,59,1,N,M,D,o2_image,stimuli/out2.png,stimuli/out1.png,stimuli/correct_out2.png,,,,,,,,,,,,,,,,,,,,,,,,,,,,,,,,,,,,,,
,,6550cb1d00eb83c79f10bad9,34,male,2024-04-16_12h22.21.197,stockport_simplified,2022.2.4,Win32,29.94011976,661e456ee6de07e70aa9ef7b,661e51118cbfa20c53924e58,,,,,,,,,,,,,,,,,,,,,,,,,,,,,,,,,,1650.6096,1652.7144,"[4,6,5,8,2,7,3,1]","[[-0.3,0.2],[0.3,0.2]]","[[0.125,-0.2],[-0.125,-0.2]]",0.125,-0.178703732,1,0,0,1.5831,o1_image,1652.7165,1,1653.2068,1653.207,1655.1958,0,0,0,0,1,,,,,,,,,,,,,,,,,,,,,,,,,,,,,,,,,,,,,,,,,,,,,,,,,,
,,6550cb1d00eb83c79f10bad9,34,male,2024-04-16_12h22.21.197,stockport_simplified,2022.2.4,Win32,29.94011976,661e456ee6de07e70aa9ef7b,661e51118cbfa20c53924e58,,,,,,,,,,,,,,,,,,,,,,,,,,,,,,,,,,,,,,,,,,,,,,,,,,,,,,,,1,17,77,37,1,A,Y,N,o1_image,stimuli/out1.png,stimuli/correct_out1.png,stimuli/out2.png,,,,,,,,,,,,,,,,,,,,,,,,,,,,,,,,,,,,,,
,,6550cb1d00eb83c79f10bad9,34,male,2024-04-16_12h22.21.197,stockport_simplified,2022.2.4,Win32,29.94011976,661e456ee6de07e70aa9ef7b,661e51118cbfa20c53924e58,,,,,,,,,,,,,,,,,,,,,,,,,,,,,,,,,,1655.1984,1656.8957,"[4,6,5,8,2,7,3,1]","[[0.3,0.2],[-0.3,0.2]]","[[-0.125,-0.2],[0.125,-0.2]]",0.125,-0.178703732,1,0,0,1.1743,o2_image,1656.9009,1,1657.3924,1657.3926,1659.3866,0,0,0,0,1,,,,,,,,,,,,,,,,,,,,,,,,,,,,,,,,,,,,,,,,,,,,,,,,,,
,,6550cb1d00eb83c79f10bad9,34,male,2024-04-16_12h22.21.197,stockport_simplified,2022.2.4,Win32,29.94011976,661e456ee6de07e70aa9ef7b,661e51118cbfa20c53924e58,,,,,,,,,,,,,,,,,,,,,,,,,,,,,,,,,,,,,,,,,,,,,,,,,,,,,,,,1,18,78,27,1,N,M,D,o2_image,stimuli/out2.png,stimuli/out1.png,stimuli/correct_out2.png,,,,,,,,,,,,,,,,,,,,,,,,,,,,,,,,,,,,,,
,,6550cb1d00eb83c79f10bad9,34,male,2024-04-16_12h22.21.197,stockport_simplified,2022.2.4,Win32,29.94011976,661e456ee6de07e70aa9ef7b,661e51118cbfa20c53924e58,,,,,,,,,,,,,,,,,,,,,,,,,,,,,,,,,,1659.3894,1662.0285,"[4,6,5,8,2,7,3,1]","[[0.3,0.2],[-0.3,0.2]]","[[0.125,-0.2],[-0.125,-0.2]]",-0.06851849,-0.213888889,1,0,0,2.1252,o2_image,1662.0311,1,1662.5467,1662.5468,1664.5344,0,0,0,0,1,,,,,,,,,,,,,,,,,,,,,,,,,,,,,,,,,,,,,,,,,,,,,,,,,,
,,6550cb1d00eb83c79f10bad9,34,male,2024-04-16_12h22.21.197,stockport_simplified,2022.2.4,Win32,29.94011976,661e456ee6de07e70aa9ef7b,661e51118cbfa20c53924e58,,,,,,,,,,,,,,,,,,,,,,,,,,,,,,,,,,,,,,,,,,,,,,,,,,,,,,,,1,19,79,43,1,B,X,N,o2_image,stimuli/out2.png,stimuli/out1.png,stimuli/correct_out2.png,,,,,,,,,,,,,,,,,,,,,,,,,,,,,,,,,,,,,,
,,6550cb1d00eb83c79f10bad9,34,male,2024-04-16_12h22.21.197,stockport_simplified,2022.2.4,Win32,29.94011976,661e456ee6de07e70aa9ef7b,661e51118cbfa20c53924e58,,,,,,,,,,,,,,,,,,,,,,,,,,,,,,,,,,1664.5351,1665.9971,"[4,6,5,8,2,7,3,1]","[[-0.3,0.2],[0.3,0.2]]","[[-0.125,-0.2],[0.125,-0.2]]",-0.06851849,-0.213888889,1,0,0,0.9426,o1_image,1666.0001,1,1666.5114,1666.5114,1668.5081,0,0,0,0,1,,,,,,,,,,,,,,,,,,,,,,,,,,,,,,,,,,,,,,,,,,,,,,,,,,
,,6550cb1d00eb83c79f10bad9,34,male,2024-04-16_12h22.21.197,stockport_simplified,2022.2.4,Win32,29.94011976,661e456ee6de07e70aa9ef7b,661e51118cbfa20c53924e58,,,,,,,,,,,,,,,,,,,,,,,,,,,,,,,,,,,,,,,,,,,,,,,,,,,,,,,,1,20,80,54,1,N,M,C,o1_image,stimuli/out1.png,stimuli/correct_out1.png,stimuli/out2.png,,,,,,,,,,,,,,,,,,,,,,,,,,,,,,,,,,,,,,
,,6550cb1d00eb83c79f10bad9,34,male,2024-04-16_12h22.21.197,stockport_simplified,2022.2.4,Win32,29.94011976,661e456ee6de07e70aa9ef7b,661e51118cbfa20c53924e58,,,,,,,,,,,,,,,,,,,,,,,,,,,,,,,,,,1668.511,1671.2627,"[4,6,5,8,2,7,3,1]","[[0.3,0.2],[-0.3,0.2]]","[[-0.125,-0.2],[0.125,-0.2]]",-0.077777778,-0.176851866,1,0,0,2.2366,o1_image,1671.2644,1,1671.7751,1671.7753,1673.7709,0,0,0,0,1,,,,,,,,,,,,,,,,,,,,,,,,,,,,,,,,,,,,,,,,,,,,,,,,,,
,,6550cb1d00eb83c79f10bad9,34,male,2024-04-16_12h22.21.197,stockport_simplified,2022.2.4,Win32,29.94011976,661e456ee6de07e70aa9ef7b,661e51118cbfa20c53924e58,,,,,,,,,,,,,,,,,,,,,,,,,,,,,,,,,,,,,,,,,,,,,,,,,,,,,,,,1,21,81,0,1,A,X,N,o1_image,stimuli/out1.png,stimuli/correct_out1.png,stimuli/out2.png,,,,,,,,,,,,,,,,,,,,,,,,,,,,,,,,,,,,,,
,,6550cb1d00eb83c79f10bad9,34,male,2024-04-16_12h22.21.197,stockport_simplified,2022.2.4,Win32,29.94011976,661e456ee6de07e70aa9ef7b,661e51118cbfa20c53924e58,,,,,,,,,,,,,,,,,,,,,,,,,,,,,,,,,,1673.7723,1675.4492,"[4,6,5,8,2,7,3,1]","[[0.3,0.2],[-0.3,0.2]]","[[-0.125,-0.2],[0.125,-0.2]]",-0.087962935,-0.18148151,1,0,0,1.1599,o1_image,1675.4538,1,1675.952,1675.952,1677.9441,0,0,0,0,1,,,,,,,,,,,,,,,,,,,,,,,,,,,,,,,,,,,,,,,,,,,,,,,,,,
,,6550cb1d00eb83c79f10bad9,34,male,2024-04-16_12h22.21.197,stockport_simplified,2022.2.4,Win32,29.94011976,661e456ee6de07e70aa9ef7b,661e51118cbfa20c53924e58,,,,,,,,,,,,,,,,,,,,,,,,,,,,,,,,,,,,,,,,,,,,,,,,,,,,,,,,1,22,82,50,1,N,M,C,o1_image,stimuli/out1.png,stimuli/correct_out1.png,stimuli/out2.png,,,,,,,,,,,,,,,,,,,,,,,,,,,,,,,,,,,,,,
,,6550cb1d00eb83c79f10bad9,34,male,2024-04-16_12h22.21.197,stockport_simplified,2022.2.4,Win32,29.94011976,661e456ee6de07e70aa9ef7b,661e51118cbfa20c53924e58,,,,,,,,,,,,,,,,,,,,,,,,,,,,,,,,,,1677.9458,1680.1311,"[4,6,5,8,2,7,3,1]","[[-0.3,0.2],[0.3,0.2]]","[[-0.125,-0.2],[0.125,-0.2]]",0.15,-0.17129631,1,0,0,1.6747,o2_image,1680.1339,1,1680.6355,1680.6355,1682.6312,0,0,0,0,1,,,,,,,,,,,,,,,,,,,,,,,,,,,,,,,,,,,,,,,,,,,,,,,,,,
,,6550cb1d00eb83c79f10bad9,34,male,2024-04-16_12h22.21.197,stockport_simplified,2022.2.4,Win32,29.94011976,661e456ee6de07e70aa9ef7b,661e51118cbfa20c53924e58,,,,,,,,,,,,,,,,,,,,,,,,,,,,,,,,,,,,,,,,,,,,,,,,,,,,,,,,1,23,83,57,1,N,M,D,o2_image,stimuli/out2.png,stimuli/out1.png,stimuli/correct_out2.png,,,,,,,,,,,,,,,,,,,,,,,,,,,,,,,,,,,,,,
,,6550cb1d00eb83c79f10bad9,34,male,2024-04-16_12h22.21.197,stockport_simplified,2022.2.4,Win32,29.94011976,661e456ee6de07e70aa9ef7b,661e51118cbfa20c53924e58,,,,,,,,,,,,,,,,,,,,,,,,,,,,,,,,,,1682.6338,1685.8522,"[4,6,5,8,2,7,3,1]","[[0.3,0.2],[-0.3,0.2]]","[[-0.125,-0.2],[0.125,-0.2]]",0.140740797,-0.188888889,1,0,0,2.7045,o2_image,1685.8702,1,1686.3535,1686.3535,1688.3444,0,0,0,0,1,,,,,,,,,,,,,,,,,,,,,,,,,,,,,,,,,,,,,,,,,,,,,,,,,,
,,6550cb1d00eb83c79f10bad9,34,male,2024-04-16_12h22.21.197,stockport_simplified,2022.2.4,Win32,29.94011976,661e456ee6de07e70aa9ef7b,661e51118cbfa20c53924e58,,,,,,,,,,,,,,,,,,,,,,,,,,,,,,,,,,,,,,,,,,,,,,,,,,,,,,,,1,24,84,10,1,B,X,N,o2_image,stimuli/out2.png,stimuli/out1.png,stimuli/correct_out2.png,,,,,,,,,,,,,,,,,,,,,,,,,,,,,,,,,,,,,,
,,6550cb1d00eb83c79f10bad9,34,male,2024-04-16_12h22.21.197,stockport_simplified,2022.2.4,Win32,29.94011976,661e456ee6de07e70aa9ef7b,661e51118cbfa20c53924e58,,,,,,,,,,,,,,,,,,,,,,,,,,,,,,,,,,1688.3475,1692.6413,"[4,6,5,8,2,7,3,1]","[[0.3,0.2],[-0.3,0.2]]","[[0.125,-0.2],[-0.125,-0.2]]",-0.111111111,-0.198148176,1,0,0,3.7838,o2_image,1692.66,1,1693.1877,1693.1877,1695.1884,0,0,0,0,1,,,,,,,,,,,,,,,,,,,,,,,,,,,,,,,,,,,,,,,,,,,,,,,,,,
,,6550cb1d00eb83c79f10bad9,34,male,2024-04-16_12h22.21.197,stockport_simplified,2022.2.4,Win32,29.94011976,661e456ee6de07e70aa9ef7b,661e51118cbfa20c53924e58,,,,,,,,,,,,,,,,,,,,,,,,,,,,,,,,,,,,,,,,,,,,,,,,,,,,,,,,1,25,85,42,1,B,X,N,o2_image,stimuli/out2.png,stimuli/out1.png,stimuli/correct_out2.png,,,,,,,,,,,,,,,,,,,,,,,,,,,,,,,,,,,,,,
,,6550cb1d00eb83c79f10bad9,34,male,2024-04-16_12h22.21.197,stockport_simplified,2022.2.4,Win32,29.94011976,661e456ee6de07e70aa9ef7b,661e51118cbfa20c53924e58,,,,,,,,,,,,,,,,,,,,,,,,,,,,,,,,,,1695.1899,1698.7467,"[4,6,5,8,2,7,3,1]","[[0.3,0.2],[-0.3,0.2]]","[[0.125,-0.2],[-0.125,-0.2]]",-0.09351849,-0.200925954,1,0,0,3.0269,o2_image,1698.7875,1,1699.2853,1699.2853,1701.268,0,0,0,0,1,,,,,,,,,,,,,,,,,,,,,,,,,,,,,,,,,,,,,,,,,,,,,,,,,,
,,6550cb1d00eb83c79f10bad9,34,male,2024-04-16_12h22.21.197,stockport_simplified,2022.2.4,Win32,29.94011976,661e456ee6de07e70aa9ef7b,661e51118cbfa20c53924e58,,,,,,,,,,,,,,,,,,,,,,,,,,,,,,,,,,,,,,,,,,,,,,,,,,,,,,,,1,26,86,25,1,N,M,D,o2_image,stimuli/out2.png,stimuli/out1.png,stimuli/correct_out2.png,,,,,,,,,,,,,,,,,,,,,,,,,,,,,,,,,,,,,,
,,6550cb1d00eb83c79f10bad9,34,male,2024-04-16_12h22.21.197,stockport_simplified,2022.2.4,Win32,29.94011976,661e456ee6de07e70aa9ef7b,661e51118cbfa20c53924e58,,,,,,,,,,,,,,,,,,,,,,,,,,,,,,,,,,1701.2706,1704.036,"[4,6,5,8,2,7,3,1]","[[0.3,0.2],[-0.3,0.2]]","[[0.125,-0.2],[-0.125,-0.2]]",0.127777778,-0.178703732,1,0,0,2.2594,o1_image,1704.0553,1,1704.5367,1704.5368,1706.5478,0,0,0,0,1,,,,,,,,,,,,,,,,,,,,,,,,,,,,,,,,,,,,,,,,,,,,,,,,,,
,,6550cb1d00eb83c79f10bad9,34,male,2024-04-16_12h22.21.197,stockport_simplified,2022.2.4,Win32,29.94011976,661e456ee6de07e70aa9ef7b,661e51118cbfa20c53924e58,,,,,,,,,,,,,,,,,,,,,,,,,,,,,,,,,,,,,,,,,,,,,,,,,,,,,,,,1,27,87,3,1,A,X,N,o1_image,stimuli/out1.png,stimuli/correct_out1.png,stimuli/out2.png,,,,,,,,,,,,,,,,,,,,,,,,,,,,,,,,,,,,,,
,,6550cb1d00eb83c79f10bad9,34,male,2024-04-16_12h22.21.197,stockport_simplified,2022.2.4,Win32,29.94011976,661e456ee6de07e70aa9ef7b,661e51118cbfa20c53924e58,,,,,,,,,,,,,,,,,,,,,,,,,,,,,,,,,,1706.5488,1708.6119,"[4,6,5,8,2,7,3,1]","[[0.3,0.2],[-0.3,0.2]]","[[-0.125,-0.2],[0.125,-0.2]]",0.126851908,-0.178703732,1,0,0,1.5511,o2_image,1708.6137,1,1709.1125,1709.1125,1711.1074,0,0,0,0,1,,,,,,,,,,,,,,,,,,,,,,,,,,,,,,,,,,,,,,,,,,,,,,,,,,
,,6550cb1d00eb83c79f10bad9,34,male,2024-04-16_12h22.21.197,stockport_simplified,2022.2.4,Win32,29.94011976,661e456ee6de07e70aa9ef7b,661e51118cbfa20c53924e58,,,,,,,,,,,,,,,,,,,,,,,,,,,,,,,,,,,,,,,,,,,,,,,,,,,,,,,,1,28,88,13,1,B,X,N,o2_image,stimuli/out2.png,stimuli/out1.png,stimuli/correct_out2.png,,,,,,,,,,,,,,,,,,,,,,,,,,,,,,,,,,,,,,
,,6550cb1d00eb83c79f10bad9,34,male,2024-04-16_12h22.21.197,stockport_simplified,2022.2.4,Win32,29.94011976,661e456ee6de07e70aa9ef7b,661e51118cbfa20c53924e58,,,,,,,,,,,,,,,,,,,,,,,,,,,,,,,,,,1711.1103,1713.0815,"[4,6,5,8,2,7,3,1]","[[-0.3,0.2],[0.3,0.2]]","[[-0.125,-0.2],[0.125,-0.2]]",0.126851908,-0.180555556,1,0,0,1.4494,o2_image,1713.0848,1,1713.5797,1713.5798,1715.5741,0,0,0,0,1,,,,,,,,,,,,,,,,,,,,,,,,,,,,,,,,,,,,,,,,,,,,,,,,,,
,,6550cb1d00eb83c79f10bad9,34,male,2024-04-16_12h22.21.197,stockport_simplified,2022.2.4,Win32,29.94011976,661e456ee6de07e70aa9ef7b,661e51118cbfa20c53924e58,,,,,,,,,,,,,,,,,,,,,,,,,,,,,,,,,,,,,,,,,,,,,,,,,,,,,,,,1,29,89,16,1,B,Y,N,o2_image,stimuli/out2.png,stimuli/out1.png,stimuli/correct_out2.png,,,,,,,,,,,,,,,,,,,,,,,,,,,,,,,,,,,,,,
,,6550cb1d00eb83c79f10bad9,34,male,2024-04-16_12h22.21.197,stockport_simplified,2022.2.4,Win32,29.94011976,661e456ee6de07e70aa9ef7b,661e51118cbfa20c53924e58,,,,,,,,,,,,,,,,,,,,,,,,,,,,,,,,,,1715.5757,1719.3815,"[4,6,5,8,2,7,3,1]","[[0.3,0.2],[-0.3,0.2]]","[[0.125,-0.2],[-0.125,-0.2]]",0.140740797,-0.202777778,1,0,0,3.2889,o1_image,1719.4237,1,1719.9071,1719.9072,1721.9017,0,0,0,0,1,,,,,,,,,,,,,,,,,,,,,,,,,,,,,,,,,,,,,,,,,,,,,,,,,,
,,6550cb1d00eb83c79f10bad9,34,male,2024-04-16_12h22.21.197,stockport_simplified,2022.2.4,Win32,29.94011976,661e456ee6de07e70aa9ef7b,661e51118cbfa20c53924e58,,,,,,,,,,,,,,,,,,,,,,,,,,,,,,,,,,,,,,,,,,,,,,,,,,,,,,,,1,30,90,20,1,N,M,C,o1_image,stimuli/out1.png,stimuli/correct_out1.png,stimuli/out2.png,,,,,,,,,,,,,,,,,,,,,,,,,,,,,,,,,,,,,,
,,6550cb1d00eb83c79f10bad9,34,male,2024-04-16_12h22.21.197,stockport_simplified,2022.2.4,Win32,29.94011976,661e456ee6de07e70aa9ef7b,661e51118cbfa20c53924e58,,,,,,,,,,,,,,,,,,,,,,,,,,,,,,,,,,1721.9044,1724.0726,"[4,6,5,8,2,7,3,1]","[[0.3,0.2],[-0.3,0.2]]","[[0.125,-0.2],[-0.125,-0.2]]",0.112037065,-0.191666667,1,0,0,1.6582,o1_image,1724.0748,1,1724.5794,1724.5796,1726.5771,0,0,0,0,1,,,,,,,,,,,,,,,,,,,,,,,,,,,,,,,,,,,,,,,,,,,,,,,,,,
,,6550cb1d00eb83c79f10bad9,34,male,2024-04-16_12h22.21.197,stockport_simplified,2022.2.4,Win32,29.94011976,661e456ee6de07e70aa9ef7b,661e51118cbfa20c53924e58,,,,,,,,,,,,,,,,,,,,,,,,,,,,,,,,,,,,,,,,,,,,,,,,,,,,,,,,1,31,91,9,1,A,Y,N,o1_image,stimuli/out1.png,stimuli/correct_out1.png,stimuli/out2.png,,,,,,,,,,,,,,,,,,,,,,,,,,,,,,,,,,,,,,
,,6550cb1d00eb83c79f10bad9,34,male,2024-04-16_12h22.21.197,stockport_simplified,2022.2.4,Win32,29.94011976,661e456ee6de07e70aa9ef7b,661e51118cbfa20c53924e58,,,,,,,,,,,,,,,,,,,,,,,,,,,,,,,,,,1726.5802,1730.3132,"[4,6,5,8,2,7,3,1]","[[-0.3,0.2],[0.3,0.2]]","[[0.125,-0.2],[-0.125,-0.2]]",0.124074131,-0.178703732,1,0,0,3.2176,o1_image,1730.3157,1,1730.7996,1730.7996,1732.7935,0,0,0,0,1,,,,,,,,,,,,,,,,,,,,,,,,,,,,,,,,,,,,,,,,,,,,,,,,,,
,,6550cb1d00eb83c79f10bad9,34,male,2024-04-16_12h22.21.197,stockport_simplified,2022.2.4,Win32,29.94011976,661e456ee6de07e70aa9ef7b,661e51118cbfa20c53924e58,,,,,,,,,,,,,,,,,,,,,,,,,,,,,,,,,,,,,,,,,,,,,,,,,,,,,,,,1,32,92,8,1,A,Y,N,o1_image,stimuli/out1.png,stimuli/correct_out1.png,stimuli/out2.png,,,,,,,,,,,,,,,,,,,,,,,,,,,,,,,,,,,,,,
,,6550cb1d00eb83c79f10bad9,34,male,2024-04-16_12h22.21.197,stockport_simplified,2022.2.4,Win32,29.94011976,661e456ee6de07e70aa9ef7b,661e51118cbfa20c53924e58,,,,,,,,,,,,,,,,,,,,,,,,,,,,,,,,,,1732.7962,1737.0555,"[4,6,5,8,2,7,3,1]","[[-0.3,0.2],[0.3,0.2]]","[[-0.125,-0.2],[0.125,-0.2]]",-0.128703647,-0.221296353,1,0,0,3.7478,o1_image,1737.0845,1,1737.5852,1737.5854,1739.5812,0,0,0,0,1,,,,,,,,,,,,,,,,,,,,,,,,,,,,,,,,,,,,,,,,,,,,,,,,,,
,,6550cb1d00eb83c79f10bad9,34,male,2024-04-16_12h22.21.197,stockport_simplified,2022.2.4,Win32,29.94011976,661e456ee6de07e70aa9ef7b,661e51118cbfa20c53924e58,,,,,,,,,,,,,,,,,,,,,,,,,,,,,,,,,,,,,,,,,,,,,,,,,,,,,,,,1,33,93,22,1,N,M,C,o1_image,stimuli/out1.png,stimuli/correct_out1.png,stimuli/out2.png,,,,,,,,,,,,,,,,,,,,,,,,,,,,,,,,,,,,,,
,,6550cb1d00eb83c79f10bad9,34,male,2024-04-16_12h22.21.197,stockport_simplified,2022.2.4,Win32,29.94011976,661e456ee6de07e70aa9ef7b,661e51118cbfa20c53924e58,,,,,,,,,,,,,,,,,,,,,,,,,,,,,,,,,,1739.5826,1742.5233,"[4,6,5,8,2,7,3,1]","[[-0.3,0.2],[0.3,0.2]]","[[0.125,-0.2],[-0.125,-0.2]]",-0.080555556,-0.219444444,1,0,0,2.4054,o2_image,1742.5588,1,1743.0349,1743.0351,1745.0461,0,0,0,0,1,,,,,,,,,,,,,,,,,,,,,,,,,,,,,,,,,,,,,,,,,,,,,,,,,,
,,6550cb1d00eb83c79f10bad9,34,male,2024-04-16_12h22.21.197,stockport_simplified,2022.2.4,Win32,29.94011976,661e456ee6de07e70aa9ef7b,661e51118cbfa20c53924e58,,,,,,,,,,,,,,,,,,,,,,,,,,,,,,,,,,,,,,,,,,,,,,,,,,,,,,,,1,34,94,40,1,B,X,N,o2_image,stimuli/out2.png,stimuli/out1.png,stimuli/correct_out2.png,,,,,,,,,,,,,,,,,,,,,,,,,,,,,,,,,,,,,,
,,6550cb1d00eb83c79f10bad9,34,male,2024-04-16_12h22.21.197,stockport_simplified,2022.2.4,Win32,29.94011976,661e456ee6de07e70aa9ef7b,661e51118cbfa20c53924e58,,,,,,,,,,,,,,,,,,,,,,,,,,,,,,,,,,1745.0488,1747.1143,"[4,6,5,8,2,7,3,1]","[[0.3,0.2],[-0.3,0.2]]","[[-0.125,-0.2],[0.125,-0.2]]",0.100925954,-0.200925954,1,0,0,1.5619,o2_image,1747.1163,1,1747.5954,1747.5955,1749.5946,0,0,0,0,1,,,,,,,,,,,,,,,,,,,,,,,,,,,,,,,,,,,,,,,,,,,,,,,,,,
,,6550cb1d00eb83c79f10bad9,34,male,2024-04-16_12h22.21.197,stockport_simplified,2022.2.4,Win32,29.94011976,661e456ee6de07e70aa9ef7b,661e51118cbfa20c53924e58,,,,,,,,,,,,,,,,,,,,,,,,,,,,,,,,,,,,,,,,,,,,,,,,,,,,,,,,1,35,95,12,1,B,X,N,o2_image,stimuli/out2.png,stimuli/out1.png,stimuli/correct_out2.png,,,,,,,,,,,,,,,,,,,,,,,,,,,,,,,,,,,,,,
,,6550cb1d00eb83c79f10bad9,34,male,2024-04-16_12h22.21.197,stockport_simplified,2022.2.4,Win32,29.94011976,661e456ee6de07e70aa9ef7b,661e51118cbfa20c53924e58,,,,,,,,,,,,,,,,,,,,,,,,,,,,,,,,,,1749.5961,1754.087,"[4,6,5,8,2,7,3,1]","[[0.3,0.2],[-0.3,0.2]]","[[0.125,-0.2],[-0.125,-0.2]]",0.118518575,-0.199074088,1,0,0,3.9605,o1_image,1754.1063,1,1754.5981,1754.5982,1756.5902,0,0,0,0,1,,,,,,,,,,,,,,,,,,,,,,,,,,,,,,,,,,,,,,,,,,,,,,,,,,
,,6550cb1d00eb83c79f10bad9,34,male,2024-04-16_12h22.21.197,stockport_simplified,2022.2.4,Win32,29.94011976,661e456ee6de07e70aa9ef7b,661e51118cbfa20c53924e58,,,,,,,,,,,,,,,,,,,,,,,,,,,,,,,,,,,,,,,,,,,,,,,,,,,,,,,,1,36,96,38,1,A,Y,N,o1_image,stimuli/out1.png,stimuli/correct_out1.png,stimuli/out2.png,,,,,,,,,,,,,,,,,,,,,,,,,,,,,,,,,,,,,,
,,6550cb1d00eb83c79f10bad9,34,male,2024-04-16_12h22.21.197,stockport_simplified,2022.2.4,Win32,29.94011976,661e456ee6de07e70aa9ef7b,661e51118cbfa20c53924e58,,,,,,,,,,,,,,,,,,,,,,,,,,,,,,,,,,1756.5931,1758.82,"[4,6,5,8,2,7,3,1]","[[0.3,0.2],[-0.3,0.2]]","[[-0.125,-0.2],[0.125,-0.2]]",-0.102777778,-0.19629631,1,0,0,1.7162,o1_image,1758.8578,1,1759.3398,1759.34,1761.3492,0,0,0,0,1,,,,,,,,,,,,,,,,,,,,,,,,,,,,,,,,,,,,,,,,,,,,,,,,,,
,,6550cb1d00eb83c79f10bad9,34,male,2024-04-16_12h22.21.197,stockport_simplified,2022.2.4,Win32,29.94011976,661e456ee6de07e70aa9ef7b,661e51118cbfa20c53924e58,,,,,,,,,,,,,,,,,,,,,,,,,,,,,,,,,,,,,,,,,,,,,,,,,,,,,,,,1,37,97,52,1,N,M,C,o1_image,stimuli/out1.png,stimuli/correct_out1.png,stimuli/out2.png,,,,,,,,,,,,,,,,,,,,,,,,,,,,,,,,,,,,,,
,,6550cb1d00eb83c79f10bad9,34,male,2024-04-16_12h22.21.197,stockport_simplified,2022.2.4,Win32,29.94011976,661e456ee6de07e70aa9ef7b,661e51118cbfa20c53924e58,,,,,,,,,,,,,,,,,,,,,,,,,,,,,,,,,,1761.3519,1762.7712,"[4,6,5,8,2,7,3,1]","[[-0.3,0.2],[0.3,0.2]]","[[-0.125,-0.2],[0.125,-0.2]]",-0.098148092,-0.182407422,1,0,0,0.9016,o1_image,1762.7763,1,1763.2832,1763.2832,1765.2886,0,0,0,0,1,,,,,,,,,,,,,,,,,,,,,,,,,,,,,,,,,,,,,,,,,,,,,,,,,,
,,6550cb1d00eb83c79f10bad9,34,male,2024-04-16_12h22.21.197,stockport_simplified,2022.2.4,Win32,29.94011976,661e456ee6de07e70aa9ef7b,661e51118cbfa20c53924e58,,,,,,,,,,,,,,,,,,,,,,,,,,,,,,,,,,,,,,,,,,,,,,,,,,,,,,,,1,38,98,21,1,N,M,C,o1_image,stimuli/out1.png,stimuli/correct_out1.png,stimuli/out2.png,,,,,,,,,,,,,,,,,,,,,,,,,,,,,,,,,,,,,,
,,6550cb1d00eb83c79f10bad9,34,male,2024-04-16_12h22.21.197,stockport_simplified,2022.2.4,Win32,29.94011976,661e456ee6de07e70aa9ef7b,661e51118cbfa20c53924e58,,,,,,,,,,,,,,,,,,,,,,,,,,,,,,,,,,1765.2902,1769.0998,"[4,6,5,8,2,7,3,1]","[[0.3,0.2],[-0.3,0.2]]","[[-0.125,-0.2],[0.125,-0.2]]",0.125925954,-0.177777778,1,0,0,3.2878,o2_image,1769.1304,1,1769.6181,1769.6182,1771.5949,0,0,0,0,1,,,,,,,,,,,,,,,,,,,,,,,,,,,,,,,,,,,,,,,,,,,,,,,,,,
,,6550cb1d00eb83c79f10bad9,34,male,2024-04-16_12h22.21.197,stockport_simplified,2022.2.4,Win32,29.94011976,661e456ee6de07e70aa9ef7b,661e51118cbfa20c53924e58,,,,,,,,,,,,,,,,,,,,,,,,,,,,,,,,,,,,,,,,,,,,,,,,,,,,,,,,1,39,99,44,1,B,X,N,o2_image,stimuli/out2.png,stimuli/out1.png,stimuli/correct_out2.png,,,,,,,,,,,,,,,,,,,,,,,,,,,,,,,,,,,,,,
,,6550cb1d00eb83c79f10bad9,34,male,2024-04-16_12h22.21.197,stockport_simplified,2022.2.4,Win32,29.94011976,661e456ee6de07e70aa9ef7b,661e51118cbfa20c53924e58,,,,,,,,,,,,,,,,,,,,,,,,,,,,,,,,,,1771.5974,1773.7967,"[4,6,5,8,2,7,3,1]","[[-0.3,0.2],[0.3,0.2]]","[[0.125,-0.2],[-0.125,-0.2]]",-0.144444444,-0.217592621,1,0,0,1.6892,o2_image,1773.8056,1,1774.3074,1774.3076,1776.2961,0,0,0,0,1,,,,,,,,,,,,,,,,,,,,,,,,,,,,,,,,,,,,,,,,,,,,,,,,,,
,,6550cb1d00eb83c79f10bad9,34,male,2024-04-16_12h22.21.197,stockport_simplified,2022.2.4,Win32,29.94011976,661e456ee6de07e70aa9ef7b,661e51118cbfa20c53924e58,,,,,,,,,,,,,,,,,,,,,,,,,,,,,,,,,,,,,,,,,,,,,,,,,,,,,,,,1,40,100,15,1,B,Y,N,o2_image,stimuli/out2.png,stimuli/out1.png,stimuli/correct_out2.png,,,,,,,,,,,,,,,,,,,,,,,,,,,,,,,,,,,,,,
,,6550cb1d00eb83c79f10bad9,34,male,2024-04-16_12h22.21.197,stockport_simplified,2022.2.4,Win32,29.94011976,661e456ee6de07e70aa9ef7b,661e51118cbfa20c53924e58,,,,,,,,,,,,,,,,,,,,,,,,,,,,,,,,,,1776.2977,1777.8071,"[4,6,5,8,2,7,3,1]","[[0.3,0.2],[-0.3,0.2]]","[[0.125,-0.2],[-0.125,-0.2]]",-0.145370314,-0.210185199,1,0,0,0.9945,o2_image,1777.8107,1,1778.3052,1778.3053,1780.3048,0,0,0,0,1,,,,,,,,,,,,,,,,,,,,,,,,,,,,,,,,,,,,,,,,,,,,,,,,,,
,,6550cb1d00eb83c79f10bad9,34,male,2024-04-16_12h22.21.197,stockport_simplified,2022.2.4,Win32,29.94011976,661e456ee6de07e70aa9ef7b,661e51118cbfa20c53924e58,,,,,,,,,,,,,,,,,,,,,,,,,,,,,,,,,,,,,,,,,,,,,,,,,,,,,,,,1,41,101,18,1,B,Y,N,o2_image,stimuli/out2.png,stimuli/out1.png,stimuli/correct_out2.png,,,,,,,,,,,,,,,,,,,,,,,,,,,,,,,,,,,,,,
,,6550cb1d00eb83c79f10bad9,34,male,2024-04-16_12h22.21.197,stockport_simplified,2022.2.4,Win32,29.94011976,661e456ee6de07e70aa9ef7b,661e51118cbfa20c53924e58,,,,,,,,,,,,,,,,,,,,,,,,,,,,,,,,,,1780.3077,1781.9597,"[4,6,5,8,2,7,3,1]","[[-0.3,0.2],[0.3,0.2]]","[[0.125,-0.2],[-0.125,-0.2]]",-0.145370314,-0.208333333,1,0,0,1.1482,o2_image,1781.9639,1,1782.458,1782.458,1784.4375,0,0,0,0,1,,,,,,,,,,,,,,,,,,,,,,,,,,,,,,,,,,,,,,,,,,,,,,,,,,
,,6550cb1d00eb83c79f10bad9,34,male,2024-04-16_12h22.21.197,stockport_simplified,2022.2.4,Win32,29.94011976,661e456ee6de07e70aa9ef7b,661e51118cbfa20c53924e58,,,,,,,,,,,,,,,,,,,,,,,,,,,,,,,,,,,,,,,,,,,,,,,,,,,,,,,,1,42,102,56,1,N,M,D,o2_image,stimuli/out2.png,stimuli/out1.png,stimuli/correct_out2.png,,,,,,,,,,,,,,,,,,,,,,,,,,,,,,,,,,,,,,
,,6550cb1d00eb83c79f10bad9,34,male,2024-04-16_12h22.21.197,stockport_simplified,2022.2.4,Win32,29.94011976,661e456ee6de07e70aa9ef7b,661e51118cbfa20c53924e58,,,,,,,,,,,,,,,,,,,,,,,,,,,,,,,,,,1784.4404,1786.3274,"[4,6,5,8,2,7,3,1]","[[-0.3,0.2],[0.3,0.2]]","[[0.125,-0.2],[-0.125,-0.2]]",0.163888889,-0.182407422,1,0,0,1.3732,o1_image,1786.3292,1,1786.8269,1786.827,1788.8424,0,0,0,0,1,,,,,,,,,,,,,,,,,,,,,,,,,,,,,,,,,,,,,,,,,,,,,,,,,,
,,6550cb1d00eb83c79f10bad9,34,male,2024-04-16_12h22.21.197,stockport_simplified,2022.2.4,Win32,29.94011976,661e456ee6de07e70aa9ef7b,661e51118cbfa20c53924e58,,,,,,,,,,,,,,,,,,,,,,,,,,,,,,,,,,,,,,,,,,,,,,,,,,,,,,,,1,43,103,6,1,A,Y,N,o1_image,stimuli/out1.png,stimuli/correct_out1.png,stimuli/out2.png,,,,,,,,,,,,,,,,,,,,,,,,,,,,,,,,,,,,,,
,,6550cb1d00eb83c79f10bad9,34,male,2024-04-16_12h22.21.197,stockport_simplified,2022.2.4,Win32,29.94011976,661e456ee6de07e70aa9ef7b,661e51118cbfa20c53924e58,,,,,,,,,,,,,,,,,,,,,,,,,,,,,,,,,,1788.8454,1790.6324,"[4,6,5,8,2,7,3,1]","[[-0.3,0.2],[0.3,0.2]]","[[0.125,-0.2],[-0.125,-0.2]]",-0.098148092,-0.212963019,1,0,0,1.2845,o2_image,1790.6343,1,1791.1224,1791.1225,1793.1228,0,0,0,0,1,,,,,,,,,,,,,,,,,,,,,,,,,,,,,,,,,,,,,,,,,,,,,,,,,,
,,6550cb1d00eb83c79f10bad9,34,male,2024-04-16_12h22.21.197,stockport_simplified,2022.2.4,Win32,29.94011976,661e456ee6de07e70aa9ef7b,661e51118cbfa20c53924e58,,,,,,,,,,,,,,,,,,,,,,,,,,,,,,,,,,,,,,,,,,,,,,,,,,,,,,,,1,44,104,58,1,N,M,D,o2_image,stimuli/out2.png,stimuli/out1.png,stimuli/correct_out2.png,,,,,,,,,,,,,,,,,,,,,,,,,,,,,,,,,,,,,,
,,6550cb1d00eb83c79f10bad9,34,male,2024-04-16_12h22.21.197,stockport_simplified,2022.2.4,Win32,29.94011976,661e456ee6de07e70aa9ef7b,661e51118cbfa20c53924e58,,,,,,,,,,,,,,,,,,,,,,,,,,,,,,,,,,1793.1247,1795.0611,"[4,6,5,8,2,7,3,1]","[[0.3,0.2],[-0.3,0.2]]","[[-0.125,-0.2],[0.125,-0.2]]",0.095370399,-0.14629631,1,0,0,1.421,o2_image,1795.0641,1,1795.5552,1795.5552,1797.5584,0,0,0,0,1,,,,,,,,,,,,,,,,,,,,,,,,,,,,,,,,,,,,,,,,,,,,,,,,,,
,,6550cb1d00eb83c79f10bad9,34,male,2024-04-16_12h22.21.197,stockport_simplified,2022.2.4,Win32,29.94011976,661e456ee6de07e70aa9ef7b,661e51118cbfa20c53924e58,,,,,,,,,,,,,,,,,,,,,,,,,,,,,,,,,,,,,,,,,,,,,,,,,,,,,,,,1,45,105,48,1,B,Y,N,o2_image,stimuli/out2.png,stimuli/out1.png,stimuli/correct_out2.png,,,,,,,,,,,,,,,,,,,,,,,,,,,,,,,,,,,,,,
,,6550cb1d00eb83c79f10bad9,34,male,2024-04-16_12h22.21.197,stockport_simplified,2022.2.4,Win32,29.94011976,661e456ee6de07e70aa9ef7b,661e51118cbfa20c53924e58,,,,,,,,,,,,,,,,,,,,,,,,,,,,,,,,,,1797.5608,1799.5179,"[4,6,5,8,2,7,3,1]","[[-0.3,0.2],[0.3,0.2]]","[[0.125,-0.2],[-0.125,-0.2]]",0.133333333,-0.176851866,1,0,0,1.4492,o1_image,1799.5204,1,1800.0174,1800.0175,1802.0028,0,0,0,0,1,,,,,,,,,,,,,,,,,,,,,,,,,,,,,,,,,,,,,,,,,,,,,,,,,,
,,6550cb1d00eb83c79f10bad9,34,male,2024-04-16_12h22.21.197,stockport_simplified,2022.2.4,Win32,29.94011976,661e456ee6de07e70aa9ef7b,661e51118cbfa20c53924e58,,,,,,,,,,,,,,,,,,,,,,,,,,,,,,,,,,,,,,,,,,,,,,,,,,,,,,,,1,46,106,24,1,N,M,C,o1_image,stimuli/out1.png,stimuli/correct_out1.png,stimuli/out2.png,,,,,,,,,,,,,,,,,,,,,,,,,,,,,,,,,,,,,,
,,6550cb1d00eb83c79f10bad9,34,male,2024-04-16_12h22.21.197,stockport_simplified,2022.2.4,Win32,29.94011976,661e456ee6de07e70aa9ef7b,661e51118cbfa20c53924e58,,,,,,,,,,,,,,,,,,,,,,,,,,,,,,,,,,1802.0053,1804.5819,"[4,6,5,8,2,7,3,1]","[[0.3,0.2],[-0.3,0.2]]","[[-0.125,-0.2],[0.125,-0.2]]",-0.098148092,-0.161111111,1,0,0,2.0625,o1_image,1804.5839,1,1805.0962,1805.0963,1807.0829,0,0,0,0,1,,,,,,,,,,,,,,,,,,,,,,,,,,,,,,,,,,,,,,,,,,,,,,,,,,
,,6550cb1d00eb83c79f10bad9,34,male,2024-04-16_12h22.21.197,stockport_simplified,2022.2.4,Win32,29.94011976,661e456ee6de07e70aa9ef7b,661e51118cbfa20c53924e58,,,,,,,,,,,,,,,,,,,,,,,,,,,,,,,,,,,,,,,,,,,,,,,,,,,,,,,,1,47,107,2,1,A,X,N,o1_image,stimuli/out1.png,stimuli/correct_out1.png,stimuli/out2.png,,,,,,,,,,,,,,,,,,,,,,,,,,,,,,,,,,,,,,
,,6550cb1d00eb83c79f10bad9,34,male,2024-04-16_12h22.21.197,stockport_simplified,2022.2.4,Win32,29.94011976,661e456ee6de07e70aa9ef7b,661e51118cbfa20c53924e58,,,,,,,,,,,,,,,,,,,,,,,,,,,,,,,,,,1807.0857,1809.8641,"[4,6,5,8,2,7,3,1]","[[-0.3,0.2],[0.3,0.2]]","[[-0.125,-0.2],[0.125,-0.2]]",-0.064814758,-0.180555556,1,0,0,2.2523,o1_image,1809.8942,1,1810.3953,1810.3953,1812.4031,0,0,0,0,1,,,,,,,,,,,,,,,,,,,,,,,,,,,,,,,,,,,,,,,,,,,,,,,,,,
,,6550cb1d00eb83c79f10bad9,34,male,2024-04-16_12h22.21.197,stockport_simplified,2022.2.4,Win32,29.94011976,661e456ee6de07e70aa9ef7b,661e51118cbfa20c53924e58,,,,,,,,,,,,,,,,,,,,,,,,,,,,,,,,,,,,,,,,,,,,,,,,,,,,,,,,1,48,108,32,1,A,X,N,o1_image,stimuli/out1.png,stimuli/correct_out1.png,stimuli/out2.png,,,,,,,,,,,,,,,,,,,,,,,,,,,,,,,,,,,,,,
,,6550cb1d00eb83c79f10bad9,34,male,2024-04-16_12h22.21.197,stockport_simplified,2022.2.4,Win32,29.94011976,661e456ee6de07e70aa9ef7b,661e51118cbfa20c53924e58,,,,,,,,,,,,,,,,,,,,,,,,,,,,,,,,,,1812.4062,1814.3787,"[4,6,5,8,2,7,3,1]","[[0.3,0.2],[-0.3,0.2]]","[[-0.125,-0.2],[0.125,-0.2]]",0.136111111,-0.157407422,1,0,0,1.4545,o2_image,1814.3834,1,1814.8882,1814.8883,1816.8865,0,0,0,0,1,,,,,,,,,,,,,,,,,,,,,,,,,,,,,,,,,,,,,,,,,,,,,,,,,,
,,6550cb1d00eb83c79f10bad9,34,male,2024-04-16_12h22.21.197,stockport_simplified,2022.2.4,Win32,29.94011976,661e456ee6de07e70aa9ef7b,661e51118cbfa20c53924e58,,,,,,,,,,,,,,,,,,,,,,,,,,,,,,,,,,,,,,,,,,,,,,,,,,,,,,,,1,49,109,41,1,B,X,N,o2_image,stimuli/out2.png,stimuli/out1.png,stimuli/correct_out2.png,,,,,,,,,,,,,,,,,,,,,,,,,,,,,,,,,,,,,,
,,6550cb1d00eb83c79f10bad9,34,male,2024-04-16_12h22.21.197,stockport_simplified,2022.2.4,Win32,29.94011976,661e456ee6de07e70aa9ef7b,661e51118cbfa20c53924e58,,,,,,,,,,,,,,,,,,,,,,,,,,,,,,,,,,1816.8883,1818.8539,"[4,6,5,8,2,7,3,1]","[[-0.3,0.2],[0.3,0.2]]","[[-0.125,-0.2],[0.125,-0.2]]",0.136111111,-0.157407422,1,0,0,1.4603,o2_image,1818.8559,1,1819.3432,1819.3433,1821.3339,0,0,0,0,1,,,,,,,,,,,,,,,,,,,,,,,,,,,,,,,,,,,,,,,,,,,,,,,,,,
,,6550cb1d00eb83c79f10bad9,34,male,2024-04-16_12h22.21.197,stockport_simplified,2022.2.4,Win32,29.94011976,661e456ee6de07e70aa9ef7b,661e51118cbfa20c53924e58,,,,,,,,,,,,,,,,,,,,,,,,,,,,,,,,,,,,,,,,,,,,,,,,,,,,,,,,1,50,110,17,1,B,Y,N,o2_image,stimuli/out2.png,stimuli/out1.png,stimuli/correct_out2.png,,,,,,,,,,,,,,,,,,,,,,,,,,,,,,,,,,,,,,
,,6550cb1d00eb83c79f10bad9,34,male,2024-04-16_12h22.21.197,stockport_simplified,2022.2.4,Win32,29.94011976,661e456ee6de07e70aa9ef7b,661e51118cbfa20c53924e58,,,,,,,,,,,,,,,,,,,,,,,,,,,,,,,,,,1821.3363,1823.512,"[4,6,5,8,2,7,3,1]","[[-0.3,0.2],[0.3,0.2]]","[[0.125,-0.2],[-0.125,-0.2]]",-0.100925869,-0.188888889,1,0,0,1.6638,o2_image,1823.5136,1,1824.0016,1824.0016,1825.9838,0,0,0,0,1,,,,,,,,,,,,,,,,,,,,,,,,,,,,,,,,,,,,,,,,,,,,,,,,,,
,,6550cb1d00eb83c79f10bad9,34,male,2024-04-16_12h22.21.197,stockport_simplified,2022.2.4,Win32,29.94011976,661e456ee6de07e70aa9ef7b,661e51118cbfa20c53924e58,,,,,,,,,,,,,,,,,,,,,,,,,,,,,,,,,,,,,,,,,,,,,,,,,,,,,,,,1,51,111,19,1,B,Y,N,o2_image,stimuli/out2.png,stimuli/out1.png,stimuli/correct_out2.png,,,,,,,,,,,,,,,,,,,,,,,,,,,,,,,,,,,,,,
,,6550cb1d00eb83c79f10bad9,34,male,2024-04-16_12h22.21.197,stockport_simplified,2022.2.4,Win32,29.94011976,661e456ee6de07e70aa9ef7b,661e51118cbfa20c53924e58,,,,,,,,,,,,,,,,,,,,,,,,,,,,,,,,,,1825.9863,1828.403,"[4,6,5,8,2,7,3,1]","[[-0.3,0.2],[0.3,0.2]]","[[0.125,-0.2],[-0.125,-0.2]]",-0.140740712,-0.182407422,1,0,0,1.9055,o2_image,1828.4057,1,1828.9132,1828.9132,1830.9087,0,0,0,0,1,,,,,,,,,,,,,,,,,,,,,,,,,,,,,,,,,,,,,,,,,,,,,,,,,,
,,6550cb1d00eb83c79f10bad9,34,male,2024-04-16_12h22.21.197,stockport_simplified,2022.2.4,Win32,29.94011976,661e456ee6de07e70aa9ef7b,661e51118cbfa20c53924e58,,,,,,,,,,,,,,,,,,,,,,,,,,,,,,,,,,,,,,,,,,,,,,,,,,,,,,,,1,52,112,11,1,B,X,N,o2_image,stimuli/out2.png,stimuli/out1.png,stimuli/correct_out2.png,,,,,,,,,,,,,,,,,,,,,,,,,,,,,,,,,,,,,,
,,6550cb1d00eb83c79f10bad9,34,male,2024-04-16_12h22.21.197,stockport_simplified,2022.2.4,Win32,29.94011976,661e456ee6de07e70aa9ef7b,661e51118cbfa20c53924e58,,,,,,,,,,,,,,,,,,,,,,,,,,,,,,,,,,1830.9104,1832.7753,"[4,6,5,8,2,7,3,1]","[[-0.3,0.2],[0.3,0.2]]","[[-0.125,-0.2],[0.125,-0.2]]",-0.100925869,-0.192592621,1,0,0,1.3384,o1_image,1832.7789,1,1833.2629,1833.263,1835.2696,0,0,0,0,1,,,,,,,,,,,,,,,,,,,,,,,,,,,,,,,,,,,,,,,,,,,,,,,,,,
,,6550cb1d00eb83c79f10bad9,34,male,2024-04-16_12h22.21.197,stockport_simplified,2022.2.4,Win32,29.94011976,661e456ee6de07e70aa9ef7b,661e51118cbfa20c53924e58,,,,,,,,,,,,,,,,,,,,,,,,,,,,,,,,,,,,,,,,,,,,,,,,,,,,,,,,1,53,113,53,1,N,M,C,o1_image,stimuli/out1.png,stimuli/correct_out1.png,stimuli/out2.png,,,,,,,,,,,,,,,,,,,,,,,,,,,,,,,,,,,,,,
,,6550cb1d00eb83c79f10bad9,34,male,2024-04-16_12h22.21.197,stockport_simplified,2022.2.4,Win32,29.94011976,661e456ee6de07e70aa9ef7b,661e51118cbfa20c53924e58,,,,,,,,,,,,,,,,,,,,,,,,,,,,,,,,,,1835.2711,1837.9262,"[4,6,5,8,2,7,3,1]","[[0.3,0.2],[-0.3,0.2]]","[[0.125,-0.2],[-0.125,-0.2]]",0.085185242,-0.172222222,1,0,0,2.1375,o1_image,1837.9442,1,1838.4372,1838.4373,1840.4213,0,0,0,0,1,,,,,,,,,,,,,,,,,,,,,,,,,,,,,,,,,,,,,,,,,,,,,,,,,,
,,6550cb1d00eb83c79f10bad9,34,male,2024-04-16_12h22.21.197,stockport_simplified,2022.2.4,Win32,29.94011976,661e456ee6de07e70aa9ef7b,661e51118cbfa20c53924e58,,,,,,,,,,,,,,,,,,,,,,,,,,,,,,,,,,,,,,,,,,,,,,,,,,,,,,,,1,54,114,35,1,A,Y,N,o1_image,stimuli/out1.png,stimuli/correct_out1.png,stimuli/out2.png,,,,,,,,,,,,,,,,,,,,,,,,,,,,,,,,,,,,,,
,,6550cb1d00eb83c79f10bad9,34,male,2024-04-16_12h22.21.197,stockport_simplified,2022.2.4,Win32,29.94011976,661e456ee6de07e70aa9ef7b,661e51118cbfa20c53924e58,,,,,,,,,,,,,,,,,,,,,,,,,,,,,,,,,,1840.4239,1842.0317,"[4,6,5,8,2,7,3,1]","[[-0.3,0.2],[0.3,0.2]]","[[0.125,-0.2],[-0.125,-0.2]]",-0.096296268,-0.205555556,1,0,0,1.0924,o2_image,1842.034,1,1842.5217,1842.5222,1844.5077,0,0,0,0,1,,,,,,,,,,,,,,,,,,,,,,,,,,,,,,,,,,,,,,,,,,,,,,,,,,
,,6550cb1d00eb83c79f10bad9,34,male,2024-04-16_12h22.21.197,stockport_simplified,2022.2.4,Win32,29.94011976,661e456ee6de07e70aa9ef7b,661e51118cbfa20c53924e58,,,,,,,,,,,,,,,,,,,,,,,,,,,,,,,,,,,,,,,,,,,,,,,,,,,,,,,,1,55,115,28,1,N,M,D,o2_image,stimuli/out2.png,stimuli/out1.png,stimuli/correct_out2.png,,,,,,,,,,,,,,,,,,,,,,,,,,,,,,,,,,,,,,
,,6550cb1d00eb83c79f10bad9,34,male,2024-04-16_12h22.21.197,stockport_simplified,2022.2.4,Win32,29.94011976,661e456ee6de07e70aa9ef7b,661e51118cbfa20c53924e58,,,,,,,,,,,,,,,,,,,,,,,,,,,,,,,,,,1844.5096,1847.2887,"[4,6,5,8,2,7,3,1]","[[-0.3,0.2],[0.3,0.2]]","[[0.125,-0.2],[-0.125,-0.2]]",0.123148176,-0.168518533,1,0,0,2.272,o1_image,1847.291,1,1847.7888,1847.7889,1849.7742,0,0,0,0,1,,,,,,,,,,,,,,,,,,,,,,,,,,,,,,,,,,,,,,,,,,,,,,,,,,
,,6550cb1d00eb83c79f10bad9,34,male,2024-04-16_12h22.21.197,stockport_simplified,2022.2.4,Win32,29.94011976,661e456ee6de07e70aa9ef7b,661e51118cbfa20c53924e58,,,,,,,,,,,,,,,,,,,,,,,,,,,,,,,,,,,,,,,,,,,,,,,,,,,,,,,,1,56,116,51,1,N,M,C,o1_image,stimuli/out1.png,stimuli/correct_out1.png,stimuli/out2.png,,,,,,,,,,,,,,,,,,,,,,,,,,,,,,,,,,,,,,
,,6550cb1d00eb83c79f10bad9,34,male,2024-04-16_12h22.21.197,stockport_simplified,2022.2.4,Win32,29.94011976,661e456ee6de07e70aa9ef7b,661e51118cbfa20c53924e58,,,,,,,,,,,,,,,,,,,,,,,,,,,,,,,,,,1849.7767,1855.8631,"[4,6,5,8,2,7,3,1]","[[0.3,0.2],[-0.3,0.2]]","[[-0.125,-0.2],[0.125,-0.2]]",0.133333333,-0.193518533,1,0,0,5.5744,o2_image,1855.8812,1,1856.3658,1856.366,1858.3726,0,0,0,0,1,,,,,,,,,,,,,,,,,,,,,,,,,,,,,,,,,,,,,,,,,,,,,,,,,,
,,6550cb1d00eb83c79f10bad9,34,male,2024-04-16_12h22.21.197,stockport_simplified,2022.2.4,Win32,29.94011976,661e456ee6de07e70aa9ef7b,661e51118cbfa20c53924e58,,,,,,,,,,,,,,,,,,,,,,,,,,,,,,,,,,,,,,,,,,,,,,,,,,,,,,,,1,57,117,45,1,B,Y,N,o2_image,stimuli/out2.png,stimuli/out1.png,stimuli/correct_out2.png,,,,,,,,,,,,,,,,,,,,,,,,,,,,,,,,,,,,,,
,,6550cb1d00eb83c79f10bad9,34,male,2024-04-16_12h22.21.197,stockport_simplified,2022.2.4,Win32,29.94011976,661e456ee6de07e70aa9ef7b,661e51118cbfa20c53924e58,,,,,,,,,,,,,,,,,,,,,,,,,,,,,,,,,,1858.3749,1864.7017,"[4,6,5,8,2,7,3,1]","[[-0.3,0.2],[0.3,0.2]]","[[0.125,-0.2],[-0.125,-0.2]]",-0.133333333,-0.220370399,1,0,0,5.8133,o2_image,1864.7382,1,1865.2207,1865.2208,1867.2121,0,0,0,0,1,,,,,,,,,,,,,,,,,,,,,,,,,,,,,,,,,,,,,,,,,,,,,,,,,,
,,6550cb1d00eb83c79f10bad9,34,male,2024-04-16_12h22.21.197,stockport_simplified,2022.2.4,Win32,29.94011976,661e456ee6de07e70aa9ef7b,661e51118cbfa20c53924e58,,,,,,,,,,,,,,,,,,,,,,,,,,,,,,,,,,,,,,,,,,,,,,,,,,,,,,,,1,58,118,49,1,B,Y,N,o2_image,stimuli/out2.png,stimuli/out1.png,stimuli/correct_out2.png,,,,,,,,,,,,,,,,,,,,,,,,,,,,,,,,,,,,,,
,,6550cb1d00eb83c79f10bad9,34,male,2024-04-16_12h22.21.197,stockport_simplified,2022.2.4,Win32,29.94011976,661e456ee6de07e70aa9ef7b,661e51118cbfa20c53924e58,,,,,,,,,,,,,,,,,,,,,,,,,,,,,,,,,,1867.2147,1869.3304,"[4,6,5,8,2,7,3,1]","[[-0.3,0.2],[0.3,0.2]]","[[0.125,-0.2],[-0.125,-0.2]]",0.116666667,-0.175,1,0,0,1.6126,o1_image,1869.3326,1,1869.843,1869.8431,1871.8336,0,0,0,0,1,,,,,,,,,,,,,,,,,,,,,,,,,,,,,,,,,,,,,,,,,,,,,,,,,,
,,6550cb1d00eb83c79f10bad9,34,male,2024-04-16_12h22.21.197,stockport_simplified,2022.2.4,Win32,29.94011976,661e456ee6de07e70aa9ef7b,661e51118cbfa20c53924e58,,,,,,,,,,,,,,,,,,,,,,,,,,,,,,,,,,,,,,,,,,,,,,,,,,,,,,,,1,59,119,39,1,A,Y,N,o1_image,stimuli/out1.png,stimuli/correct_out1.png,stimuli/out2.png,,,,,,,,,,,,,,,,,,,,,,,,,,,,,,,,,,,,,,
,,6550cb1d00eb83c79f10bad9,34,male,2024-04-16_12h22.21.197,stockport_simplified,2022.2.4,Win32,29.94011976,661e456ee6de07e70aa9ef7b,661e51118cbfa20c53924e58,,,,,,,,,,,,,,,,,,,,,,,,,,,,,,,,,,1871.9071,1874.1077,"[4,6,5,8,2,7,3,1]","[[0.3,0.2],[-0.3,0.2]]","[[-0.125,-0.2],[0.125,-0.2]]",0.110185242,-0.167592621,1,0,0,1.6795,o2_image,1874.1096,1,1874.6161,1874.6166,1876.6074,,,,,,,,,,,,,,,,,,0,0,0,0,1,,,,,,,,,,,,,,,,,,,,,,,,,,,,,,,,,
,,6550cb1d00eb83c79f10bad9,34,male,2024-04-16_12h22.21.197,stockport_simplified,2022.2.4,Win32,29.94011976,661e456ee6de07e70aa9ef7b,661e51118cbfa20c53924e58,,,,,,,,,,,,,,,,,,,,,,,,,,,,,,,,,,,,,,,,,,,,,,,,,,,,,,,,,,,,,B,Y,N,o2_image,stimuli/out2.png,stimuli/out1.png,stimuli/correct_out2.png,,,,,,0,0,0,30,1,,,,,,,,,,,,,,,,,,,,,,,,,,,,
,,6550cb1d00eb83c79f10bad9,34,male,2024-04-16_12h22.21.197,stockport_simplified,2022.2.4,Win32,29.94011976,661e456ee6de07e70aa9ef7b,661e51118cbfa20c53924e58,,,,,,,,,,,,,,,,,,,,,,,,,,,,,,,,,,1876.6105,1878.2423,"[4,6,5,8,2,7,3,1]","[[-0.3,0.2],[0.3,0.2]]","[[-0.125,-0.2],[0.125,-0.2]]",0.110185242,-0.167592621,1,0,0,1.1063,o2_image,1878.2461,0,1878.7235,1878.7236,1880.7224,,,,,,,,,,,,,,,,,,0,0,0,0,1,,,,,,,,,,,,,,,,,,,,,,,,,,,,,,,,,
,,6550cb1d00eb83c79f10bad9,34,male,2024-04-16_12h22.21.197,stockport_simplified,2022.2.4,Win32,29.94011976,661e456ee6de07e70aa9ef7b,661e51118cbfa20c53924e58,,,,,,,,,,,,,,,,,,,,,,,,,,,,,,,,,,,,,,,,,,,,,,,,,,,,,,,,,,,,,B,X,N,o1_image,stimuli/out1.png,stimuli/correct_out1.png,stimuli/out2.png,,,,,,0,1,1,29,1,,,,,,,,,,,,,,,,,,,,,,,,,,,,
,,6550cb1d00eb83c79f10bad9,34,male,2024-04-16_12h22.21.197,stockport_simplified,2022.2.4,Win32,29.94011976,661e456ee6de07e70aa9ef7b,661e51118cbfa20c53924e58,,,,,,,,,,,,,,,,,,,,,,,,,,,,,,,,,,1880.7236,1882.5181,"[4,6,5,8,2,7,3,1]","[[0.3,0.2],[-0.3,0.2]]","[[-0.125,-0.2],[0.125,-0.2]]",-0.095370314,-0.193518533,1,0,0,1.2842,o1_image,1882.5206,1,1883.0087,1883.0087,1884.9802,,,,,,,,,,,,,,,,,,0,0,0,0,1,,,,,,,,,,,,,,,,,,,,,,,,,,,,,,,,,
,,6550cb1d00eb83c79f10bad9,34,male,2024-04-16_12h22.21.197,stockport_simplified,2022.2.4,Win32,29.94011976,661e456ee6de07e70aa9ef7b,661e51118cbfa20c53924e58,,,,,,,,,,,,,,,,,,,,,,,,,,,,,,,,,,,,,,,,,,,,,,,,,,,,,,,,,,,,,N,M,C,o1_image,stimuli/out1.png,stimuli/correct_out1.png,stimuli/out2.png,,,,,,0,2,2,41,1,,,,,,,,,,,,,,,,,,,,,,,,,,,,
