counterbalance_2.started,counterbalance_2.stopped,participant,age,gender,date,expName,psychopyVersion,OS,frameRate,STUDY_ID,SESSION_ID,information_2.started,information_2.stopped,information_loop.thisRepN,information_loop.thisTrialN,information_loop.thisN,information_loop.thisIndex,information_loop.ran,information,consent_2.started,consent_2.stopped,slider_1.response,slider_2.response,slider_3.response,slider_4.response,slider_5.response,slider_6.response,instructions.started,instructions.stopped,task1_instr.thisRepN,task1_instr.thisTrialN,task1_instr.thisN,task1_instr.thisIndex,task1_instr.ran,task1,comprehension1_2.started,comprehension1_2.stopped,comp1_mouse.x,comp1_mouse.y,comp1_mouse.leftButton,comp1_mouse.midButton,comp1_mouse.rightButton,comp1_mouse.time,comp1_mouse.clicked_name,cue_o__trial_2.started,cue_o__trial_2.stopped,order,cue_order,out_order,cue_o_mouse.x,cue_o_mouse.y,cue_o_mouse.leftButton,cue_o_mouse.midButton,cue_o_mouse.rightButton,cue_o_mouse.time,cue_o_mouse.clicked_name,cue_selection_2.started,correct_answer,cue_selection_2.stopped,feedback_2.started,feedback_2.stopped,feedback_loop.thisRepN,feedback_loop.thisTrialN,feedback_loop.thisN,feedback_loop.thisIndex,feedback_loop.ran,stage1_trials.thisRepN,stage1_trials.thisTrialN,stage1_trials.thisN,stage1_trials.thisIndex,stage1_trials.ran,cue1,cue2,cue3,outcome,correct_out,o1_feedback,o2_feedback,stage2_feedback_loop.thisRepN,stage2_feedback_loop.thisTrialN,stage2_feedback_loop.thisN,stage2_feedback_loop.thisIndex,stage2_feedback_loop.ran,stage2_trials.thisRepN,stage2_trials.thisTrialN,stage2_trials.thisN,stage2_trials.thisIndex,stage2_trials.ran,stage3_feedback_loop.thisRepN,stage3_feedback_loop.thisTrialN,stage3_feedback_loop.thisN,stage3_feedback_loop.thisIndex,stage3_feedback_loop.ran,stage3_trials.thisRepN,stage3_trials.thisTrialN,stage3_trials.thisN,stage3_trials.thisIndex,stage3_trials.ran,debrief_2.started,debrief_2.stopped,debrief_loop.thisRepN,debrief_loop.thisTrialN,debrief_loop.thisN,debrief_loop.thisIndex,debrief_loop.ran,debrief_img,compr1_completed.thisRepN,compr1_completed.thisTrialN,compr1_completed.thisN,compr1_completed.thisIndex,compr1_completed.ran,consent_loop.thisRepN,consent_loop.thisTrialN,consent_loop.thisN,consent_loop.thisIndex,consent_loop.ran
0.001,0.001,5f47cdcb9603e31f7f6a7dbd,19,male,2024-04-19_19h15.00.985,stockport_simplified,2022.2.4,Win32,60.0240096,661e456ee6de07e70aa9ef7b,66229da2b0b345de2f9fedd4,,,,,,,,,,,,,,,,,,,,,,,,,,,,,,,,,,,,,,,,,,,,,,,,,,,,,,,,,,,,,,,,,,,,,,,,,,,,,,,,,,,,,,,,,,,,,,,,,,,,,,,,,
,,5f47cdcb9603e31f7f6a7dbd,19,male,2024-04-19_19h15.00.985,stockport_simplified,2022.2.4,Win32,60.0240096,661e456ee6de07e70aa9ef7b,66229da2b0b345de2f9fedd4,0.014,18.644,0,0,0,0,1,instructions/info1.png,,,,,,,,,,,,,,,,,,,,,,,,,,,,,,,,,,,,,,,,,,,,,,,,,,,,,,,,,,,,,,,,,,,,,,,,,,,,,,,,,,,,,,,,,,,,,,,,,
,,5f47cdcb9603e31f7f6a7dbd,19,male,2024-04-19_19h15.00.985,stockport_simplified,2022.2.4,Win32,60.0240096,661e456ee6de07e70aa9ef7b,66229da2b0b345de2f9fedd4,18.645,19.06,0,1,1,1,1,instructions/info2.png,,,,,,,,,,,,,,,,,,,,,,,,,,,,,,,,,,,,,,,,,,,,,,,,,,,,,,,,,,,,,,,,,,,,,,,,,,,,,,,,,,,,,,,,,,,,,,,,,
,,5f47cdcb9603e31f7f6a7dbd,19,male,2024-04-19_19h15.00.985,stockport_simplified,2022.2.4,Win32,60.0240096,661e456ee6de07e70aa9ef7b,66229da2b0b345de2f9fedd4,19.061,21.644,0,2,2,2,1,instructions/info3.png,,,,,,,,,,,,,,,,,,,,,,,,,,,,,,,,,,,,,,,,,,,,,,,,,,,,,,,,,,,,,,,,,,,,,,,,,,,,,,,,,,,,,,,,,,,,,,,,,
,,5f47cdcb9603e31f7f6a7dbd,19,male,2024-04-19_19h15.00.985,stockport_simplified,2022.2.4,Win32,60.0240096,661e456ee6de07e70aa9ef7b,66229da2b0b345de2f9fedd4,,,,,,,,,21.644,46.795,1,1,1,1,1,1,,,,,,,,,,,,,,,,,,,,,,,,,,,,,,,,,,,,,,,,,,,,,,,,,,,,,,,,,,,,,,,,,,,,,,,,,,,,,,,,,,,,,,,,,
,,5f47cdcb9603e31f7f6a7dbd,19,male,2024-04-19_19h15.00.985,stockport_simplified,2022.2.4,Win32,60.0240096,661e456ee6de07e70aa9ef7b,66229da2b0b345de2f9fedd4,,,,,,,,,,,,,,,,,46.801,60.194,0,0,0,0,1,instructions/task1_1.png,,,,,,,,,,,,,,,,,,,,,,,,,,,,,,,,,,,,,,,,,,,,,,,,,,,,,,,,,,,,,,,,,,,,,,,,,,,,,,,,,
,,5f47cdcb9603e31f7f6a7dbd,19,male,2024-04-19_19h15.00.985,stockport_simplified,2022.2.4,Win32,60.0240096,661e456ee6de07e70aa9ef7b,66229da2b0b345de2f9fedd4,,,,,,,,,,,,,,,,,60.195,65.028,0,1,1,1,1,instructions/task1_2.png,,,,,,,,,,,,,,,,,,,,,,,,,,,,,,,,,,,,,,,,,,,,,,,,,,,,,,,,,,,,,,,,,,,,,,,,,,,,,,,,,
,,5f47cdcb9603e31f7f6a7dbd,19,male,2024-04-19_19h15.00.985,stockport_simplified,2022.2.4,Win32,60.0240096,661e456ee6de07e70aa9ef7b,66229da2b0b345de2f9fedd4,,,,,,,,,,,,,,,,,65.03,75.96,0,2,2,2,1,instructions/task1_3.png,,,,,,,,,,,,,,,,,,,,,,,,,,,,,,,,,,,,,,,,,,,,,,,,,,,,,,,,,,,,,,,,,,,,,,,,,,,,,,,,,
,,5f47cdcb9603e31f7f6a7dbd,19,male,2024-04-19_19h15.00.985,stockport_simplified,2022.2.4,Win32,60.0240096,661e456ee6de07e70aa9ef7b,66229da2b0b345de2f9fedd4,,,,,,,,,,,,,,,,,,,,,,,,,75.961,155.061,-0.003703704,0.122222222,1,0,0,73.133,comp1_resp1,155.072,163.261,"[4,7,3,2,6,1,5,8]","[[-0.3,0.2],[0.3,0.2]]","[[-0.125,-0.2],[0.125,-0.2]]",0.199074074,0.107407407,1,0,0,6.566,o2_image,163.263,0,163.76,163.76,165.76,0,0,0,0,1,,,,,,,,,,,,,,,,,,,,,,,,,,,,,,,,,,,,,,,,,,,,,,,,,,
,,5f47cdcb9603e31f7f6a7dbd,19,male,2024-04-19_19h15.00.985,stockport_simplified,2022.2.4,Win32,60.0240096,661e456ee6de07e70aa9ef7b,66229da2b0b345de2f9fedd4,,,,,,,,,,,,,,,,,,,,,,,,,,,,,,,,,,,,,,,,,,,,,,,,,,,,,,,,0,0,0,37,1,A,Y,N,o1_image,stimuli/out1.png,stimuli/correct_out1.png,stimuli/out2.png,,,,,,,,,,,,,,,,,,,,,,,,,,,,,,,,,,,,,,
,,5f47cdcb9603e31f7f6a7dbd,19,male,2024-04-19_19h15.00.985,stockport_simplified,2022.2.4,Win32,60.0240096,661e456ee6de07e70aa9ef7b,66229da2b0b345de2f9fedd4,,,,,,,,,,,,,,,,,,,,,,,,,,,,,,,,,,165.761,169.777,"[4,7,3,2,6,1,5,8]","[[-0.3,0.2],[0.3,0.2]]","[[-0.125,-0.2],[0.125,-0.2]]",-0.275,-0.266666667,1,0,0,3.166,o1_image,169.778,0,170.277,170.277,172.276,0,0,0,0,1,,,,,,,,,,,,,,,,,,,,,,,,,,,,,,,,,,,,,,,,,,,,,,,,,,
,,5f47cdcb9603e31f7f6a7dbd,19,male,2024-04-19_19h15.00.985,stockport_simplified,2022.2.4,Win32,60.0240096,661e456ee6de07e70aa9ef7b,66229da2b0b345de2f9fedd4,,,,,,,,,,,,,,,,,,,,,,,,,,,,,,,,,,,,,,,,,,,,,,,,,,,,,,,,0,1,1,41,1,B,X,N,o2_image,stimuli/out2.png,stimuli/out1.png,stimuli/correct_out2.png,,,,,,,,,,,,,,,,,,,,,,,,,,,,,,,,,,,,,,
,,5f47cdcb9603e31f7f6a7dbd,19,male,2024-04-19_19h15.00.985,stockport_simplified,2022.2.4,Win32,60.0240096,661e456ee6de07e70aa9ef7b,66229da2b0b345de2f9fedd4,,,,,,,,,,,,,,,,,,,,,,,,,,,,,,,,,,172.277,174.544,"[4,7,3,2,6,1,5,8]","[[-0.3,0.2],[0.3,0.2]]","[[0.125,-0.2],[-0.125,-0.2]]",-0.086111111,-0.208333333,1,0,0,1.767,o2_image,174.545,0,175.044,175.044,177.043,0,0,0,0,1,,,,,,,,,,,,,,,,,,,,,,,,,,,,,,,,,,,,,,,,,,,,,,,,,,
,,5f47cdcb9603e31f7f6a7dbd,19,male,2024-04-19_19h15.00.985,stockport_simplified,2022.2.4,Win32,60.0240096,661e456ee6de07e70aa9ef7b,66229da2b0b345de2f9fedd4,,,,,,,,,,,,,,,,,,,,,,,,,,,,,,,,,,,,,,,,,,,,,,,,,,,,,,,,0,2,2,36,1,A,Y,N,o1_image,stimuli/out1.png,stimuli/correct_out1.png,stimuli/out2.png,,,,,,,,,,,,,,,,,,,,,,,,,,,,,,,,,,,,,,
,,5f47cdcb9603e31f7f6a7dbd,19,male,2024-04-19_19h15.00.985,stockport_simplified,2022.2.4,Win32,60.0240096,661e456ee6de07e70aa9ef7b,66229da2b0b345de2f9fedd4,,,,,,,,,,,,,,,,,,,,,,,,,,,,,,,,,,177.044,181.127,"[4,7,3,2,6,1,5,8]","[[0.3,0.2],[-0.3,0.2]]","[[-0.125,-0.2],[0.125,-0.2]]",0.137962963,-0.210185185,1,0,0,3.567,o2_image,181.128,1,181.626,181.626,183.627,0,0,0,0,1,,,,,,,,,,,,,,,,,,,,,,,,,,,,,,,,,,,,,,,,,,,,,,,,,,
,,5f47cdcb9603e31f7f6a7dbd,19,male,2024-04-19_19h15.00.985,stockport_simplified,2022.2.4,Win32,60.0240096,661e456ee6de07e70aa9ef7b,66229da2b0b345de2f9fedd4,,,,,,,,,,,,,,,,,,,,,,,,,,,,,,,,,,,,,,,,,,,,,,,,,,,,,,,,0,3,3,11,1,B,X,N,o2_image,stimuli/out2.png,stimuli/out1.png,stimuli/correct_out2.png,,,,,,,,,,,,,,,,,,,,,,,,,,,,,,,,,,,,,,
,,5f47cdcb9603e31f7f6a7dbd,19,male,2024-04-19_19h15.00.985,stockport_simplified,2022.2.4,Win32,60.0240096,661e456ee6de07e70aa9ef7b,66229da2b0b345de2f9fedd4,,,,,,,,,,,,,,,,,,,,,,,,,,,,,,,,,,183.627,186.343,"[4,7,3,2,6,1,5,8]","[[0.3,0.2],[-0.3,0.2]]","[[0.125,-0.2],[-0.125,-0.2]]",-0.14537037,-0.222222222,1,0,0,2.215,o2_image,186.344,0,186.843,186.844,188.844,0,0,0,0,1,,,,,,,,,,,,,,,,,,,,,,,,,,,,,,,,,,,,,,,,,,,,,,,,,,
,,5f47cdcb9603e31f7f6a7dbd,19,male,2024-04-19_19h15.00.985,stockport_simplified,2022.2.4,Win32,60.0240096,661e456ee6de07e70aa9ef7b,66229da2b0b345de2f9fedd4,,,,,,,,,,,,,,,,,,,,,,,,,,,,,,,,,,,,,,,,,,,,,,,,,,,,,,,,0,4,4,24,1,N,M,C,o1_image,stimuli/out1.png,stimuli/correct_out1.png,stimuli/out2.png,,,,,,,,,,,,,,,,,,,,,,,,,,,,,,,,,,,,,,
,,5f47cdcb9603e31f7f6a7dbd,19,male,2024-04-19_19h15.00.985,stockport_simplified,2022.2.4,Win32,60.0240096,661e456ee6de07e70aa9ef7b,66229da2b0b345de2f9fedd4,,,,,,,,,,,,,,,,,,,,,,,,,,,,,,,,,,188.844,191.61,"[4,7,3,2,6,1,5,8]","[[0.3,0.2],[-0.3,0.2]]","[[-0.125,-0.2],[0.125,-0.2]]",-0.144444444,-0.22037037,1,0,0,2.249,o1_image,191.611,1,192.111,192.111,194.11,0,0,0,0,1,,,,,,,,,,,,,,,,,,,,,,,,,,,,,,,,,,,,,,,,,,,,,,,,,,
,,5f47cdcb9603e31f7f6a7dbd,19,male,2024-04-19_19h15.00.985,stockport_simplified,2022.2.4,Win32,60.0240096,661e456ee6de07e70aa9ef7b,66229da2b0b345de2f9fedd4,,,,,,,,,,,,,,,,,,,,,,,,,,,,,,,,,,,,,,,,,,,,,,,,,,,,,,,,0,5,5,7,1,A,Y,N,o1_image,stimuli/out1.png,stimuli/correct_out1.png,stimuli/out2.png,,,,,,,,,,,,,,,,,,,,,,,,,,,,,,,,,,,,,,
,,5f47cdcb9603e31f7f6a7dbd,19,male,2024-04-19_19h15.00.985,stockport_simplified,2022.2.4,Win32,60.0240096,661e456ee6de07e70aa9ef7b,66229da2b0b345de2f9fedd4,,,,,,,,,,,,,,,,,,,,,,,,,,,,,,,,,,194.11,196.361,"[4,7,3,2,6,1,5,8]","[[0.3,0.2],[-0.3,0.2]]","[[-0.125,-0.2],[0.125,-0.2]]",-0.102777778,-0.222222222,1,0,0,1.751,o1_image,196.362,0,196.86,196.86,198.86,0,0,0,0,1,,,,,,,,,,,,,,,,,,,,,,,,,,,,,,,,,,,,,,,,,,,,,,,,,,
,,5f47cdcb9603e31f7f6a7dbd,19,male,2024-04-19_19h15.00.985,stockport_simplified,2022.2.4,Win32,60.0240096,661e456ee6de07e70aa9ef7b,66229da2b0b345de2f9fedd4,,,,,,,,,,,,,,,,,,,,,,,,,,,,,,,,,,,,,,,,,,,,,,,,,,,,,,,,0,6,6,48,1,B,Y,N,o2_image,stimuli/out2.png,stimuli/out1.png,stimuli/correct_out2.png,,,,,,,,,,,,,,,,,,,,,,,,,,,,,,,,,,,,,,
,,5f47cdcb9603e31f7f6a7dbd,19,male,2024-04-19_19h15.00.985,stockport_simplified,2022.2.4,Win32,60.0240096,661e456ee6de07e70aa9ef7b,66229da2b0b345de2f9fedd4,,,,,,,,,,,,,,,,,,,,,,,,,,,,,,,,,,198.861,200.41,"[4,7,3,2,6,1,5,8]","[[0.3,0.2],[-0.3,0.2]]","[[-0.125,-0.2],[0.125,-0.2]]",-0.097222222,-0.225925926,1,0,0,1.032,o1_image,200.411,1,200.911,200.911,202.91,0,0,0,0,1,,,,,,,,,,,,,,,,,,,,,,,,,,,,,,,,,,,,,,,,,,,,,,,,,,
,,5f47cdcb9603e31f7f6a7dbd,19,male,2024-04-19_19h15.00.985,stockport_simplified,2022.2.4,Win32,60.0240096,661e456ee6de07e70aa9ef7b,66229da2b0b345de2f9fedd4,,,,,,,,,,,,,,,,,,,,,,,,,,,,,,,,,,,,,,,,,,,,,,,,,,,,,,,,0,7,7,5,1,A,Y,N,o1_image,stimuli/out1.png,stimuli/correct_out1.png,stimuli/out2.png,,,,,,,,,,,,,,,,,,,,,,,,,,,,,,,,,,,,,,
,,5f47cdcb9603e31f7f6a7dbd,19,male,2024-04-19_19h15.00.985,stockport_simplified,2022.2.4,Win32,60.0240096,661e456ee6de07e70aa9ef7b,66229da2b0b345de2f9fedd4,,,,,,,,,,,,,,,,,,,,,,,,,,,,,,,,,,202.911,204.81,"[4,7,3,2,6,1,5,8]","[[-0.3,0.2],[0.3,0.2]]","[[0.125,-0.2],[-0.125,-0.2]]",-0.119444444,-0.216666667,1,0,0,1.382,o2_image,204.812,0,205.31,205.31,207.31,0,0,0,0,1,,,,,,,,,,,,,,,,,,,,,,,,,,,,,,,,,,,,,,,,,,,,,,,,,,
,,5f47cdcb9603e31f7f6a7dbd,19,male,2024-04-19_19h15.00.985,stockport_simplified,2022.2.4,Win32,60.0240096,661e456ee6de07e70aa9ef7b,66229da2b0b345de2f9fedd4,,,,,,,,,,,,,,,,,,,,,,,,,,,,,,,,,,,,,,,,,,,,,,,,,,,,,,,,0,8,8,31,1,A,X,N,o1_image,stimuli/out1.png,stimuli/correct_out1.png,stimuli/out2.png,,,,,,,,,,,,,,,,,,,,,,,,,,,,,,,,,,,,,,
,,5f47cdcb9603e31f7f6a7dbd,19,male,2024-04-19_19h15.00.985,stockport_simplified,2022.2.4,Win32,60.0240096,661e456ee6de07e70aa9ef7b,66229da2b0b345de2f9fedd4,,,,,,,,,,,,,,,,,,,,,,,,,,,,,,,,,,207.311,209.144,"[4,7,3,2,6,1,5,8]","[[0.3,0.2],[-0.3,0.2]]","[[0.125,-0.2],[-0.125,-0.2]]",0.124074074,-0.221296296,1,0,0,1.316,o1_image,209.145,1,209.644,209.644,211.643,0,0,0,0,1,,,,,,,,,,,,,,,,,,,,,,,,,,,,,,,,,,,,,,,,,,,,,,,,,,
,,5f47cdcb9603e31f7f6a7dbd,19,male,2024-04-19_19h15.00.985,stockport_simplified,2022.2.4,Win32,60.0240096,661e456ee6de07e70aa9ef7b,66229da2b0b345de2f9fedd4,,,,,,,,,,,,,,,,,,,,,,,,,,,,,,,,,,,,,,,,,,,,,,,,,,,,,,,,0,9,9,39,1,A,Y,N,o1_image,stimuli/out1.png,stimuli/correct_out1.png,stimuli/out2.png,,,,,,,,,,,,,,,,,,,,,,,,,,,,,,,,,,,,,,
,,5f47cdcb9603e31f7f6a7dbd,19,male,2024-04-19_19h15.00.985,stockport_simplified,2022.2.4,Win32,60.0240096,661e456ee6de07e70aa9ef7b,66229da2b0b345de2f9fedd4,,,,,,,,,,,,,,,,,,,,,,,,,,,,,,,,,,211.643,213.493,"[4,7,3,2,6,1,5,8]","[[-0.3,0.2],[0.3,0.2]]","[[0.125,-0.2],[-0.125,-0.2]]",-0.10462963,-0.22962963,1,0,0,1.349,o2_image,213.494,1,213.994,213.994,215.993,0,0,0,0,1,,,,,,,,,,,,,,,,,,,,,,,,,,,,,,,,,,,,,,,,,,,,,,,,,,
,,5f47cdcb9603e31f7f6a7dbd,19,male,2024-04-19_19h15.00.985,stockport_simplified,2022.2.4,Win32,60.0240096,661e456ee6de07e70aa9ef7b,66229da2b0b345de2f9fedd4,,,,,,,,,,,,,,,,,,,,,,,,,,,,,,,,,,,,,,,,,,,,,,,,,,,,,,,,0,10,10,28,1,N,M,D,o2_image,stimuli/out2.png,stimuli/out1.png,stimuli/correct_out2.png,,,,,,,,,,,,,,,,,,,,,,,,,,,,,,,,,,,,,,
,,5f47cdcb9603e31f7f6a7dbd,19,male,2024-04-19_19h15.00.985,stockport_simplified,2022.2.4,Win32,60.0240096,661e456ee6de07e70aa9ef7b,66229da2b0b345de2f9fedd4,,,,,,,,,,,,,,,,,,,,,,,,,,,,,,,,,,215.994,218.343,"[4,7,3,2,6,1,5,8]","[[0.3,0.2],[-0.3,0.2]]","[[-0.125,-0.2],[0.125,-0.2]]",-0.096296296,-0.22962963,1,0,0,1.849,o1_image,218.345,1,218.843,218.843,220.844,0,0,0,0,1,,,,,,,,,,,,,,,,,,,,,,,,,,,,,,,,,,,,,,,,,,,,,,,,,,
,,5f47cdcb9603e31f7f6a7dbd,19,male,2024-04-19_19h15.00.985,stockport_simplified,2022.2.4,Win32,60.0240096,661e456ee6de07e70aa9ef7b,66229da2b0b345de2f9fedd4,,,,,,,,,,,,,,,,,,,,,,,,,,,,,,,,,,,,,,,,,,,,,,,,,,,,,,,,0,11,11,3,1,A,X,N,o1_image,stimuli/out1.png,stimuli/correct_out1.png,stimuli/out2.png,,,,,,,,,,,,,,,,,,,,,,,,,,,,,,,,,,,,,,
,,5f47cdcb9603e31f7f6a7dbd,19,male,2024-04-19_19h15.00.985,stockport_simplified,2022.2.4,Win32,60.0240096,661e456ee6de07e70aa9ef7b,66229da2b0b345de2f9fedd4,,,,,,,,,,,,,,,,,,,,,,,,,,,,,,,,,,220.844,222.61,"[4,7,3,2,6,1,5,8]","[[0.3,0.2],[-0.3,0.2]]","[[0.125,-0.2],[-0.125,-0.2]]",0.066666667,-0.225,1,0,0,1.249,o1_image,222.612,1,223.11,223.11,225.11,0,0,0,0,1,,,,,,,,,,,,,,,,,,,,,,,,,,,,,,,,,,,,,,,,,,,,,,,,,,
,,5f47cdcb9603e31f7f6a7dbd,19,male,2024-04-19_19h15.00.985,stockport_simplified,2022.2.4,Win32,60.0240096,661e456ee6de07e70aa9ef7b,66229da2b0b345de2f9fedd4,,,,,,,,,,,,,,,,,,,,,,,,,,,,,,,,,,,,,,,,,,,,,,,,,,,,,,,,0,12,12,22,1,N,M,C,o1_image,stimuli/out1.png,stimuli/correct_out1.png,stimuli/out2.png,,,,,,,,,,,,,,,,,,,,,,,,,,,,,,,,,,,,,,
,,5f47cdcb9603e31f7f6a7dbd,19,male,2024-04-19_19h15.00.985,stockport_simplified,2022.2.4,Win32,60.0240096,661e456ee6de07e70aa9ef7b,66229da2b0b345de2f9fedd4,,,,,,,,,,,,,,,,,,,,,,,,,,,,,,,,,,225.111,228.143,"[4,7,3,2,6,1,5,8]","[[0.3,0.2],[-0.3,0.2]]","[[0.125,-0.2],[-0.125,-0.2]]",0.067592593,-0.224074074,1,0,0,2.516,o1_image,228.144,0,228.643,228.643,230.644,0,0,0,0,1,,,,,,,,,,,,,,,,,,,,,,,,,,,,,,,,,,,,,,,,,,,,,,,,,,
,,5f47cdcb9603e31f7f6a7dbd,19,male,2024-04-19_19h15.00.985,stockport_simplified,2022.2.4,Win32,60.0240096,661e456ee6de07e70aa9ef7b,66229da2b0b345de2f9fedd4,,,,,,,,,,,,,,,,,,,,,,,,,,,,,,,,,,,,,,,,,,,,,,,,,,,,,,,,0,13,13,42,1,B,X,N,o2_image,stimuli/out2.png,stimuli/out1.png,stimuli/correct_out2.png,,,,,,,,,,,,,,,,,,,,,,,,,,,,,,,,,,,,,,
,,5f47cdcb9603e31f7f6a7dbd,19,male,2024-04-19_19h15.00.985,stockport_simplified,2022.2.4,Win32,60.0240096,661e456ee6de07e70aa9ef7b,66229da2b0b345de2f9fedd4,,,,,,,,,,,,,,,,,,,,,,,,,,,,,,,,,,230.646,232.693,"[4,7,3,2,6,1,5,8]","[[-0.3,0.2],[0.3,0.2]]","[[0.125,-0.2],[-0.125,-0.2]]",0.047222222,-0.226851852,1,0,0,1.531,o1_image,232.696,1,233.193,233.193,235.193,0,0,0,0,1,,,,,,,,,,,,,,,,,,,,,,,,,,,,,,,,,,,,,,,,,,,,,,,,,,
,,5f47cdcb9603e31f7f6a7dbd,19,male,2024-04-19_19h15.00.985,stockport_simplified,2022.2.4,Win32,60.0240096,661e456ee6de07e70aa9ef7b,66229da2b0b345de2f9fedd4,,,,,,,,,,,,,,,,,,,,,,,,,,,,,,,,,,,,,,,,,,,,,,,,,,,,,,,,0,14,14,35,1,A,Y,N,o1_image,stimuli/out1.png,stimuli/correct_out1.png,stimuli/out2.png,,,,,,,,,,,,,,,,,,,,,,,,,,,,,,,,,,,,,,
,,5f47cdcb9603e31f7f6a7dbd,19,male,2024-04-19_19h15.00.985,stockport_simplified,2022.2.4,Win32,60.0240096,661e456ee6de07e70aa9ef7b,66229da2b0b345de2f9fedd4,,,,,,,,,,,,,,,,,,,,,,,,,,,,,,,,,,235.194,237.211,"[4,7,3,2,6,1,5,8]","[[-0.3,0.2],[0.3,0.2]]","[[-0.125,-0.2],[0.125,-0.2]]",-0.201851852,-0.166666667,1,0,0,1.516,o1_image,237.212,1,237.71,237.711,239.71,0,0,0,0,1,,,,,,,,,,,,,,,,,,,,,,,,,,,,,,,,,,,,,,,,,,,,,,,,,,
,,5f47cdcb9603e31f7f6a7dbd,19,male,2024-04-19_19h15.00.985,stockport_simplified,2022.2.4,Win32,60.0240096,661e456ee6de07e70aa9ef7b,66229da2b0b345de2f9fedd4,,,,,,,,,,,,,,,,,,,,,,,,,,,,,,,,,,,,,,,,,,,,,,,,,,,,,,,,0,15,15,30,1,A,X,N,o1_image,stimuli/out1.png,stimuli/correct_out1.png,stimuli/out2.png,,,,,,,,,,,,,,,,,,,,,,,,,,,,,,,,,,,,,,
,,5f47cdcb9603e31f7f6a7dbd,19,male,2024-04-19_19h15.00.985,stockport_simplified,2022.2.4,Win32,60.0240096,661e456ee6de07e70aa9ef7b,66229da2b0b345de2f9fedd4,,,,,,,,,,,,,,,,,,,,,,,,,,,,,,,,,,239.711,243.194,"[4,7,3,2,6,1,5,8]","[[0.3,0.2],[-0.3,0.2]]","[[0.125,-0.2],[-0.125,-0.2]]",0.236111111,-0.225,1,0,0,2.6,o1_image,243.195,0,243.694,243.694,245.694,0,0,0,0,1,,,,,,,,,,,,,,,,,,,,,,,,,,,,,,,,,,,,,,,,,,,,,,,,,,
,,5f47cdcb9603e31f7f6a7dbd,19,male,2024-04-19_19h15.00.985,stockport_simplified,2022.2.4,Win32,60.0240096,661e456ee6de07e70aa9ef7b,66229da2b0b345de2f9fedd4,,,,,,,,,,,,,,,,,,,,,,,,,,,,,,,,,,,,,,,,,,,,,,,,,,,,,,,,0,16,16,26,1,N,M,D,o2_image,stimuli/out2.png,stimuli/out1.png,stimuli/correct_out2.png,,,,,,,,,,,,,,,,,,,,,,,,,,,,,,,,,,,,,,
,,5f47cdcb9603e31f7f6a7dbd,19,male,2024-04-19_19h15.00.985,stockport_simplified,2022.2.4,Win32,60.0240096,661e456ee6de07e70aa9ef7b,66229da2b0b345de2f9fedd4,,,,,,,,,,,,,,,,,,,,,,,,,,,,,,,,,,245.694,248.943,"[4,7,3,2,6,1,5,8]","[[-0.3,0.2],[0.3,0.2]]","[[0.125,-0.2],[-0.125,-0.2]]",0.155555556,-0.209259259,1,0,0,2.732,o1_image,248.945,1,249.443,249.443,251.443,0,0,0,0,1,,,,,,,,,,,,,,,,,,,,,,,,,,,,,,,,,,,,,,,,,,,,,,,,,,
,,5f47cdcb9603e31f7f6a7dbd,19,male,2024-04-19_19h15.00.985,stockport_simplified,2022.2.4,Win32,60.0240096,661e456ee6de07e70aa9ef7b,66229da2b0b345de2f9fedd4,,,,,,,,,,,,,,,,,,,,,,,,,,,,,,,,,,,,,,,,,,,,,,,,,,,,,,,,0,17,17,8,1,A,Y,N,o1_image,stimuli/out1.png,stimuli/correct_out1.png,stimuli/out2.png,,,,,,,,,,,,,,,,,,,,,,,,,,,,,,,,,,,,,,
,,5f47cdcb9603e31f7f6a7dbd,19,male,2024-04-19_19h15.00.985,stockport_simplified,2022.2.4,Win32,60.0240096,661e456ee6de07e70aa9ef7b,66229da2b0b345de2f9fedd4,,,,,,,,,,,,,,,,,,,,,,,,,,,,,,,,,,251.444,254.677,"[4,7,3,2,6,1,5,8]","[[0.3,0.2],[-0.3,0.2]]","[[0.125,-0.2],[-0.125,-0.2]]",-0.086111111,-0.184259259,1,0,0,2.733,o2_image,254.678,1,255.177,255.177,257.177,0,0,0,0,1,,,,,,,,,,,,,,,,,,,,,,,,,,,,,,,,,,,,,,,,,,,,,,,,,,
,,5f47cdcb9603e31f7f6a7dbd,19,male,2024-04-19_19h15.00.985,stockport_simplified,2022.2.4,Win32,60.0240096,661e456ee6de07e70aa9ef7b,66229da2b0b345de2f9fedd4,,,,,,,,,,,,,,,,,,,,,,,,,,,,,,,,,,,,,,,,,,,,,,,,,,,,,,,,0,18,18,59,1,N,M,D,o2_image,stimuli/out2.png,stimuli/out1.png,stimuli/correct_out2.png,,,,,,,,,,,,,,,,,,,,,,,,,,,,,,,,,,,,,,
,,5f47cdcb9603e31f7f6a7dbd,19,male,2024-04-19_19h15.00.985,stockport_simplified,2022.2.4,Win32,60.0240096,661e456ee6de07e70aa9ef7b,66229da2b0b345de2f9fedd4,,,,,,,,,,,,,,,,,,,,,,,,,,,,,,,,,,257.177,259.377,"[4,7,3,2,6,1,5,8]","[[-0.3,0.2],[0.3,0.2]]","[[0.125,-0.2],[-0.125,-0.2]]",-0.152777778,-0.20462963,1,0,0,1.683,o2_image,259.378,1,259.877,259.877,261.877,0,0,0,0,1,,,,,,,,,,,,,,,,,,,,,,,,,,,,,,,,,,,,,,,,,,,,,,,,,,
,,5f47cdcb9603e31f7f6a7dbd,19,male,2024-04-19_19h15.00.985,stockport_simplified,2022.2.4,Win32,60.0240096,661e456ee6de07e70aa9ef7b,66229da2b0b345de2f9fedd4,,,,,,,,,,,,,,,,,,,,,,,,,,,,,,,,,,,,,,,,,,,,,,,,,,,,,,,,0,19,19,47,1,B,Y,N,o2_image,stimuli/out2.png,stimuli/out1.png,stimuli/correct_out2.png,,,,,,,,,,,,,,,,,,,,,,,,,,,,,,,,,,,,,,
,,5f47cdcb9603e31f7f6a7dbd,19,male,2024-04-19_19h15.00.985,stockport_simplified,2022.2.4,Win32,60.0240096,661e456ee6de07e70aa9ef7b,66229da2b0b345de2f9fedd4,,,,,,,,,,,,,,,,,,,,,,,,,,,,,,,,,,261.878,263.644,"[4,7,3,2,6,1,5,8]","[[-0.3,0.2],[0.3,0.2]]","[[0.125,-0.2],[-0.125,-0.2]]",-0.112962963,-0.182407407,1,0,0,1.249,o2_image,263.646,1,264.143,264.143,266.143,0,0,0,0,1,,,,,,,,,,,,,,,,,,,,,,,,,,,,,,,,,,,,,,,,,,,,,,,,,,
,,5f47cdcb9603e31f7f6a7dbd,19,male,2024-04-19_19h15.00.985,stockport_simplified,2022.2.4,Win32,60.0240096,661e456ee6de07e70aa9ef7b,66229da2b0b345de2f9fedd4,,,,,,,,,,,,,,,,,,,,,,,,,,,,,,,,,,,,,,,,,,,,,,,,,,,,,,,,0,20,20,57,1,N,M,D,o2_image,stimuli/out2.png,stimuli/out1.png,stimuli/correct_out2.png,,,,,,,,,,,,,,,,,,,,,,,,,,,,,,,,,,,,,,
,,5f47cdcb9603e31f7f6a7dbd,19,male,2024-04-19_19h15.00.985,stockport_simplified,2022.2.4,Win32,60.0240096,661e456ee6de07e70aa9ef7b,66229da2b0b345de2f9fedd4,,,,,,,,,,,,,,,,,,,,,,,,,,,,,,,,,,266.144,268.31,"[4,7,3,2,6,1,5,8]","[[-0.3,0.2],[0.3,0.2]]","[[0.125,-0.2],[-0.125,-0.2]]",0.134259259,-0.176851852,1,0,0,1.649,o1_image,268.311,0,268.81,268.81,270.811,0,0,0,0,1,,,,,,,,,,,,,,,,,,,,,,,,,,,,,,,,,,,,,,,,,,,,,,,,,,
,,5f47cdcb9603e31f7f6a7dbd,19,male,2024-04-19_19h15.00.985,stockport_simplified,2022.2.4,Win32,60.0240096,661e456ee6de07e70aa9ef7b,66229da2b0b345de2f9fedd4,,,,,,,,,,,,,,,,,,,,,,,,,,,,,,,,,,,,,,,,,,,,,,,,,,,,,,,,0,21,21,44,1,B,X,N,o2_image,stimuli/out2.png,stimuli/out1.png,stimuli/correct_out2.png,,,,,,,,,,,,,,,,,,,,,,,,,,,,,,,,,,,,,,
,,5f47cdcb9603e31f7f6a7dbd,19,male,2024-04-19_19h15.00.985,stockport_simplified,2022.2.4,Win32,60.0240096,661e456ee6de07e70aa9ef7b,66229da2b0b345de2f9fedd4,,,,,,,,,,,,,,,,,,,,,,,,,,,,,,,,,,270.811,272.793,"[4,7,3,2,6,1,5,8]","[[0.3,0.2],[-0.3,0.2]]","[[-0.125,-0.2],[0.125,-0.2]]",-0.112962963,-0.212037037,1,0,0,1.466,o1_image,272.795,1,273.293,273.293,275.294,0,0,0,0,1,,,,,,,,,,,,,,,,,,,,,,,,,,,,,,,,,,,,,,,,,,,,,,,,,,
,,5f47cdcb9603e31f7f6a7dbd,19,male,2024-04-19_19h15.00.985,stockport_simplified,2022.2.4,Win32,60.0240096,661e456ee6de07e70aa9ef7b,66229da2b0b345de2f9fedd4,,,,,,,,,,,,,,,,,,,,,,,,,,,,,,,,,,,,,,,,,,,,,,,,,,,,,,,,0,22,22,9,1,A,Y,N,o1_image,stimuli/out1.png,stimuli/correct_out1.png,stimuli/out2.png,,,,,,,,,,,,,,,,,,,,,,,,,,,,,,,,,,,,,,
,,5f47cdcb9603e31f7f6a7dbd,19,male,2024-04-19_19h15.00.985,stockport_simplified,2022.2.4,Win32,60.0240096,661e456ee6de07e70aa9ef7b,66229da2b0b345de2f9fedd4,,,,,,,,,,,,,,,,,,,,,,,,,,,,,,,,,,275.295,277.41,"[4,7,3,2,6,1,5,8]","[[-0.3,0.2],[0.3,0.2]]","[[0.125,-0.2],[-0.125,-0.2]]",0.103703704,-0.228703704,1,0,0,1.6,o1_image,277.411,0,277.91,277.91,279.91,0,0,0,0,1,,,,,,,,,,,,,,,,,,,,,,,,,,,,,,,,,,,,,,,,,,,,,,,,,,
,,5f47cdcb9603e31f7f6a7dbd,19,male,2024-04-19_19h15.00.985,stockport_simplified,2022.2.4,Win32,60.0240096,661e456ee6de07e70aa9ef7b,66229da2b0b345de2f9fedd4,,,,,,,,,,,,,,,,,,,,,,,,,,,,,,,,,,,,,,,,,,,,,,,,,,,,,,,,0,23,23,40,1,B,X,N,o2_image,stimuli/out2.png,stimuli/out1.png,stimuli/correct_out2.png,,,,,,,,,,,,,,,,,,,,,,,,,,,,,,,,,,,,,,
,,5f47cdcb9603e31f7f6a7dbd,19,male,2024-04-19_19h15.00.985,stockport_simplified,2022.2.4,Win32,60.0240096,661e456ee6de07e70aa9ef7b,66229da2b0b345de2f9fedd4,,,,,,,,,,,,,,,,,,,,,,,,,,,,,,,,,,279.911,281.86,"[4,7,3,2,6,1,5,8]","[[0.3,0.2],[-0.3,0.2]]","[[-0.125,-0.2],[0.125,-0.2]]",0.123148148,-0.210185185,1,0,0,1.434,o2_image,281.862,1,282.36,282.36,284.36,0,0,0,0,1,,,,,,,,,,,,,,,,,,,,,,,,,,,,,,,,,,,,,,,,,,,,,,,,,,
,,5f47cdcb9603e31f7f6a7dbd,19,male,2024-04-19_19h15.00.985,stockport_simplified,2022.2.4,Win32,60.0240096,661e456ee6de07e70aa9ef7b,66229da2b0b345de2f9fedd4,,,,,,,,,,,,,,,,,,,,,,,,,,,,,,,,,,,,,,,,,,,,,,,,,,,,,,,,0,24,24,10,1,B,X,N,o2_image,stimuli/out2.png,stimuli/out1.png,stimuli/correct_out2.png,,,,,,,,,,,,,,,,,,,,,,,,,,,,,,,,,,,,,,
,,5f47cdcb9603e31f7f6a7dbd,19,male,2024-04-19_19h15.00.985,stockport_simplified,2022.2.4,Win32,60.0240096,661e456ee6de07e70aa9ef7b,66229da2b0b345de2f9fedd4,,,,,,,,,,,,,,,,,,,,,,,,,,,,,,,,,,284.361,286.41,"[4,7,3,2,6,1,5,8]","[[0.3,0.2],[-0.3,0.2]]","[[0.125,-0.2],[-0.125,-0.2]]",0.037037037,-0.225,1,0,0,1.216,o1_image,286.411,1,286.91,286.91,288.91,0,0,0,0,1,,,,,,,,,,,,,,,,,,,,,,,,,,,,,,,,,,,,,,,,,,,,,,,,,,
,,5f47cdcb9603e31f7f6a7dbd,19,male,2024-04-19_19h15.00.985,stockport_simplified,2022.2.4,Win32,60.0240096,661e456ee6de07e70aa9ef7b,66229da2b0b345de2f9fedd4,,,,,,,,,,,,,,,,,,,,,,,,,,,,,,,,,,,,,,,,,,,,,,,,,,,,,,,,0,25,25,23,1,N,M,C,o1_image,stimuli/out1.png,stimuli/correct_out1.png,stimuli/out2.png,,,,,,,,,,,,,,,,,,,,,,,,,,,,,,,,,,,,,,
,,5f47cdcb9603e31f7f6a7dbd,19,male,2024-04-19_19h15.00.985,stockport_simplified,2022.2.4,Win32,60.0240096,661e456ee6de07e70aa9ef7b,66229da2b0b345de2f9fedd4,,,,,,,,,,,,,,,,,,,,,,,,,,,,,,,,,,288.911,291.31,"[4,7,3,2,6,1,5,8]","[[-0.3,0.2],[0.3,0.2]]","[[-0.125,-0.2],[0.125,-0.2]]",0.141666667,-0.203703704,1,0,0,1.883,o2_image,291.312,1,291.81,291.81,293.81,0,0,0,0,1,,,,,,,,,,,,,,,,,,,,,,,,,,,,,,,,,,,,,,,,,,,,,,,,,,
,,5f47cdcb9603e31f7f6a7dbd,19,male,2024-04-19_19h15.00.985,stockport_simplified,2022.2.4,Win32,60.0240096,661e456ee6de07e70aa9ef7b,66229da2b0b345de2f9fedd4,,,,,,,,,,,,,,,,,,,,,,,,,,,,,,,,,,,,,,,,,,,,,,,,,,,,,,,,0,26,26,14,1,B,X,N,o2_image,stimuli/out2.png,stimuli/out1.png,stimuli/correct_out2.png,,,,,,,,,,,,,,,,,,,,,,,,,,,,,,,,,,,,,,
,,5f47cdcb9603e31f7f6a7dbd,19,male,2024-04-19_19h15.00.985,stockport_simplified,2022.2.4,Win32,60.0240096,661e456ee6de07e70aa9ef7b,66229da2b0b345de2f9fedd4,,,,,,,,,,,,,,,,,,,,,,,,,,,,,,,,,,293.811,295.143,"[4,7,3,2,6,1,5,8]","[[0.3,0.2],[-0.3,0.2]]","[[0.125,-0.2],[-0.125,-0.2]]",-0.077777778,-0.234259259,1,0,0,0.816,o2_image,295.145,0,295.643,295.643,297.644,0,0,0,0,1,,,,,,,,,,,,,,,,,,,,,,,,,,,,,,,,,,,,,,,,,,,,,,,,,,
,,5f47cdcb9603e31f7f6a7dbd,19,male,2024-04-19_19h15.00.985,stockport_simplified,2022.2.4,Win32,60.0240096,661e456ee6de07e70aa9ef7b,66229da2b0b345de2f9fedd4,,,,,,,,,,,,,,,,,,,,,,,,,,,,,,,,,,,,,,,,,,,,,,,,,,,,,,,,0,27,27,33,1,A,X,N,o1_image,stimuli/out1.png,stimuli/correct_out1.png,stimuli/out2.png,,,,,,,,,,,,,,,,,,,,,,,,,,,,,,,,,,,,,,
,,5f47cdcb9603e31f7f6a7dbd,19,male,2024-04-19_19h15.00.985,stockport_simplified,2022.2.4,Win32,60.0240096,661e456ee6de07e70aa9ef7b,66229da2b0b345de2f9fedd4,,,,,,,,,,,,,,,,,,,,,,,,,,,,,,,,,,297.646,299.477,"[4,7,3,2,6,1,5,8]","[[-0.3,0.2],[0.3,0.2]]","[[-0.125,-0.2],[0.125,-0.2]]",-0.132407407,-0.211111111,1,0,0,1.315,o1_image,299.479,1,299.977,299.977,301.976,0,0,0,0,1,,,,,,,,,,,,,,,,,,,,,,,,,,,,,,,,,,,,,,,,,,,,,,,,,,
,,5f47cdcb9603e31f7f6a7dbd,19,male,2024-04-19_19h15.00.985,stockport_simplified,2022.2.4,Win32,60.0240096,661e456ee6de07e70aa9ef7b,66229da2b0b345de2f9fedd4,,,,,,,,,,,,,,,,,,,,,,,,,,,,,,,,,,,,,,,,,,,,,,,,,,,,,,,,0,28,28,52,1,N,M,C,o1_image,stimuli/out1.png,stimuli/correct_out1.png,stimuli/out2.png,,,,,,,,,,,,,,,,,,,,,,,,,,,,,,,,,,,,,,
,,5f47cdcb9603e31f7f6a7dbd,19,male,2024-04-19_19h15.00.985,stockport_simplified,2022.2.4,Win32,60.0240096,661e456ee6de07e70aa9ef7b,66229da2b0b345de2f9fedd4,,,,,,,,,,,,,,,,,,,,,,,,,,,,,,,,,,301.978,303.477,"[4,7,3,2,6,1,5,8]","[[-0.3,0.2],[0.3,0.2]]","[[0.125,-0.2],[-0.125,-0.2]]",-0.125925926,-0.211111111,1,0,0,1,o2_image,303.478,1,303.977,303.977,305.977,0,0,0,0,1,,,,,,,,,,,,,,,,,,,,,,,,,,,,,,,,,,,,,,,,,,,,,,,,,,
,,5f47cdcb9603e31f7f6a7dbd,19,male,2024-04-19_19h15.00.985,stockport_simplified,2022.2.4,Win32,60.0240096,661e456ee6de07e70aa9ef7b,66229da2b0b345de2f9fedd4,,,,,,,,,,,,,,,,,,,,,,,,,,,,,,,,,,,,,,,,,,,,,,,,,,,,,,,,0,29,29,25,1,N,M,D,o2_image,stimuli/out2.png,stimuli/out1.png,stimuli/correct_out2.png,,,,,,,,,,,,,,,,,,,,,,,,,,,,,,,,,,,,,,
,,5f47cdcb9603e31f7f6a7dbd,19,male,2024-04-19_19h15.00.985,stockport_simplified,2022.2.4,Win32,60.0240096,661e456ee6de07e70aa9ef7b,66229da2b0b345de2f9fedd4,,,,,,,,,,,,,,,,,,,,,,,,,,,,,,,,,,305.977,307.86,"[4,7,3,2,6,1,5,8]","[[0.3,0.2],[-0.3,0.2]]","[[-0.125,-0.2],[0.125,-0.2]]",-0.131481481,-0.215740741,1,0,0,1.383,o1_image,307.861,1,308.36,308.36,310.36,0,0,0,0,1,,,,,,,,,,,,,,,,,,,,,,,,,,,,,,,,,,,,,,,,,,,,,,,,,,
,,5f47cdcb9603e31f7f6a7dbd,19,male,2024-04-19_19h15.00.985,stockport_simplified,2022.2.4,Win32,60.0240096,661e456ee6de07e70aa9ef7b,66229da2b0b345de2f9fedd4,,,,,,,,,,,,,,,,,,,,,,,,,,,,,,,,,,,,,,,,,,,,,,,,,,,,,,,,0,30,30,2,1,A,X,N,o1_image,stimuli/out1.png,stimuli/correct_out1.png,stimuli/out2.png,,,,,,,,,,,,,,,,,,,,,,,,,,,,,,,,,,,,,,
,,5f47cdcb9603e31f7f6a7dbd,19,male,2024-04-19_19h15.00.985,stockport_simplified,2022.2.4,Win32,60.0240096,661e456ee6de07e70aa9ef7b,66229da2b0b345de2f9fedd4,,,,,,,,,,,,,,,,,,,,,,,,,,,,,,,,,,310.361,312.861,"[4,7,3,2,6,1,5,8]","[[-0.3,0.2],[0.3,0.2]]","[[-0.125,-0.2],[0.125,-0.2]]",0.084259259,-0.202777778,1,0,0,1.983,o2_image,312.862,1,313.36,313.36,315.359,0,0,0,0,1,,,,,,,,,,,,,,,,,,,,,,,,,,,,,,,,,,,,,,,,,,,,,,,,,,
,,5f47cdcb9603e31f7f6a7dbd,19,male,2024-04-19_19h15.00.985,stockport_simplified,2022.2.4,Win32,60.0240096,661e456ee6de07e70aa9ef7b,66229da2b0b345de2f9fedd4,,,,,,,,,,,,,,,,,,,,,,,,,,,,,,,,,,,,,,,,,,,,,,,,,,,,,,,,0,31,31,46,1,B,Y,N,o2_image,stimuli/out2.png,stimuli/out1.png,stimuli/correct_out2.png,,,,,,,,,,,,,,,,,,,,,,,,,,,,,,,,,,,,,,
,,5f47cdcb9603e31f7f6a7dbd,19,male,2024-04-19_19h15.00.985,stockport_simplified,2022.2.4,Win32,60.0240096,661e456ee6de07e70aa9ef7b,66229da2b0b345de2f9fedd4,,,,,,,,,,,,,,,,,,,,,,,,,,,,,,,,,,315.361,317.01,"[4,7,3,2,6,1,5,8]","[[0.3,0.2],[-0.3,0.2]]","[[0.125,-0.2],[-0.125,-0.2]]",0.080555556,-0.269444444,1,0,0,1.133,o1_image,317.012,1,317.51,317.51,319.509,0,0,0,0,1,,,,,,,,,,,,,,,,,,,,,,,,,,,,,,,,,,,,,,,,,,,,,,,,,,
,,5f47cdcb9603e31f7f6a7dbd,19,male,2024-04-19_19h15.00.985,stockport_simplified,2022.2.4,Win32,60.0240096,661e456ee6de07e70aa9ef7b,66229da2b0b345de2f9fedd4,,,,,,,,,,,,,,,,,,,,,,,,,,,,,,,,,,,,,,,,,,,,,,,,,,,,,,,,0,32,32,54,1,N,M,C,o1_image,stimuli/out1.png,stimuli/correct_out1.png,stimuli/out2.png,,,,,,,,,,,,,,,,,,,,,,,,,,,,,,,,,,,,,,
,,5f47cdcb9603e31f7f6a7dbd,19,male,2024-04-19_19h15.00.985,stockport_simplified,2022.2.4,Win32,60.0240096,661e456ee6de07e70aa9ef7b,66229da2b0b345de2f9fedd4,,,,,,,,,,,,,,,,,,,,,,,,,,,,,,,,,,319.51,321.21,"[4,7,3,2,6,1,5,8]","[[-0.3,0.2],[0.3,0.2]]","[[0.125,-0.2],[-0.125,-0.2]]",-0.102777778,-0.194444444,1,0,0,1.199,o2_image,321.211,0,321.709,321.71,323.71,0,0,0,0,1,,,,,,,,,,,,,,,,,,,,,,,,,,,,,,,,,,,,,,,,,,,,,,,,,,
,,5f47cdcb9603e31f7f6a7dbd,19,male,2024-04-19_19h15.00.985,stockport_simplified,2022.2.4,Win32,60.0240096,661e456ee6de07e70aa9ef7b,66229da2b0b345de2f9fedd4,,,,,,,,,,,,,,,,,,,,,,,,,,,,,,,,,,,,,,,,,,,,,,,,,,,,,,,,0,33,33,0,1,A,X,N,o1_image,stimuli/out1.png,stimuli/correct_out1.png,stimuli/out2.png,,,,,,,,,,,,,,,,,,,,,,,,,,,,,,,,,,,,,,
,,5f47cdcb9603e31f7f6a7dbd,19,male,2024-04-19_19h15.00.985,stockport_simplified,2022.2.4,Win32,60.0240096,661e456ee6de07e70aa9ef7b,66229da2b0b345de2f9fedd4,,,,,,,,,,,,,,,,,,,,,,,,,,,,,,,,,,323.711,325.293,"[4,7,3,2,6,1,5,8]","[[0.3,0.2],[-0.3,0.2]]","[[-0.125,-0.2],[0.125,-0.2]]",-0.102777778,-0.194444444,1,0,0,1.066,o1_image,325.294,1,325.793,325.793,327.793,0,0,0,0,1,,,,,,,,,,,,,,,,,,,,,,,,,,,,,,,,,,,,,,,,,,,,,,,,,,
,,5f47cdcb9603e31f7f6a7dbd,19,male,2024-04-19_19h15.00.985,stockport_simplified,2022.2.4,Win32,60.0240096,661e456ee6de07e70aa9ef7b,66229da2b0b345de2f9fedd4,,,,,,,,,,,,,,,,,,,,,,,,,,,,,,,,,,,,,,,,,,,,,,,,,,,,,,,,0,34,34,51,1,N,M,C,o1_image,stimuli/out1.png,stimuli/correct_out1.png,stimuli/out2.png,,,,,,,,,,,,,,,,,,,,,,,,,,,,,,,,,,,,,,
,,5f47cdcb9603e31f7f6a7dbd,19,male,2024-04-19_19h15.00.985,stockport_simplified,2022.2.4,Win32,60.0240096,661e456ee6de07e70aa9ef7b,66229da2b0b345de2f9fedd4,,,,,,,,,,,,,,,,,,,,,,,,,,,,,,,,,,327.793,330.311,"[4,7,3,2,6,1,5,8]","[[0.3,0.2],[-0.3,0.2]]","[[0.125,-0.2],[-0.125,-0.2]]",-0.088888889,-0.194444444,1,0,0,2.016,o2_image,330.313,1,330.81,330.81,332.809,0,0,0,0,1,,,,,,,,,,,,,,,,,,,,,,,,,,,,,,,,,,,,,,,,,,,,,,,,,,
,,5f47cdcb9603e31f7f6a7dbd,19,male,2024-04-19_19h15.00.985,stockport_simplified,2022.2.4,Win32,60.0240096,661e456ee6de07e70aa9ef7b,66229da2b0b345de2f9fedd4,,,,,,,,,,,,,,,,,,,,,,,,,,,,,,,,,,,,,,,,,,,,,,,,,,,,,,,,0,35,35,49,1,B,Y,N,o2_image,stimuli/out2.png,stimuli/out1.png,stimuli/correct_out2.png,,,,,,,,,,,,,,,,,,,,,,,,,,,,,,,,,,,,,,
,,5f47cdcb9603e31f7f6a7dbd,19,male,2024-04-19_19h15.00.985,stockport_simplified,2022.2.4,Win32,60.0240096,661e456ee6de07e70aa9ef7b,66229da2b0b345de2f9fedd4,,,,,,,,,,,,,,,,,,,,,,,,,,,,,,,,,,332.81,334.893,"[4,7,3,2,6,1,5,8]","[[0.3,0.2],[-0.3,0.2]]","[[-0.125,-0.2],[0.125,-0.2]]",0.092592593,-0.184259259,1,0,0,1.582,o2_image,334.895,1,335.393,335.393,337.393,0,0,0,0,1,,,,,,,,,,,,,,,,,,,,,,,,,,,,,,,,,,,,,,,,,,,,,,,,,,
,,5f47cdcb9603e31f7f6a7dbd,19,male,2024-04-19_19h15.00.985,stockport_simplified,2022.2.4,Win32,60.0240096,661e456ee6de07e70aa9ef7b,66229da2b0b345de2f9fedd4,,,,,,,,,,,,,,,,,,,,,,,,,,,,,,,,,,,,,,,,,,,,,,,,,,,,,,,,0,36,36,27,1,N,M,D,o2_image,stimuli/out2.png,stimuli/out1.png,stimuli/correct_out2.png,,,,,,,,,,,,,,,,,,,,,,,,,,,,,,,,,,,,,,
,,5f47cdcb9603e31f7f6a7dbd,19,male,2024-04-19_19h15.00.985,stockport_simplified,2022.2.4,Win32,60.0240096,661e456ee6de07e70aa9ef7b,66229da2b0b345de2f9fedd4,,,,,,,,,,,,,,,,,,,,,,,,,,,,,,,,,,337.394,339.827,"[4,7,3,2,6,1,5,8]","[[0.3,0.2],[-0.3,0.2]]","[[-0.125,-0.2],[0.125,-0.2]]",-0.122222222,-0.187962963,1,0,0,1.916,o1_image,339.828,1,340.326,340.326,342.326,0,0,0,0,1,,,,,,,,,,,,,,,,,,,,,,,,,,,,,,,,,,,,,,,,,,,,,,,,,,
,,5f47cdcb9603e31f7f6a7dbd,19,male,2024-04-19_19h15.00.985,stockport_simplified,2022.2.4,Win32,60.0240096,661e456ee6de07e70aa9ef7b,66229da2b0b345de2f9fedd4,,,,,,,,,,,,,,,,,,,,,,,,,,,,,,,,,,,,,,,,,,,,,,,,,,,,,,,,0,37,37,32,1,A,X,N,o1_image,stimuli/out1.png,stimuli/correct_out1.png,stimuli/out2.png,,,,,,,,,,,,,,,,,,,,,,,,,,,,,,,,,,,,,,
,,5f47cdcb9603e31f7f6a7dbd,19,male,2024-04-19_19h15.00.985,stockport_simplified,2022.2.4,Win32,60.0240096,661e456ee6de07e70aa9ef7b,66229da2b0b345de2f9fedd4,,,,,,,,,,,,,,,,,,,,,,,,,,,,,,,,,,342.327,344.46,"[4,7,3,2,6,1,5,8]","[[0.3,0.2],[-0.3,0.2]]","[[-0.125,-0.2],[0.125,-0.2]]",-0.122222222,-0.185185185,1,0,0,1.616,o1_image,344.461,1,344.96,344.96,346.96,0,0,0,0,1,,,,,,,,,,,,,,,,,,,,,,,,,,,,,,,,,,,,,,,,,,,,,,,,,,
,,5f47cdcb9603e31f7f6a7dbd,19,male,2024-04-19_19h15.00.985,stockport_simplified,2022.2.4,Win32,60.0240096,661e456ee6de07e70aa9ef7b,66229da2b0b345de2f9fedd4,,,,,,,,,,,,,,,,,,,,,,,,,,,,,,,,,,,,,,,,,,,,,,,,,,,,,,,,0,38,38,50,1,N,M,C,o1_image,stimuli/out1.png,stimuli/correct_out1.png,stimuli/out2.png,,,,,,,,,,,,,,,,,,,,,,,,,,,,,,,,,,,,,,
,,5f47cdcb9603e31f7f6a7dbd,19,male,2024-04-19_19h15.00.985,stockport_simplified,2022.2.4,Win32,60.0240096,661e456ee6de07e70aa9ef7b,66229da2b0b345de2f9fedd4,,,,,,,,,,,,,,,,,,,,,,,,,,,,,,,,,,346.961,349.776,"[4,7,3,2,6,1,5,8]","[[-0.3,0.2],[0.3,0.2]]","[[-0.125,-0.2],[0.125,-0.2]]",0.071296296,-0.215740741,1,0,0,2.299,o2_image,349.777,1,350.277,350.277,352.277,0,0,0,0,1,,,,,,,,,,,,,,,,,,,,,,,,,,,,,,,,,,,,,,,,,,,,,,,,,,
,,5f47cdcb9603e31f7f6a7dbd,19,male,2024-04-19_19h15.00.985,stockport_simplified,2022.2.4,Win32,60.0240096,661e456ee6de07e70aa9ef7b,66229da2b0b345de2f9fedd4,,,,,,,,,,,,,,,,,,,,,,,,,,,,,,,,,,,,,,,,,,,,,,,,,,,,,,,,0,39,39,58,1,N,M,D,o2_image,stimuli/out2.png,stimuli/out1.png,stimuli/correct_out2.png,,,,,,,,,,,,,,,,,,,,,,,,,,,,,,,,,,,,,,
,,5f47cdcb9603e31f7f6a7dbd,19,male,2024-04-19_19h15.00.985,stockport_simplified,2022.2.4,Win32,60.0240096,661e456ee6de07e70aa9ef7b,66229da2b0b345de2f9fedd4,,,,,,,,,,,,,,,,,,,,,,,,,,,,,,,,,,352.277,355.809,"[4,7,3,2,6,1,5,8]","[[0.3,0.2],[-0.3,0.2]]","[[0.125,-0.2],[-0.125,-0.2]]",0.137962963,-0.175,1,0,0,3.032,o1_image,355.811,1,356.31,356.31,358.31,0,0,0,0,1,,,,,,,,,,,,,,,,,,,,,,,,,,,,,,,,,,,,,,,,,,,,,,,,,,
,,5f47cdcb9603e31f7f6a7dbd,19,male,2024-04-19_19h15.00.985,stockport_simplified,2022.2.4,Win32,60.0240096,661e456ee6de07e70aa9ef7b,66229da2b0b345de2f9fedd4,,,,,,,,,,,,,,,,,,,,,,,,,,,,,,,,,,,,,,,,,,,,,,,,,,,,,,,,0,40,40,6,1,A,Y,N,o1_image,stimuli/out1.png,stimuli/correct_out1.png,stimuli/out2.png,,,,,,,,,,,,,,,,,,,,,,,,,,,,,,,,,,,,,,
,,5f47cdcb9603e31f7f6a7dbd,19,male,2024-04-19_19h15.00.985,stockport_simplified,2022.2.4,Win32,60.0240096,661e456ee6de07e70aa9ef7b,66229da2b0b345de2f9fedd4,,,,,,,,,,,,,,,,,,,,,,,,,,,,,,,,,,358.31,360.143,"[4,7,3,2,6,1,5,8]","[[0.3,0.2],[-0.3,0.2]]","[[0.125,-0.2],[-0.125,-0.2]]",0.091666667,-0.17962963,1,0,0,1.333,o1_image,360.145,1,360.644,360.644,362.644,0,0,0,0,1,,,,,,,,,,,,,,,,,,,,,,,,,,,,,,,,,,,,,,,,,,,,,,,,,,
,,5f47cdcb9603e31f7f6a7dbd,19,male,2024-04-19_19h15.00.985,stockport_simplified,2022.2.4,Win32,60.0240096,661e456ee6de07e70aa9ef7b,66229da2b0b345de2f9fedd4,,,,,,,,,,,,,,,,,,,,,,,,,,,,,,,,,,,,,,,,,,,,,,,,,,,,,,,,0,41,41,1,1,A,X,N,o1_image,stimuli/out1.png,stimuli/correct_out1.png,stimuli/out2.png,,,,,,,,,,,,,,,,,,,,,,,,,,,,,,,,,,,,,,
,,5f47cdcb9603e31f7f6a7dbd,19,male,2024-04-19_19h15.00.985,stockport_simplified,2022.2.4,Win32,60.0240096,661e456ee6de07e70aa9ef7b,66229da2b0b345de2f9fedd4,,,,,,,,,,,,,,,,,,,,,,,,,,,,,,,,,,362.645,364.943,"[4,7,3,2,6,1,5,8]","[[0.3,0.2],[-0.3,0.2]]","[[-0.125,-0.2],[0.125,-0.2]]",0.101851852,-0.17037037,1,0,0,1.781,o2_image,364.945,1,365.444,365.444,367.443,0,0,0,0,1,,,,,,,,,,,,,,,,,,,,,,,,,,,,,,,,,,,,,,,,,,,,,,,,,,
,,5f47cdcb9603e31f7f6a7dbd,19,male,2024-04-19_19h15.00.985,stockport_simplified,2022.2.4,Win32,60.0240096,661e456ee6de07e70aa9ef7b,66229da2b0b345de2f9fedd4,,,,,,,,,,,,,,,,,,,,,,,,,,,,,,,,,,,,,,,,,,,,,,,,,,,,,,,,0,42,42,29,1,N,M,D,o2_image,stimuli/out2.png,stimuli/out1.png,stimuli/correct_out2.png,,,,,,,,,,,,,,,,,,,,,,,,,,,,,,,,,,,,,,
,,5f47cdcb9603e31f7f6a7dbd,19,male,2024-04-19_19h15.00.985,stockport_simplified,2022.2.4,Win32,60.0240096,661e456ee6de07e70aa9ef7b,66229da2b0b345de2f9fedd4,,,,,,,,,,,,,,,,,,,,,,,,,,,,,,,,,,367.444,369.11,"[4,7,3,2,6,1,5,8]","[[-0.3,0.2],[0.3,0.2]]","[[-0.125,-0.2],[0.125,-0.2]]",-0.111111111,-0.196296296,1,0,0,1.15,o1_image,369.111,1,369.61,369.61,371.61,0,0,0,0,1,,,,,,,,,,,,,,,,,,,,,,,,,,,,,,,,,,,,,,,,,,,,,,,,,,
,,5f47cdcb9603e31f7f6a7dbd,19,male,2024-04-19_19h15.00.985,stockport_simplified,2022.2.4,Win32,60.0240096,661e456ee6de07e70aa9ef7b,66229da2b0b345de2f9fedd4,,,,,,,,,,,,,,,,,,,,,,,,,,,,,,,,,,,,,,,,,,,,,,,,,,,,,,,,0,43,43,53,1,N,M,C,o1_image,stimuli/out1.png,stimuli/correct_out1.png,stimuli/out2.png,,,,,,,,,,,,,,,,,,,,,,,,,,,,,,,,,,,,,,
,,5f47cdcb9603e31f7f6a7dbd,19,male,2024-04-19_19h15.00.985,stockport_simplified,2022.2.4,Win32,60.0240096,661e456ee6de07e70aa9ef7b,66229da2b0b345de2f9fedd4,,,,,,,,,,,,,,,,,,,,,,,,,,,,,,,,,,371.61,373.76,"[4,7,3,2,6,1,5,8]","[[0.3,0.2],[-0.3,0.2]]","[[-0.125,-0.2],[0.125,-0.2]]",-0.109259259,-0.207407407,1,0,0,1.649,o1_image,373.761,1,374.259,374.259,376.26,0,0,0,0,1,,,,,,,,,,,,,,,,,,,,,,,,,,,,,,,,,,,,,,,,,,,,,,,,,,
,,5f47cdcb9603e31f7f6a7dbd,19,male,2024-04-19_19h15.00.985,stockport_simplified,2022.2.4,Win32,60.0240096,661e456ee6de07e70aa9ef7b,66229da2b0b345de2f9fedd4,,,,,,,,,,,,,,,,,,,,,,,,,,,,,,,,,,,,,,,,,,,,,,,,,,,,,,,,0,44,44,38,1,A,Y,N,o1_image,stimuli/out1.png,stimuli/correct_out1.png,stimuli/out2.png,,,,,,,,,,,,,,,,,,,,,,,,,,,,,,,,,,,,,,
,,5f47cdcb9603e31f7f6a7dbd,19,male,2024-04-19_19h15.00.985,stockport_simplified,2022.2.4,Win32,60.0240096,661e456ee6de07e70aa9ef7b,66229da2b0b345de2f9fedd4,,,,,,,,,,,,,,,,,,,,,,,,,,,,,,,,,,376.261,379.41,"[4,7,3,2,6,1,5,8]","[[0.3,0.2],[-0.3,0.2]]","[[0.125,-0.2],[-0.125,-0.2]]",-0.125925926,-0.206481481,1,0,0,2.633,o2_image,379.412,1,379.91,379.91,381.91,0,0,0,0,1,,,,,,,,,,,,,,,,,,,,,,,,,,,,,,,,,,,,,,,,,,,,,,,,,,
,,5f47cdcb9603e31f7f6a7dbd,19,male,2024-04-19_19h15.00.985,stockport_simplified,2022.2.4,Win32,60.0240096,661e456ee6de07e70aa9ef7b,66229da2b0b345de2f9fedd4,,,,,,,,,,,,,,,,,,,,,,,,,,,,,,,,,,,,,,,,,,,,,,,,,,,,,,,,0,45,45,15,1,B,Y,N,o2_image,stimuli/out2.png,stimuli/out1.png,stimuli/correct_out2.png,,,,,,,,,,,,,,,,,,,,,,,,,,,,,,,,,,,,,,
,,5f47cdcb9603e31f7f6a7dbd,19,male,2024-04-19_19h15.00.985,stockport_simplified,2022.2.4,Win32,60.0240096,661e456ee6de07e70aa9ef7b,66229da2b0b345de2f9fedd4,,,,,,,,,,,,,,,,,,,,,,,,,,,,,,,,,,381.91,386.01,"[4,7,3,2,6,1,5,8]","[[-0.3,0.2],[0.3,0.2]]","[[0.125,-0.2],[-0.125,-0.2]]",-0.161111111,-0.201851852,1,0,0,3.6,o2_image,386.011,1,386.51,386.51,388.51,0,0,0,0,1,,,,,,,,,,,,,,,,,,,,,,,,,,,,,,,,,,,,,,,,,,,,,,,,,,
,,5f47cdcb9603e31f7f6a7dbd,19,male,2024-04-19_19h15.00.985,stockport_simplified,2022.2.4,Win32,60.0240096,661e456ee6de07e70aa9ef7b,66229da2b0b345de2f9fedd4,,,,,,,,,,,,,,,,,,,,,,,,,,,,,,,,,,,,,,,,,,,,,,,,,,,,,,,,0,46,46,13,1,B,X,N,o2_image,stimuli/out2.png,stimuli/out1.png,stimuli/correct_out2.png,,,,,,,,,,,,,,,,,,,,,,,,,,,,,,,,,,,,,,
,,5f47cdcb9603e31f7f6a7dbd,19,male,2024-04-19_19h15.00.985,stockport_simplified,2022.2.4,Win32,60.0240096,661e456ee6de07e70aa9ef7b,66229da2b0b345de2f9fedd4,,,,,,,,,,,,,,,,,,,,,,,,,,,,,,,,,,388.51,390.377,"[4,7,3,2,6,1,5,8]","[[0.3,0.2],[-0.3,0.2]]","[[-0.125,-0.2],[0.125,-0.2]]",-0.140740741,-0.19537037,1,0,0,1.367,o1_image,390.377,1,390.877,390.877,392.876,0,0,0,0,1,,,,,,,,,,,,,,,,,,,,,,,,,,,,,,,,,,,,,,,,,,,,,,,,,,
,,5f47cdcb9603e31f7f6a7dbd,19,male,2024-04-19_19h15.00.985,stockport_simplified,2022.2.4,Win32,60.0240096,661e456ee6de07e70aa9ef7b,66229da2b0b345de2f9fedd4,,,,,,,,,,,,,,,,,,,,,,,,,,,,,,,,,,,,,,,,,,,,,,,,,,,,,,,,0,47,47,34,1,A,X,N,o1_image,stimuli/out1.png,stimuli/correct_out1.png,stimuli/out2.png,,,,,,,,,,,,,,,,,,,,,,,,,,,,,,,,,,,,,,
,,5f47cdcb9603e31f7f6a7dbd,19,male,2024-04-19_19h15.00.985,stockport_simplified,2022.2.4,Win32,60.0240096,661e456ee6de07e70aa9ef7b,66229da2b0b345de2f9fedd4,,,,,,,,,,,,,,,,,,,,,,,,,,,,,,,,,,392.877,394.51,"[4,7,3,2,6,1,5,8]","[[0.3,0.2],[-0.3,0.2]]","[[-0.125,-0.2],[0.125,-0.2]]",0.134259259,-0.196296296,1,0,0,1.117,o2_image,394.511,1,395.01,395.01,397.011,0,0,0,0,1,,,,,,,,,,,,,,,,,,,,,,,,,,,,,,,,,,,,,,,,,,,,,,,,,,
,,5f47cdcb9603e31f7f6a7dbd,19,male,2024-04-19_19h15.00.985,stockport_simplified,2022.2.4,Win32,60.0240096,661e456ee6de07e70aa9ef7b,66229da2b0b345de2f9fedd4,,,,,,,,,,,,,,,,,,,,,,,,,,,,,,,,,,,,,,,,,,,,,,,,,,,,,,,,0,48,48,17,1,B,Y,N,o2_image,stimuli/out2.png,stimuli/out1.png,stimuli/correct_out2.png,,,,,,,,,,,,,,,,,,,,,,,,,,,,,,,,,,,,,,
,,5f47cdcb9603e31f7f6a7dbd,19,male,2024-04-19_19h15.00.985,stockport_simplified,2022.2.4,Win32,60.0240096,661e456ee6de07e70aa9ef7b,66229da2b0b345de2f9fedd4,,,,,,,,,,,,,,,,,,,,,,,,,,,,,,,,,,397.012,399.094,"[4,7,3,2,6,1,5,8]","[[-0.3,0.2],[0.3,0.2]]","[[0.125,-0.2],[-0.125,-0.2]]",-0.17037037,-0.203703704,1,0,0,1.567,o2_image,399.095,1,399.594,399.594,401.593,0,0,0,0,1,,,,,,,,,,,,,,,,,,,,,,,,,,,,,,,,,,,,,,,,,,,,,,,,,,
,,5f47cdcb9603e31f7f6a7dbd,19,male,2024-04-19_19h15.00.985,stockport_simplified,2022.2.4,Win32,60.0240096,661e456ee6de07e70aa9ef7b,66229da2b0b345de2f9fedd4,,,,,,,,,,,,,,,,,,,,,,,,,,,,,,,,,,,,,,,,,,,,,,,,,,,,,,,,0,49,49,18,1,B,Y,N,o2_image,stimuli/out2.png,stimuli/out1.png,stimuli/correct_out2.png,,,,,,,,,,,,,,,,,,,,,,,,,,,,,,,,,,,,,,
,,5f47cdcb9603e31f7f6a7dbd,19,male,2024-04-19_19h15.00.985,stockport_simplified,2022.2.4,Win32,60.0240096,661e456ee6de07e70aa9ef7b,66229da2b0b345de2f9fedd4,,,,,,,,,,,,,,,,,,,,,,,,,,,,,,,,,,401.594,402.994,"[4,7,3,2,6,1,5,8]","[[0.3,0.2],[-0.3,0.2]]","[[-0.125,-0.2],[0.125,-0.2]]",0.056481481,-0.199074074,1,0,0,0.883,o2_image,402.994,1,403.494,403.494,405.493,0,0,0,0,1,,,,,,,,,,,,,,,,,,,,,,,,,,,,,,,,,,,,,,,,,,,,,,,,,,
,,5f47cdcb9603e31f7f6a7dbd,19,male,2024-04-19_19h15.00.985,stockport_simplified,2022.2.4,Win32,60.0240096,661e456ee6de07e70aa9ef7b,66229da2b0b345de2f9fedd4,,,,,,,,,,,,,,,,,,,,,,,,,,,,,,,,,,,,,,,,,,,,,,,,,,,,,,,,0,50,50,45,1,B,Y,N,o2_image,stimuli/out2.png,stimuli/out1.png,stimuli/correct_out2.png,,,,,,,,,,,,,,,,,,,,,,,,,,,,,,,,,,,,,,
,,5f47cdcb9603e31f7f6a7dbd,19,male,2024-04-19_19h15.00.985,stockport_simplified,2022.2.4,Win32,60.0240096,661e456ee6de07e70aa9ef7b,66229da2b0b345de2f9fedd4,,,,,,,,,,,,,,,,,,,,,,,,,,,,,,,,,,405.494,407.177,"[4,7,3,2,6,1,5,8]","[[0.3,0.2],[-0.3,0.2]]","[[-0.125,-0.2],[0.125,-0.2]]",0.062037037,-0.198148148,1,0,0,1.166,o2_image,407.178,1,407.677,407.677,409.677,0,0,0,0,1,,,,,,,,,,,,,,,,,,,,,,,,,,,,,,,,,,,,,,,,,,,,,,,,,,
,,5f47cdcb9603e31f7f6a7dbd,19,male,2024-04-19_19h15.00.985,stockport_simplified,2022.2.4,Win32,60.0240096,661e456ee6de07e70aa9ef7b,66229da2b0b345de2f9fedd4,,,,,,,,,,,,,,,,,,,,,,,,,,,,,,,,,,,,,,,,,,,,,,,,,,,,,,,,0,51,51,43,1,B,X,N,o2_image,stimuli/out2.png,stimuli/out1.png,stimuli/correct_out2.png,,,,,,,,,,,,,,,,,,,,,,,,,,,,,,,,,,,,,,
,,5f47cdcb9603e31f7f6a7dbd,19,male,2024-04-19_19h15.00.985,stockport_simplified,2022.2.4,Win32,60.0240096,661e456ee6de07e70aa9ef7b,66229da2b0b345de2f9fedd4,,,,,,,,,,,,,,,,,,,,,,,,,,,,,,,,,,409.677,411.194,"[4,7,3,2,6,1,5,8]","[[-0.3,0.2],[0.3,0.2]]","[[-0.125,-0.2],[0.125,-0.2]]",-0.062037037,-0.199074074,1,0,0,0.999,o1_image,411.195,1,411.693,411.693,413.693,0,0,0,0,1,,,,,,,,,,,,,,,,,,,,,,,,,,,,,,,,,,,,,,,,,,,,,,,,,,
,,5f47cdcb9603e31f7f6a7dbd,19,male,2024-04-19_19h15.00.985,stockport_simplified,2022.2.4,Win32,60.0240096,661e456ee6de07e70aa9ef7b,66229da2b0b345de2f9fedd4,,,,,,,,,,,,,,,,,,,,,,,,,,,,,,,,,,,,,,,,,,,,,,,,,,,,,,,,0,52,52,21,1,N,M,C,o1_image,stimuli/out1.png,stimuli/correct_out1.png,stimuli/out2.png,,,,,,,,,,,,,,,,,,,,,,,,,,,,,,,,,,,,,,
,,5f47cdcb9603e31f7f6a7dbd,19,male,2024-04-19_19h15.00.985,stockport_simplified,2022.2.4,Win32,60.0240096,661e456ee6de07e70aa9ef7b,66229da2b0b345de2f9fedd4,,,,,,,,,,,,,,,,,,,,,,,,,,,,,,,,,,413.693,415.427,"[4,7,3,2,6,1,5,8]","[[0.3,0.2],[-0.3,0.2]]","[[0.125,-0.2],[-0.125,-0.2]]",-0.113888889,-0.225925926,1,0,0,1.232,o2_image,415.429,1,415.926,415.926,417.926,0,0,0,0,1,,,,,,,,,,,,,,,,,,,,,,,,,,,,,,,,,,,,,,,,,,,,,,,,,,
,,5f47cdcb9603e31f7f6a7dbd,19,male,2024-04-19_19h15.00.985,stockport_simplified,2022.2.4,Win32,60.0240096,661e456ee6de07e70aa9ef7b,66229da2b0b345de2f9fedd4,,,,,,,,,,,,,,,,,,,,,,,,,,,,,,,,,,,,,,,,,,,,,,,,,,,,,,,,0,53,53,12,1,B,X,N,o2_image,stimuli/out2.png,stimuli/out1.png,stimuli/correct_out2.png,,,,,,,,,,,,,,,,,,,,,,,,,,,,,,,,,,,,,,
,,5f47cdcb9603e31f7f6a7dbd,19,male,2024-04-19_19h15.00.985,stockport_simplified,2022.2.4,Win32,60.0240096,661e456ee6de07e70aa9ef7b,66229da2b0b345de2f9fedd4,,,,,,,,,,,,,,,,,,,,,,,,,,,,,,,,,,417.927,420.493,"[4,7,3,2,6,1,5,8]","[[-0.3,0.2],[0.3,0.2]]","[[0.125,-0.2],[-0.125,-0.2]]",-0.178703704,-0.222222222,1,0,0,2.049,o2_image,420.495,1,420.993,420.993,422.993,0,0,0,0,1,,,,,,,,,,,,,,,,,,,,,,,,,,,,,,,,,,,,,,,,,,,,,,,,,,
,,5f47cdcb9603e31f7f6a7dbd,19,male,2024-04-19_19h15.00.985,stockport_simplified,2022.2.4,Win32,60.0240096,661e456ee6de07e70aa9ef7b,66229da2b0b345de2f9fedd4,,,,,,,,,,,,,,,,,,,,,,,,,,,,,,,,,,,,,,,,,,,,,,,,,,,,,,,,0,54,54,56,1,N,M,D,o2_image,stimuli/out2.png,stimuli/out1.png,stimuli/correct_out2.png,,,,,,,,,,,,,,,,,,,,,,,,,,,,,,,,,,,,,,
,,5f47cdcb9603e31f7f6a7dbd,19,male,2024-04-19_19h15.00.985,stockport_simplified,2022.2.4,Win32,60.0240096,661e456ee6de07e70aa9ef7b,66229da2b0b345de2f9fedd4,,,,,,,,,,,,,,,,,,,,,,,,,,,,,,,,,,422.994,427.277,"[4,7,3,2,6,1,5,8]","[[0.3,0.2],[-0.3,0.2]]","[[-0.125,-0.2],[0.125,-0.2]]",-0.114814815,-0.174074074,1,0,0,3.766,o1_image,427.278,1,427.776,427.776,429.777,0,0,0,0,1,,,,,,,,,,,,,,,,,,,,,,,,,,,,,,,,,,,,,,,,,,,,,,,,,,
,,5f47cdcb9603e31f7f6a7dbd,19,male,2024-04-19_19h15.00.985,stockport_simplified,2022.2.4,Win32,60.0240096,661e456ee6de07e70aa9ef7b,66229da2b0b345de2f9fedd4,,,,,,,,,,,,,,,,,,,,,,,,,,,,,,,,,,,,,,,,,,,,,,,,,,,,,,,,0,55,55,20,1,N,M,C,o1_image,stimuli/out1.png,stimuli/correct_out1.png,stimuli/out2.png,,,,,,,,,,,,,,,,,,,,,,,,,,,,,,,,,,,,,,
,,5f47cdcb9603e31f7f6a7dbd,19,male,2024-04-19_19h15.00.985,stockport_simplified,2022.2.4,Win32,60.0240096,661e456ee6de07e70aa9ef7b,66229da2b0b345de2f9fedd4,,,,,,,,,,,,,,,,,,,,,,,,,,,,,,,,,,429.778,431.71,"[4,7,3,2,6,1,5,8]","[[0.3,0.2],[-0.3,0.2]]","[[0.125,-0.2],[-0.125,-0.2]]",0.10462963,-0.209259259,1,0,0,1.414,o1_image,431.712,0,432.21,432.211,434.21,0,0,0,0,1,,,,,,,,,,,,,,,,,,,,,,,,,,,,,,,,,,,,,,,,,,,,,,,,,,
,,5f47cdcb9603e31f7f6a7dbd,19,male,2024-04-19_19h15.00.985,stockport_simplified,2022.2.4,Win32,60.0240096,661e456ee6de07e70aa9ef7b,66229da2b0b345de2f9fedd4,,,,,,,,,,,,,,,,,,,,,,,,,,,,,,,,,,,,,,,,,,,,,,,,,,,,,,,,0,56,56,55,1,N,M,D,o2_image,stimuli/out2.png,stimuli/out1.png,stimuli/correct_out2.png,,,,,,,,,,,,,,,,,,,,,,,,,,,,,,,,,,,,,,
,,5f47cdcb9603e31f7f6a7dbd,19,male,2024-04-19_19h15.00.985,stockport_simplified,2022.2.4,Win32,60.0240096,661e456ee6de07e70aa9ef7b,66229da2b0b345de2f9fedd4,,,,,,,,,,,,,,,,,,,,,,,,,,,,,,,,,,434.211,437.076,"[4,7,3,2,6,1,5,8]","[[-0.3,0.2],[0.3,0.2]]","[[-0.125,-0.2],[0.125,-0.2]]",-0.087962963,-0.211111111,1,0,0,2.349,o1_image,437.077,1,437.577,437.577,439.576,0,0,0,0,1,,,,,,,,,,,,,,,,,,,,,,,,,,,,,,,,,,,,,,,,,,,,,,,,,,
,,5f47cdcb9603e31f7f6a7dbd,19,male,2024-04-19_19h15.00.985,stockport_simplified,2022.2.4,Win32,60.0240096,661e456ee6de07e70aa9ef7b,66229da2b0b345de2f9fedd4,,,,,,,,,,,,,,,,,,,,,,,,,,,,,,,,,,,,,,,,,,,,,,,,,,,,,,,,0,57,57,4,1,A,X,N,o1_image,stimuli/out1.png,stimuli/correct_out1.png,stimuli/out2.png,,,,,,,,,,,,,,,,,,,,,,,,,,,,,,,,,,,,,,
,,5f47cdcb9603e31f7f6a7dbd,19,male,2024-04-19_19h15.00.985,stockport_simplified,2022.2.4,Win32,60.0240096,661e456ee6de07e70aa9ef7b,66229da2b0b345de2f9fedd4,,,,,,,,,,,,,,,,,,,,,,,,,,,,,,,,,,439.577,441.077,"[4,7,3,2,6,1,5,8]","[[-0.3,0.2],[0.3,0.2]]","[[-0.125,-0.2],[0.125,-0.2]]",0.132407407,-0.2,1,0,0,0.983,o2_image,441.077,1,441.577,441.577,443.577,0,0,0,0,1,,,,,,,,,,,,,,,,,,,,,,,,,,,,,,,,,,,,,,,,,,,,,,,,,,
,,5f47cdcb9603e31f7f6a7dbd,19,male,2024-04-19_19h15.00.985,stockport_simplified,2022.2.4,Win32,60.0240096,661e456ee6de07e70aa9ef7b,66229da2b0b345de2f9fedd4,,,,,,,,,,,,,,,,,,,,,,,,,,,,,,,,,,,,,,,,,,,,,,,,,,,,,,,,0,58,58,16,1,B,Y,N,o2_image,stimuli/out2.png,stimuli/out1.png,stimuli/correct_out2.png,,,,,,,,,,,,,,,,,,,,,,,,,,,,,,,,,,,,,,
,,5f47cdcb9603e31f7f6a7dbd,19,male,2024-04-19_19h15.00.985,stockport_simplified,2022.2.4,Win32,60.0240096,661e456ee6de07e70aa9ef7b,66229da2b0b345de2f9fedd4,,,,,,,,,,,,,,,,,,,,,,,,,,,,,,,,,,443.577,444.893,"[4,7,3,2,6,1,5,8]","[[-0.3,0.2],[0.3,0.2]]","[[-0.125,-0.2],[0.125,-0.2]]",0.084259259,-0.205555556,1,0,0,0.8,o2_image,444.894,1,445.393,445.393,447.393,0,0,0,0,1,,,,,,,,,,,,,,,,,,,,,,,,,,,,,,,,,,,,,,,,,,,,,,,,,,
,,5f47cdcb9603e31f7f6a7dbd,19,male,2024-04-19_19h15.00.985,stockport_simplified,2022.2.4,Win32,60.0240096,661e456ee6de07e70aa9ef7b,66229da2b0b345de2f9fedd4,,,,,,,,,,,,,,,,,,,,,,,,,,,,,,,,,,,,,,,,,,,,,,,,,,,,,,,,0,59,59,19,1,B,Y,N,o2_image,stimuli/out2.png,stimuli/out1.png,stimuli/correct_out2.png,,,,,,,,,,,,,,,,,,,,,,,,,,,,,,,,,,,,,,
,,5f47cdcb9603e31f7f6a7dbd,19,male,2024-04-19_19h15.00.985,stockport_simplified,2022.2.4,Win32,60.0240096,661e456ee6de07e70aa9ef7b,66229da2b0b345de2f9fedd4,,,,,,,,,,,,,,,,,,,,,,,,,,,,,,,,,,447.394,448.843,"[4,7,3,2,6,1,5,8]","[[0.3,0.2],[-0.3,0.2]]","[[-0.125,-0.2],[0.125,-0.2]]",0.084259259,-0.205555556,1,0,0,0.933,o2_image,448.844,1,449.343,449.343,451.343,0,0,0,0,1,,,,,,,,,,,,,,,,,,,,,,,,,,,,,,,,,,,,,,,,,,,,,,,,,,
,,5f47cdcb9603e31f7f6a7dbd,19,male,2024-04-19_19h15.00.985,stockport_simplified,2022.2.4,Win32,60.0240096,661e456ee6de07e70aa9ef7b,66229da2b0b345de2f9fedd4,,,,,,,,,,,,,,,,,,,,,,,,,,,,,,,,,,,,,,,,,,,,,,,,,,,,,,,,1,0,60,14,1,B,X,N,o2_image,stimuli/out2.png,stimuli/out1.png,stimuli/correct_out2.png,,,,,,,,,,,,,,,,,,,,,,,,,,,,,,,,,,,,,,
,,5f47cdcb9603e31f7f6a7dbd,19,male,2024-04-19_19h15.00.985,stockport_simplified,2022.2.4,Win32,60.0240096,661e456ee6de07e70aa9ef7b,66229da2b0b345de2f9fedd4,,,,,,,,,,,,,,,,,,,,,,,,,,,,,,,,,,451.343,453.96,"[4,7,3,2,6,1,5,8]","[[-0.3,0.2],[0.3,0.2]]","[[0.125,-0.2],[-0.125,-0.2]]",0.135185185,-0.211111111,1,0,0,2.116,o1_image,453.961,1,454.46,454.46,456.46,0,0,0,0,1,,,,,,,,,,,,,,,,,,,,,,,,,,,,,,,,,,,,,,,,,,,,,,,,,,
,,5f47cdcb9603e31f7f6a7dbd,19,male,2024-04-19_19h15.00.985,stockport_simplified,2022.2.4,Win32,60.0240096,661e456ee6de07e70aa9ef7b,66229da2b0b345de2f9fedd4,,,,,,,,,,,,,,,,,,,,,,,,,,,,,,,,,,,,,,,,,,,,,,,,,,,,,,,,1,1,61,5,1,A,Y,N,o1_image,stimuli/out1.png,stimuli/correct_out1.png,stimuli/out2.png,,,,,,,,,,,,,,,,,,,,,,,,,,,,,,,,,,,,,,
,,5f47cdcb9603e31f7f6a7dbd,19,male,2024-04-19_19h15.00.985,stockport_simplified,2022.2.4,Win32,60.0240096,661e456ee6de07e70aa9ef7b,66229da2b0b345de2f9fedd4,,,,,,,,,,,,,,,,,,,,,,,,,,,,,,,,,,456.46,458.026,"[4,7,3,2,6,1,5,8]","[[0.3,0.2],[-0.3,0.2]]","[[0.125,-0.2],[-0.125,-0.2]]",-0.137962963,-0.194444444,1,0,0,1.066,o2_image,458.027,1,458.527,458.527,460.526,0,0,0,0,1,,,,,,,,,,,,,,,,,,,,,,,,,,,,,,,,,,,,,,,,,,,,,,,,,,
,,5f47cdcb9603e31f7f6a7dbd,19,male,2024-04-19_19h15.00.985,stockport_simplified,2022.2.4,Win32,60.0240096,661e456ee6de07e70aa9ef7b,66229da2b0b345de2f9fedd4,,,,,,,,,,,,,,,,,,,,,,,,,,,,,,,,,,,,,,,,,,,,,,,,,,,,,,,,1,2,62,19,1,B,Y,N,o2_image,stimuli/out2.png,stimuli/out1.png,stimuli/correct_out2.png,,,,,,,,,,,,,,,,,,,,,,,,,,,,,,,,,,,,,,
,,5f47cdcb9603e31f7f6a7dbd,19,male,2024-04-19_19h15.00.985,stockport_simplified,2022.2.4,Win32,60.0240096,661e456ee6de07e70aa9ef7b,66229da2b0b345de2f9fedd4,,,,,,,,,,,,,,,,,,,,,,,,,,,,,,,,,,460.527,463.728,"[4,7,3,2,6,1,5,8]","[[-0.3,0.2],[0.3,0.2]]","[[-0.125,-0.2],[0.125,-0.2]]",0.171296296,-0.187037037,1,0,0,2.684,o2_image,463.73,1,464.226,464.226,466.226,0,0,0,0,1,,,,,,,,,,,,,,,,,,,,,,,,,,,,,,,,,,,,,,,,,,,,,,,,,,
,,5f47cdcb9603e31f7f6a7dbd,19,male,2024-04-19_19h15.00.985,stockport_simplified,2022.2.4,Win32,60.0240096,661e456ee6de07e70aa9ef7b,66229da2b0b345de2f9fedd4,,,,,,,,,,,,,,,,,,,,,,,,,,,,,,,,,,,,,,,,,,,,,,,,,,,,,,,,1,3,63,11,1,B,X,N,o2_image,stimuli/out2.png,stimuli/out1.png,stimuli/correct_out2.png,,,,,,,,,,,,,,,,,,,,,,,,,,,,,,,,,,,,,,
,,5f47cdcb9603e31f7f6a7dbd,19,male,2024-04-19_19h15.00.985,stockport_simplified,2022.2.4,Win32,60.0240096,661e456ee6de07e70aa9ef7b,66229da2b0b345de2f9fedd4,,,,,,,,,,,,,,,,,,,,,,,,,,,,,,,,,,466.227,468.76,"[4,7,3,2,6,1,5,8]","[[0.3,0.2],[-0.3,0.2]]","[[0.125,-0.2],[-0.125,-0.2]]",-0.132407407,-0.214814815,1,0,0,2.017,o2_image,468.761,1,469.26,469.26,471.26,0,0,0,0,1,,,,,,,,,,,,,,,,,,,,,,,,,,,,,,,,,,,,,,,,,,,,,,,,,,
,,5f47cdcb9603e31f7f6a7dbd,19,male,2024-04-19_19h15.00.985,stockport_simplified,2022.2.4,Win32,60.0240096,661e456ee6de07e70aa9ef7b,66229da2b0b345de2f9fedd4,,,,,,,,,,,,,,,,,,,,,,,,,,,,,,,,,,,,,,,,,,,,,,,,,,,,,,,,1,4,64,17,1,B,Y,N,o2_image,stimuli/out2.png,stimuli/out1.png,stimuli/correct_out2.png,,,,,,,,,,,,,,,,,,,,,,,,,,,,,,,,,,,,,,
,,5f47cdcb9603e31f7f6a7dbd,19,male,2024-04-19_19h15.00.985,stockport_simplified,2022.2.4,Win32,60.0240096,661e456ee6de07e70aa9ef7b,66229da2b0b345de2f9fedd4,,,,,,,,,,,,,,,,,,,,,,,,,,,,,,,,,,471.261,473.826,"[4,7,3,2,6,1,5,8]","[[-0.3,0.2],[0.3,0.2]]","[[0.125,-0.2],[-0.125,-0.2]]",-0.123148148,-0.136111111,1,0,0,2.049,o2_image,473.828,1,474.327,474.327,476.326,0,0,0,0,1,,,,,,,,,,,,,,,,,,,,,,,,,,,,,,,,,,,,,,,,,,,,,,,,,,
,,5f47cdcb9603e31f7f6a7dbd,19,male,2024-04-19_19h15.00.985,stockport_simplified,2022.2.4,Win32,60.0240096,661e456ee6de07e70aa9ef7b,66229da2b0b345de2f9fedd4,,,,,,,,,,,,,,,,,,,,,,,,,,,,,,,,,,,,,,,,,,,,,,,,,,,,,,,,1,5,65,13,1,B,X,N,o2_image,stimuli/out2.png,stimuli/out1.png,stimuli/correct_out2.png,,,,,,,,,,,,,,,,,,,,,,,,,,,,,,,,,,,,,,
,,5f47cdcb9603e31f7f6a7dbd,19,male,2024-04-19_19h15.00.985,stockport_simplified,2022.2.4,Win32,60.0240096,661e456ee6de07e70aa9ef7b,66229da2b0b345de2f9fedd4,,,,,,,,,,,,,,,,,,,,,,,,,,,,,,,,,,476.327,478.793,"[4,7,3,2,6,1,5,8]","[[-0.3,0.2],[0.3,0.2]]","[[0.125,-0.2],[-0.125,-0.2]]",-0.15,-0.203703704,1,0,0,1.95,o2_image,478.793,1,479.293,479.293,481.293,0,0,0,0,1,,,,,,,,,,,,,,,,,,,,,,,,,,,,,,,,,,,,,,,,,,,,,,,,,,
,,5f47cdcb9603e31f7f6a7dbd,19,male,2024-04-19_19h15.00.985,stockport_simplified,2022.2.4,Win32,60.0240096,661e456ee6de07e70aa9ef7b,66229da2b0b345de2f9fedd4,,,,,,,,,,,,,,,,,,,,,,,,,,,,,,,,,,,,,,,,,,,,,,,,,,,,,,,,1,6,66,43,1,B,X,N,o2_image,stimuli/out2.png,stimuli/out1.png,stimuli/correct_out2.png,,,,,,,,,,,,,,,,,,,,,,,,,,,,,,,,,,,,,,
,,5f47cdcb9603e31f7f6a7dbd,19,male,2024-04-19_19h15.00.985,stockport_simplified,2022.2.4,Win32,60.0240096,661e456ee6de07e70aa9ef7b,66229da2b0b345de2f9fedd4,,,,,,,,,,,,,,,,,,,,,,,,,,,,,,,,,,481.294,483.877,"[4,7,3,2,6,1,5,8]","[[0.3,0.2],[-0.3,0.2]]","[[-0.125,-0.2],[0.125,-0.2]]",0.138888889,-0.156481481,1,0,0,2.066,o2_image,483.878,1,484.377,484.377,486.376,0,0,0,0,1,,,,,,,,,,,,,,,,,,,,,,,,,,,,,,,,,,,,,,,,,,,,,,,,,,
,,5f47cdcb9603e31f7f6a7dbd,19,male,2024-04-19_19h15.00.985,stockport_simplified,2022.2.4,Win32,60.0240096,661e456ee6de07e70aa9ef7b,66229da2b0b345de2f9fedd4,,,,,,,,,,,,,,,,,,,,,,,,,,,,,,,,,,,,,,,,,,,,,,,,,,,,,,,,1,7,67,29,1,N,M,D,o2_image,stimuli/out2.png,stimuli/out1.png,stimuli/correct_out2.png,,,,,,,,,,,,,,,,,,,,,,,,,,,,,,,,,,,,,,
,,5f47cdcb9603e31f7f6a7dbd,19,male,2024-04-19_19h15.00.985,stockport_simplified,2022.2.4,Win32,60.0240096,661e456ee6de07e70aa9ef7b,66229da2b0b345de2f9fedd4,,,,,,,,,,,,,,,,,,,,,,,,,,,,,,,,,,486.377,488.126,"[4,7,3,2,6,1,5,8]","[[-0.3,0.2],[0.3,0.2]]","[[-0.125,-0.2],[0.125,-0.2]]",0.131481481,-0.188888889,1,0,0,1.234,o2_image,488.128,1,488.626,488.626,490.626,0,0,0,0,1,,,,,,,,,,,,,,,,,,,,,,,,,,,,,,,,,,,,,,,,,,,,,,,,,,
,,5f47cdcb9603e31f7f6a7dbd,19,male,2024-04-19_19h15.00.985,stockport_simplified,2022.2.4,Win32,60.0240096,661e456ee6de07e70aa9ef7b,66229da2b0b345de2f9fedd4,,,,,,,,,,,,,,,,,,,,,,,,,,,,,,,,,,,,,,,,,,,,,,,,,,,,,,,,1,8,68,56,1,N,M,D,o2_image,stimuli/out2.png,stimuli/out1.png,stimuli/correct_out2.png,,,,,,,,,,,,,,,,,,,,,,,,,,,,,,,,,,,,,,
,,5f47cdcb9603e31f7f6a7dbd,19,male,2024-04-19_19h15.00.985,stockport_simplified,2022.2.4,Win32,60.0240096,661e456ee6de07e70aa9ef7b,66229da2b0b345de2f9fedd4,,,,,,,,,,,,,,,,,,,,,,,,,,,,,,,,,,490.627,493.76,"[4,7,3,2,6,1,5,8]","[[0.3,0.2],[-0.3,0.2]]","[[-0.125,-0.2],[0.125,-0.2]]",-0.121296296,-0.184259259,1,0,0,2.617,o1_image,493.761,1,494.259,494.259,496.26,0,0,0,0,1,,,,,,,,,,,,,,,,,,,,,,,,,,,,,,,,,,,,,,,,,,,,,,,,,,
,,5f47cdcb9603e31f7f6a7dbd,19,male,2024-04-19_19h15.00.985,stockport_simplified,2022.2.4,Win32,60.0240096,661e456ee6de07e70aa9ef7b,66229da2b0b345de2f9fedd4,,,,,,,,,,,,,,,,,,,,,,,,,,,,,,,,,,,,,,,,,,,,,,,,,,,,,,,,1,9,69,8,1,A,Y,N,o1_image,stimuli/out1.png,stimuli/correct_out1.png,stimuli/out2.png,,,,,,,,,,,,,,,,,,,,,,,,,,,,,,,,,,,,,,
,,5f47cdcb9603e31f7f6a7dbd,19,male,2024-04-19_19h15.00.985,stockport_simplified,2022.2.4,Win32,60.0240096,661e456ee6de07e70aa9ef7b,66229da2b0b345de2f9fedd4,,,,,,,,,,,,,,,,,,,,,,,,,,,,,,,,,,496.262,499.376,"[4,7,3,2,6,1,5,8]","[[-0.3,0.2],[0.3,0.2]]","[[-0.125,-0.2],[0.125,-0.2]]",0.093518519,-0.172222222,1,0,0,2.598,o2_image,499.378,1,499.876,499.876,501.877,0,0,0,0,1,,,,,,,,,,,,,,,,,,,,,,,,,,,,,,,,,,,,,,,,,,,,,,,,,,
,,5f47cdcb9603e31f7f6a7dbd,19,male,2024-04-19_19h15.00.985,stockport_simplified,2022.2.4,Win32,60.0240096,661e456ee6de07e70aa9ef7b,66229da2b0b345de2f9fedd4,,,,,,,,,,,,,,,,,,,,,,,,,,,,,,,,,,,,,,,,,,,,,,,,,,,,,,,,1,10,70,16,1,B,Y,N,o2_image,stimuli/out2.png,stimuli/out1.png,stimuli/correct_out2.png,,,,,,,,,,,,,,,,,,,,,,,,,,,,,,,,,,,,,,
,,5f47cdcb9603e31f7f6a7dbd,19,male,2024-04-19_19h15.00.985,stockport_simplified,2022.2.4,Win32,60.0240096,661e456ee6de07e70aa9ef7b,66229da2b0b345de2f9fedd4,,,,,,,,,,,,,,,,,,,,,,,,,,,,,,,,,,501.878,505.093,"[4,7,3,2,6,1,5,8]","[[0.3,0.2],[-0.3,0.2]]","[[0.125,-0.2],[-0.125,-0.2]]",0.19537037,-0.193518519,1,0,0,2.699,o1_image,505.094,1,505.593,505.593,507.593,0,0,0,0,1,,,,,,,,,,,,,,,,,,,,,,,,,,,,,,,,,,,,,,,,,,,,,,,,,,
,,5f47cdcb9603e31f7f6a7dbd,19,male,2024-04-19_19h15.00.985,stockport_simplified,2022.2.4,Win32,60.0240096,661e456ee6de07e70aa9ef7b,66229da2b0b345de2f9fedd4,,,,,,,,,,,,,,,,,,,,,,,,,,,,,,,,,,,,,,,,,,,,,,,,,,,,,,,,1,11,71,50,1,N,M,C,o1_image,stimuli/out1.png,stimuli/correct_out1.png,stimuli/out2.png,,,,,,,,,,,,,,,,,,,,,,,,,,,,,,,,,,,,,,
,,5f47cdcb9603e31f7f6a7dbd,19,male,2024-04-19_19h15.00.985,stockport_simplified,2022.2.4,Win32,60.0240096,661e456ee6de07e70aa9ef7b,66229da2b0b345de2f9fedd4,,,,,,,,,,,,,,,,,,,,,,,,,,,,,,,,,,507.593,509.86,"[4,7,3,2,6,1,5,8]","[[0.3,0.2],[-0.3,0.2]]","[[-0.125,-0.2],[0.125,-0.2]]",0.093518519,-0.187962963,1,0,0,1.766,o2_image,509.861,1,510.36,510.36,512.36,0,0,0,0,1,,,,,,,,,,,,,,,,,,,,,,,,,,,,,,,,,,,,,,,,,,,,,,,,,,
,,5f47cdcb9603e31f7f6a7dbd,19,male,2024-04-19_19h15.00.985,stockport_simplified,2022.2.4,Win32,60.0240096,661e456ee6de07e70aa9ef7b,66229da2b0b345de2f9fedd4,,,,,,,,,,,,,,,,,,,,,,,,,,,,,,,,,,,,,,,,,,,,,,,,,,,,,,,,1,12,72,28,1,N,M,D,o2_image,stimuli/out2.png,stimuli/out1.png,stimuli/correct_out2.png,,,,,,,,,,,,,,,,,,,,,,,,,,,,,,,,,,,,,,
,,5f47cdcb9603e31f7f6a7dbd,19,male,2024-04-19_19h15.00.985,stockport_simplified,2022.2.4,Win32,60.0240096,661e456ee6de07e70aa9ef7b,66229da2b0b345de2f9fedd4,,,,,,,,,,,,,,,,,,,,,,,,,,,,,,,,,,512.36,514.81,"[4,7,3,2,6,1,5,8]","[[0.3,0.2],[-0.3,0.2]]","[[0.125,-0.2],[-0.125,-0.2]]",0.127777778,-0.193518519,1,0,0,1.934,o1_image,514.812,1,515.309,515.309,517.309,0,0,0,0,1,,,,,,,,,,,,,,,,,,,,,,,,,,,,,,,,,,,,,,,,,,,,,,,,,,
,,5f47cdcb9603e31f7f6a7dbd,19,male,2024-04-19_19h15.00.985,stockport_simplified,2022.2.4,Win32,60.0240096,661e456ee6de07e70aa9ef7b,66229da2b0b345de2f9fedd4,,,,,,,,,,,,,,,,,,,,,,,,,,,,,,,,,,,,,,,,,,,,,,,,,,,,,,,,1,13,73,33,1,A,X,N,o1_image,stimuli/out1.png,stimuli/correct_out1.png,stimuli/out2.png,,,,,,,,,,,,,,,,,,,,,,,,,,,,,,,,,,,,,,
,,5f47cdcb9603e31f7f6a7dbd,19,male,2024-04-19_19h15.00.985,stockport_simplified,2022.2.4,Win32,60.0240096,661e456ee6de07e70aa9ef7b,66229da2b0b345de2f9fedd4,,,,,,,,,,,,,,,,,,,,,,,,,,,,,,,,,,517.31,521.659,"[4,7,3,2,6,1,5,8]","[[-0.3,0.2],[0.3,0.2]]","[[-0.125,-0.2],[0.125,-0.2]]",0.1,-0.180555556,1,0,0,3.832,o2_image,521.661,1,522.159,522.159,524.159,0,0,0,0,1,,,,,,,,,,,,,,,,,,,,,,,,,,,,,,,,,,,,,,,,,,,,,,,,,,
,,5f47cdcb9603e31f7f6a7dbd,19,male,2024-04-19_19h15.00.985,stockport_simplified,2022.2.4,Win32,60.0240096,661e456ee6de07e70aa9ef7b,66229da2b0b345de2f9fedd4,,,,,,,,,,,,,,,,,,,,,,,,,,,,,,,,,,,,,,,,,,,,,,,,,,,,,,,,1,14,74,18,1,B,Y,N,o2_image,stimuli/out2.png,stimuli/out1.png,stimuli/correct_out2.png,,,,,,,,,,,,,,,,,,,,,,,,,,,,,,,,,,,,,,
,,5f47cdcb9603e31f7f6a7dbd,19,male,2024-04-19_19h15.00.985,stockport_simplified,2022.2.4,Win32,60.0240096,661e456ee6de07e70aa9ef7b,66229da2b0b345de2f9fedd4,,,,,,,,,,,,,,,,,,,,,,,,,,,,,,,,,,524.16,527.293,"[4,7,3,2,6,1,5,8]","[[0.3,0.2],[-0.3,0.2]]","[[-0.125,-0.2],[0.125,-0.2]]",0.115740741,-0.17962963,1,0,0,2.633,o2_image,527.295,1,527.793,527.793,529.795,0,0,0,0,1,,,,,,,,,,,,,,,,,,,,,,,,,,,,,,,,,,,,,,,,,,,,,,,,,,
,,5f47cdcb9603e31f7f6a7dbd,19,male,2024-04-19_19h15.00.985,stockport_simplified,2022.2.4,Win32,60.0240096,661e456ee6de07e70aa9ef7b,66229da2b0b345de2f9fedd4,,,,,,,,,,,,,,,,,,,,,,,,,,,,,,,,,,,,,,,,,,,,,,,,,,,,,,,,1,15,75,25,1,N,M,D,o2_image,stimuli/out2.png,stimuli/out1.png,stimuli/correct_out2.png,,,,,,,,,,,,,,,,,,,,,,,,,,,,,,,,,,,,,,
,,5f47cdcb9603e31f7f6a7dbd,19,male,2024-04-19_19h15.00.985,stockport_simplified,2022.2.4,Win32,60.0240096,661e456ee6de07e70aa9ef7b,66229da2b0b345de2f9fedd4,,,,,,,,,,,,,,,,,,,,,,,,,,,,,,,,,,529.796,531.311,"[4,7,3,2,6,1,5,8]","[[-0.3,0.2],[0.3,0.2]]","[[-0.125,-0.2],[0.125,-0.2]]",-0.072222222,-0.191666667,1,0,0,0.999,o1_image,531.312,1,531.81,531.81,533.81,0,0,0,0,1,,,,,,,,,,,,,,,,,,,,,,,,,,,,,,,,,,,,,,,,,,,,,,,,,,
,,5f47cdcb9603e31f7f6a7dbd,19,male,2024-04-19_19h15.00.985,stockport_simplified,2022.2.4,Win32,60.0240096,661e456ee6de07e70aa9ef7b,66229da2b0b345de2f9fedd4,,,,,,,,,,,,,,,,,,,,,,,,,,,,,,,,,,,,,,,,,,,,,,,,,,,,,,,,1,16,76,23,1,N,M,C,o1_image,stimuli/out1.png,stimuli/correct_out1.png,stimuli/out2.png,,,,,,,,,,,,,,,,,,,,,,,,,,,,,,,,,,,,,,
,,5f47cdcb9603e31f7f6a7dbd,19,male,2024-04-19_19h15.00.985,stockport_simplified,2022.2.4,Win32,60.0240096,661e456ee6de07e70aa9ef7b,66229da2b0b345de2f9fedd4,,,,,,,,,,,,,,,,,,,,,,,,,,,,,,,,,,533.811,535.226,"[4,7,3,2,6,1,5,8]","[[0.3,0.2],[-0.3,0.2]]","[[-0.125,-0.2],[0.125,-0.2]]",0.103703704,-0.160185185,1,0,0,0.899,o2_image,535.227,1,535.727,535.727,537.726,0,0,0,0,1,,,,,,,,,,,,,,,,,,,,,,,,,,,,,,,,,,,,,,,,,,,,,,,,,,
,,5f47cdcb9603e31f7f6a7dbd,19,male,2024-04-19_19h15.00.985,stockport_simplified,2022.2.4,Win32,60.0240096,661e456ee6de07e70aa9ef7b,66229da2b0b345de2f9fedd4,,,,,,,,,,,,,,,,,,,,,,,,,,,,,,,,,,,,,,,,,,,,,,,,,,,,,,,,1,17,77,46,1,B,Y,N,o2_image,stimuli/out2.png,stimuli/out1.png,stimuli/correct_out2.png,,,,,,,,,,,,,,,,,,,,,,,,,,,,,,,,,,,,,,
,,5f47cdcb9603e31f7f6a7dbd,19,male,2024-04-19_19h15.00.985,stockport_simplified,2022.2.4,Win32,60.0240096,661e456ee6de07e70aa9ef7b,66229da2b0b345de2f9fedd4,,,,,,,,,,,,,,,,,,,,,,,,,,,,,,,,,,537.727,540.643,"[4,7,3,2,6,1,5,8]","[[-0.3,0.2],[0.3,0.2]]","[[0.125,-0.2],[-0.125,-0.2]]",0.130555556,-0.199074074,1,0,0,2.4,o1_image,540.644,1,541.143,541.143,543.143,0,0,0,0,1,,,,,,,,,,,,,,,,,,,,,,,,,,,,,,,,,,,,,,,,,,,,,,,,,,
,,5f47cdcb9603e31f7f6a7dbd,19,male,2024-04-19_19h15.00.985,stockport_simplified,2022.2.4,Win32,60.0240096,661e456ee6de07e70aa9ef7b,66229da2b0b345de2f9fedd4,,,,,,,,,,,,,,,,,,,,,,,,,,,,,,,,,,,,,,,,,,,,,,,,,,,,,,,,1,18,78,6,1,A,Y,N,o1_image,stimuli/out1.png,stimuli/correct_out1.png,stimuli/out2.png,,,,,,,,,,,,,,,,,,,,,,,,,,,,,,,,,,,,,,
,,5f47cdcb9603e31f7f6a7dbd,19,male,2024-04-19_19h15.00.985,stockport_simplified,2022.2.4,Win32,60.0240096,661e456ee6de07e70aa9ef7b,66229da2b0b345de2f9fedd4,,,,,,,,,,,,,,,,,,,,,,,,,,,,,,,,,,543.144,547.509,"[4,7,3,2,6,1,5,8]","[[0.3,0.2],[-0.3,0.2]]","[[-0.125,-0.2],[0.125,-0.2]]",-0.099074074,-0.215740741,1,0,0,3.849,o1_image,547.511,1,548.01,548.01,550.009,0,0,0,0,1,,,,,,,,,,,,,,,,,,,,,,,,,,,,,,,,,,,,,,,,,,,,,,,,,,
,,5f47cdcb9603e31f7f6a7dbd,19,male,2024-04-19_19h15.00.985,stockport_simplified,2022.2.4,Win32,60.0240096,661e456ee6de07e70aa9ef7b,66229da2b0b345de2f9fedd4,,,,,,,,,,,,,,,,,,,,,,,,,,,,,,,,,,,,,,,,,,,,,,,,,,,,,,,,1,19,79,30,1,A,X,N,o1_image,stimuli/out1.png,stimuli/correct_out1.png,stimuli/out2.png,,,,,,,,,,,,,,,,,,,,,,,,,,,,,,,,,,,,,,
,,5f47cdcb9603e31f7f6a7dbd,19,male,2024-04-19_19h15.00.985,stockport_simplified,2022.2.4,Win32,60.0240096,661e456ee6de07e70aa9ef7b,66229da2b0b345de2f9fedd4,,,,,,,,,,,,,,,,,,,,,,,,,,,,,,,,,,550.009,551.993,"[4,7,3,2,6,1,5,8]","[[-0.3,0.2],[0.3,0.2]]","[[0.125,-0.2],[-0.125,-0.2]]",-0.080555556,-0.171296296,1,0,0,1.484,o2_image,551.994,1,552.493,552.493,554.493,0,0,0,0,1,,,,,,,,,,,,,,,,,,,,,,,,,,,,,,,,,,,,,,,,,,,,,,,,,,
,,5f47cdcb9603e31f7f6a7dbd,19,male,2024-04-19_19h15.00.985,stockport_simplified,2022.2.4,Win32,60.0240096,661e456ee6de07e70aa9ef7b,66229da2b0b345de2f9fedd4,,,,,,,,,,,,,,,,,,,,,,,,,,,,,,,,,,,,,,,,,,,,,,,,,,,,,,,,1,20,80,40,1,B,X,N,o2_image,stimuli/out2.png,stimuli/out1.png,stimuli/correct_out2.png,,,,,,,,,,,,,,,,,,,,,,,,,,,,,,,,,,,,,,
,,5f47cdcb9603e31f7f6a7dbd,19,male,2024-04-19_19h15.00.985,stockport_simplified,2022.2.4,Win32,60.0240096,661e456ee6de07e70aa9ef7b,66229da2b0b345de2f9fedd4,,,,,,,,,,,,,,,,,,,,,,,,,,,,,,,,,,554.494,556.293,"[4,7,3,2,6,1,5,8]","[[0.3,0.2],[-0.3,0.2]]","[[-0.125,-0.2],[0.125,-0.2]]",-0.103703704,-0.192592593,1,0,0,1.283,o1_image,556.294,1,556.793,556.793,558.792,0,0,0,0,1,,,,,,,,,,,,,,,,,,,,,,,,,,,,,,,,,,,,,,,,,,,,,,,,,,
,,5f47cdcb9603e31f7f6a7dbd,19,male,2024-04-19_19h15.00.985,stockport_simplified,2022.2.4,Win32,60.0240096,661e456ee6de07e70aa9ef7b,66229da2b0b345de2f9fedd4,,,,,,,,,,,,,,,,,,,,,,,,,,,,,,,,,,,,,,,,,,,,,,,,,,,,,,,,1,21,81,36,1,A,Y,N,o1_image,stimuli/out1.png,stimuli/correct_out1.png,stimuli/out2.png,,,,,,,,,,,,,,,,,,,,,,,,,,,,,,,,,,,,,,
,,5f47cdcb9603e31f7f6a7dbd,19,male,2024-04-19_19h15.00.985,stockport_simplified,2022.2.4,Win32,60.0240096,661e456ee6de07e70aa9ef7b,66229da2b0b345de2f9fedd4,,,,,,,,,,,,,,,,,,,,,,,,,,,,,,,,,,558.793,560.393,"[4,7,3,2,6,1,5,8]","[[-0.3,0.2],[0.3,0.2]]","[[0.125,-0.2],[-0.125,-0.2]]",-0.085185185,-0.151851852,1,0,0,1.083,o2_image,560.394,0,560.893,560.893,562.894,0,0,0,0,1,,,,,,,,,,,,,,,,,,,,,,,,,,,,,,,,,,,,,,,,,,,,,,,,,,
,,5f47cdcb9603e31f7f6a7dbd,19,male,2024-04-19_19h15.00.985,stockport_simplified,2022.2.4,Win32,60.0240096,661e456ee6de07e70aa9ef7b,66229da2b0b345de2f9fedd4,,,,,,,,,,,,,,,,,,,,,,,,,,,,,,,,,,,,,,,,,,,,,,,,,,,,,,,,1,22,82,31,1,A,X,N,o1_image,stimuli/out1.png,stimuli/correct_out1.png,stimuli/out2.png,,,,,,,,,,,,,,,,,,,,,,,,,,,,,,,,,,,,,,
,,5f47cdcb9603e31f7f6a7dbd,19,male,2024-04-19_19h15.00.985,stockport_simplified,2022.2.4,Win32,60.0240096,661e456ee6de07e70aa9ef7b,66229da2b0b345de2f9fedd4,,,,,,,,,,,,,,,,,,,,,,,,,,,,,,,,,,562.895,565.026,"[4,7,3,2,6,1,5,8]","[[0.3,0.2],[-0.3,0.2]]","[[0.125,-0.2],[-0.125,-0.2]]",-0.081481481,-0.149074074,1,0,0,1.614,o2_image,565.028,1,565.526,565.526,567.526,0,0,0,0,1,,,,,,,,,,,,,,,,,,,,,,,,,,,,,,,,,,,,,,,,,,,,,,,,,,
,,5f47cdcb9603e31f7f6a7dbd,19,male,2024-04-19_19h15.00.985,stockport_simplified,2022.2.4,Win32,60.0240096,661e456ee6de07e70aa9ef7b,66229da2b0b345de2f9fedd4,,,,,,,,,,,,,,,,,,,,,,,,,,,,,,,,,,,,,,,,,,,,,,,,,,,,,,,,1,23,83,58,1,N,M,D,o2_image,stimuli/out2.png,stimuli/out1.png,stimuli/correct_out2.png,,,,,,,,,,,,,,,,,,,,,,,,,,,,,,,,,,,,,,
,,5f47cdcb9603e31f7f6a7dbd,19,male,2024-04-19_19h15.00.985,stockport_simplified,2022.2.4,Win32,60.0240096,661e456ee6de07e70aa9ef7b,66229da2b0b345de2f9fedd4,,,,,,,,,,,,,,,,,,,,,,,,,,,,,,,,,,567.527,571.143,"[4,7,3,2,6,1,5,8]","[[-0.3,0.2],[0.3,0.2]]","[[0.125,-0.2],[-0.125,-0.2]]",-0.210185185,-0.17037037,1,0,0,2.799,o2_image,571.144,1,571.643,571.643,573.642,0,0,0,0,1,,,,,,,,,,,,,,,,,,,,,,,,,,,,,,,,,,,,,,,,,,,,,,,,,,
,,5f47cdcb9603e31f7f6a7dbd,19,male,2024-04-19_19h15.00.985,stockport_simplified,2022.2.4,Win32,60.0240096,661e456ee6de07e70aa9ef7b,66229da2b0b345de2f9fedd4,,,,,,,,,,,,,,,,,,,,,,,,,,,,,,,,,,,,,,,,,,,,,,,,,,,,,,,,1,24,84,55,1,N,M,D,o2_image,stimuli/out2.png,stimuli/out1.png,stimuli/correct_out2.png,,,,,,,,,,,,,,,,,,,,,,,,,,,,,,,,,,,,,,
,,5f47cdcb9603e31f7f6a7dbd,19,male,2024-04-19_19h15.00.985,stockport_simplified,2022.2.4,Win32,60.0240096,661e456ee6de07e70aa9ef7b,66229da2b0b345de2f9fedd4,,,,,,,,,,,,,,,,,,,,,,,,,,,,,,,,,,573.643,577.143,"[4,7,3,2,6,1,5,8]","[[-0.3,0.2],[0.3,0.2]]","[[0.125,-0.2],[-0.125,-0.2]]",0.063888889,-0.191666667,1,0,0,2.983,o1_image,577.144,1,577.643,577.643,579.642,0,0,0,0,1,,,,,,,,,,,,,,,,,,,,,,,,,,,,,,,,,,,,,,,,,,,,,,,,,,
,,5f47cdcb9603e31f7f6a7dbd,19,male,2024-04-19_19h15.00.985,stockport_simplified,2022.2.4,Win32,60.0240096,661e456ee6de07e70aa9ef7b,66229da2b0b345de2f9fedd4,,,,,,,,,,,,,,,,,,,,,,,,,,,,,,,,,,,,,,,,,,,,,,,,,,,,,,,,1,25,85,51,1,N,M,C,o1_image,stimuli/out1.png,stimuli/correct_out1.png,stimuli/out2.png,,,,,,,,,,,,,,,,,,,,,,,,,,,,,,,,,,,,,,
,,5f47cdcb9603e31f7f6a7dbd,19,male,2024-04-19_19h15.00.985,stockport_simplified,2022.2.4,Win32,60.0240096,661e456ee6de07e70aa9ef7b,66229da2b0b345de2f9fedd4,,,,,,,,,,,,,,,,,,,,,,,,,,,,,,,,,,579.643,581.81,"[4,7,3,2,6,1,5,8]","[[0.3,0.2],[-0.3,0.2]]","[[0.125,-0.2],[-0.125,-0.2]]",0.080555556,-0.180555556,1,0,0,1.665,o1_image,581.811,1,582.309,582.309,584.309,0,0,0,0,1,,,,,,,,,,,,,,,,,,,,,,,,,,,,,,,,,,,,,,,,,,,,,,,,,,
,,5f47cdcb9603e31f7f6a7dbd,19,male,2024-04-19_19h15.00.985,stockport_simplified,2022.2.4,Win32,60.0240096,661e456ee6de07e70aa9ef7b,66229da2b0b345de2f9fedd4,,,,,,,,,,,,,,,,,,,,,,,,,,,,,,,,,,,,,,,,,,,,,,,,,,,,,,,,1,26,86,7,1,A,Y,N,o1_image,stimuli/out1.png,stimuli/correct_out1.png,stimuli/out2.png,,,,,,,,,,,,,,,,,,,,,,,,,,,,,,,,,,,,,,
,,5f47cdcb9603e31f7f6a7dbd,19,male,2024-04-19_19h15.00.985,stockport_simplified,2022.2.4,Win32,60.0240096,661e456ee6de07e70aa9ef7b,66229da2b0b345de2f9fedd4,,,,,,,,,,,,,,,,,,,,,,,,,,,,,,,,,,584.31,586.043,"[4,7,3,2,6,1,5,8]","[[0.3,0.2],[-0.3,0.2]]","[[-0.125,-0.2],[0.125,-0.2]]",-0.143518519,-0.19537037,1,0,0,1.216,o1_image,586.044,1,586.543,586.543,588.542,0,0,0,0,1,,,,,,,,,,,,,,,,,,,,,,,,,,,,,,,,,,,,,,,,,,,,,,,,,,
,,5f47cdcb9603e31f7f6a7dbd,19,male,2024-04-19_19h15.00.985,stockport_simplified,2022.2.4,Win32,60.0240096,661e456ee6de07e70aa9ef7b,66229da2b0b345de2f9fedd4,,,,,,,,,,,,,,,,,,,,,,,,,,,,,,,,,,,,,,,,,,,,,,,,,,,,,,,,1,27,87,34,1,A,X,N,o1_image,stimuli/out1.png,stimuli/correct_out1.png,stimuli/out2.png,,,,,,,,,,,,,,,,,,,,,,,,,,,,,,,,,,,,,,
,,5f47cdcb9603e31f7f6a7dbd,19,male,2024-04-19_19h15.00.985,stockport_simplified,2022.2.4,Win32,60.0240096,661e456ee6de07e70aa9ef7b,66229da2b0b345de2f9fedd4,,,,,,,,,,,,,,,,,,,,,,,,,,,,,,,,,,588.543,590.593,"[4,7,3,2,6,1,5,8]","[[-0.3,0.2],[0.3,0.2]]","[[-0.125,-0.2],[0.125,-0.2]]",0.018518519,-0.203703704,1,0,0,1.049,o2_image,590.594,1,591.093,591.093,593.092,0,0,0,0,1,,,,,,,,,,,,,,,,,,,,,,,,,,,,,,,,,,,,,,,,,,,,,,,,,,
,,5f47cdcb9603e31f7f6a7dbd,19,male,2024-04-19_19h15.00.985,stockport_simplified,2022.2.4,Win32,60.0240096,661e456ee6de07e70aa9ef7b,66229da2b0b345de2f9fedd4,,,,,,,,,,,,,,,,,,,,,,,,,,,,,,,,,,,,,,,,,,,,,,,,,,,,,,,,1,28,88,10,1,B,X,N,o2_image,stimuli/out2.png,stimuli/out1.png,stimuli/correct_out2.png,,,,,,,,,,,,,,,,,,,,,,,,,,,,,,,,,,,,,,
,,5f47cdcb9603e31f7f6a7dbd,19,male,2024-04-19_19h15.00.985,stockport_simplified,2022.2.4,Win32,60.0240096,661e456ee6de07e70aa9ef7b,66229da2b0b345de2f9fedd4,,,,,,,,,,,,,,,,,,,,,,,,,,,,,,,,,,593.094,599.16,"[4,7,3,2,6,1,5,8]","[[-0.3,0.2],[0.3,0.2]]","[[-0.125,-0.2],[0.125,-0.2]]",-0.122222222,-0.237962963,1,0,0,5.549,o1_image,599.163,1,599.659,599.659,601.659,0,0,0,0,1,,,,,,,,,,,,,,,,,,,,,,,,,,,,,,,,,,,,,,,,,,,,,,,,,,
,,5f47cdcb9603e31f7f6a7dbd,19,male,2024-04-19_19h15.00.985,stockport_simplified,2022.2.4,Win32,60.0240096,661e456ee6de07e70aa9ef7b,66229da2b0b345de2f9fedd4,,,,,,,,,,,,,,,,,,,,,,,,,,,,,,,,,,,,,,,,,,,,,,,,,,,,,,,,1,29,89,39,1,A,Y,N,o1_image,stimuli/out1.png,stimuli/correct_out1.png,stimuli/out2.png,,,,,,,,,,,,,,,,,,,,,,,,,,,,,,,,,,,,,,
,,5f47cdcb9603e31f7f6a7dbd,19,male,2024-04-19_19h15.00.985,stockport_simplified,2022.2.4,Win32,60.0240096,661e456ee6de07e70aa9ef7b,66229da2b0b345de2f9fedd4,,,,,,,,,,,,,,,,,,,,,,,,,,,,,,,,,,601.661,605.993,"[4,7,3,2,6,1,5,8]","[[0.3,0.2],[-0.3,0.2]]","[[-0.125,-0.2],[0.125,-0.2]]",-0.132407407,-0.212962963,1,0,0,3.815,o1_image,605.995,1,606.493,606.493,608.492,0,0,0,0,1,,,,,,,,,,,,,,,,,,,,,,,,,,,,,,,,,,,,,,,,,,,,,,,,,,
,,5f47cdcb9603e31f7f6a7dbd,19,male,2024-04-19_19h15.00.985,stockport_simplified,2022.2.4,Win32,60.0240096,661e456ee6de07e70aa9ef7b,66229da2b0b345de2f9fedd4,,,,,,,,,,,,,,,,,,,,,,,,,,,,,,,,,,,,,,,,,,,,,,,,,,,,,,,,1,30,90,37,1,A,Y,N,o1_image,stimuli/out1.png,stimuli/correct_out1.png,stimuli/out2.png,,,,,,,,,,,,,,,,,,,,,,,,,,,,,,,,,,,,,,
,,5f47cdcb9603e31f7f6a7dbd,19,male,2024-04-19_19h15.00.985,stockport_simplified,2022.2.4,Win32,60.0240096,661e456ee6de07e70aa9ef7b,66229da2b0b345de2f9fedd4,,,,,,,,,,,,,,,,,,,,,,,,,,,,,,,,,,608.493,610.41,"[4,7,3,2,6,1,5,8]","[[0.3,0.2],[-0.3,0.2]]","[[0.125,-0.2],[-0.125,-0.2]]",0.106481481,-0.2,1,0,0,1.398,o1_image,610.411,1,610.909,610.909,612.909,0,0,0,0,1,,,,,,,,,,,,,,,,,,,,,,,,,,,,,,,,,,,,,,,,,,,,,,,,,,
,,5f47cdcb9603e31f7f6a7dbd,19,male,2024-04-19_19h15.00.985,stockport_simplified,2022.2.4,Win32,60.0240096,661e456ee6de07e70aa9ef7b,66229da2b0b345de2f9fedd4,,,,,,,,,,,,,,,,,,,,,,,,,,,,,,,,,,,,,,,,,,,,,,,,,,,,,,,,1,31,91,24,1,N,M,C,o1_image,stimuli/out1.png,stimuli/correct_out1.png,stimuli/out2.png,,,,,,,,,,,,,,,,,,,,,,,,,,,,,,,,,,,,,,
,,5f47cdcb9603e31f7f6a7dbd,19,male,2024-04-19_19h15.00.985,stockport_simplified,2022.2.4,Win32,60.0240096,661e456ee6de07e70aa9ef7b,66229da2b0b345de2f9fedd4,,,,,,,,,,,,,,,,,,,,,,,,,,,,,,,,,,612.91,617.693,"[4,7,3,2,6,1,5,8]","[[-0.3,0.2],[0.3,0.2]]","[[0.125,-0.2],[-0.125,-0.2]]",-0.085185185,-0.185185185,1,0,0,4.266,o2_image,617.694,1,618.192,618.192,620.193,0,0,0,0,1,,,,,,,,,,,,,,,,,,,,,,,,,,,,,,,,,,,,,,,,,,,,,,,,,,
,,5f47cdcb9603e31f7f6a7dbd,19,male,2024-04-19_19h15.00.985,stockport_simplified,2022.2.4,Win32,60.0240096,661e456ee6de07e70aa9ef7b,66229da2b0b345de2f9fedd4,,,,,,,,,,,,,,,,,,,,,,,,,,,,,,,,,,,,,,,,,,,,,,,,,,,,,,,,1,32,92,26,1,N,M,D,o2_image,stimuli/out2.png,stimuli/out1.png,stimuli/correct_out2.png,,,,,,,,,,,,,,,,,,,,,,,,,,,,,,,,,,,,,,
,,5f47cdcb9603e31f7f6a7dbd,19,male,2024-04-19_19h15.00.985,stockport_simplified,2022.2.4,Win32,60.0240096,661e456ee6de07e70aa9ef7b,66229da2b0b345de2f9fedd4,,,,,,,,,,,,,,,,,,,,,,,,,,,,,,,,,,620.194,622.943,"[4,7,3,2,6,1,5,8]","[[-0.3,0.2],[0.3,0.2]]","[[-0.125,-0.2],[0.125,-0.2]]",0.12037037,-0.190740741,1,0,0,2.234,o2_image,622.944,1,623.443,623.443,625.443,0,0,0,0,1,,,,,,,,,,,,,,,,,,,,,,,,,,,,,,,,,,,,,,,,,,,,,,,,,,
,,5f47cdcb9603e31f7f6a7dbd,19,male,2024-04-19_19h15.00.985,stockport_simplified,2022.2.4,Win32,60.0240096,661e456ee6de07e70aa9ef7b,66229da2b0b345de2f9fedd4,,,,,,,,,,,,,,,,,,,,,,,,,,,,,,,,,,,,,,,,,,,,,,,,,,,,,,,,1,33,93,59,1,N,M,D,o2_image,stimuli/out2.png,stimuli/out1.png,stimuli/correct_out2.png,,,,,,,,,,,,,,,,,,,,,,,,,,,,,,,,,,,,,,
,,5f47cdcb9603e31f7f6a7dbd,19,male,2024-04-19_19h15.00.985,stockport_simplified,2022.2.4,Win32,60.0240096,661e456ee6de07e70aa9ef7b,66229da2b0b345de2f9fedd4,,,,,,,,,,,,,,,,,,,,,,,,,,,,,,,,,,625.443,627.093,"[4,7,3,2,6,1,5,8]","[[-0.3,0.2],[0.3,0.2]]","[[-0.125,-0.2],[0.125,-0.2]]",-0.07037037,-0.188888889,1,0,0,1.15,o1_image,627.094,1,627.592,627.592,629.594,0,0,0,0,1,,,,,,,,,,,,,,,,,,,,,,,,,,,,,,,,,,,,,,,,,,,,,,,,,,
,,5f47cdcb9603e31f7f6a7dbd,19,male,2024-04-19_19h15.00.985,stockport_simplified,2022.2.4,Win32,60.0240096,661e456ee6de07e70aa9ef7b,66229da2b0b345de2f9fedd4,,,,,,,,,,,,,,,,,,,,,,,,,,,,,,,,,,,,,,,,,,,,,,,,,,,,,,,,1,34,94,22,1,N,M,C,o1_image,stimuli/out1.png,stimuli/correct_out1.png,stimuli/out2.png,,,,,,,,,,,,,,,,,,,,,,,,,,,,,,,,,,,,,,
,,5f47cdcb9603e31f7f6a7dbd,19,male,2024-04-19_19h15.00.985,stockport_simplified,2022.2.4,Win32,60.0240096,661e456ee6de07e70aa9ef7b,66229da2b0b345de2f9fedd4,,,,,,,,,,,,,,,,,,,,,,,,,,,,,,,,,,629.595,632.176,"[4,7,3,2,6,1,5,8]","[[0.3,0.2],[-0.3,0.2]]","[[-0.125,-0.2],[0.125,-0.2]]",-0.089814815,-0.149074074,1,0,0,2.066,o1_image,632.178,1,632.676,632.677,634.677,0,0,0,0,1,,,,,,,,,,,,,,,,,,,,,,,,,,,,,,,,,,,,,,,,,,,,,,,,,,
,,5f47cdcb9603e31f7f6a7dbd,19,male,2024-04-19_19h15.00.985,stockport_simplified,2022.2.4,Win32,60.0240096,661e456ee6de07e70aa9ef7b,66229da2b0b345de2f9fedd4,,,,,,,,,,,,,,,,,,,,,,,,,,,,,,,,,,,,,,,,,,,,,,,,,,,,,,,,1,35,95,53,1,N,M,C,o1_image,stimuli/out1.png,stimuli/correct_out1.png,stimuli/out2.png,,,,,,,,,,,,,,,,,,,,,,,,,,,,,,,,,,,,,,
,,5f47cdcb9603e31f7f6a7dbd,19,male,2024-04-19_19h15.00.985,stockport_simplified,2022.2.4,Win32,60.0240096,661e456ee6de07e70aa9ef7b,66229da2b0b345de2f9fedd4,,,,,,,,,,,,,,,,,,,,,,,,,,,,,,,,,,634.677,638.876,"[4,7,3,2,6,1,5,8]","[[-0.3,0.2],[0.3,0.2]]","[[0.125,-0.2],[-0.125,-0.2]]",0.069444444,-0.193518519,1,0,0,3.696,o1_image,638.877,1,639.376,639.376,641.376,0,0,0,0,1,,,,,,,,,,,,,,,,,,,,,,,,,,,,,,,,,,,,,,,,,,,,,,,,,,
,,5f47cdcb9603e31f7f6a7dbd,19,male,2024-04-19_19h15.00.985,stockport_simplified,2022.2.4,Win32,60.0240096,661e456ee6de07e70aa9ef7b,66229da2b0b345de2f9fedd4,,,,,,,,,,,,,,,,,,,,,,,,,,,,,,,,,,,,,,,,,,,,,,,,,,,,,,,,1,36,96,4,1,A,X,N,o1_image,stimuli/out1.png,stimuli/correct_out1.png,stimuli/out2.png,,,,,,,,,,,,,,,,,,,,,,,,,,,,,,,,,,,,,,
,,5f47cdcb9603e31f7f6a7dbd,19,male,2024-04-19_19h15.00.985,stockport_simplified,2022.2.4,Win32,60.0240096,661e456ee6de07e70aa9ef7b,66229da2b0b345de2f9fedd4,,,,,,,,,,,,,,,,,,,,,,,,,,,,,,,,,,641.376,644.826,"[4,7,3,2,6,1,5,8]","[[-0.3,0.2],[0.3,0.2]]","[[-0.125,-0.2],[0.125,-0.2]]",0.137962963,-0.150925926,1,0,0,2.932,o2_image,644.827,1,645.326,645.326,647.326,0,0,0,0,1,,,,,,,,,,,,,,,,,,,,,,,,,,,,,,,,,,,,,,,,,,,,,,,,,,
,,5f47cdcb9603e31f7f6a7dbd,19,male,2024-04-19_19h15.00.985,stockport_simplified,2022.2.4,Win32,60.0240096,661e456ee6de07e70aa9ef7b,66229da2b0b345de2f9fedd4,,,,,,,,,,,,,,,,,,,,,,,,,,,,,,,,,,,,,,,,,,,,,,,,,,,,,,,,1,37,97,49,1,B,Y,N,o2_image,stimuli/out2.png,stimuli/out1.png,stimuli/correct_out2.png,,,,,,,,,,,,,,,,,,,,,,,,,,,,,,,,,,,,,,
,,5f47cdcb9603e31f7f6a7dbd,19,male,2024-04-19_19h15.00.985,stockport_simplified,2022.2.4,Win32,60.0240096,661e456ee6de07e70aa9ef7b,66229da2b0b345de2f9fedd4,,,,,,,,,,,,,,,,,,,,,,,,,,,,,,,,,,647.327,649.577,"[4,7,3,2,6,1,5,8]","[[0.3,0.2],[-0.3,0.2]]","[[-0.125,-0.2],[0.125,-0.2]]",-0.163888889,-0.207407407,1,0,0,1.733,o1_image,649.577,1,650.076,650.076,652.076,0,0,0,0,1,,,,,,,,,,,,,,,,,,,,,,,,,,,,,,,,,,,,,,,,,,,,,,,,,,
,,5f47cdcb9603e31f7f6a7dbd,19,male,2024-04-19_19h15.00.985,stockport_simplified,2022.2.4,Win32,60.0240096,661e456ee6de07e70aa9ef7b,66229da2b0b345de2f9fedd4,,,,,,,,,,,,,,,,,,,,,,,,,,,,,,,,,,,,,,,,,,,,,,,,,,,,,,,,1,38,98,32,1,A,X,N,o1_image,stimuli/out1.png,stimuli/correct_out1.png,stimuli/out2.png,,,,,,,,,,,,,,,,,,,,,,,,,,,,,,,,,,,,,,
,,5f47cdcb9603e31f7f6a7dbd,19,male,2024-04-19_19h15.00.985,stockport_simplified,2022.2.4,Win32,60.0240096,661e456ee6de07e70aa9ef7b,66229da2b0b345de2f9fedd4,,,,,,,,,,,,,,,,,,,,,,,,,,,,,,,,,,652.076,654.326,"[4,7,3,2,6,1,5,8]","[[0.3,0.2],[-0.3,0.2]]","[[-0.125,-0.2],[0.125,-0.2]]",0.097222222,-0.141666667,1,0,0,1.749,o2_image,654.327,1,654.826,654.826,656.826,0,0,0,0,1,,,,,,,,,,,,,,,,,,,,,,,,,,,,,,,,,,,,,,,,,,,,,,,,,,
,,5f47cdcb9603e31f7f6a7dbd,19,male,2024-04-19_19h15.00.985,stockport_simplified,2022.2.4,Win32,60.0240096,661e456ee6de07e70aa9ef7b,66229da2b0b345de2f9fedd4,,,,,,,,,,,,,,,,,,,,,,,,,,,,,,,,,,,,,,,,,,,,,,,,,,,,,,,,1,39,99,45,1,B,Y,N,o2_image,stimuli/out2.png,stimuli/out1.png,stimuli/correct_out2.png,,,,,,,,,,,,,,,,,,,,,,,,,,,,,,,,,,,,,,
,,5f47cdcb9603e31f7f6a7dbd,19,male,2024-04-19_19h15.00.985,stockport_simplified,2022.2.4,Win32,60.0240096,661e456ee6de07e70aa9ef7b,66229da2b0b345de2f9fedd4,,,,,,,,,,,,,,,,,,,,,,,,,,,,,,,,,,656.826,660.892,"[4,7,3,2,6,1,5,8]","[[0.3,0.2],[-0.3,0.2]]","[[0.125,-0.2],[-0.125,-0.2]]",-0.163888889,-0.161111111,1,0,0,3.55,o2_image,660.894,1,661.393,661.394,663.393,0,0,0,0,1,,,,,,,,,,,,,,,,,,,,,,,,,,,,,,,,,,,,,,,,,,,,,,,,,,
,,5f47cdcb9603e31f7f6a7dbd,19,male,2024-04-19_19h15.00.985,stockport_simplified,2022.2.4,Win32,60.0240096,661e456ee6de07e70aa9ef7b,66229da2b0b345de2f9fedd4,,,,,,,,,,,,,,,,,,,,,,,,,,,,,,,,,,,,,,,,,,,,,,,,,,,,,,,,1,40,100,48,1,B,Y,N,o2_image,stimuli/out2.png,stimuli/out1.png,stimuli/correct_out2.png,,,,,,,,,,,,,,,,,,,,,,,,,,,,,,,,,,,,,,
,,5f47cdcb9603e31f7f6a7dbd,19,male,2024-04-19_19h15.00.985,stockport_simplified,2022.2.4,Win32,60.0240096,661e456ee6de07e70aa9ef7b,66229da2b0b345de2f9fedd4,,,,,,,,,,,,,,,,,,,,,,,,,,,,,,,,,,663.396,664.777,"[4,7,3,2,6,1,5,8]","[[-0.3,0.2],[0.3,0.2]]","[[-0.125,-0.2],[0.125,-0.2]]",-0.092592593,-0.182407407,1,0,0,0.865,o1_image,664.777,1,665.277,665.277,667.276,0,0,0,0,1,,,,,,,,,,,,,,,,,,,,,,,,,,,,,,,,,,,,,,,,,,,,,,,,,,
,,5f47cdcb9603e31f7f6a7dbd,19,male,2024-04-19_19h15.00.985,stockport_simplified,2022.2.4,Win32,60.0240096,661e456ee6de07e70aa9ef7b,66229da2b0b345de2f9fedd4,,,,,,,,,,,,,,,,,,,,,,,,,,,,,,,,,,,,,,,,,,,,,,,,,,,,,,,,1,41,101,54,1,N,M,C,o1_image,stimuli/out1.png,stimuli/correct_out1.png,stimuli/out2.png,,,,,,,,,,,,,,,,,,,,,,,,,,,,,,,,,,,,,,
,,5f47cdcb9603e31f7f6a7dbd,19,male,2024-04-19_19h15.00.985,stockport_simplified,2022.2.4,Win32,60.0240096,661e456ee6de07e70aa9ef7b,66229da2b0b345de2f9fedd4,,,,,,,,,,,,,,,,,,,,,,,,,,,,,,,,,,667.277,670.159,"[4,7,3,2,6,1,5,8]","[[-0.3,0.2],[0.3,0.2]]","[[0.125,-0.2],[-0.125,-0.2]]",0.081481481,-0.200925926,1,0,0,2.366,o1_image,670.16,1,670.659,670.659,672.659,0,0,0,0,1,,,,,,,,,,,,,,,,,,,,,,,,,,,,,,,,,,,,,,,,,,,,,,,,,,
,,5f47cdcb9603e31f7f6a7dbd,19,male,2024-04-19_19h15.00.985,stockport_simplified,2022.2.4,Win32,60.0240096,661e456ee6de07e70aa9ef7b,66229da2b0b345de2f9fedd4,,,,,,,,,,,,,,,,,,,,,,,,,,,,,,,,,,,,,,,,,,,,,,,,,,,,,,,,1,42,102,2,1,A,X,N,o1_image,stimuli/out1.png,stimuli/correct_out1.png,stimuli/out2.png,,,,,,,,,,,,,,,,,,,,,,,,,,,,,,,,,,,,,,
,,5f47cdcb9603e31f7f6a7dbd,19,male,2024-04-19_19h15.00.985,stockport_simplified,2022.2.4,Win32,60.0240096,661e456ee6de07e70aa9ef7b,66229da2b0b345de2f9fedd4,,,,,,,,,,,,,,,,,,,,,,,,,,,,,,,,,,672.66,674.476,"[4,7,3,2,6,1,5,8]","[[-0.3,0.2],[0.3,0.2]]","[[-0.125,-0.2],[0.125,-0.2]]",0.175,-0.22962963,1,0,0,1.3,o2_image,674.478,1,674.976,674.976,676.975,0,0,0,0,1,,,,,,,,,,,,,,,,,,,,,,,,,,,,,,,,,,,,,,,,,,,,,,,,,,
,,5f47cdcb9603e31f7f6a7dbd,19,male,2024-04-19_19h15.00.985,stockport_simplified,2022.2.4,Win32,60.0240096,661e456ee6de07e70aa9ef7b,66229da2b0b345de2f9fedd4,,,,,,,,,,,,,,,,,,,,,,,,,,,,,,,,,,,,,,,,,,,,,,,,,,,,,,,,1,43,103,12,1,B,X,N,o2_image,stimuli/out2.png,stimuli/out1.png,stimuli/correct_out2.png,,,,,,,,,,,,,,,,,,,,,,,,,,,,,,,,,,,,,,
,,5f47cdcb9603e31f7f6a7dbd,19,male,2024-04-19_19h15.00.985,stockport_simplified,2022.2.4,Win32,60.0240096,661e456ee6de07e70aa9ef7b,66229da2b0b345de2f9fedd4,,,,,,,,,,,,,,,,,,,,,,,,,,,,,,,,,,676.976,678.843,"[4,7,3,2,6,1,5,8]","[[-0.3,0.2],[0.3,0.2]]","[[0.125,-0.2],[-0.125,-0.2]]",0.123148148,-0.176851852,1,0,0,1.366,o1_image,678.844,1,679.343,679.343,681.343,0,0,0,0,1,,,,,,,,,,,,,,,,,,,,,,,,,,,,,,,,,,,,,,,,,,,,,,,,,,
,,5f47cdcb9603e31f7f6a7dbd,19,male,2024-04-19_19h15.00.985,stockport_simplified,2022.2.4,Win32,60.0240096,661e456ee6de07e70aa9ef7b,66229da2b0b345de2f9fedd4,,,,,,,,,,,,,,,,,,,,,,,,,,,,,,,,,,,,,,,,,,,,,,,,,,,,,,,,1,44,104,1,1,A,X,N,o1_image,stimuli/out1.png,stimuli/correct_out1.png,stimuli/out2.png,,,,,,,,,,,,,,,,,,,,,,,,,,,,,,,,,,,,,,
,,5f47cdcb9603e31f7f6a7dbd,19,male,2024-04-19_19h15.00.985,stockport_simplified,2022.2.4,Win32,60.0240096,661e456ee6de07e70aa9ef7b,66229da2b0b345de2f9fedd4,,,,,,,,,,,,,,,,,,,,,,,,,,,,,,,,,,681.343,683.443,"[4,7,3,2,6,1,5,8]","[[0.3,0.2],[-0.3,0.2]]","[[0.125,-0.2],[-0.125,-0.2]]",0.09537037,-0.148148148,1,0,0,1.584,o1_image,683.445,1,683.943,683.943,685.942,0,0,0,0,1,,,,,,,,,,,,,,,,,,,,,,,,,,,,,,,,,,,,,,,,,,,,,,,,,,
,,5f47cdcb9603e31f7f6a7dbd,19,male,2024-04-19_19h15.00.985,stockport_simplified,2022.2.4,Win32,60.0240096,661e456ee6de07e70aa9ef7b,66229da2b0b345de2f9fedd4,,,,,,,,,,,,,,,,,,,,,,,,,,,,,,,,,,,,,,,,,,,,,,,,,,,,,,,,1,45,105,9,1,A,Y,N,o1_image,stimuli/out1.png,stimuli/correct_out1.png,stimuli/out2.png,,,,,,,,,,,,,,,,,,,,,,,,,,,,,,,,,,,,,,
,,5f47cdcb9603e31f7f6a7dbd,19,male,2024-04-19_19h15.00.985,stockport_simplified,2022.2.4,Win32,60.0240096,661e456ee6de07e70aa9ef7b,66229da2b0b345de2f9fedd4,,,,,,,,,,,,,,,,,,,,,,,,,,,,,,,,,,685.943,687.893,"[4,7,3,2,6,1,5,8]","[[0.3,0.2],[-0.3,0.2]]","[[-0.125,-0.2],[0.125,-0.2]]",0.05462963,-0.162962963,1,0,0,1.432,o2_image,687.893,1,688.393,688.393,690.392,0,0,0,0,1,,,,,,,,,,,,,,,,,,,,,,,,,,,,,,,,,,,,,,,,,,,,,,,,,,
,,5f47cdcb9603e31f7f6a7dbd,19,male,2024-04-19_19h15.00.985,stockport_simplified,2022.2.4,Win32,60.0240096,661e456ee6de07e70aa9ef7b,66229da2b0b345de2f9fedd4,,,,,,,,,,,,,,,,,,,,,,,,,,,,,,,,,,,,,,,,,,,,,,,,,,,,,,,,1,46,106,15,1,B,Y,N,o2_image,stimuli/out2.png,stimuli/out1.png,stimuli/correct_out2.png,,,,,,,,,,,,,,,,,,,,,,,,,,,,,,,,,,,,,,
,,5f47cdcb9603e31f7f6a7dbd,19,male,2024-04-19_19h15.00.985,stockport_simplified,2022.2.4,Win32,60.0240096,661e456ee6de07e70aa9ef7b,66229da2b0b345de2f9fedd4,,,,,,,,,,,,,,,,,,,,,,,,,,,,,,,,,,690.393,692.526,"[4,7,3,2,6,1,5,8]","[[0.3,0.2],[-0.3,0.2]]","[[-0.125,-0.2],[0.125,-0.2]]",0.182407407,-0.198148148,1,0,0,1.616,o2_image,692.528,1,693.026,693.026,695.026,0,0,0,0,1,,,,,,,,,,,,,,,,,,,,,,,,,,,,,,,,,,,,,,,,,,,,,,,,,,
,,5f47cdcb9603e31f7f6a7dbd,19,male,2024-04-19_19h15.00.985,stockport_simplified,2022.2.4,Win32,60.0240096,661e456ee6de07e70aa9ef7b,66229da2b0b345de2f9fedd4,,,,,,,,,,,,,,,,,,,,,,,,,,,,,,,,,,,,,,,,,,,,,,,,,,,,,,,,1,47,107,44,1,B,X,N,o2_image,stimuli/out2.png,stimuli/out1.png,stimuli/correct_out2.png,,,,,,,,,,,,,,,,,,,,,,,,,,,,,,,,,,,,,,
,,5f47cdcb9603e31f7f6a7dbd,19,male,2024-04-19_19h15.00.985,stockport_simplified,2022.2.4,Win32,60.0240096,661e456ee6de07e70aa9ef7b,66229da2b0b345de2f9fedd4,,,,,,,,,,,,,,,,,,,,,,,,,,,,,,,,,,695.027,700.544,"[4,7,3,2,6,1,5,8]","[[-0.3,0.2],[0.3,0.2]]","[[0.125,-0.2],[-0.125,-0.2]]",-0.137037037,-0.161111111,1,0,0,5,o2_image,700.547,1,701.043,701.043,703.042,0,0,0,0,1,,,,,,,,,,,,,,,,,,,,,,,,,,,,,,,,,,,,,,,,,,,,,,,,,,
,,5f47cdcb9603e31f7f6a7dbd,19,male,2024-04-19_19h15.00.985,stockport_simplified,2022.2.4,Win32,60.0240096,661e456ee6de07e70aa9ef7b,66229da2b0b345de2f9fedd4,,,,,,,,,,,,,,,,,,,,,,,,,,,,,,,,,,,,,,,,,,,,,,,,,,,,,,,,1,48,108,47,1,B,Y,N,o2_image,stimuli/out2.png,stimuli/out1.png,stimuli/correct_out2.png,,,,,,,,,,,,,,,,,,,,,,,,,,,,,,,,,,,,,,
,,5f47cdcb9603e31f7f6a7dbd,19,male,2024-04-19_19h15.00.985,stockport_simplified,2022.2.4,Win32,60.0240096,661e456ee6de07e70aa9ef7b,66229da2b0b345de2f9fedd4,,,,,,,,,,,,,,,,,,,,,,,,,,,,,,,,,,703.043,705.526,"[4,7,3,2,6,1,5,8]","[[-0.3,0.2],[0.3,0.2]]","[[0.125,-0.2],[-0.125,-0.2]]",-0.098148148,-0.198148148,1,0,0,1.966,o2_image,705.528,1,706.026,706.026,708.026,0,0,0,0,1,,,,,,,,,,,,,,,,,,,,,,,,,,,,,,,,,,,,,,,,,,,,,,,,,,
,,5f47cdcb9603e31f7f6a7dbd,19,male,2024-04-19_19h15.00.985,stockport_simplified,2022.2.4,Win32,60.0240096,661e456ee6de07e70aa9ef7b,66229da2b0b345de2f9fedd4,,,,,,,,,,,,,,,,,,,,,,,,,,,,,,,,,,,,,,,,,,,,,,,,,,,,,,,,1,49,109,42,1,B,X,N,o2_image,stimuli/out2.png,stimuli/out1.png,stimuli/correct_out2.png,,,,,,,,,,,,,,,,,,,,,,,,,,,,,,,,,,,,,,
,,5f47cdcb9603e31f7f6a7dbd,19,male,2024-04-19_19h15.00.985,stockport_simplified,2022.2.4,Win32,60.0240096,661e456ee6de07e70aa9ef7b,66229da2b0b345de2f9fedd4,,,,,,,,,,,,,,,,,,,,,,,,,,,,,,,,,,708.027,709.36,"[4,7,3,2,6,1,5,8]","[[0.3,0.2],[-0.3,0.2]]","[[-0.125,-0.2],[0.125,-0.2]]",-0.07037037,-0.181481481,1,0,0,0.816,o1_image,709.36,1,709.86,709.86,711.859,0,0,0,0,1,,,,,,,,,,,,,,,,,,,,,,,,,,,,,,,,,,,,,,,,,,,,,,,,,,
,,5f47cdcb9603e31f7f6a7dbd,19,male,2024-04-19_19h15.00.985,stockport_simplified,2022.2.4,Win32,60.0240096,661e456ee6de07e70aa9ef7b,66229da2b0b345de2f9fedd4,,,,,,,,,,,,,,,,,,,,,,,,,,,,,,,,,,,,,,,,,,,,,,,,,,,,,,,,1,50,110,21,1,N,M,C,o1_image,stimuli/out1.png,stimuli/correct_out1.png,stimuli/out2.png,,,,,,,,,,,,,,,,,,,,,,,,,,,,,,,,,,,,,,
,,5f47cdcb9603e31f7f6a7dbd,19,male,2024-04-19_19h15.00.985,stockport_simplified,2022.2.4,Win32,60.0240096,661e456ee6de07e70aa9ef7b,66229da2b0b345de2f9fedd4,,,,,,,,,,,,,,,,,,,,,,,,,,,,,,,,,,711.86,713.609,"[4,7,3,2,6,1,5,8]","[[0.3,0.2],[-0.3,0.2]]","[[-0.125,-0.2],[0.125,-0.2]]",-0.092592593,-0.185185185,1,0,0,1.232,o1_image,713.61,1,714.109,714.109,716.109,0,0,0,0,1,,,,,,,,,,,,,,,,,,,,,,,,,,,,,,,,,,,,,,,,,,,,,,,,,,
,,5f47cdcb9603e31f7f6a7dbd,19,male,2024-04-19_19h15.00.985,stockport_simplified,2022.2.4,Win32,60.0240096,661e456ee6de07e70aa9ef7b,66229da2b0b345de2f9fedd4,,,,,,,,,,,,,,,,,,,,,,,,,,,,,,,,,,,,,,,,,,,,,,,,,,,,,,,,1,51,111,3,1,A,X,N,o1_image,stimuli/out1.png,stimuli/correct_out1.png,stimuli/out2.png,,,,,,,,,,,,,,,,,,,,,,,,,,,,,,,,,,,,,,
,,5f47cdcb9603e31f7f6a7dbd,19,male,2024-04-19_19h15.00.985,stockport_simplified,2022.2.4,Win32,60.0240096,661e456ee6de07e70aa9ef7b,66229da2b0b345de2f9fedd4,,,,,,,,,,,,,,,,,,,,,,,,,,,,,,,,,,716.11,717.493,"[4,7,3,2,6,1,5,8]","[[0.3,0.2],[-0.3,0.2]]","[[0.125,-0.2],[-0.125,-0.2]]",0.109259259,-0.185185185,1,0,0,0.866,o1_image,717.495,1,717.993,717.994,719.992,0,0,0,0,1,,,,,,,,,,,,,,,,,,,,,,,,,,,,,,,,,,,,,,,,,,,,,,,,,,
,,5f47cdcb9603e31f7f6a7dbd,19,male,2024-04-19_19h15.00.985,stockport_simplified,2022.2.4,Win32,60.0240096,661e456ee6de07e70aa9ef7b,66229da2b0b345de2f9fedd4,,,,,,,,,,,,,,,,,,,,,,,,,,,,,,,,,,,,,,,,,,,,,,,,,,,,,,,,1,52,112,52,1,N,M,C,o1_image,stimuli/out1.png,stimuli/correct_out1.png,stimuli/out2.png,,,,,,,,,,,,,,,,,,,,,,,,,,,,,,,,,,,,,,
,,5f47cdcb9603e31f7f6a7dbd,19,male,2024-04-19_19h15.00.985,stockport_simplified,2022.2.4,Win32,60.0240096,661e456ee6de07e70aa9ef7b,66229da2b0b345de2f9fedd4,,,,,,,,,,,,,,,,,,,,,,,,,,,,,,,,,,719.993,721.526,"[4,7,3,2,6,1,5,8]","[[0.3,0.2],[-0.3,0.2]]","[[-0.125,-0.2],[0.125,-0.2]]",-0.130555556,-0.172222222,1,0,0,1.016,o1_image,721.527,1,722.026,722.026,724.026,0,0,0,0,1,,,,,,,,,,,,,,,,,,,,,,,,,,,,,,,,,,,,,,,,,,,,,,,,,,
,,5f47cdcb9603e31f7f6a7dbd,19,male,2024-04-19_19h15.00.985,stockport_simplified,2022.2.4,Win32,60.0240096,661e456ee6de07e70aa9ef7b,66229da2b0b345de2f9fedd4,,,,,,,,,,,,,,,,,,,,,,,,,,,,,,,,,,,,,,,,,,,,,,,,,,,,,,,,1,53,113,20,1,N,M,C,o1_image,stimuli/out1.png,stimuli/correct_out1.png,stimuli/out2.png,,,,,,,,,,,,,,,,,,,,,,,,,,,,,,,,,,,,,,
,,5f47cdcb9603e31f7f6a7dbd,19,male,2024-04-19_19h15.00.985,stockport_simplified,2022.2.4,Win32,60.0240096,661e456ee6de07e70aa9ef7b,66229da2b0b345de2f9fedd4,,,,,,,,,,,,,,,,,,,,,,,,,,,,,,,,,,724.027,725.927,"[4,7,3,2,6,1,5,8]","[[0.3,0.2],[-0.3,0.2]]","[[-0.125,-0.2],[0.125,-0.2]]",0.101851852,-0.178703704,1,0,0,1.383,o2_image,725.928,1,726.426,726.426,728.426,0,0,0,0,1,,,,,,,,,,,,,,,,,,,,,,,,,,,,,,,,,,,,,,,,,,,,,,,,,,
,,5f47cdcb9603e31f7f6a7dbd,19,male,2024-04-19_19h15.00.985,stockport_simplified,2022.2.4,Win32,60.0240096,661e456ee6de07e70aa9ef7b,66229da2b0b345de2f9fedd4,,,,,,,,,,,,,,,,,,,,,,,,,,,,,,,,,,,,,,,,,,,,,,,,,,,,,,,,1,54,114,41,1,B,X,N,o2_image,stimuli/out2.png,stimuli/out1.png,stimuli/correct_out2.png,,,,,,,,,,,,,,,,,,,,,,,,,,,,,,,,,,,,,,
,,5f47cdcb9603e31f7f6a7dbd,19,male,2024-04-19_19h15.00.985,stockport_simplified,2022.2.4,Win32,60.0240096,661e456ee6de07e70aa9ef7b,66229da2b0b345de2f9fedd4,,,,,,,,,,,,,,,,,,,,,,,,,,,,,,,,,,728.426,730.959,"[4,7,3,2,6,1,5,8]","[[-0.3,0.2],[0.3,0.2]]","[[0.125,-0.2],[-0.125,-0.2]]",0.183333333,-0.216666667,1,0,0,2.016,o1_image,730.963,1,731.46,731.46,733.459,0,0,0,0,1,,,,,,,,,,,,,,,,,,,,,,,,,,,,,,,,,,,,,,,,,,,,,,,,,,
,,5f47cdcb9603e31f7f6a7dbd,19,male,2024-04-19_19h15.00.985,stockport_simplified,2022.2.4,Win32,60.0240096,661e456ee6de07e70aa9ef7b,66229da2b0b345de2f9fedd4,,,,,,,,,,,,,,,,,,,,,,,,,,,,,,,,,,,,,,,,,,,,,,,,,,,,,,,,1,55,115,0,1,A,X,N,o1_image,stimuli/out1.png,stimuli/correct_out1.png,stimuli/out2.png,,,,,,,,,,,,,,,,,,,,,,,,,,,,,,,,,,,,,,
,,5f47cdcb9603e31f7f6a7dbd,19,male,2024-04-19_19h15.00.985,stockport_simplified,2022.2.4,Win32,60.0240096,661e456ee6de07e70aa9ef7b,66229da2b0b345de2f9fedd4,,,,,,,,,,,,,,,,,,,,,,,,,,,,,,,,,,733.46,736.592,"[4,7,3,2,6,1,5,8]","[[0.3,0.2],[-0.3,0.2]]","[[-0.125,-0.2],[0.125,-0.2]]",-0.125925926,-0.206481481,1,0,0,2.616,o1_image,736.593,1,737.092,737.092,739.092,0,0,0,0,1,,,,,,,,,,,,,,,,,,,,,,,,,,,,,,,,,,,,,,,,,,,,,,,,,,
,,5f47cdcb9603e31f7f6a7dbd,19,male,2024-04-19_19h15.00.985,stockport_simplified,2022.2.4,Win32,60.0240096,661e456ee6de07e70aa9ef7b,66229da2b0b345de2f9fedd4,,,,,,,,,,,,,,,,,,,,,,,,,,,,,,,,,,,,,,,,,,,,,,,,,,,,,,,,1,56,116,35,1,A,Y,N,o1_image,stimuli/out1.png,stimuli/correct_out1.png,stimuli/out2.png,,,,,,,,,,,,,,,,,,,,,,,,,,,,,,,,,,,,,,
,,5f47cdcb9603e31f7f6a7dbd,19,male,2024-04-19_19h15.00.985,stockport_simplified,2022.2.4,Win32,60.0240096,661e456ee6de07e70aa9ef7b,66229da2b0b345de2f9fedd4,,,,,,,,,,,,,,,,,,,,,,,,,,,,,,,,,,739.093,742.21,"[4,7,3,2,6,1,5,8]","[[0.3,0.2],[-0.3,0.2]]","[[0.125,-0.2],[-0.125,-0.2]]",0.108333333,-0.192592593,1,0,0,2.617,o1_image,742.211,1,742.709,742.709,744.709,0,0,0,0,1,,,,,,,,,,,,,,,,,,,,,,,,,,,,,,,,,,,,,,,,,,,,,,,,,,
,,5f47cdcb9603e31f7f6a7dbd,19,male,2024-04-19_19h15.00.985,stockport_simplified,2022.2.4,Win32,60.0240096,661e456ee6de07e70aa9ef7b,66229da2b0b345de2f9fedd4,,,,,,,,,,,,,,,,,,,,,,,,,,,,,,,,,,,,,,,,,,,,,,,,,,,,,,,,1,57,117,38,1,A,Y,N,o1_image,stimuli/out1.png,stimuli/correct_out1.png,stimuli/out2.png,,,,,,,,,,,,,,,,,,,,,,,,,,,,,,,,,,,,,,
,,5f47cdcb9603e31f7f6a7dbd,19,male,2024-04-19_19h15.00.985,stockport_simplified,2022.2.4,Win32,60.0240096,661e456ee6de07e70aa9ef7b,66229da2b0b345de2f9fedd4,,,,,,,,,,,,,,,,,,,,,,,,,,,,,,,,,,744.71,747.059,"[4,7,3,2,6,1,5,8]","[[-0.3,0.2],[0.3,0.2]]","[[0.125,-0.2],[-0.125,-0.2]]",-0.111111111,-0.168518519,1,0,0,1.832,o2_image,747.06,1,747.559,747.559,749.559,0,0,0,0,1,,,,,,,,,,,,,,,,,,,,,,,,,,,,,,,,,,,,,,,,,,,,,,,,,,
,,5f47cdcb9603e31f7f6a7dbd,19,male,2024-04-19_19h15.00.985,stockport_simplified,2022.2.4,Win32,60.0240096,661e456ee6de07e70aa9ef7b,66229da2b0b345de2f9fedd4,,,,,,,,,,,,,,,,,,,,,,,,,,,,,,,,,,,,,,,,,,,,,,,,,,,,,,,,1,58,118,27,1,N,M,D,o2_image,stimuli/out2.png,stimuli/out1.png,stimuli/correct_out2.png,,,,,,,,,,,,,,,,,,,,,,,,,,,,,,,,,,,,,,
,,5f47cdcb9603e31f7f6a7dbd,19,male,2024-04-19_19h15.00.985,stockport_simplified,2022.2.4,Win32,60.0240096,661e456ee6de07e70aa9ef7b,66229da2b0b345de2f9fedd4,,,,,,,,,,,,,,,,,,,,,,,,,,,,,,,,,,749.559,753.659,"[4,7,3,2,6,1,5,8]","[[0.3,0.2],[-0.3,0.2]]","[[0.125,-0.2],[-0.125,-0.2]]",-0.139814815,-0.182407407,1,0,0,3.584,o2_image,753.661,1,754.159,754.159,756.159,0,0,0,0,1,,,,,,,,,,,,,,,,,,,,,,,,,,,,,,,,,,,,,,,,,,,,,,,,,,
,,5f47cdcb9603e31f7f6a7dbd,19,male,2024-04-19_19h15.00.985,stockport_simplified,2022.2.4,Win32,60.0240096,661e456ee6de07e70aa9ef7b,66229da2b0b345de2f9fedd4,,,,,,,,,,,,,,,,,,,,,,,,,,,,,,,,,,,,,,,,,,,,,,,,,,,,,,,,1,59,119,57,1,N,M,D,o2_image,stimuli/out2.png,stimuli/out1.png,stimuli/correct_out2.png,,,,,,,,,,,,,,,,,,,,,,,,,,,,,,,,,,,,,,
,,5f47cdcb9603e31f7f6a7dbd,19,male,2024-04-19_19h15.00.985,stockport_simplified,2022.2.4,Win32,60.0240096,661e456ee6de07e70aa9ef7b,66229da2b0b345de2f9fedd4,,,,,,,,,,,,,,,,,,,,,,,,,,,,,,,,,,756.168,757.426,"[4,7,3,2,6,1,5,8]","[[0.3,0.2],[-0.3,0.2]]","[[-0.125,-0.2],[0.125,-0.2]]",0.071296296,-0.184259259,1,0,0,0.749,o2_image,757.427,1,757.926,757.926,759.926,,,,,,,,,,,,,,,,,,0,0,0,0,1,,,,,,,,,,,,,,,,,,,,,,,,,,,,,,,,,
,,5f47cdcb9603e31f7f6a7dbd,19,male,2024-04-19_19h15.00.985,stockport_simplified,2022.2.4,Win32,60.0240096,661e456ee6de07e70aa9ef7b,66229da2b0b345de2f9fedd4,,,,,,,,,,,,,,,,,,,,,,,,,,,,,,,,,,,,,,,,,,,,,,,,,,,,,,,,,,,,,N,M,D,o2_image,stimuli/out2.png,stimuli/out1.png,stimuli/correct_out2.png,,,,,,0,0,0,53,1,,,,,,,,,,,,,,,,,,,,,,,,,,,,
,,5f47cdcb9603e31f7f6a7dbd,19,male,2024-04-19_19h15.00.985,stockport_simplified,2022.2.4,Win32,60.0240096,661e456ee6de07e70aa9ef7b,66229da2b0b345de2f9fedd4,,,,,,,,,,,,,,,,,,,,,,,,,,,,,,,,,,759.927,761.21,"[4,7,3,2,6,1,5,8]","[[0.3,0.2],[-0.3,0.2]]","[[0.125,-0.2],[-0.125,-0.2]]",0.194444444,-0.178703704,1,0,0,0.767,o1_image,761.211,1,761.709,761.709,763.71,,,,,,,,,,,,,,,,,,0,0,0,0,1,,,,,,,,,,,,,,,,,,,,,,,,,,,,,,,,,
,,5f47cdcb9603e31f7f6a7dbd,19,male,2024-04-19_19h15.00.985,stockport_simplified,2022.2.4,Win32,60.0240096,661e456ee6de07e70aa9ef7b,66229da2b0b345de2f9fedd4,,,,,,,,,,,,,,,,,,,,,,,,,,,,,,,,,,,,,,,,,,,,,,,,,,,,,,,,,,,,,N,M,C,o1_image,stimuli/out1.png,stimuli/correct_out1.png,stimuli/out2.png,,,,,,0,1,1,44,1,,,,,,,,,,,,,,,,,,,,,,,,,,,,
,,5f47cdcb9603e31f7f6a7dbd,19,male,2024-04-19_19h15.00.985,stockport_simplified,2022.2.4,Win32,60.0240096,661e456ee6de07e70aa9ef7b,66229da2b0b345de2f9fedd4,,,,,,,,,,,,,,,,,,,,,,,,,,,,,,,,,,763.712,765.042,"[4,7,3,2,6,1,5,8]","[[0.3,0.2],[-0.3,0.2]]","[[-0.125,-0.2],[0.125,-0.2]]",0.168518519,-0.211111111,1,0,0,0.815,o2_image,765.044,1,765.542,765.542,767.543,,,,,,,,,,,,,,,,,,0,0,0,0,1,,,,,,,,,,,,,,,,,,,,,,,,,,,,,,,,,
,,5f47cdcb9603e31f7f6a7dbd,19,male,2024-04-19_19h15.00.985,stockport_simplified,2022.2.4,Win32,60.0240096,661e456ee6de07e70aa9ef7b,66229da2b0b345de2f9fedd4,,,,,,,,,,,,,,,,,,,,,,,,,,,,,,,,,,,,,,,,,,,,,,,,,,,,,,,,,,,,,N,M,D,o2_image,stimuli/out2.png,stimuli/out1.png,stimuli/correct_out2.png,,,,,,0,2,2,59,1,,,,,,,,,,,,,,,,,,,,,,,,,,,,
,,5f47cdcb9603e31f7f6a7dbd,19,male,2024-04-19_19h15.00.985,stockport_simplified,2022.2.4,Win32,60.0240096,661e456ee6de07e70aa9ef7b,66229da2b0b345de2f9fedd4,,,,,,,,,,,,,,,,,,,,,,,,,,,,,,,,,,767.543,769.393,"[4,7,3,2,6,1,5,8]","[[0.3,0.2],[-0.3,0.2]]","[[0.125,-0.2],[-0.125,-0.2]]",-0.042592593,-0.253703704,1,0,0,1,o2_image,769.394,1,769.893,769.893,771.892,,,,,,,,,,,,,,,,,,0,0,0,0,1,,,,,,,,,,,,,,,,,,,,,,,,,,,,,,,,,
,,5f47cdcb9603e31f7f6a7dbd,19,male,2024-04-19_19h15.00.985,stockport_simplified,2022.2.4,Win32,60.0240096,661e456ee6de07e70aa9ef7b,66229da2b0b345de2f9fedd4,,,,,,,,,,,,,,,,,,,,,,,,,,,,,,,,,,,,,,,,,,,,,,,,,,,,,,,,,,,,,N,M,D,o2_image,stimuli/out2.png,stimuli/out1.png,stimuli/correct_out2.png,,,,,,0,3,3,57,1,,,,,,,,,,,,,,,,,,,,,,,,,,,,
,,5f47cdcb9603e31f7f6a7dbd,19,male,2024-04-19_19h15.00.985,stockport_simplified,2022.2.4,Win32,60.0240096,661e456ee6de07e70aa9ef7b,66229da2b0b345de2f9fedd4,,,,,,,,,,,,,,,,,,,,,,,,,,,,,,,,,,771.893,773.043,"[4,7,3,2,6,1,5,8]","[[0.3,0.2],[-0.3,0.2]]","[[-0.125,-0.2],[0.125,-0.2]]",-0.100925926,-0.262037037,1,0,0,0.65,o1_image,773.044,1,773.542,773.543,775.542,,,,,,,,,,,,,,,,,,0,0,0,0,1,,,,,,,,,,,,,,,,,,,,,,,,,,,,,,,,,
,,5f47cdcb9603e31f7f6a7dbd,19,male,2024-04-19_19h15.00.985,stockport_simplified,2022.2.4,Win32,60.0240096,661e456ee6de07e70aa9ef7b,66229da2b0b345de2f9fedd4,,,,,,,,,,,,,,,,,,,,,,,,,,,,,,,,,,,,,,,,,,,,,,,,,,,,,,,,,,,,,N,M,C,o1_image,stimuli/out1.png,stimuli/correct_out1.png,stimuli/out2.png,,,,,,0,4,4,43,1,,,,,,,,,,,,,,,,,,,,,,,,,,,,
,,5f47cdcb9603e31f7f6a7dbd,19,male,2024-04-19_19h15.00.985,stockport_simplified,2022.2.4,Win32,60.0240096,661e456ee6de07e70aa9ef7b,66229da2b0b345de2f9fedd4,,,,,,,,,,,,,,,,,,,,,,,,,,,,,,,,,,775.543,777.426,"[4,7,3,2,6,1,5,8]","[[-0.3,0.2],[0.3,0.2]]","[[-0.125,-0.2],[0.125,-0.2]]",-0.142592593,-0.235185185,1,0,0,1.367,o1_image,777.427,1,777.925,777.925,779.926,,,,,,,,,,,,,,,,,,0,0,0,0,1,,,,,,,,,,,,,,,,,,,,,,,,,,,,,,,,,
,,5f47cdcb9603e31f7f6a7dbd,19,male,2024-04-19_19h15.00.985,stockport_simplified,2022.2.4,Win32,60.0240096,661e456ee6de07e70aa9ef7b,66229da2b0b345de2f9fedd4,,,,,,,,,,,,,,,,,,,,,,,,,,,,,,,,,,,,,,,,,,,,,,,,,,,,,,,,,,,,,A,Y,N,o1_image,stimuli/out1.png,stimuli/correct_out1.png,stimuli/out2.png,,,,,,0,5,5,14,1,,,,,,,,,,,,,,,,,,,,,,,,,,,,
