counterbalance_2.started,counterbalance_2.stopped,participant,age,gender,date,expName,psychopyVersion,OS,frameRate,STUDY_ID,SESSION_ID,information_2.started,information_2.stopped,information_loop.thisRepN,information_loop.thisTrialN,information_loop.thisN,information_loop.thisIndex,information_loop.ran,information,consent_2.started,consent_2.stopped,slider_1.response,slider_2.response,slider_3.response,slider_4.response,slider_5.response,slider_6.response,instructions.started,instructions.stopped,task1_instr.thisRepN,task1_instr.thisTrialN,task1_instr.thisN,task1_instr.thisIndex,task1_instr.ran,task1,comprehension1_2.started,comprehension1_2.stopped,comp1_mouse.x,comp1_mouse.y,comp1_mouse.leftButton,comp1_mouse.midButton,comp1_mouse.rightButton,comp1_mouse.time,comp1_mouse.clicked_name,cue_o__trial_2.started,cue_o__trial_2.stopped,order,cue_order,out_order,cue_o_mouse.x,cue_o_mouse.y,cue_o_mouse.leftButton,cue_o_mouse.midButton,cue_o_mouse.rightButton,cue_o_mouse.time,cue_o_mouse.clicked_name,cue_selection_2.started,correct_answer,cue_selection_2.stopped,feedback_2.started,feedback_2.stopped,feedback_loop.thisRepN,feedback_loop.thisTrialN,feedback_loop.thisN,feedback_loop.thisIndex,feedback_loop.ran,stage1_trials.thisRepN,stage1_trials.thisTrialN,stage1_trials.thisN,stage1_trials.thisIndex,stage1_trials.ran,cue1,cue2,cue3,outcome,correct_out,o1_feedback,o2_feedback,stage2_feedback_loop.thisRepN,stage2_feedback_loop.thisTrialN,stage2_feedback_loop.thisN,stage2_feedback_loop.thisIndex,stage2_feedback_loop.ran,stage2_trials.thisRepN,stage2_trials.thisTrialN,stage2_trials.thisN,stage2_trials.thisIndex,stage2_trials.ran,stage3_feedback_loop.thisRepN,stage3_feedback_loop.thisTrialN,stage3_feedback_loop.thisN,stage3_feedback_loop.thisIndex,stage3_feedback_loop.ran,stage3_trials.thisRepN,stage3_trials.thisTrialN,stage3_trials.thisN,stage3_trials.thisIndex,stage3_trials.ran,debrief_2.started,debrief_2.stopped,debrief_loop.thisRepN,debrief_loop.thisTrialN,debrief_loop.thisN,debrief_loop.thisIndex,debrief_loop.ran,debrief_img,compr1_completed.thisRepN,compr1_completed.thisTrialN,compr1_completed.thisN,compr1_completed.thisIndex,compr1_completed.ran,consent_loop.thisRepN,consent_loop.thisTrialN,consent_loop.thisN,consent_loop.thisIndex,consent_loop.ran
0.0005,0.000599999,607b087e7fd80dabd1ce4e63,27,female,2024-04-16_12h22.34.383,stockport_simplified,2022.2.4,Win32,30.03003003,661e456ee6de07e70aa9ef7b,661e51002fc11d4e371ec9ca,,,,,,,,,,,,,,,,,,,,,,,,,,,,,,,,,,,,,,,,,,,,,,,,,,,,,,,,,,,,,,,,,,,,,,,,,,,,,,,,,,,,,,,,,,,,,,,,,,,,,,,,,
,,607b087e7fd80dabd1ce4e63,27,female,2024-04-16_12h22.34.383,stockport_simplified,2022.2.4,Win32,30.03003003,661e456ee6de07e70aa9ef7b,661e51002fc11d4e371ec9ca,0.012799999,14.047,0,0,0,0,1,instructions/info1.png,,,,,,,,,,,,,,,,,,,,,,,,,,,,,,,,,,,,,,,,,,,,,,,,,,,,,,,,,,,,,,,,,,,,,,,,,,,,,,,,,,,,,,,,,,,,,,,,,
,,607b087e7fd80dabd1ce4e63,27,female,2024-04-16_12h22.34.383,stockport_simplified,2022.2.4,Win32,30.03003003,661e456ee6de07e70aa9ef7b,661e51002fc11d4e371ec9ca,14.0473,278.1158,0,1,1,1,1,instructions/info2.png,,,,,,,,,,,,,,,,,,,,,,,,,,,,,,,,,,,,,,,,,,,,,,,,,,,,,,,,,,,,,,,,,,,,,,,,,,,,,,,,,,,,,,,,,,,,,,,,,
,,607b087e7fd80dabd1ce4e63,27,female,2024-04-16_12h22.34.383,stockport_simplified,2022.2.4,Win32,30.03003003,661e456ee6de07e70aa9ef7b,661e51002fc11d4e371ec9ca,278.1213,293.5491,0,2,2,2,1,instructions/info3.png,,,,,,,,,,,,,,,,,,,,,,,,,,,,,,,,,,,,,,,,,,,,,,,,,,,,,,,,,,,,,,,,,,,,,,,,,,,,,,,,,,,,,,,,,,,,,,,,,
,,607b087e7fd80dabd1ce4e63,27,female,2024-04-16_12h22.34.383,stockport_simplified,2022.2.4,Win32,30.03003003,661e456ee6de07e70aa9ef7b,661e51002fc11d4e371ec9ca,,,,,,,,,293.5547,304.7497,1,1,1,1,1,1,,,,,,,,,,,,,,,,,,,,,,,,,,,,,,,,,,,,,,,,,,,,,,,,,,,,,,,,,,,,,,,,,,,,,,,,,,,,,,,,,,,,,,,,,
,,607b087e7fd80dabd1ce4e63,27,female,2024-04-16_12h22.34.383,stockport_simplified,2022.2.4,Win32,30.03003003,661e456ee6de07e70aa9ef7b,661e51002fc11d4e371ec9ca,,,,,,,,,,,,,,,,,304.758,321.0164,0,0,0,0,1,instructions/task1_1.png,,,,,,,,,,,,,,,,,,,,,,,,,,,,,,,,,,,,,,,,,,,,,,,,,,,,,,,,,,,,,,,,,,,,,,,,,,,,,,,,,
,,607b087e7fd80dabd1ce4e63,27,female,2024-04-16_12h22.34.383,stockport_simplified,2022.2.4,Win32,30.03003003,661e456ee6de07e70aa9ef7b,661e51002fc11d4e371ec9ca,,,,,,,,,,,,,,,,,321.0218,350.6831,0,1,1,1,1,instructions/task1_2.png,,,,,,,,,,,,,,,,,,,,,,,,,,,,,,,,,,,,,,,,,,,,,,,,,,,,,,,,,,,,,,,,,,,,,,,,,,,,,,,,,
,,607b087e7fd80dabd1ce4e63,27,female,2024-04-16_12h22.34.383,stockport_simplified,2022.2.4,Win32,30.03003003,661e456ee6de07e70aa9ef7b,661e51002fc11d4e371ec9ca,,,,,,,,,,,,,,,,,350.6887,363.3166,0,2,2,2,1,instructions/task1_3.png,,,,,,,,,,,,,,,,,,,,,,,,,,,,,,,,,,,,,,,,,,,,,,,,,,,,,,,,,,,,,,,,,,,,,,,,,,,,,,,,,
,,607b087e7fd80dabd1ce4e63,27,female,2024-04-16_12h22.34.383,stockport_simplified,2022.2.4,Win32,30.03003003,661e456ee6de07e70aa9ef7b,661e51002fc11d4e371ec9ca,,,,,,,,,,,,,,,,,,,,,,,,,363.3171,373.4504,-0.055349843,-0.325911079,1,0,0,10.1328,comp1_resp1,373.463,377.6838,"[8,1,2,7,3,4,5,6]","[[-0.3,0.2],[0.3,0.2]]","[[-0.125,-0.2],[0.125,-0.2]]",-0.123366086,-0.182938129,1,0,0,3.7,o1_image,377.689,1,378.1835,378.1835,380.1836,0,0,0,0,1,,,,,,,,,,,,,,,,,,,,,,,,,,,,,,,,,,,,,,,,,,,,,,,,,,
,,607b087e7fd80dabd1ce4e63,27,female,2024-04-16_12h22.34.383,stockport_simplified,2022.2.4,Win32,30.03003003,661e456ee6de07e70aa9ef7b,661e51002fc11d4e371ec9ca,,,,,,,,,,,,,,,,,,,,,,,,,,,,,,,,,,,,,,,,,,,,,,,,,,,,,,,,0,0,0,30,1,A,X,N,o1_image,stimuli/out1.png,stimuli/correct_out1.png,stimuli/out2.png,,,,,,,,,,,,,,,,,,,,,,,,,,,,,,,,,,,,,,
,,607b087e7fd80dabd1ce4e63,27,female,2024-04-16_12h22.34.383,stockport_simplified,2022.2.4,Win32,30.03003003,661e456ee6de07e70aa9ef7b,661e51002fc11d4e371ec9ca,,,,,,,,,,,,,,,,,,,,,,,,,,,,,,,,,,380.1838,382.5833,"[8,1,2,7,3,4,5,6]","[[0.3,0.2],[-0.3,0.2]]","[[0.125,-0.2],[-0.125,-0.2]]",-0.091440005,-0.191729465,1,0,0,1.8664,o2_image,382.5838,0,383.0834,383.0834,385.0832,0,0,0,0,1,,,,,,,,,,,,,,,,,,,,,,,,,,,,,,,,,,,,,,,,,,,,,,,,,,
,,607b087e7fd80dabd1ce4e63,27,female,2024-04-16_12h22.34.383,stockport_simplified,2022.2.4,Win32,30.03003003,661e456ee6de07e70aa9ef7b,661e51002fc11d4e371ec9ca,,,,,,,,,,,,,,,,,,,,,,,,,,,,,,,,,,,,,,,,,,,,,,,,,,,,,,,,0,1,1,22,1,N,M,C,o1_image,stimuli/out1.png,stimuli/correct_out1.png,stimuli/out2.png,,,,,,,,,,,,,,,,,,,,,,,,,,,,,,,,,,,,,,
,,607b087e7fd80dabd1ce4e63,27,female,2024-04-16_12h22.34.383,stockport_simplified,2022.2.4,Win32,30.03003003,661e456ee6de07e70aa9ef7b,661e51002fc11d4e371ec9ca,,,,,,,,,,,,,,,,,,,,,,,,,,,,,,,,,,385.0836,386.7167,"[8,1,2,7,3,4,5,6]","[[0.3,0.2],[-0.3,0.2]]","[[-0.125,-0.2],[0.125,-0.2]]",-0.092365515,-0.205610193,1,0,0,1.0994,o1_image,386.7171,0,387.2167,387.2167,389.2167,0,0,0,0,1,,,,,,,,,,,,,,,,,,,,,,,,,,,,,,,,,,,,,,,,,,,,,,,,,,
,,607b087e7fd80dabd1ce4e63,27,female,2024-04-16_12h22.34.383,stockport_simplified,2022.2.4,Win32,30.03003003,661e456ee6de07e70aa9ef7b,661e51002fc11d4e371ec9ca,,,,,,,,,,,,,,,,,,,,,,,,,,,,,,,,,,,,,,,,,,,,,,,,,,,,,,,,0,2,2,43,1,B,X,N,o2_image,stimuli/out2.png,stimuli/out1.png,stimuli/correct_out2.png,,,,,,,,,,,,,,,,,,,,,,,,,,,,,,,,,,,,,,
,,607b087e7fd80dabd1ce4e63,27,female,2024-04-16_12h22.34.383,stockport_simplified,2022.2.4,Win32,30.03003003,661e456ee6de07e70aa9ef7b,661e51002fc11d4e371ec9ca,,,,,,,,,,,,,,,,,,,,,,,,,,,,,,,,,,389.2169,391.4168,"[8,1,2,7,3,4,5,6]","[[-0.3,0.2],[0.3,0.2]]","[[0.125,-0.2],[-0.125,-0.2]]",-0.11503758,-0.194505502,1,0,0,1.6664,o2_image,391.4171,0,391.917,391.9171,393.9168,0,0,0,0,1,,,,,,,,,,,,,,,,,,,,,,,,,,,,,,,,,,,,,,,,,,,,,,,,,,
,,607b087e7fd80dabd1ce4e63,27,female,2024-04-16_12h22.34.383,stockport_simplified,2022.2.4,Win32,30.03003003,661e456ee6de07e70aa9ef7b,661e51002fc11d4e371ec9ca,,,,,,,,,,,,,,,,,,,,,,,,,,,,,,,,,,,,,,,,,,,,,,,,,,,,,,,,0,3,3,33,1,A,X,N,o1_image,stimuli/out1.png,stimuli/correct_out1.png,stimuli/out2.png,,,,,,,,,,,,,,,,,,,,,,,,,,,,,,,,,,,,,,
,,607b087e7fd80dabd1ce4e63,27,female,2024-04-16_12h22.34.383,stockport_simplified,2022.2.4,Win32,30.03003003,661e456ee6de07e70aa9ef7b,661e51002fc11d4e371ec9ca,,,,,,,,,,,,,,,,,,,,,,,,,,,,,,,,,,393.9171,395.7168,"[8,1,2,7,3,4,5,6]","[[-0.3,0.2],[0.3,0.2]]","[[0.125,-0.2],[-0.125,-0.2]]",-0.198322596,-0.158877971,1,0,0,1.266400001,o2_image,395.7172,0,396.2169,396.2169,398.2169,0,0,0,0,1,,,,,,,,,,,,,,,,,,,,,,,,,,,,,,,,,,,,,,,,,,,,,,,,,,
,,607b087e7fd80dabd1ce4e63,27,female,2024-04-16_12h22.34.383,stockport_simplified,2022.2.4,Win32,30.03003003,661e456ee6de07e70aa9ef7b,661e51002fc11d4e371ec9ca,,,,,,,,,,,,,,,,,,,,,,,,,,,,,,,,,,,,,,,,,,,,,,,,,,,,,,,,0,4,4,54,1,N,M,C,o1_image,stimuli/out1.png,stimuli/correct_out1.png,stimuli/out2.png,,,,,,,,,,,,,,,,,,,,,,,,,,,,,,,,,,,,,,
,,607b087e7fd80dabd1ce4e63,27,female,2024-04-16_12h22.34.383,stockport_simplified,2022.2.4,Win32,30.03003003,661e456ee6de07e70aa9ef7b,661e51002fc11d4e371ec9ca,,,,,,,,,,,,,,,,,,,,,,,,,,,,,,,,,,398.2173,400.117,"[8,1,2,7,3,4,5,6]","[[-0.3,0.2],[0.3,0.2]]","[[0.125,-0.2],[-0.125,-0.2]]",0.135743472,-0.183400958,1,0,0,1.3664,o1_image,400.1174,0,400.6168,400.6169,402.6168,0,0,0,0,1,,,,,,,,,,,,,,,,,,,,,,,,,,,,,,,,,,,,,,,,,,,,,,,,,,
,,607b087e7fd80dabd1ce4e63,27,female,2024-04-16_12h22.34.383,stockport_simplified,2022.2.4,Win32,30.03003003,661e456ee6de07e70aa9ef7b,661e51002fc11d4e371ec9ca,,,,,,,,,,,,,,,,,,,,,,,,,,,,,,,,,,,,,,,,,,,,,,,,,,,,,,,,0,5,5,29,1,N,M,D,o2_image,stimuli/out2.png,stimuli/out1.png,stimuli/correct_out2.png,,,,,,,,,,,,,,,,,,,,,,,,,,,,,,,,,,,,,,
,,607b087e7fd80dabd1ce4e63,27,female,2024-04-16_12h22.34.383,stockport_simplified,2022.2.4,Win32,30.03003003,661e456ee6de07e70aa9ef7b,661e51002fc11d4e371ec9ca,,,,,,,,,,,,,,,,,,,,,,,,,,,,,,,,,,402.6171,405.0168,"[8,1,2,7,3,4,5,6]","[[-0.3,0.2],[0.3,0.2]]","[[-0.125,-0.2],[0.125,-0.2]]",-0.114574751,-0.183863639,1,0,0,1.8665,o1_image,405.0172,1,405.517,405.517,407.5172,0,0,0,0,1,,,,,,,,,,,,,,,,,,,,,,,,,,,,,,,,,,,,,,,,,,,,,,,,,,
,,607b087e7fd80dabd1ce4e63,27,female,2024-04-16_12h22.34.383,stockport_simplified,2022.2.4,Win32,30.03003003,661e456ee6de07e70aa9ef7b,661e51002fc11d4e371ec9ca,,,,,,,,,,,,,,,,,,,,,,,,,,,,,,,,,,,,,,,,,,,,,,,,,,,,,,,,0,6,6,36,1,A,Y,N,o1_image,stimuli/out1.png,stimuli/correct_out1.png,stimuli/out2.png,,,,,,,,,,,,,,,,,,,,,,,,,,,,,,,,,,,,,,
,,607b087e7fd80dabd1ce4e63,27,female,2024-04-16_12h22.34.383,stockport_simplified,2022.2.4,Win32,30.03003003,661e456ee6de07e70aa9ef7b,661e51002fc11d4e371ec9ca,,,,,,,,,,,,,,,,,,,,,,,,,,,,,,,,,,407.5174,409.2502,"[8,1,2,7,3,4,5,6]","[[0.3,0.2],[-0.3,0.2]]","[[0.125,-0.2],[-0.125,-0.2]]",0.136205956,-0.200520553,1,0,0,1.199599999,o1_image,409.2505,0,409.7502,409.7502,411.7502,0,0,0,0,1,,,,,,,,,,,,,,,,,,,,,,,,,,,,,,,,,,,,,,,,,,,,,,,,,,
,,607b087e7fd80dabd1ce4e63,27,female,2024-04-16_12h22.34.383,stockport_simplified,2022.2.4,Win32,30.03003003,661e456ee6de07e70aa9ef7b,661e51002fc11d4e371ec9ca,,,,,,,,,,,,,,,,,,,,,,,,,,,,,,,,,,,,,,,,,,,,,,,,,,,,,,,,0,7,7,13,1,B,X,N,o2_image,stimuli/out2.png,stimuli/out1.png,stimuli/correct_out2.png,,,,,,,,,,,,,,,,,,,,,,,,,,,,,,,,,,,,,,
,,607b087e7fd80dabd1ce4e63,27,female,2024-04-16_12h22.34.383,stockport_simplified,2022.2.4,Win32,30.03003003,661e456ee6de07e70aa9ef7b,661e51002fc11d4e371ec9ca,,,,,,,,,,,,,,,,,,,,,,,,,,,,,,,,,,411.7505,414.5506,"[8,1,2,7,3,4,5,6]","[[-0.3,0.2],[0.3,0.2]]","[[0.125,-0.2],[-0.125,-0.2]]",-0.124754179,-0.190341372,1,0,0,2.2667,o2_image,414.5511,1,415.0504,415.0505,417.0502,0,0,0,0,1,,,,,,,,,,,,,,,,,,,,,,,,,,,,,,,,,,,,,,,,,,,,,,,,,,
,,607b087e7fd80dabd1ce4e63,27,female,2024-04-16_12h22.34.383,stockport_simplified,2022.2.4,Win32,30.03003003,661e456ee6de07e70aa9ef7b,661e51002fc11d4e371ec9ca,,,,,,,,,,,,,,,,,,,,,,,,,,,,,,,,,,,,,,,,,,,,,,,,,,,,,,,,0,8,8,45,1,B,Y,N,o2_image,stimuli/out2.png,stimuli/out1.png,stimuli/correct_out2.png,,,,,,,,,,,,,,,,,,,,,,,,,,,,,,,,,,,,,,
,,607b087e7fd80dabd1ce4e63,27,female,2024-04-16_12h22.34.383,stockport_simplified,2022.2.4,Win32,30.03003003,661e456ee6de07e70aa9ef7b,661e51002fc11d4e371ec9ca,,,,,,,,,,,,,,,,,,,,,,,,,,,,,,,,,,417.0505,419.1503,"[8,1,2,7,3,4,5,6]","[[-0.3,0.2],[0.3,0.2]]","[[0.125,-0.2],[-0.125,-0.2]]",0.103817292,-0.192654728,1,0,0,1.566400001,o1_image,419.1507,1,419.6505,419.6505,421.6503,0,0,0,0,1,,,,,,,,,,,,,,,,,,,,,,,,,,,,,,,,,,,,,,,,,,,,,,,,,,
,,607b087e7fd80dabd1ce4e63,27,female,2024-04-16_12h22.34.383,stockport_simplified,2022.2.4,Win32,30.03003003,661e456ee6de07e70aa9ef7b,661e51002fc11d4e371ec9ca,,,,,,,,,,,,,,,,,,,,,,,,,,,,,,,,,,,,,,,,,,,,,,,,,,,,,,,,0,9,9,32,1,A,X,N,o1_image,stimuli/out1.png,stimuli/correct_out1.png,stimuli/out2.png,,,,,,,,,,,,,,,,,,,,,,,,,,,,,,,,,,,,,,
,,607b087e7fd80dabd1ce4e63,27,female,2024-04-16_12h22.34.383,stockport_simplified,2022.2.4,Win32,30.03003003,661e456ee6de07e70aa9ef7b,661e51002fc11d4e371ec9ca,,,,,,,,,,,,,,,,,,,,,,,,,,,,,,,,,,421.6506,423.5171,"[8,1,2,7,3,4,5,6]","[[-0.3,0.2],[0.3,0.2]]","[[0.125,-0.2],[-0.125,-0.2]]",-0.075245673,-0.172296266,1,0,0,1.366,o2_image,423.5175,1,424.017,424.017,426.0171,0,0,0,0,1,,,,,,,,,,,,,,,,,,,,,,,,,,,,,,,,,,,,,,,,,,,,,,,,,,
,,607b087e7fd80dabd1ce4e63,27,female,2024-04-16_12h22.34.383,stockport_simplified,2022.2.4,Win32,30.03003003,661e456ee6de07e70aa9ef7b,661e51002fc11d4e371ec9ca,,,,,,,,,,,,,,,,,,,,,,,,,,,,,,,,,,,,,,,,,,,,,,,,,,,,,,,,0,10,10,47,1,B,Y,N,o2_image,stimuli/out2.png,stimuli/out1.png,stimuli/correct_out2.png,,,,,,,,,,,,,,,,,,,,,,,,,,,,,,,,,,,,,,
,,607b087e7fd80dabd1ce4e63,27,female,2024-04-16_12h22.34.383,stockport_simplified,2022.2.4,Win32,30.03003003,661e456ee6de07e70aa9ef7b,661e51002fc11d4e371ec9ca,,,,,,,,,,,,,,,,,,,,,,,,,,,,,,,,,,426.0174,428.4504,"[8,1,2,7,3,4,5,6]","[[0.3,0.2],[-0.3,0.2]]","[[0.125,-0.2],[-0.125,-0.2]]",0.147310598,-0.20977457,1,0,0,1.899599999,o1_image,428.4509,1,428.9504,428.9505,430.9505,0,0,0,0,1,,,,,,,,,,,,,,,,,,,,,,,,,,,,,,,,,,,,,,,,,,,,,,,,,,
,,607b087e7fd80dabd1ce4e63,27,female,2024-04-16_12h22.34.383,stockport_simplified,2022.2.4,Win32,30.03003003,661e456ee6de07e70aa9ef7b,661e51002fc11d4e371ec9ca,,,,,,,,,,,,,,,,,,,,,,,,,,,,,,,,,,,,,,,,,,,,,,,,,,,,,,,,0,11,11,34,1,A,X,N,o1_image,stimuli/out1.png,stimuli/correct_out1.png,stimuli/out2.png,,,,,,,,,,,,,,,,,,,,,,,,,,,,,,,,,,,,,,
,,607b087e7fd80dabd1ce4e63,27,female,2024-04-16_12h22.34.383,stockport_simplified,2022.2.4,Win32,30.03003003,661e456ee6de07e70aa9ef7b,661e51002fc11d4e371ec9ca,,,,,,,,,,,,,,,,,,,,,,,,,,,,,,,,,,430.9507,432.6171,"[8,1,2,7,3,4,5,6]","[[0.3,0.2],[-0.3,0.2]]","[[0.125,-0.2],[-0.125,-0.2]]",-0.146500733,-0.190803954,1,0,0,1.133,o2_image,432.6174,1,433.1171,433.1172,435.1173,0,0,0,0,1,,,,,,,,,,,,,,,,,,,,,,,,,,,,,,,,,,,,,,,,,,,,,,,,,,
,,607b087e7fd80dabd1ce4e63,27,female,2024-04-16_12h22.34.383,stockport_simplified,2022.2.4,Win32,30.03003003,661e456ee6de07e70aa9ef7b,661e51002fc11d4e371ec9ca,,,,,,,,,,,,,,,,,,,,,,,,,,,,,,,,,,,,,,,,,,,,,,,,,,,,,,,,0,12,12,48,1,B,Y,N,o2_image,stimuli/out2.png,stimuli/out1.png,stimuli/correct_out2.png,,,,,,,,,,,,,,,,,,,,,,,,,,,,,,,,,,,,,,
,,607b087e7fd80dabd1ce4e63,27,female,2024-04-16_12h22.34.383,stockport_simplified,2022.2.4,Win32,30.03003003,661e456ee6de07e70aa9ef7b,661e51002fc11d4e371ec9ca,,,,,,,,,,,,,,,,,,,,,,,,,,,,,,,,,,435.1176,437.4172,"[8,1,2,7,3,4,5,6]","[[-0.3,0.2],[0.3,0.2]]","[[-0.125,-0.2],[0.125,-0.2]]",-0.108097018,-0.20468493,1,0,0,1.7664,o1_image,437.4174,0,437.9171,437.9171,439.9174,0,0,0,0,1,,,,,,,,,,,,,,,,,,,,,,,,,,,,,,,,,,,,,,,,,,,,,,,,,,
,,607b087e7fd80dabd1ce4e63,27,female,2024-04-16_12h22.34.383,stockport_simplified,2022.2.4,Win32,30.03003003,661e456ee6de07e70aa9ef7b,661e51002fc11d4e371ec9ca,,,,,,,,,,,,,,,,,,,,,,,,,,,,,,,,,,,,,,,,,,,,,,,,,,,,,,,,0,13,13,26,1,N,M,D,o2_image,stimuli/out2.png,stimuli/out1.png,stimuli/correct_out2.png,,,,,,,,,,,,,,,,,,,,,,,,,,,,,,,,,,,,,,
,,607b087e7fd80dabd1ce4e63,27,female,2024-04-16_12h22.34.383,stockport_simplified,2022.2.4,Win32,30.03003003,661e456ee6de07e70aa9ef7b,661e51002fc11d4e371ec9ca,,,,,,,,,,,,,,,,,,,,,,,,,,,,,,,,,,439.9177,441.9173,"[8,1,2,7,3,4,5,6]","[[-0.3,0.2],[0.3,0.2]]","[[0.125,-0.2],[-0.125,-0.2]]",0.128340081,-0.204222101,1,0,0,1.4663,o1_image,441.9177,1,442.4172,442.4172,444.4172,0,0,0,0,1,,,,,,,,,,,,,,,,,,,,,,,,,,,,,,,,,,,,,,,,,,,,,,,,,,
,,607b087e7fd80dabd1ce4e63,27,female,2024-04-16_12h22.34.383,stockport_simplified,2022.2.4,Win32,30.03003003,661e456ee6de07e70aa9ef7b,661e51002fc11d4e371ec9ca,,,,,,,,,,,,,,,,,,,,,,,,,,,,,,,,,,,,,,,,,,,,,,,,,,,,,,,,0,14,14,24,1,N,M,C,o1_image,stimuli/out1.png,stimuli/correct_out1.png,stimuli/out2.png,,,,,,,,,,,,,,,,,,,,,,,,,,,,,,,,,,,,,,
,,607b087e7fd80dabd1ce4e63,27,female,2024-04-16_12h22.34.383,stockport_simplified,2022.2.4,Win32,30.03003003,661e456ee6de07e70aa9ef7b,661e51002fc11d4e371ec9ca,,,,,,,,,,,,,,,,,,,,,,,,,,,,,,,,,,444.4175,446.1839,"[8,1,2,7,3,4,5,6]","[[-0.3,0.2],[0.3,0.2]]","[[0.125,-0.2],[-0.125,-0.2]]",0.116310274,-0.180162092,1,0,0,1.233099999,o1_image,446.1843,1,446.6841,446.6841,448.6839,0,0,0,0,1,,,,,,,,,,,,,,,,,,,,,,,,,,,,,,,,,,,,,,,,,,,,,,,,,,
,,607b087e7fd80dabd1ce4e63,27,female,2024-04-16_12h22.34.383,stockport_simplified,2022.2.4,Win32,30.03003003,661e456ee6de07e70aa9ef7b,661e51002fc11d4e371ec9ca,,,,,,,,,,,,,,,,,,,,,,,,,,,,,,,,,,,,,,,,,,,,,,,,,,,,,,,,0,15,15,0,1,A,X,N,o1_image,stimuli/out1.png,stimuli/correct_out1.png,stimuli/out2.png,,,,,,,,,,,,,,,,,,,,,,,,,,,,,,,,,,,,,,
,,607b087e7fd80dabd1ce4e63,27,female,2024-04-16_12h22.34.383,stockport_simplified,2022.2.4,Win32,30.03003003,661e456ee6de07e70aa9ef7b,661e51002fc11d4e371ec9ca,,,,,,,,,,,,,,,,,,,,,,,,,,,,,,,,,,448.6843,450.584,"[8,1,2,7,3,4,5,6]","[[-0.3,0.2],[0.3,0.2]]","[[-0.125,-0.2],[0.125,-0.2]]",-0.113186658,-0.193117557,1,0,0,1.3664,o1_image,450.5845,0,451.0841,451.0842,453.0841,0,0,0,0,1,,,,,,,,,,,,,,,,,,,,,,,,,,,,,,,,,,,,,,,,,,,,,,,,,,
,,607b087e7fd80dabd1ce4e63,27,female,2024-04-16_12h22.34.383,stockport_simplified,2022.2.4,Win32,30.03003003,661e456ee6de07e70aa9ef7b,661e51002fc11d4e371ec9ca,,,,,,,,,,,,,,,,,,,,,,,,,,,,,,,,,,,,,,,,,,,,,,,,,,,,,,,,0,16,16,42,1,B,X,N,o2_image,stimuli/out2.png,stimuli/out1.png,stimuli/correct_out2.png,,,,,,,,,,,,,,,,,,,,,,,,,,,,,,,,,,,,,,
,,607b087e7fd80dabd1ce4e63,27,female,2024-04-16_12h22.34.383,stockport_simplified,2022.2.4,Win32,30.03003003,661e456ee6de07e70aa9ef7b,661e51002fc11d4e371ec9ca,,,,,,,,,,,,,,,,,,,,,,,,,,,,,,,,,,453.0843,455.4854,"[8,1,2,7,3,4,5,6]","[[-0.3,0.2],[0.3,0.2]]","[[0.125,-0.2],[-0.125,-0.2]]",0.132504606,-0.19959529,1,0,0,1.8677,o1_image,455.4906,1,455.984,455.984,457.984,0,0,0,0,1,,,,,,,,,,,,,,,,,,,,,,,,,,,,,,,,,,,,,,,,,,,,,,,,,,
,,607b087e7fd80dabd1ce4e63,27,female,2024-04-16_12h22.34.383,stockport_simplified,2022.2.4,Win32,30.03003003,661e456ee6de07e70aa9ef7b,661e51002fc11d4e371ec9ca,,,,,,,,,,,,,,,,,,,,,,,,,,,,,,,,,,,,,,,,,,,,,,,,,,,,,,,,0,17,17,51,1,N,M,C,o1_image,stimuli/out1.png,stimuli/correct_out1.png,stimuli/out2.png,,,,,,,,,,,,,,,,,,,,,,,,,,,,,,,,,,,,,,
,,607b087e7fd80dabd1ce4e63,27,female,2024-04-16_12h22.34.383,stockport_simplified,2022.2.4,Win32,30.03003003,661e456ee6de07e70aa9ef7b,661e51002fc11d4e371ec9ca,,,,,,,,,,,,,,,,,,,,,,,,,,,,,,,,,,457.9842,460.9841,"[8,1,2,7,3,4,5,6]","[[-0.3,0.2],[0.3,0.2]]","[[0.125,-0.2],[-0.125,-0.2]]",-0.142799285,-0.206535704,1,0,0,2.4661,o2_image,460.9844,1,461.4841,461.4841,463.4841,0,0,0,0,1,,,,,,,,,,,,,,,,,,,,,,,,,,,,,,,,,,,,,,,,,,,,,,,,,,
,,607b087e7fd80dabd1ce4e63,27,female,2024-04-16_12h22.34.383,stockport_simplified,2022.2.4,Win32,30.03003003,661e456ee6de07e70aa9ef7b,661e51002fc11d4e371ec9ca,,,,,,,,,,,,,,,,,,,,,,,,,,,,,,,,,,,,,,,,,,,,,,,,,,,,,,,,0,18,18,57,1,N,M,D,o2_image,stimuli/out2.png,stimuli/out1.png,stimuli/correct_out2.png,,,,,,,,,,,,,,,,,,,,,,,,,,,,,,,,,,,,,,
,,607b087e7fd80dabd1ce4e63,27,female,2024-04-16_12h22.34.383,stockport_simplified,2022.2.4,Win32,30.03003003,661e456ee6de07e70aa9ef7b,661e51002fc11d4e371ec9ca,,,,,,,,,,,,,,,,,,,,,,,,,,,,,,,,,,463.4844,466.8841,"[8,1,2,7,3,4,5,6]","[[0.3,0.2],[-0.3,0.2]]","[[-0.125,-0.2],[0.125,-0.2]]",0.151937804,-0.221341844,1,0,0,2.866400001,o2_image,466.8845,0,467.3841,467.3841,469.3842,0,0,0,0,1,,,,,,,,,,,,,,,,,,,,,,,,,,,,,,,,,,,,,,,,,,,,,,,,,,
,,607b087e7fd80dabd1ce4e63,27,female,2024-04-16_12h22.34.383,stockport_simplified,2022.2.4,Win32,30.03003003,661e456ee6de07e70aa9ef7b,661e51002fc11d4e371ec9ca,,,,,,,,,,,,,,,,,,,,,,,,,,,,,,,,,,,,,,,,,,,,,,,,,,,,,,,,0,19,19,39,1,A,Y,N,o1_image,stimuli/out1.png,stimuli/correct_out1.png,stimuli/out2.png,,,,,,,,,,,,,,,,,,,,,,,,,,,,,,,,,,,,,,
,,607b087e7fd80dabd1ce4e63,27,female,2024-04-16_12h22.34.383,stockport_simplified,2022.2.4,Win32,30.03003003,661e456ee6de07e70aa9ef7b,661e51002fc11d4e371ec9ca,,,,,,,,,,,,,,,,,,,,,,,,,,,,,,,,,,469.3845,471.6508,"[8,1,2,7,3,4,5,6]","[[-0.3,0.2],[0.3,0.2]]","[[0.125,-0.2],[-0.125,-0.2]]",-0.121977994,-0.211162663,1,0,0,1.733099999,o2_image,471.6558,1,472.1508,472.1508,474.1509,0,0,0,0,1,,,,,,,,,,,,,,,,,,,,,,,,,,,,,,,,,,,,,,,,,,,,,,,,,,
,,607b087e7fd80dabd1ce4e63,27,female,2024-04-16_12h22.34.383,stockport_simplified,2022.2.4,Win32,30.03003003,661e456ee6de07e70aa9ef7b,661e51002fc11d4e371ec9ca,,,,,,,,,,,,,,,,,,,,,,,,,,,,,,,,,,,,,,,,,,,,,,,,,,,,,,,,0,20,20,10,1,B,X,N,o2_image,stimuli/out2.png,stimuli/out1.png,stimuli/correct_out2.png,,,,,,,,,,,,,,,,,,,,,,,,,,,,,,,,,,,,,,
,,607b087e7fd80dabd1ce4e63,27,female,2024-04-16_12h22.34.383,stockport_simplified,2022.2.4,Win32,30.03003003,661e456ee6de07e70aa9ef7b,661e51002fc11d4e371ec9ca,,,,,,,,,,,,,,,,,,,,,,,,,,,,,,,,,,474.1511,476.0509,"[8,1,2,7,3,4,5,6]","[[-0.3,0.2],[0.3,0.2]]","[[0.125,-0.2],[-0.125,-0.2]]",-0.093753459,-0.200983234,1,0,0,1.3665,o2_image,476.0512,1,476.5508,476.5509,478.5508,0,0,0,0,1,,,,,,,,,,,,,,,,,,,,,,,,,,,,,,,,,,,,,,,,,,,,,,,,,,
,,607b087e7fd80dabd1ce4e63,27,female,2024-04-16_12h22.34.383,stockport_simplified,2022.2.4,Win32,30.03003003,661e456ee6de07e70aa9ef7b,661e51002fc11d4e371ec9ca,,,,,,,,,,,,,,,,,,,,,,,,,,,,,,,,,,,,,,,,,,,,,,,,,,,,,,,,0,21,21,14,1,B,X,N,o2_image,stimuli/out2.png,stimuli/out1.png,stimuli/correct_out2.png,,,,,,,,,,,,,,,,,,,,,,,,,,,,,,,,,,,,,,
,,607b087e7fd80dabd1ce4e63,27,female,2024-04-16_12h22.34.383,stockport_simplified,2022.2.4,Win32,30.03003003,661e456ee6de07e70aa9ef7b,661e51002fc11d4e371ec9ca,,,,,,,,,,,,,,,,,,,,,,,,,,,,,,,,,,478.5511,480.5176,"[8,1,2,7,3,4,5,6]","[[0.3,0.2],[-0.3,0.2]]","[[-0.125,-0.2],[0.125,-0.2]]",0.163967611,-0.223655447,1,0,0,1.433,o2_image,480.5179,0,481.0176,481.0176,483.0176,0,0,0,0,1,,,,,,,,,,,,,,,,,,,,,,,,,,,,,,,,,,,,,,,,,,,,,,,,,,
,,607b087e7fd80dabd1ce4e63,27,female,2024-04-16_12h22.34.383,stockport_simplified,2022.2.4,Win32,30.03003003,661e456ee6de07e70aa9ef7b,661e51002fc11d4e371ec9ca,,,,,,,,,,,,,,,,,,,,,,,,,,,,,,,,,,,,,,,,,,,,,,,,,,,,,,,,0,22,22,7,1,A,Y,N,o1_image,stimuli/out1.png,stimuli/correct_out1.png,stimuli/out2.png,,,,,,,,,,,,,,,,,,,,,,,,,,,,,,,,,,,,,,
,,607b087e7fd80dabd1ce4e63,27,female,2024-04-16_12h22.34.383,stockport_simplified,2022.2.4,Win32,30.03003003,661e456ee6de07e70aa9ef7b,661e51002fc11d4e371ec9ca,,,,,,,,,,,,,,,,,,,,,,,,,,,,,,,,,,483.0178,485.9176,"[8,1,2,7,3,4,5,6]","[[-0.3,0.2],[0.3,0.2]]","[[0.125,-0.2],[-0.125,-0.2]]",0.126489357,-0.212550756,1,0,0,2.3664,o1_image,485.9229,0,486.4179,486.4179,488.4177,0,0,0,0,1,,,,,,,,,,,,,,,,,,,,,,,,,,,,,,,,,,,,,,,,,,,,,,,,,,
,,607b087e7fd80dabd1ce4e63,27,female,2024-04-16_12h22.34.383,stockport_simplified,2022.2.4,Win32,30.03003003,661e456ee6de07e70aa9ef7b,661e51002fc11d4e371ec9ca,,,,,,,,,,,,,,,,,,,,,,,,,,,,,,,,,,,,,,,,,,,,,,,,,,,,,,,,0,23,23,49,1,B,Y,N,o2_image,stimuli/out2.png,stimuli/out1.png,stimuli/correct_out2.png,,,,,,,,,,,,,,,,,,,,,,,,,,,,,,,,,,,,,,
,,607b087e7fd80dabd1ce4e63,27,female,2024-04-16_12h22.34.383,stockport_simplified,2022.2.4,Win32,30.03003003,661e456ee6de07e70aa9ef7b,661e51002fc11d4e371ec9ca,,,,,,,,,,,,,,,,,,,,,,,,,,,,,,,,,,488.418,490.6844,"[8,1,2,7,3,4,5,6]","[[-0.3,0.2],[0.3,0.2]]","[[0.125,-0.2],[-0.125,-0.2]]",0.128803059,-0.201446064,1,0,0,1.7333,o1_image,490.6848,1,491.1845,491.1845,493.1844,0,0,0,0,1,,,,,,,,,,,,,,,,,,,,,,,,,,,,,,,,,,,,,,,,,,,,,,,,,,
,,607b087e7fd80dabd1ce4e63,27,female,2024-04-16_12h22.34.383,stockport_simplified,2022.2.4,Win32,30.03003003,661e456ee6de07e70aa9ef7b,661e51002fc11d4e371ec9ca,,,,,,,,,,,,,,,,,,,,,,,,,,,,,,,,,,,,,,,,,,,,,,,,,,,,,,,,0,24,24,9,1,A,Y,N,o1_image,stimuli/out1.png,stimuli/correct_out1.png,stimuli/out2.png,,,,,,,,,,,,,,,,,,,,,,,,,,,,,,,,,,,,,,
,,607b087e7fd80dabd1ce4e63,27,female,2024-04-16_12h22.34.383,stockport_simplified,2022.2.4,Win32,30.03003003,661e456ee6de07e70aa9ef7b,661e51002fc11d4e371ec9ca,,,,,,,,,,,,,,,,,,,,,,,,,,,,,,,,,,493.1846,495.051,"[8,1,2,7,3,4,5,6]","[[0.3,0.2],[-0.3,0.2]]","[[-0.125,-0.2],[0.125,-0.2]]",-0.117813617,-0.176923225,1,0,0,1.3329,o1_image,495.0514,1,495.5512,495.5513,497.551,0,0,0,0,1,,,,,,,,,,,,,,,,,,,,,,,,,,,,,,,,,,,,,,,,,,,,,,,,,,
,,607b087e7fd80dabd1ce4e63,27,female,2024-04-16_12h22.34.383,stockport_simplified,2022.2.4,Win32,30.03003003,661e456ee6de07e70aa9ef7b,661e51002fc11d4e371ec9ca,,,,,,,,,,,,,,,,,,,,,,,,,,,,,,,,,,,,,,,,,,,,,,,,,,,,,,,,0,25,25,20,1,N,M,C,o1_image,stimuli/out1.png,stimuli/correct_out1.png,stimuli/out2.png,,,,,,,,,,,,,,,,,,,,,,,,,,,,,,,,,,,,,,
,,607b087e7fd80dabd1ce4e63,27,female,2024-04-16_12h22.34.383,stockport_simplified,2022.2.4,Win32,30.03003003,661e456ee6de07e70aa9ef7b,661e51002fc11d4e371ec9ca,,,,,,,,,,,,,,,,,,,,,,,,,,,,,,,,,,497.5513,499.4844,"[8,1,2,7,3,4,5,6]","[[-0.3,0.2],[0.3,0.2]]","[[0.125,-0.2],[-0.125,-0.2]]",-0.099768511,-0.191729465,1,0,0,1.399599999,o2_image,499.4848,1,499.9844,499.9844,501.9844,0,0,0,0,1,,,,,,,,,,,,,,,,,,,,,,,,,,,,,,,,,,,,,,,,,,,,,,,,,,
,,607b087e7fd80dabd1ce4e63,27,female,2024-04-16_12h22.34.383,stockport_simplified,2022.2.4,Win32,30.03003003,661e456ee6de07e70aa9ef7b,661e51002fc11d4e371ec9ca,,,,,,,,,,,,,,,,,,,,,,,,,,,,,,,,,,,,,,,,,,,,,,,,,,,,,,,,0,26,26,46,1,B,Y,N,o2_image,stimuli/out2.png,stimuli/out1.png,stimuli/correct_out2.png,,,,,,,,,,,,,,,,,,,,,,,,,,,,,,,,,,,,,,
,,607b087e7fd80dabd1ce4e63,27,female,2024-04-16_12h22.34.383,stockport_simplified,2022.2.4,Win32,30.03003003,661e456ee6de07e70aa9ef7b,661e51002fc11d4e371ec9ca,,,,,,,,,,,,,,,,,,,,,,,,,,,,,,,,,,501.9848,504.5845,"[8,1,2,7,3,4,5,6]","[[0.3,0.2],[-0.3,0.2]]","[[-0.125,-0.2],[0.125,-0.2]]",0.139444822,-0.212087926,1,0,0,2.0666,o2_image,504.5849,0,505.0845,505.0845,507.0845,0,0,0,0,1,,,,,,,,,,,,,,,,,,,,,,,,,,,,,,,,,,,,,,,,,,,,,,,,,,
,,607b087e7fd80dabd1ce4e63,27,female,2024-04-16_12h22.34.383,stockport_simplified,2022.2.4,Win32,30.03003003,661e456ee6de07e70aa9ef7b,661e51002fc11d4e371ec9ca,,,,,,,,,,,,,,,,,,,,,,,,,,,,,,,,,,,,,,,,,,,,,,,,,,,,,,,,0,27,27,5,1,A,Y,N,o1_image,stimuli/out1.png,stimuli/correct_out1.png,stimuli/out2.png,,,,,,,,,,,,,,,,,,,,,,,,,,,,,,,,,,,,,,
,,607b087e7fd80dabd1ce4e63,27,female,2024-04-16_12h22.34.383,stockport_simplified,2022.2.4,Win32,30.03003003,661e456ee6de07e70aa9ef7b,661e51002fc11d4e371ec9ca,,,,,,,,,,,,,,,,,,,,,,,,,,,,,,,,,,507.0847,509.3179,"[8,1,2,7,3,4,5,6]","[[0.3,0.2],[-0.3,0.2]]","[[0.125,-0.2],[-0.125,-0.2]]",-0.088201138,-0.188027769,1,0,0,1.699799999,o2_image,509.3182,1,509.8179,509.8179,511.8183,0,0,0,0,1,,,,,,,,,,,,,,,,,,,,,,,,,,,,,,,,,,,,,,,,,,,,,,,,,,
,,607b087e7fd80dabd1ce4e63,27,female,2024-04-16_12h22.34.383,stockport_simplified,2022.2.4,Win32,30.03003003,661e456ee6de07e70aa9ef7b,661e51002fc11d4e371ec9ca,,,,,,,,,,,,,,,,,,,,,,,,,,,,,,,,,,,,,,,,,,,,,,,,,,,,,,,,0,28,28,56,1,N,M,D,o2_image,stimuli/out2.png,stimuli/out1.png,stimuli/correct_out2.png,,,,,,,,,,,,,,,,,,,,,,,,,,,,,,,,,,,,,,
,,607b087e7fd80dabd1ce4e63,27,female,2024-04-16_12h22.34.383,stockport_simplified,2022.2.4,Win32,30.03003003,661e456ee6de07e70aa9ef7b,661e51002fc11d4e371ec9ca,,,,,,,,,,,,,,,,,,,,,,,,,,,,,,,,,,511.8186,513.8845,"[8,1,2,7,3,4,5,6]","[[0.3,0.2],[-0.3,0.2]]","[[0.125,-0.2],[-0.125,-0.2]]",0.145922555,-0.207460967,1,0,0,1.533,o1_image,513.885,1,514.3846,514.3846,516.3846,0,0,0,0,1,,,,,,,,,,,,,,,,,,,,,,,,,,,,,,,,,,,,,,,,,,,,,,,,,,
,,607b087e7fd80dabd1ce4e63,27,female,2024-04-16_12h22.34.383,stockport_simplified,2022.2.4,Win32,30.03003003,661e456ee6de07e70aa9ef7b,661e51002fc11d4e371ec9ca,,,,,,,,,,,,,,,,,,,,,,,,,,,,,,,,,,,,,,,,,,,,,,,,,,,,,,,,0,29,29,4,1,A,X,N,o1_image,stimuli/out1.png,stimuli/correct_out1.png,stimuli/out2.png,,,,,,,,,,,,,,,,,,,,,,,,,,,,,,,,,,,,,,
,,607b087e7fd80dabd1ce4e63,27,female,2024-04-16_12h22.34.383,stockport_simplified,2022.2.4,Win32,30.03003003,661e456ee6de07e70aa9ef7b,661e51002fc11d4e371ec9ca,,,,,,,,,,,,,,,,,,,,,,,,,,,,,,,,,,516.3849,520.0846,"[8,1,2,7,3,4,5,6]","[[0.3,0.2],[-0.3,0.2]]","[[0.125,-0.2],[-0.125,-0.2]]",-0.087275727,-0.177848489,1,0,0,3.1667,o2_image,520.0896,0,520.5847,520.5847,522.5849,0,0,0,0,1,,,,,,,,,,,,,,,,,,,,,,,,,,,,,,,,,,,,,,,,,,,,,,,,,,
,,607b087e7fd80dabd1ce4e63,27,female,2024-04-16_12h22.34.383,stockport_simplified,2022.2.4,Win32,30.03003003,661e456ee6de07e70aa9ef7b,661e51002fc11d4e371ec9ca,,,,,,,,,,,,,,,,,,,,,,,,,,,,,,,,,,,,,,,,,,,,,,,,,,,,,,,,0,30,30,1,1,A,X,N,o1_image,stimuli/out1.png,stimuli/correct_out1.png,stimuli/out2.png,,,,,,,,,,,,,,,,,,,,,,,,,,,,,,,,,,,,,,
,,607b087e7fd80dabd1ce4e63,27,female,2024-04-16_12h22.34.383,stockport_simplified,2022.2.4,Win32,30.03003003,661e456ee6de07e70aa9ef7b,661e51002fc11d4e371ec9ca,,,,,,,,,,,,,,,,,,,,,,,,,,,,,,,,,,522.5851,524.518,"[8,1,2,7,3,4,5,6]","[[0.3,0.2],[-0.3,0.2]]","[[-0.125,-0.2],[0.125,-0.2]]",0.142683689,-0.160266064,1,0,0,1.399700001,o2_image,524.5183,1,525.018,525.018,527.018,0,0,0,0,1,,,,,,,,,,,,,,,,,,,,,,,,,,,,,,,,,,,,,,,,,,,,,,,,,,
,,607b087e7fd80dabd1ce4e63,27,female,2024-04-16_12h22.34.383,stockport_simplified,2022.2.4,Win32,30.03003003,661e456ee6de07e70aa9ef7b,661e51002fc11d4e371ec9ca,,,,,,,,,,,,,,,,,,,,,,,,,,,,,,,,,,,,,,,,,,,,,,,,,,,,,,,,0,31,31,40,1,B,X,N,o2_image,stimuli/out2.png,stimuli/out1.png,stimuli/correct_out2.png,,,,,,,,,,,,,,,,,,,,,,,,,,,,,,,,,,,,,,
,,607b087e7fd80dabd1ce4e63,27,female,2024-04-16_12h22.34.383,stockport_simplified,2022.2.4,Win32,30.03003003,661e456ee6de07e70aa9ef7b,661e51002fc11d4e371ec9ca,,,,,,,,,,,,,,,,,,,,,,,,,,,,,,,,,,527.0182,529.2514,"[8,1,2,7,3,4,5,6]","[[0.3,0.2],[-0.3,0.2]]","[[0.125,-0.2],[-0.125,-0.2]]",-0.111798713,-0.147310598,1,0,0,1.6997,o2_image,529.2518,0,529.7516,529.7516,531.7514,0,0,0,0,1,,,,,,,,,,,,,,,,,,,,,,,,,,,,,,,,,,,,,,,,,,,,,,,,,,
,,607b087e7fd80dabd1ce4e63,27,female,2024-04-16_12h22.34.383,stockport_simplified,2022.2.4,Win32,30.03003003,661e456ee6de07e70aa9ef7b,661e51002fc11d4e371ec9ca,,,,,,,,,,,,,,,,,,,,,,,,,,,,,,,,,,,,,,,,,,,,,,,,,,,,,,,,0,32,32,37,1,A,Y,N,o1_image,stimuli/out1.png,stimuli/correct_out1.png,stimuli/out2.png,,,,,,,,,,,,,,,,,,,,,,,,,,,,,,,,,,,,,,
,,607b087e7fd80dabd1ce4e63,27,female,2024-04-16_12h22.34.383,stockport_simplified,2022.2.4,Win32,30.03003003,661e456ee6de07e70aa9ef7b,661e51002fc11d4e371ec9ca,,,,,,,,,,,,,,,,,,,,,,,,,,,,,,,,,,531.7517,533.5182,"[8,1,2,7,3,4,5,6]","[[0.3,0.2],[-0.3,0.2]]","[[0.125,-0.2],[-0.125,-0.2]]",0.128803059,-0.19959529,1,0,0,1.233,o1_image,533.5185,1,534.0181,534.0181,536.0183,0,0,0,0,1,,,,,,,,,,,,,,,,,,,,,,,,,,,,,,,,,,,,,,,,,,,,,,,,,,
,,607b087e7fd80dabd1ce4e63,27,female,2024-04-16_12h22.34.383,stockport_simplified,2022.2.4,Win32,30.03003003,661e456ee6de07e70aa9ef7b,661e51002fc11d4e371ec9ca,,,,,,,,,,,,,,,,,,,,,,,,,,,,,,,,,,,,,,,,,,,,,,,,,,,,,,,,0,33,33,23,1,N,M,C,o1_image,stimuli/out1.png,stimuli/correct_out1.png,stimuli/out2.png,,,,,,,,,,,,,,,,,,,,,,,,,,,,,,,,,,,,,,
,,607b087e7fd80dabd1ce4e63,27,female,2024-04-16_12h22.34.383,stockport_simplified,2022.2.4,Win32,30.03003003,661e456ee6de07e70aa9ef7b,661e51002fc11d4e371ec9ca,,,,,,,,,,,,,,,,,,,,,,,,,,,,,,,,,,536.0185,538.6515,"[8,1,2,7,3,4,5,6]","[[0.3,0.2],[-0.3,0.2]]","[[-0.125,-0.2],[0.125,-0.2]]",0.134355133,-0.195893594,1,0,0,2.0998,o2_image,538.6518,0,539.1516,539.1516,541.1515,0,0,0,0,1,,,,,,,,,,,,,,,,,,,,,,,,,,,,,,,,,,,,,,,,,,,,,,,,,,
,,607b087e7fd80dabd1ce4e63,27,female,2024-04-16_12h22.34.383,stockport_simplified,2022.2.4,Win32,30.03003003,661e456ee6de07e70aa9ef7b,661e51002fc11d4e371ec9ca,,,,,,,,,,,,,,,,,,,,,,,,,,,,,,,,,,,,,,,,,,,,,,,,,,,,,,,,0,34,34,8,1,A,Y,N,o1_image,stimuli/out1.png,stimuli/correct_out1.png,stimuli/out2.png,,,,,,,,,,,,,,,,,,,,,,,,,,,,,,,,,,,,,,
,,607b087e7fd80dabd1ce4e63,27,female,2024-04-16_12h22.34.383,stockport_simplified,2022.2.4,Win32,30.03003003,661e456ee6de07e70aa9ef7b,661e51002fc11d4e371ec9ca,,,,,,,,,,,,,,,,,,,,,,,,,,,,,,,,,,541.1517,543.485,"[8,1,2,7,3,4,5,6]","[[-0.3,0.2],[0.3,0.2]]","[[0.125,-0.2],[-0.125,-0.2]]",-0.126142123,-0.183400958,1,0,0,1.8331,o2_image,543.4853,1,543.985,543.985,545.9849,0,0,0,0,1,,,,,,,,,,,,,,,,,,,,,,,,,,,,,,,,,,,,,,,,,,,,,,,,,,
,,607b087e7fd80dabd1ce4e63,27,female,2024-04-16_12h22.34.383,stockport_simplified,2022.2.4,Win32,30.03003003,661e456ee6de07e70aa9ef7b,661e51002fc11d4e371ec9ca,,,,,,,,,,,,,,,,,,,,,,,,,,,,,,,,,,,,,,,,,,,,,,,,,,,,,,,,0,35,35,25,1,N,M,D,o2_image,stimuli/out2.png,stimuli/out1.png,stimuli/correct_out2.png,,,,,,,,,,,,,,,,,,,,,,,,,,,,,,,,,,,,,,
,,607b087e7fd80dabd1ce4e63,27,female,2024-04-16_12h22.34.383,stockport_simplified,2022.2.4,Win32,30.03003003,661e456ee6de07e70aa9ef7b,661e51002fc11d4e371ec9ca,,,,,,,,,,,,,,,,,,,,,,,,,,,,,,,,,,545.9851,548.1516,"[8,1,2,7,3,4,5,6]","[[0.3,0.2],[-0.3,0.2]]","[[-0.125,-0.2],[0.125,-0.2]]",0.11954914,-0.211625245,1,0,0,1.6331,o2_image,548.1519,1,548.6515,548.6516,550.6516,0,0,0,0,1,,,,,,,,,,,,,,,,,,,,,,,,,,,,,,,,,,,,,,,,,,,,,,,,,,
,,607b087e7fd80dabd1ce4e63,27,female,2024-04-16_12h22.34.383,stockport_simplified,2022.2.4,Win32,30.03003003,661e456ee6de07e70aa9ef7b,661e51002fc11d4e371ec9ca,,,,,,,,,,,,,,,,,,,,,,,,,,,,,,,,,,,,,,,,,,,,,,,,,,,,,,,,0,36,36,27,1,N,M,D,o2_image,stimuli/out2.png,stimuli/out1.png,stimuli/correct_out2.png,,,,,,,,,,,,,,,,,,,,,,,,,,,,,,,,,,,,,,
,,607b087e7fd80dabd1ce4e63,27,female,2024-04-16_12h22.34.383,stockport_simplified,2022.2.4,Win32,30.03003003,661e456ee6de07e70aa9ef7b,661e51002fc11d4e371ec9ca,,,,,,,,,,,,,,,,,,,,,,,,,,,,,,,,,,550.6518,554.4183,"[8,1,2,7,3,4,5,6]","[[-0.3,0.2],[0.3,0.2]]","[[0.125,-0.2],[-0.125,-0.2]]",0.139444822,-0.189415861,1,0,0,3.232900001,o1_image,554.4233,0,554.9184,554.9184,556.9185,0,0,0,0,1,,,,,,,,,,,,,,,,,,,,,,,,,,,,,,,,,,,,,,,,,,,,,,,,,,
,,607b087e7fd80dabd1ce4e63,27,female,2024-04-16_12h22.34.383,stockport_simplified,2022.2.4,Win32,30.03003003,661e456ee6de07e70aa9ef7b,661e51002fc11d4e371ec9ca,,,,,,,,,,,,,,,,,,,,,,,,,,,,,,,,,,,,,,,,,,,,,,,,,,,,,,,,0,37,37,12,1,B,X,N,o2_image,stimuli/out2.png,stimuli/out1.png,stimuli/correct_out2.png,,,,,,,,,,,,,,,,,,,,,,,,,,,,,,,,,,,,,,
,,607b087e7fd80dabd1ce4e63,27,female,2024-04-16_12h22.34.383,stockport_simplified,2022.2.4,Win32,30.03003003,661e456ee6de07e70aa9ef7b,661e51002fc11d4e371ec9ca,,,,,,,,,,,,,,,,,,,,,,,,,,,,,,,,,,556.9188,559.185,"[8,1,2,7,3,4,5,6]","[[0.3,0.2],[-0.3,0.2]]","[[0.125,-0.2],[-0.125,-0.2]]",0.162116887,-0.197281687,1,0,0,1.733,o1_image,559.1853,1,559.685,559.685,561.6852,0,0,0,0,1,,,,,,,,,,,,,,,,,,,,,,,,,,,,,,,,,,,,,,,,,,,,,,,,,,
,,607b087e7fd80dabd1ce4e63,27,female,2024-04-16_12h22.34.383,stockport_simplified,2022.2.4,Win32,30.03003003,661e456ee6de07e70aa9ef7b,661e51002fc11d4e371ec9ca,,,,,,,,,,,,,,,,,,,,,,,,,,,,,,,,,,,,,,,,,,,,,,,,,,,,,,,,0,38,38,31,1,A,X,N,o1_image,stimuli/out1.png,stimuli/correct_out1.png,stimuli/out2.png,,,,,,,,,,,,,,,,,,,,,,,,,,,,,,,,,,,,,,
,,607b087e7fd80dabd1ce4e63,27,female,2024-04-16_12h22.34.383,stockport_simplified,2022.2.4,Win32,30.03003003,661e456ee6de07e70aa9ef7b,661e51002fc11d4e371ec9ca,,,,,,,,,,,,,,,,,,,,,,,,,,,,,,,,,,561.6855,564.5852,"[8,1,2,7,3,4,5,6]","[[-0.3,0.2],[0.3,0.2]]","[[-0.125,-0.2],[0.125,-0.2]]",0.156101835,-0.189415861,1,0,0,2.3665,o2_image,564.5856,1,565.0851,565.0851,567.085,0,0,0,0,1,,,,,,,,,,,,,,,,,,,,,,,,,,,,,,,,,,,,,,,,,,,,,,,,,,
,,607b087e7fd80dabd1ce4e63,27,female,2024-04-16_12h22.34.383,stockport_simplified,2022.2.4,Win32,30.03003003,661e456ee6de07e70aa9ef7b,661e51002fc11d4e371ec9ca,,,,,,,,,,,,,,,,,,,,,,,,,,,,,,,,,,,,,,,,,,,,,,,,,,,,,,,,0,39,39,41,1,B,X,N,o2_image,stimuli/out2.png,stimuli/out1.png,stimuli/correct_out2.png,,,,,,,,,,,,,,,,,,,,,,,,,,,,,,,,,,,,,,
,,607b087e7fd80dabd1ce4e63,27,female,2024-04-16_12h22.34.383,stockport_simplified,2022.2.4,Win32,30.03003003,661e456ee6de07e70aa9ef7b,661e51002fc11d4e371ec9ca,,,,,,,,,,,,,,,,,,,,,,,,,,,,,,,,,,567.0853,570.1185,"[8,1,2,7,3,4,5,6]","[[0.3,0.2],[-0.3,0.2]]","[[0.125,-0.2],[-0.125,-0.2]]",-0.111798713,-0.209311889,1,0,0,2.4993,o2_image,570.1237,1,570.6185,570.6185,572.6186,0,0,0,0,1,,,,,,,,,,,,,,,,,,,,,,,,,,,,,,,,,,,,,,,,,,,,,,,,,,
,,607b087e7fd80dabd1ce4e63,27,female,2024-04-16_12h22.34.383,stockport_simplified,2022.2.4,Win32,30.03003003,661e456ee6de07e70aa9ef7b,661e51002fc11d4e371ec9ca,,,,,,,,,,,,,,,,,,,,,,,,,,,,,,,,,,,,,,,,,,,,,,,,,,,,,,,,0,40,40,18,1,B,Y,N,o2_image,stimuli/out2.png,stimuli/out1.png,stimuli/correct_out2.png,,,,,,,,,,,,,,,,,,,,,,,,,,,,,,,,,,,,,,
,,607b087e7fd80dabd1ce4e63,27,female,2024-04-16_12h22.34.383,stockport_simplified,2022.2.4,Win32,30.03003003,661e456ee6de07e70aa9ef7b,661e51002fc11d4e371ec9ca,,,,,,,,,,,,,,,,,,,,,,,,,,,,,,,,,,572.6188,575.0518,"[8,1,2,7,3,4,5,6]","[[0.3,0.2],[-0.3,0.2]]","[[0.125,-0.2],[-0.125,-0.2]]",-0.094678871,-0.19404282,1,0,0,1.8997,o2_image,575.0522,0,575.5518,575.5518,577.5519,0,0,0,0,1,,,,,,,,,,,,,,,,,,,,,,,,,,,,,,,,,,,,,,,,,,,,,,,,,,
,,607b087e7fd80dabd1ce4e63,27,female,2024-04-16_12h22.34.383,stockport_simplified,2022.2.4,Win32,30.03003003,661e456ee6de07e70aa9ef7b,661e51002fc11d4e371ec9ca,,,,,,,,,,,,,,,,,,,,,,,,,,,,,,,,,,,,,,,,,,,,,,,,,,,,,,,,0,41,41,3,1,A,X,N,o1_image,stimuli/out1.png,stimuli/correct_out1.png,stimuli/out2.png,,,,,,,,,,,,,,,,,,,,,,,,,,,,,,,,,,,,,,
,,607b087e7fd80dabd1ce4e63,27,female,2024-04-16_12h22.34.383,stockport_simplified,2022.2.4,Win32,30.03003003,661e456ee6de07e70aa9ef7b,661e51002fc11d4e371ec9ca,,,,,,,,,,,,,,,,,,,,,,,,,,,,,,,,,,577.5521,581.0186,"[8,1,2,7,3,4,5,6]","[[0.3,0.2],[-0.3,0.2]]","[[0.125,-0.2],[-0.125,-0.2]]",-0.098843248,-0.195893594,1,0,0,2.9331,o2_image,581.019,1,581.5187,581.5187,583.5185,0,0,0,0,1,,,,,,,,,,,,,,,,,,,,,,,,,,,,,,,,,,,,,,,,,,,,,,,,,,
,,607b087e7fd80dabd1ce4e63,27,female,2024-04-16_12h22.34.383,stockport_simplified,2022.2.4,Win32,30.03003003,661e456ee6de07e70aa9ef7b,661e51002fc11d4e371ec9ca,,,,,,,,,,,,,,,,,,,,,,,,,,,,,,,,,,,,,,,,,,,,,,,,,,,,,,,,0,42,42,59,1,N,M,D,o2_image,stimuli/out2.png,stimuli/out1.png,stimuli/correct_out2.png,,,,,,,,,,,,,,,,,,,,,,,,,,,,,,,,,,,,,,
,,607b087e7fd80dabd1ce4e63,27,female,2024-04-16_12h22.34.383,stockport_simplified,2022.2.4,Win32,30.03003003,661e456ee6de07e70aa9ef7b,661e51002fc11d4e371ec9ca,,,,,,,,,,,,,,,,,,,,,,,,,,,,,,,,,,583.5187,585.652,"[8,1,2,7,3,4,5,6]","[[-0.3,0.2],[0.3,0.2]]","[[0.125,-0.2],[-0.125,-0.2]]",-0.075708354,-0.197281687,1,0,0,1.5998,o2_image,585.6569,1,586.152,586.152,588.152,0,0,0,0,1,,,,,,,,,,,,,,,,,,,,,,,,,,,,,,,,,,,,,,,,,,,,,,,,,,
,,607b087e7fd80dabd1ce4e63,27,female,2024-04-16_12h22.34.383,stockport_simplified,2022.2.4,Win32,30.03003003,661e456ee6de07e70aa9ef7b,661e51002fc11d4e371ec9ca,,,,,,,,,,,,,,,,,,,,,,,,,,,,,,,,,,,,,,,,,,,,,,,,,,,,,,,,0,43,43,16,1,B,Y,N,o2_image,stimuli/out2.png,stimuli/out1.png,stimuli/correct_out2.png,,,,,,,,,,,,,,,,,,,,,,,,,,,,,,,,,,,,,,
,,607b087e7fd80dabd1ce4e63,27,female,2024-04-16_12h22.34.383,stockport_simplified,2022.2.4,Win32,30.03003003,661e456ee6de07e70aa9ef7b,661e51002fc11d4e371ec9ca,,,,,,,,,,,,,,,,,,,,,,,,,,,,,,,,,,588.1522,592.6521,"[8,1,2,7,3,4,5,6]","[[0.3,0.2],[-0.3,0.2]]","[[-0.125,-0.2],[0.125,-0.2]]",0.122788007,-0.200983234,1,0,0,3.9666,o2_image,592.6571,0,593.152,593.152,595.152,0,0,0,0,1,,,,,,,,,,,,,,,,,,,,,,,,,,,,,,,,,,,,,,,,,,,,,,,,,,
,,607b087e7fd80dabd1ce4e63,27,female,2024-04-16_12h22.34.383,stockport_simplified,2022.2.4,Win32,30.03003003,661e456ee6de07e70aa9ef7b,661e51002fc11d4e371ec9ca,,,,,,,,,,,,,,,,,,,,,,,,,,,,,,,,,,,,,,,,,,,,,,,,,,,,,,,,0,44,44,38,1,A,Y,N,o1_image,stimuli/out1.png,stimuli/correct_out1.png,stimuli/out2.png,,,,,,,,,,,,,,,,,,,,,,,,,,,,,,,,,,,,,,
,,607b087e7fd80dabd1ce4e63,27,female,2024-04-16_12h22.34.383,stockport_simplified,2022.2.4,Win32,30.03003003,661e456ee6de07e70aa9ef7b,661e51002fc11d4e371ec9ca,,,,,,,,,,,,,,,,,,,,,,,,,,,,,,,,,,595.1523,596.9855,"[8,1,2,7,3,4,5,6]","[[-0.3,0.2],[0.3,0.2]]","[[-0.125,-0.2],[0.125,-0.2]]",-0.139560418,-0.181087355,1,0,0,1.2997,o1_image,596.986,1,597.4855,597.4855,599.4854,0,0,0,0,1,,,,,,,,,,,,,,,,,,,,,,,,,,,,,,,,,,,,,,,,,,,,,,,,,,
,,607b087e7fd80dabd1ce4e63,27,female,2024-04-16_12h22.34.383,stockport_simplified,2022.2.4,Win32,30.03003003,661e456ee6de07e70aa9ef7b,661e51002fc11d4e371ec9ca,,,,,,,,,,,,,,,,,,,,,,,,,,,,,,,,,,,,,,,,,,,,,,,,,,,,,,,,0,45,45,50,1,N,M,C,o1_image,stimuli/out1.png,stimuli/correct_out1.png,stimuli/out2.png,,,,,,,,,,,,,,,,,,,,,,,,,,,,,,,,,,,,,,
,,607b087e7fd80dabd1ce4e63,27,female,2024-04-16_12h22.34.383,stockport_simplified,2022.2.4,Win32,30.03003003,661e456ee6de07e70aa9ef7b,661e51002fc11d4e371ec9ca,,,,,,,,,,,,,,,,,,,,,,,,,,,,,,,,,,599.4857,603.0522,"[8,1,2,7,3,4,5,6]","[[-0.3,0.2],[0.3,0.2]]","[[0.125,-0.2],[-0.125,-0.2]]",-0.097455155,-0.194968331,1,0,0,3.0327,o2_image,603.0573,1,603.5521,603.5521,605.5523,0,0,0,0,1,,,,,,,,,,,,,,,,,,,,,,,,,,,,,,,,,,,,,,,,,,,,,,,,,,
,,607b087e7fd80dabd1ce4e63,27,female,2024-04-16_12h22.34.383,stockport_simplified,2022.2.4,Win32,30.03003003,661e456ee6de07e70aa9ef7b,661e51002fc11d4e371ec9ca,,,,,,,,,,,,,,,,,,,,,,,,,,,,,,,,,,,,,,,,,,,,,,,,,,,,,,,,0,46,46,11,1,B,X,N,o2_image,stimuli/out2.png,stimuli/out1.png,stimuli/correct_out2.png,,,,,,,,,,,,,,,,,,,,,,,,,,,,,,,,,,,,,,
,,607b087e7fd80dabd1ce4e63,27,female,2024-04-16_12h22.34.383,stockport_simplified,2022.2.4,Win32,30.03003003,661e456ee6de07e70aa9ef7b,661e51002fc11d4e371ec9ca,,,,,,,,,,,,,,,,,,,,,,,,,,,,,,,,,,605.5526,607.2521,"[8,1,2,7,3,4,5,6]","[[0.3,0.2],[-0.3,0.2]]","[[0.125,-0.2],[-0.125,-0.2]]",0.096877076,-0.19866978,1,0,0,1.1665,o1_image,607.2524,1,607.7522,607.7522,609.7521,0,0,0,0,1,,,,,,,,,,,,,,,,,,,,,,,,,,,,,,,,,,,,,,,,,,,,,,,,,,
,,607b087e7fd80dabd1ce4e63,27,female,2024-04-16_12h22.34.383,stockport_simplified,2022.2.4,Win32,30.03003003,661e456ee6de07e70aa9ef7b,661e51002fc11d4e371ec9ca,,,,,,,,,,,,,,,,,,,,,,,,,,,,,,,,,,,,,,,,,,,,,,,,,,,,,,,,0,47,47,21,1,N,M,C,o1_image,stimuli/out1.png,stimuli/correct_out1.png,stimuli/out2.png,,,,,,,,,,,,,,,,,,,,,,,,,,,,,,,,,,,,,,
,,607b087e7fd80dabd1ce4e63,27,female,2024-04-16_12h22.34.383,stockport_simplified,2022.2.4,Win32,30.03003003,661e456ee6de07e70aa9ef7b,661e51002fc11d4e371ec9ca,,,,,,,,,,,,,,,,,,,,,,,,,,,,,,,,,,609.7524,611.6188,"[8,1,2,7,3,4,5,6]","[[0.3,0.2],[-0.3,0.2]]","[[-0.125,-0.2],[0.125,-0.2]]",-0.119664391,-0.187102505,1,0,0,1.3662,o1_image,611.6191,1,612.1189,612.1189,614.1189,0,0,0,0,1,,,,,,,,,,,,,,,,,,,,,,,,,,,,,,,,,,,,,,,,,,,,,,,,,,
,,607b087e7fd80dabd1ce4e63,27,female,2024-04-16_12h22.34.383,stockport_simplified,2022.2.4,Win32,30.03003003,661e456ee6de07e70aa9ef7b,661e51002fc11d4e371ec9ca,,,,,,,,,,,,,,,,,,,,,,,,,,,,,,,,,,,,,,,,,,,,,,,,,,,,,,,,0,48,48,53,1,N,M,C,o1_image,stimuli/out1.png,stimuli/correct_out1.png,stimuli/out2.png,,,,,,,,,,,,,,,,,,,,,,,,,,,,,,,,,,,,,,
,,607b087e7fd80dabd1ce4e63,27,female,2024-04-16_12h22.34.383,stockport_simplified,2022.2.4,Win32,30.03003003,661e456ee6de07e70aa9ef7b,661e51002fc11d4e371ec9ca,,,,,,,,,,,,,,,,,,,,,,,,,,,,,,,,,,614.119,617.819,"[8,1,2,7,3,4,5,6]","[[0.3,0.2],[-0.3,0.2]]","[[0.125,-0.2],[-0.125,-0.2]]",0.127414719,-0.201908646,1,0,0,3.1997,o1_image,617.8239,0,618.3189,618.3189,620.319,0,0,0,0,1,,,,,,,,,,,,,,,,,,,,,,,,,,,,,,,,,,,,,,,,,,,,,,,,,,
,,607b087e7fd80dabd1ce4e63,27,female,2024-04-16_12h22.34.383,stockport_simplified,2022.2.4,Win32,30.03003003,661e456ee6de07e70aa9ef7b,661e51002fc11d4e371ec9ca,,,,,,,,,,,,,,,,,,,,,,,,,,,,,,,,,,,,,,,,,,,,,,,,,,,,,,,,0,49,49,44,1,B,X,N,o2_image,stimuli/out2.png,stimuli/out1.png,stimuli/correct_out2.png,,,,,,,,,,,,,,,,,,,,,,,,,,,,,,,,,,,,,,
,,607b087e7fd80dabd1ce4e63,27,female,2024-04-16_12h22.34.383,stockport_simplified,2022.2.4,Win32,30.03003003,661e456ee6de07e70aa9ef7b,661e51002fc11d4e371ec9ca,,,,,,,,,,,,,,,,,,,,,,,,,,,,,,,,,,620.3193,623.1523,"[8,1,2,7,3,4,5,6]","[[-0.3,0.2],[0.3,0.2]]","[[-0.125,-0.2],[0.125,-0.2]]",0.176923077,-0.213938848,1,0,0,2.2997,o2_image,623.1526,1,623.6524,623.6524,625.6524,0,0,0,0,1,,,,,,,,,,,,,,,,,,,,,,,,,,,,,,,,,,,,,,,,,,,,,,,,,,
,,607b087e7fd80dabd1ce4e63,27,female,2024-04-16_12h22.34.383,stockport_simplified,2022.2.4,Win32,30.03003003,661e456ee6de07e70aa9ef7b,661e51002fc11d4e371ec9ca,,,,,,,,,,,,,,,,,,,,,,,,,,,,,,,,,,,,,,,,,,,,,,,,,,,,,,,,0,50,50,15,1,B,Y,N,o2_image,stimuli/out2.png,stimuli/out1.png,stimuli/correct_out2.png,,,,,,,,,,,,,,,,,,,,,,,,,,,,,,,,,,,,,,
,,607b087e7fd80dabd1ce4e63,27,female,2024-04-16_12h22.34.383,stockport_simplified,2022.2.4,Win32,30.03003003,661e456ee6de07e70aa9ef7b,661e51002fc11d4e371ec9ca,,,,,,,,,,,,,,,,,,,,,,,,,,,,,,,,,,625.6527,628.319,"[8,1,2,7,3,4,5,6]","[[0.3,0.2],[-0.3,0.2]]","[[0.125,-0.2],[-0.125,-0.2]]",-0.081260823,-0.218565659,1,0,0,2.133,o2_image,628.3195,1,628.819,628.819,630.8191,0,0,0,0,1,,,,,,,,,,,,,,,,,,,,,,,,,,,,,,,,,,,,,,,,,,,,,,,,,,
,,607b087e7fd80dabd1ce4e63,27,female,2024-04-16_12h22.34.383,stockport_simplified,2022.2.4,Win32,30.03003003,661e456ee6de07e70aa9ef7b,661e51002fc11d4e371ec9ca,,,,,,,,,,,,,,,,,,,,,,,,,,,,,,,,,,,,,,,,,,,,,,,,,,,,,,,,0,51,51,58,1,N,M,D,o2_image,stimuli/out2.png,stimuli/out1.png,stimuli/correct_out2.png,,,,,,,,,,,,,,,,,,,,,,,,,,,,,,,,,,,,,,
,,607b087e7fd80dabd1ce4e63,27,female,2024-04-16_12h22.34.383,stockport_simplified,2022.2.4,Win32,30.03003003,661e456ee6de07e70aa9ef7b,661e51002fc11d4e371ec9ca,,,,,,,,,,,,,,,,,,,,,,,,,,,,,,,,,,630.8193,632.7857,"[8,1,2,7,3,4,5,6]","[[0.3,0.2],[-0.3,0.2]]","[[0.125,-0.2],[-0.125,-0.2]]",-0.128918309,-0.19866978,1,0,0,1.4331,o2_image,632.786,1,633.2857,633.2857,635.286,0,0,0,0,1,,,,,,,,,,,,,,,,,,,,,,,,,,,,,,,,,,,,,,,,,,,,,,,,,,
,,607b087e7fd80dabd1ce4e63,27,female,2024-04-16_12h22.34.383,stockport_simplified,2022.2.4,Win32,30.03003003,661e456ee6de07e70aa9ef7b,661e51002fc11d4e371ec9ca,,,,,,,,,,,,,,,,,,,,,,,,,,,,,,,,,,,,,,,,,,,,,,,,,,,,,,,,0,52,52,19,1,B,Y,N,o2_image,stimuli/out2.png,stimuli/out1.png,stimuli/correct_out2.png,,,,,,,,,,,,,,,,,,,,,,,,,,,,,,,,,,,,,,
,,607b087e7fd80dabd1ce4e63,27,female,2024-04-16_12h22.34.383,stockport_simplified,2022.2.4,Win32,30.03003003,661e456ee6de07e70aa9ef7b,661e51002fc11d4e371ec9ca,,,,,,,,,,,,,,,,,,,,,,,,,,,,,,,,,,635.2862,636.7859,"[8,1,2,7,3,4,5,6]","[[0.3,0.2],[-0.3,0.2]]","[[0.125,-0.2],[-0.125,-0.2]]",0.177848736,-0.202834156,1,0,0,0.9667,o1_image,636.7863,1,637.2858,637.2858,639.2858,0,0,0,0,1,,,,,,,,,,,,,,,,,,,,,,,,,,,,,,,,,,,,,,,,,,,,,,,,,,
,,607b087e7fd80dabd1ce4e63,27,female,2024-04-16_12h22.34.383,stockport_simplified,2022.2.4,Win32,30.03003003,661e456ee6de07e70aa9ef7b,661e51002fc11d4e371ec9ca,,,,,,,,,,,,,,,,,,,,,,,,,,,,,,,,,,,,,,,,,,,,,,,,,,,,,,,,0,53,53,2,1,A,X,N,o1_image,stimuli/out1.png,stimuli/correct_out1.png,stimuli/out2.png,,,,,,,,,,,,,,,,,,,,,,,,,,,,,,,,,,,,,,
,,607b087e7fd80dabd1ce4e63,27,female,2024-04-16_12h22.34.383,stockport_simplified,2022.2.4,Win32,30.03003003,661e456ee6de07e70aa9ef7b,661e51002fc11d4e371ec9ca,,,,,,,,,,,,,,,,,,,,,,,,,,,,,,,,,,639.2861,641.5526,"[8,1,2,7,3,4,5,6]","[[0.3,0.2],[-0.3,0.2]]","[[-0.125,-0.2],[0.125,-0.2]]",0.126489357,-0.200520553,1,0,0,1.7332,o2_image,641.553,1,642.0525,642.0525,644.0525,0,0,0,0,1,,,,,,,,,,,,,,,,,,,,,,,,,,,,,,,,,,,,,,,,,,,,,,,,,,
,,607b087e7fd80dabd1ce4e63,27,female,2024-04-16_12h22.34.383,stockport_simplified,2022.2.4,Win32,30.03003003,661e456ee6de07e70aa9ef7b,661e51002fc11d4e371ec9ca,,,,,,,,,,,,,,,,,,,,,,,,,,,,,,,,,,,,,,,,,,,,,,,,,,,,,,,,0,54,54,28,1,N,M,D,o2_image,stimuli/out2.png,stimuli/out1.png,stimuli/correct_out2.png,,,,,,,,,,,,,,,,,,,,,,,,,,,,,,,,,,,,,,
,,607b087e7fd80dabd1ce4e63,27,female,2024-04-16_12h22.34.383,stockport_simplified,2022.2.4,Win32,30.03003003,661e456ee6de07e70aa9ef7b,661e51002fc11d4e371ec9ca,,,,,,,,,,,,,,,,,,,,,,,,,,,,,,,,,,644.0528,646.1861,"[8,1,2,7,3,4,5,6]","[[-0.3,0.2],[0.3,0.2]]","[[0.125,-0.2],[-0.125,-0.2]]",-0.114112069,-0.181550036,1,0,0,1.6002,o2_image,646.1864,1,646.6858,646.6858,648.6859,0,0,0,0,1,,,,,,,,,,,,,,,,,,,,,,,,,,,,,,,,,,,,,,,,,,,,,,,,,,
,,607b087e7fd80dabd1ce4e63,27,female,2024-04-16_12h22.34.383,stockport_simplified,2022.2.4,Win32,30.03003003,661e456ee6de07e70aa9ef7b,661e51002fc11d4e371ec9ca,,,,,,,,,,,,,,,,,,,,,,,,,,,,,,,,,,,,,,,,,,,,,,,,,,,,,,,,0,55,55,55,1,N,M,D,o2_image,stimuli/out2.png,stimuli/out1.png,stimuli/correct_out2.png,,,,,,,,,,,,,,,,,,,,,,,,,,,,,,,,,,,,,,
,,607b087e7fd80dabd1ce4e63,27,female,2024-04-16_12h22.34.383,stockport_simplified,2022.2.4,Win32,30.03003003,661e456ee6de07e70aa9ef7b,661e51002fc11d4e371ec9ca,,,,,,,,,,,,,,,,,,,,,,,,,,,,,,,,,,648.6861,650.8526,"[8,1,2,7,3,4,5,6]","[[-0.3,0.2],[0.3,0.2]]","[[-0.125,-0.2],[0.125,-0.2]]",0.127414719,-0.215326793,1,0,0,1.632900001,o2_image,650.853,0,651.353,651.353,653.3527,0,0,0,0,1,,,,,,,,,,,,,,,,,,,,,,,,,,,,,,,,,,,,,,,,,,,,,,,,,,
,,607b087e7fd80dabd1ce4e63,27,female,2024-04-16_12h22.34.383,stockport_simplified,2022.2.4,Win32,30.03003003,661e456ee6de07e70aa9ef7b,661e51002fc11d4e371ec9ca,,,,,,,,,,,,,,,,,,,,,,,,,,,,,,,,,,,,,,,,,,,,,,,,,,,,,,,,0,56,56,35,1,A,Y,N,o1_image,stimuli/out1.png,stimuli/correct_out1.png,stimuli/out2.png,,,,,,,,,,,,,,,,,,,,,,,,,,,,,,,,,,,,,,
,,607b087e7fd80dabd1ce4e63,27,female,2024-04-16_12h22.34.383,stockport_simplified,2022.2.4,Win32,30.03003003,661e456ee6de07e70aa9ef7b,661e51002fc11d4e371ec9ca,,,,,,,,,,,,,,,,,,,,,,,,,,,,,,,,,,653.353,656.4194,"[8,1,2,7,3,4,5,6]","[[-0.3,0.2],[0.3,0.2]]","[[-0.125,-0.2],[0.125,-0.2]]",-0.093753459,-0.206535704,1,0,0,2.533099999,o1_image,656.4246,0,656.9194,656.9194,658.9194,0,0,0,0,1,,,,,,,,,,,,,,,,,,,,,,,,,,,,,,,,,,,,,,,,,,,,,,,,,,
,,607b087e7fd80dabd1ce4e63,27,female,2024-04-16_12h22.34.383,stockport_simplified,2022.2.4,Win32,30.03003003,661e456ee6de07e70aa9ef7b,661e51002fc11d4e371ec9ca,,,,,,,,,,,,,,,,,,,,,,,,,,,,,,,,,,,,,,,,,,,,,,,,,,,,,,,,0,57,57,17,1,B,Y,N,o2_image,stimuli/out2.png,stimuli/out1.png,stimuli/correct_out2.png,,,,,,,,,,,,,,,,,,,,,,,,,,,,,,,,,,,,,,
,,607b087e7fd80dabd1ce4e63,27,female,2024-04-16_12h22.34.383,stockport_simplified,2022.2.4,Win32,30.03003003,661e456ee6de07e70aa9ef7b,661e51002fc11d4e371ec9ca,,,,,,,,,,,,,,,,,,,,,,,,,,,,,,,,,,658.9197,660.7193,"[8,1,2,7,3,4,5,6]","[[-0.3,0.2],[0.3,0.2]]","[[0.125,-0.2],[-0.125,-0.2]]",0.143609051,-0.213938848,1,0,0,1.2664,o1_image,660.7196,1,661.2194,661.2194,663.2196,0,0,0,0,1,,,,,,,,,,,,,,,,,,,,,,,,,,,,,,,,,,,,,,,,,,,,,,,,,,
,,607b087e7fd80dabd1ce4e63,27,female,2024-04-16_12h22.34.383,stockport_simplified,2022.2.4,Win32,30.03003003,661e456ee6de07e70aa9ef7b,661e51002fc11d4e371ec9ca,,,,,,,,,,,,,,,,,,,,,,,,,,,,,,,,,,,,,,,,,,,,,,,,,,,,,,,,0,58,58,52,1,N,M,C,o1_image,stimuli/out1.png,stimuli/correct_out1.png,stimuli/out2.png,,,,,,,,,,,,,,,,,,,,,,,,,,,,,,,,,,,,,,
,,607b087e7fd80dabd1ce4e63,27,female,2024-04-16_12h22.34.383,stockport_simplified,2022.2.4,Win32,30.03003003,661e456ee6de07e70aa9ef7b,661e51002fc11d4e371ec9ca,,,,,,,,,,,,,,,,,,,,,,,,,,,,,,,,,,663.2199,665.7861,"[8,1,2,7,3,4,5,6]","[[-0.3,0.2],[0.3,0.2]]","[[0.125,-0.2],[-0.125,-0.2]]",-0.101619285,-0.183863639,1,0,0,2.0331,o2_image,665.791,0,666.286,666.2861,668.2861,0,0,0,0,1,,,,,,,,,,,,,,,,,,,,,,,,,,,,,,,,,,,,,,,,,,,,,,,,,,
,,607b087e7fd80dabd1ce4e63,27,female,2024-04-16_12h22.34.383,stockport_simplified,2022.2.4,Win32,30.03003003,661e456ee6de07e70aa9ef7b,661e51002fc11d4e371ec9ca,,,,,,,,,,,,,,,,,,,,,,,,,,,,,,,,,,,,,,,,,,,,,,,,,,,,,,,,0,59,59,6,1,A,Y,N,o1_image,stimuli/out1.png,stimuli/correct_out1.png,stimuli/out2.png,,,,,,,,,,,,,,,,,,,,,,,,,,,,,,,,,,,,,,
,,607b087e7fd80dabd1ce4e63,27,female,2024-04-16_12h22.34.383,stockport_simplified,2022.2.4,Win32,30.03003003,661e456ee6de07e70aa9ef7b,661e51002fc11d4e371ec9ca,,,,,,,,,,,,,,,,,,,,,,,,,,,,,,,,,,668.2864,670.3861,"[8,1,2,7,3,4,5,6]","[[-0.3,0.2],[0.3,0.2]]","[[-0.125,-0.2],[0.125,-0.2]]",-0.111798713,-0.19959529,1,0,0,1.566599999,o1_image,670.3864,1,670.8861,670.8861,672.8861,0,0,0,0,1,,,,,,,,,,,,,,,,,,,,,,,,,,,,,,,,,,,,,,,,,,,,,,,,,,
,,607b087e7fd80dabd1ce4e63,27,female,2024-04-16_12h22.34.383,stockport_simplified,2022.2.4,Win32,30.03003003,661e456ee6de07e70aa9ef7b,661e51002fc11d4e371ec9ca,,,,,,,,,,,,,,,,,,,,,,,,,,,,,,,,,,,,,,,,,,,,,,,,,,,,,,,,1,0,60,33,1,A,X,N,o1_image,stimuli/out1.png,stimuli/correct_out1.png,stimuli/out2.png,,,,,,,,,,,,,,,,,,,,,,,,,,,,,,,,,,,,,,
,,607b087e7fd80dabd1ce4e63,27,female,2024-04-16_12h22.34.383,stockport_simplified,2022.2.4,Win32,30.03003003,661e456ee6de07e70aa9ef7b,661e51002fc11d4e371ec9ca,,,,,,,,,,,,,,,,,,,,,,,,,,,,,,,,,,672.8863,675.4529,"[8,1,2,7,3,4,5,6]","[[0.3,0.2],[-0.3,0.2]]","[[0.125,-0.2],[-0.125,-0.2]]",-0.08958933,-0.17831117,1,0,0,2.033,o2_image,675.4531,1,675.9528,675.9528,677.9528,0,0,0,0,1,,,,,,,,,,,,,,,,,,,,,,,,,,,,,,,,,,,,,,,,,,,,,,,,,,
,,607b087e7fd80dabd1ce4e63,27,female,2024-04-16_12h22.34.383,stockport_simplified,2022.2.4,Win32,30.03003003,661e456ee6de07e70aa9ef7b,661e51002fc11d4e371ec9ca,,,,,,,,,,,,,,,,,,,,,,,,,,,,,,,,,,,,,,,,,,,,,,,,,,,,,,,,1,1,61,49,1,B,Y,N,o2_image,stimuli/out2.png,stimuli/out1.png,stimuli/correct_out2.png,,,,,,,,,,,,,,,,,,,,,,,,,,,,,,,,,,,,,,
,,607b087e7fd80dabd1ce4e63,27,female,2024-04-16_12h22.34.383,stockport_simplified,2022.2.4,Win32,30.03003003,661e456ee6de07e70aa9ef7b,661e51002fc11d4e371ec9ca,,,,,,,,,,,,,,,,,,,,,,,,,,,,,,,,,,677.9531,681.053,"[8,1,2,7,3,4,5,6]","[[-0.3,0.2],[0.3,0.2]]","[[-0.125,-0.2],[0.125,-0.2]]",-0.113186658,-0.212087926,1,0,0,2.5663,o1_image,681.0532,0,681.5529,681.5529,683.5529,0,0,0,0,1,,,,,,,,,,,,,,,,,,,,,,,,,,,,,,,,,,,,,,,,,,,,,,,,,,
,,607b087e7fd80dabd1ce4e63,27,female,2024-04-16_12h22.34.383,stockport_simplified,2022.2.4,Win32,30.03003003,661e456ee6de07e70aa9ef7b,661e51002fc11d4e371ec9ca,,,,,,,,,,,,,,,,,,,,,,,,,,,,,,,,,,,,,,,,,,,,,,,,,,,,,,,,1,2,62,41,1,B,X,N,o2_image,stimuli/out2.png,stimuli/out1.png,stimuli/correct_out2.png,,,,,,,,,,,,,,,,,,,,,,,,,,,,,,,,,,,,,,
,,607b087e7fd80dabd1ce4e63,27,female,2024-04-16_12h22.34.383,stockport_simplified,2022.2.4,Win32,30.03003003,661e456ee6de07e70aa9ef7b,661e51002fc11d4e371ec9ca,,,,,,,,,,,,,,,,,,,,,,,,,,,,,,,,,,683.5532,686.0862,"[8,1,2,7,3,4,5,6]","[[0.3,0.2],[-0.3,0.2]]","[[-0.125,-0.2],[0.125,-0.2]]",0.144071732,-0.203296837,1,0,0,2.0327,o2_image,686.0912,1,686.5864,686.5864,688.5863,0,0,0,0,1,,,,,,,,,,,,,,,,,,,,,,,,,,,,,,,,,,,,,,,,,,,,,,,,,,
,,607b087e7fd80dabd1ce4e63,27,female,2024-04-16_12h22.34.383,stockport_simplified,2022.2.4,Win32,30.03003003,661e456ee6de07e70aa9ef7b,661e51002fc11d4e371ec9ca,,,,,,,,,,,,,,,,,,,,,,,,,,,,,,,,,,,,,,,,,,,,,,,,,,,,,,,,1,3,63,45,1,B,Y,N,o2_image,stimuli/out2.png,stimuli/out1.png,stimuli/correct_out2.png,,,,,,,,,,,,,,,,,,,,,,,,,,,,,,,,,,,,,,
,,607b087e7fd80dabd1ce4e63,27,female,2024-04-16_12h22.34.383,stockport_simplified,2022.2.4,Win32,30.03003003,661e456ee6de07e70aa9ef7b,661e51002fc11d4e371ec9ca,,,,,,,,,,,,,,,,,,,,,,,,,,,,,,,,,,688.5865,691.2865,"[8,1,2,7,3,4,5,6]","[[0.3,0.2],[-0.3,0.2]]","[[0.125,-0.2],[-0.125,-0.2]]",-0.132157175,-0.205610193,1,0,0,2.199599999,o2_image,691.2868,1,691.7864,691.7864,693.7863,0,0,0,0,1,,,,,,,,,,,,,,,,,,,,,,,,,,,,,,,,,,,,,,,,,,,,,,,,,,
,,607b087e7fd80dabd1ce4e63,27,female,2024-04-16_12h22.34.383,stockport_simplified,2022.2.4,Win32,30.03003003,661e456ee6de07e70aa9ef7b,661e51002fc11d4e371ec9ca,,,,,,,,,,,,,,,,,,,,,,,,,,,,,,,,,,,,,,,,,,,,,,,,,,,,,,,,1,4,64,48,1,B,Y,N,o2_image,stimuli/out2.png,stimuli/out1.png,stimuli/correct_out2.png,,,,,,,,,,,,,,,,,,,,,,,,,,,,,,,,,,,,,,
,,607b087e7fd80dabd1ce4e63,27,female,2024-04-16_12h22.34.383,stockport_simplified,2022.2.4,Win32,30.03003003,661e456ee6de07e70aa9ef7b,661e51002fc11d4e371ec9ca,,,,,,,,,,,,,,,,,,,,,,,,,,,,,,,,,,693.7866,695.4198,"[8,1,2,7,3,4,5,6]","[[0.3,0.2],[-0.3,0.2]]","[[0.125,-0.2],[-0.125,-0.2]]",0.136205956,-0.20375942,1,0,0,1.0998,o1_image,695.4201,1,695.9198,695.9198,697.9197,0,0,0,0,1,,,,,,,,,,,,,,,,,,,,,,,,,,,,,,,,,,,,,,,,,,,,,,,,,,
,,607b087e7fd80dabd1ce4e63,27,female,2024-04-16_12h22.34.383,stockport_simplified,2022.2.4,Win32,30.03003003,661e456ee6de07e70aa9ef7b,661e51002fc11d4e371ec9ca,,,,,,,,,,,,,,,,,,,,,,,,,,,,,,,,,,,,,,,,,,,,,,,,,,,,,,,,1,5,65,23,1,N,M,C,o1_image,stimuli/out1.png,stimuli/correct_out1.png,stimuli/out2.png,,,,,,,,,,,,,,,,,,,,,,,,,,,,,,,,,,,,,,
,,607b087e7fd80dabd1ce4e63,27,female,2024-04-16_12h22.34.383,stockport_simplified,2022.2.4,Win32,30.03003003,661e456ee6de07e70aa9ef7b,661e51002fc11d4e371ec9ca,,,,,,,,,,,,,,,,,,,,,,,,,,,,,,,,,,697.9199,699.2197,"[8,1,2,7,3,4,5,6]","[[-0.3,0.2],[0.3,0.2]]","[[0.125,-0.2],[-0.125,-0.2]]",0.135280791,-0.211162663,1,0,0,0.7997,o1_image,699.2201,1,699.7197,699.7197,701.7198,0,0,0,0,1,,,,,,,,,,,,,,,,,,,,,,,,,,,,,,,,,,,,,,,,,,,,,,,,,,
,,607b087e7fd80dabd1ce4e63,27,female,2024-04-16_12h22.34.383,stockport_simplified,2022.2.4,Win32,30.03003003,661e456ee6de07e70aa9ef7b,661e51002fc11d4e371ec9ca,,,,,,,,,,,,,,,,,,,,,,,,,,,,,,,,,,,,,,,,,,,,,,,,,,,,,,,,1,6,66,21,1,N,M,C,o1_image,stimuli/out1.png,stimuli/correct_out1.png,stimuli/out2.png,,,,,,,,,,,,,,,,,,,,,,,,,,,,,,,,,,,,,,
,,607b087e7fd80dabd1ce4e63,27,female,2024-04-16_12h22.34.383,stockport_simplified,2022.2.4,Win32,30.03003003,661e456ee6de07e70aa9ef7b,661e51002fc11d4e371ec9ca,,,,,,,,,,,,,,,,,,,,,,,,,,,,,,,,,,701.7201,703.6864,"[8,1,2,7,3,4,5,6]","[[0.3,0.2],[-0.3,0.2]]","[[0.125,-0.2],[-0.125,-0.2]]",0.139907503,-0.252805245,1,0,0,1.433,o1_image,703.6868,1,704.1865,704.1865,706.1866,0,0,0,0,1,,,,,,,,,,,,,,,,,,,,,,,,,,,,,,,,,,,,,,,,,,,,,,,,,,
,,607b087e7fd80dabd1ce4e63,27,female,2024-04-16_12h22.34.383,stockport_simplified,2022.2.4,Win32,30.03003003,661e456ee6de07e70aa9ef7b,661e51002fc11d4e371ec9ca,,,,,,,,,,,,,,,,,,,,,,,,,,,,,,,,,,,,,,,,,,,,,,,,,,,,,,,,1,7,67,4,1,A,X,N,o1_image,stimuli/out1.png,stimuli/correct_out1.png,stimuli/out2.png,,,,,,,,,,,,,,,,,,,,,,,,,,,,,,,,,,,,,,
,,607b087e7fd80dabd1ce4e63,27,female,2024-04-16_12h22.34.383,stockport_simplified,2022.2.4,Win32,30.03003003,661e456ee6de07e70aa9ef7b,661e51002fc11d4e371ec9ca,,,,,,,,,,,,,,,,,,,,,,,,,,,,,,,,,,706.1869,708.2532,"[8,1,2,7,3,4,5,6]","[[-0.3,0.2],[0.3,0.2]]","[[-0.125,-0.2],[0.125,-0.2]]",0.100578425,-0.192192047,1,0,0,1.532599999,o2_image,708.2535,0,708.753,708.7531,710.7533,0,0,0,0,1,,,,,,,,,,,,,,,,,,,,,,,,,,,,,,,,,,,,,,,,,,,,,,,,,,
,,607b087e7fd80dabd1ce4e63,27,female,2024-04-16_12h22.34.383,stockport_simplified,2022.2.4,Win32,30.03003003,661e456ee6de07e70aa9ef7b,661e51002fc11d4e371ec9ca,,,,,,,,,,,,,,,,,,,,,,,,,,,,,,,,,,,,,,,,,,,,,,,,,,,,,,,,1,8,68,5,1,A,Y,N,o1_image,stimuli/out1.png,stimuli/correct_out1.png,stimuli/out2.png,,,,,,,,,,,,,,,,,,,,,,,,,,,,,,,,,,,,,,
,,607b087e7fd80dabd1ce4e63,27,female,2024-04-16_12h22.34.383,stockport_simplified,2022.2.4,Win32,30.03003003,661e456ee6de07e70aa9ef7b,661e51002fc11d4e371ec9ca,,,,,,,,,,,,,,,,,,,,,,,,,,,,,,,,,,710.7535,712.4199,"[8,1,2,7,3,4,5,6]","[[0.3,0.2],[-0.3,0.2]]","[[-0.125,-0.2],[0.125,-0.2]]",-0.091902686,-0.175535133,1,0,0,1.133099999,o1_image,712.4202,1,712.92,712.92,714.92,0,0,0,0,1,,,,,,,,,,,,,,,,,,,,,,,,,,,,,,,,,,,,,,,,,,,,,,,,,,
,,607b087e7fd80dabd1ce4e63,27,female,2024-04-16_12h22.34.383,stockport_simplified,2022.2.4,Win32,30.03003003,661e456ee6de07e70aa9ef7b,661e51002fc11d4e371ec9ca,,,,,,,,,,,,,,,,,,,,,,,,,,,,,,,,,,,,,,,,,,,,,,,,,,,,,,,,1,9,69,20,1,N,M,C,o1_image,stimuli/out1.png,stimuli/correct_out1.png,stimuli/out2.png,,,,,,,,,,,,,,,,,,,,,,,,,,,,,,,,,,,,,,
,,607b087e7fd80dabd1ce4e63,27,female,2024-04-16_12h22.34.383,stockport_simplified,2022.2.4,Win32,30.03003003,661e456ee6de07e70aa9ef7b,661e51002fc11d4e371ec9ca,,,,,,,,,,,,,,,,,,,,,,,,,,,,,,,,,,714.9202,717.3533,"[8,1,2,7,3,4,5,6]","[[-0.3,0.2],[0.3,0.2]]","[[0.125,-0.2],[-0.125,-0.2]]",-0.093290778,-0.166281116,1,0,0,1.8999,o2_image,717.3536,1,717.8532,717.8533,719.8533,0,0,0,0,1,,,,,,,,,,,,,,,,,,,,,,,,,,,,,,,,,,,,,,,,,,,,,,,,,,
,,607b087e7fd80dabd1ce4e63,27,female,2024-04-16_12h22.34.383,stockport_simplified,2022.2.4,Win32,30.03003003,661e456ee6de07e70aa9ef7b,661e51002fc11d4e371ec9ca,,,,,,,,,,,,,,,,,,,,,,,,,,,,,,,,,,,,,,,,,,,,,,,,,,,,,,,,1,10,70,55,1,N,M,D,o2_image,stimuli/out2.png,stimuli/out1.png,stimuli/correct_out2.png,,,,,,,,,,,,,,,,,,,,,,,,,,,,,,,,,,,,,,
,,607b087e7fd80dabd1ce4e63,27,female,2024-04-16_12h22.34.383,stockport_simplified,2022.2.4,Win32,30.03003003,661e456ee6de07e70aa9ef7b,661e51002fc11d4e371ec9ca,,,,,,,,,,,,,,,,,,,,,,,,,,,,,,,,,,719.8535,722.6201,"[8,1,2,7,3,4,5,6]","[[-0.3,0.2],[0.3,0.2]]","[[-0.125,-0.2],[0.125,-0.2]]",0.157952856,-0.201446064,1,0,0,2.2331,o2_image,722.6204,1,723.1199,723.12,725.12,0,0,0,0,1,,,,,,,,,,,,,,,,,,,,,,,,,,,,,,,,,,,,,,,,,,,,,,,,,,
,,607b087e7fd80dabd1ce4e63,27,female,2024-04-16_12h22.34.383,stockport_simplified,2022.2.4,Win32,30.03003003,661e456ee6de07e70aa9ef7b,661e51002fc11d4e371ec9ca,,,,,,,,,,,,,,,,,,,,,,,,,,,,,,,,,,,,,,,,,,,,,,,,,,,,,,,,1,11,71,46,1,B,Y,N,o2_image,stimuli/out2.png,stimuli/out1.png,stimuli/correct_out2.png,,,,,,,,,,,,,,,,,,,,,,,,,,,,,,,,,,,,,,
,,607b087e7fd80dabd1ce4e63,27,female,2024-04-16_12h22.34.383,stockport_simplified,2022.2.4,Win32,30.03003003,661e456ee6de07e70aa9ef7b,661e51002fc11d4e371ec9ca,,,,,,,,,,,,,,,,,,,,,,,,,,,,,,,,,,725.1202,727.2867,"[8,1,2,7,3,4,5,6]","[[0.3,0.2],[-0.3,0.2]]","[[-0.125,-0.2],[0.125,-0.2]]",-0.146963414,-0.161191574,1,0,0,1.6332,o1_image,727.287,0,727.7869,727.7869,729.7868,0,0,0,0,1,,,,,,,,,,,,,,,,,,,,,,,,,,,,,,,,,,,,,,,,,,,,,,,,,,
,,607b087e7fd80dabd1ce4e63,27,female,2024-04-16_12h22.34.383,stockport_simplified,2022.2.4,Win32,30.03003003,661e456ee6de07e70aa9ef7b,661e51002fc11d4e371ec9ca,,,,,,,,,,,,,,,,,,,,,,,,,,,,,,,,,,,,,,,,,,,,,,,,,,,,,,,,1,12,72,12,1,B,X,N,o2_image,stimuli/out2.png,stimuli/out1.png,stimuli/correct_out2.png,,,,,,,,,,,,,,,,,,,,,,,,,,,,,,,,,,,,,,
,,607b087e7fd80dabd1ce4e63,27,female,2024-04-16_12h22.34.383,stockport_simplified,2022.2.4,Win32,30.03003003,661e456ee6de07e70aa9ef7b,661e51002fc11d4e371ec9ca,,,,,,,,,,,,,,,,,,,,,,,,,,,,,,,,,,729.787,731.9201,"[8,1,2,7,3,4,5,6]","[[-0.3,0.2],[0.3,0.2]]","[[0.125,-0.2],[-0.125,-0.2]]",0.157489879,-0.207923796,1,0,0,1.6,o1_image,731.9204,0,732.42,732.42,734.4201,0,0,0,0,1,,,,,,,,,,,,,,,,,,,,,,,,,,,,,,,,,,,,,,,,,,,,,,,,,,
,,607b087e7fd80dabd1ce4e63,27,female,2024-04-16_12h22.34.383,stockport_simplified,2022.2.4,Win32,30.03003003,661e456ee6de07e70aa9ef7b,661e51002fc11d4e371ec9ca,,,,,,,,,,,,,,,,,,,,,,,,,,,,,,,,,,,,,,,,,,,,,,,,,,,,,,,,1,13,73,14,1,B,X,N,o2_image,stimuli/out2.png,stimuli/out1.png,stimuli/correct_out2.png,,,,,,,,,,,,,,,,,,,,,,,,,,,,,,,,,,,,,,
,,607b087e7fd80dabd1ce4e63,27,female,2024-04-16_12h22.34.383,stockport_simplified,2022.2.4,Win32,30.03003003,661e456ee6de07e70aa9ef7b,661e51002fc11d4e371ec9ca,,,,,,,,,,,,,,,,,,,,,,,,,,,,,,,,,,734.4203,736.2201,"[8,1,2,7,3,4,5,6]","[[-0.3,0.2],[0.3,0.2]]","[[0.125,-0.2],[-0.125,-0.2]]",0.130653585,-0.227819577,1,0,0,1.2665,o1_image,736.2205,1,736.7201,736.7201,738.7201,0,0,0,0,1,,,,,,,,,,,,,,,,,,,,,,,,,,,,,,,,,,,,,,,,,,,,,,,,,,
,,607b087e7fd80dabd1ce4e63,27,female,2024-04-16_12h22.34.383,stockport_simplified,2022.2.4,Win32,30.03003003,661e456ee6de07e70aa9ef7b,661e51002fc11d4e371ec9ca,,,,,,,,,,,,,,,,,,,,,,,,,,,,,,,,,,,,,,,,,,,,,,,,,,,,,,,,1,14,74,51,1,N,M,C,o1_image,stimuli/out1.png,stimuli/correct_out1.png,stimuli/out2.png,,,,,,,,,,,,,,,,,,,,,,,,,,,,,,,,,,,,,,
,,607b087e7fd80dabd1ce4e63,27,female,2024-04-16_12h22.34.383,stockport_simplified,2022.2.4,Win32,30.03003003,661e456ee6de07e70aa9ef7b,661e51002fc11d4e371ec9ca,,,,,,,,,,,,,,,,,,,,,,,,,,,,,,,,,,738.7204,742.9535,"[8,1,2,7,3,4,5,6]","[[0.3,0.2],[-0.3,0.2]]","[[0.125,-0.2],[-0.125,-0.2]]",-0.078021957,-0.186176995,1,0,0,3.7,o2_image,742.9585,0,743.4536,743.4536,745.4536,0,0,0,0,1,,,,,,,,,,,,,,,,,,,,,,,,,,,,,,,,,,,,,,,,,,,,,,,,,,
,,607b087e7fd80dabd1ce4e63,27,female,2024-04-16_12h22.34.383,stockport_simplified,2022.2.4,Win32,30.03003003,661e456ee6de07e70aa9ef7b,661e51002fc11d4e371ec9ca,,,,,,,,,,,,,,,,,,,,,,,,,,,,,,,,,,,,,,,,,,,,,,,,,,,,,,,,1,15,75,38,1,A,Y,N,o1_image,stimuli/out1.png,stimuli/correct_out1.png,stimuli/out2.png,,,,,,,,,,,,,,,,,,,,,,,,,,,,,,,,,,,,,,
,,607b087e7fd80dabd1ce4e63,27,female,2024-04-16_12h22.34.383,stockport_simplified,2022.2.4,Win32,30.03003003,661e456ee6de07e70aa9ef7b,661e51002fc11d4e371ec9ca,,,,,,,,,,,,,,,,,,,,,,,,,,,,,,,,,,745.4539,747.5535,"[8,1,2,7,3,4,5,6]","[[-0.3,0.2],[0.3,0.2]]","[[-0.125,-0.2],[0.125,-0.2]]",0.1278774,-0.199132461,1,0,0,1.5666,o2_image,747.5538,1,748.0537,748.0537,750.0536,0,0,0,0,1,,,,,,,,,,,,,,,,,,,,,,,,,,,,,,,,,,,,,,,,,,,,,,,,,,
,,607b087e7fd80dabd1ce4e63,27,female,2024-04-16_12h22.34.383,stockport_simplified,2022.2.4,Win32,30.03003003,661e456ee6de07e70aa9ef7b,661e51002fc11d4e371ec9ca,,,,,,,,,,,,,,,,,,,,,,,,,,,,,,,,,,,,,,,,,,,,,,,,,,,,,,,,1,16,76,47,1,B,Y,N,o2_image,stimuli/out2.png,stimuli/out1.png,stimuli/correct_out2.png,,,,,,,,,,,,,,,,,,,,,,,,,,,,,,,,,,,,,,
,,607b087e7fd80dabd1ce4e63,27,female,2024-04-16_12h22.34.383,stockport_simplified,2022.2.4,Win32,30.03003003,661e456ee6de07e70aa9ef7b,661e51002fc11d4e371ec9ca,,,,,,,,,,,,,,,,,,,,,,,,,,,,,,,,,,750.0537,753.0536,"[8,1,2,7,3,4,5,6]","[[0.3,0.2],[-0.3,0.2]]","[[0.125,-0.2],[-0.125,-0.2]]",-0.104858151,-0.181087355,1,0,0,2.466400001,o2_image,753.0539,0,753.5536,753.5537,755.5536,0,0,0,0,1,,,,,,,,,,,,,,,,,,,,,,,,,,,,,,,,,,,,,,,,,,,,,,,,,,
,,607b087e7fd80dabd1ce4e63,27,female,2024-04-16_12h22.34.383,stockport_simplified,2022.2.4,Win32,30.03003003,661e456ee6de07e70aa9ef7b,661e51002fc11d4e371ec9ca,,,,,,,,,,,,,,,,,,,,,,,,,,,,,,,,,,,,,,,,,,,,,,,,,,,,,,,,1,17,77,36,1,A,Y,N,o1_image,stimuli/out1.png,stimuli/correct_out1.png,stimuli/out2.png,,,,,,,,,,,,,,,,,,,,,,,,,,,,,,,,,,,,,,
,,607b087e7fd80dabd1ce4e63,27,female,2024-04-16_12h22.34.383,stockport_simplified,2022.2.4,Win32,30.03003003,661e456ee6de07e70aa9ef7b,661e51002fc11d4e371ec9ca,,,,,,,,,,,,,,,,,,,,,,,,,,,,,,,,,,755.5539,757.3871,"[8,1,2,7,3,4,5,6]","[[0.3,0.2],[-0.3,0.2]]","[[-0.125,-0.2],[0.125,-0.2]]",-0.094216289,-0.216252303,1,0,0,1.299900001,o1_image,757.3874,1,757.8872,757.8872,759.887,0,0,0,0,1,,,,,,,,,,,,,,,,,,,,,,,,,,,,,,,,,,,,,,,,,,,,,,,,,,
,,607b087e7fd80dabd1ce4e63,27,female,2024-04-16_12h22.34.383,stockport_simplified,2022.2.4,Win32,30.03003003,661e456ee6de07e70aa9ef7b,661e51002fc11d4e371ec9ca,,,,,,,,,,,,,,,,,,,,,,,,,,,,,,,,,,,,,,,,,,,,,,,,,,,,,,,,1,18,78,50,1,N,M,C,o1_image,stimuli/out1.png,stimuli/correct_out1.png,stimuli/out2.png,,,,,,,,,,,,,,,,,,,,,,,,,,,,,,,,,,,,,,
,,607b087e7fd80dabd1ce4e63,27,female,2024-04-16_12h22.34.383,stockport_simplified,2022.2.4,Win32,30.03003003,661e456ee6de07e70aa9ef7b,661e51002fc11d4e371ec9ca,,,,,,,,,,,,,,,,,,,,,,,,,,,,,,,,,,759.8873,762.5204,"[8,1,2,7,3,4,5,6]","[[-0.3,0.2],[0.3,0.2]]","[[-0.125,-0.2],[0.125,-0.2]]",-0.090514593,-0.191266635,1,0,0,2.099799999,o1_image,762.5208,1,763.0203,763.0203,765.0204,0,0,0,0,1,,,,,,,,,,,,,,,,,,,,,,,,,,,,,,,,,,,,,,,,,,,,,,,,,,
,,607b087e7fd80dabd1ce4e63,27,female,2024-04-16_12h22.34.383,stockport_simplified,2022.2.4,Win32,30.03003003,661e456ee6de07e70aa9ef7b,661e51002fc11d4e371ec9ca,,,,,,,,,,,,,,,,,,,,,,,,,,,,,,,,,,,,,,,,,,,,,,,,,,,,,,,,1,19,79,6,1,A,Y,N,o1_image,stimuli/out1.png,stimuli/correct_out1.png,stimuli/out2.png,,,,,,,,,,,,,,,,,,,,,,,,,,,,,,,,,,,,,,
,,607b087e7fd80dabd1ce4e63,27,female,2024-04-16_12h22.34.383,stockport_simplified,2022.2.4,Win32,30.03003003,661e456ee6de07e70aa9ef7b,661e51002fc11d4e371ec9ca,,,,,,,,,,,,,,,,,,,,,,,,,,,,,,,,,,765.0206,766.8537,"[8,1,2,7,3,4,5,6]","[[-0.3,0.2],[0.3,0.2]]","[[-0.125,-0.2],[0.125,-0.2]]",0.146847917,-0.187565088,1,0,0,1.299900001,o2_image,766.8541,1,767.3539,767.3539,769.3538,0,0,0,0,1,,,,,,,,,,,,,,,,,,,,,,,,,,,,,,,,,,,,,,,,,,,,,,,,,,
,,607b087e7fd80dabd1ce4e63,27,female,2024-04-16_12h22.34.383,stockport_simplified,2022.2.4,Win32,30.03003003,661e456ee6de07e70aa9ef7b,661e51002fc11d4e371ec9ca,,,,,,,,,,,,,,,,,,,,,,,,,,,,,,,,,,,,,,,,,,,,,,,,,,,,,,,,1,20,80,11,1,B,X,N,o2_image,stimuli/out2.png,stimuli/out1.png,stimuli/correct_out2.png,,,,,,,,,,,,,,,,,,,,,,,,,,,,,,,,,,,,,,
,,607b087e7fd80dabd1ce4e63,27,female,2024-04-16_12h22.34.383,stockport_simplified,2022.2.4,Win32,30.03003003,661e456ee6de07e70aa9ef7b,661e51002fc11d4e371ec9ca,,,,,,,,,,,,,,,,,,,,,,,,,,,,,,,,,,769.3541,771.1205,"[8,1,2,7,3,4,5,6]","[[-0.3,0.2],[0.3,0.2]]","[[-0.125,-0.2],[0.125,-0.2]]",-0.128918309,-0.15425116,1,0,0,1.2331,o1_image,771.1207,1,771.6205,771.6205,773.6204,0,0,0,0,1,,,,,,,,,,,,,,,,,,,,,,,,,,,,,,,,,,,,,,,,,,,,,,,,,,
,,607b087e7fd80dabd1ce4e63,27,female,2024-04-16_12h22.34.383,stockport_simplified,2022.2.4,Win32,30.03003003,661e456ee6de07e70aa9ef7b,661e51002fc11d4e371ec9ca,,,,,,,,,,,,,,,,,,,,,,,,,,,,,,,,,,,,,,,,,,,,,,,,,,,,,,,,1,21,81,52,1,N,M,C,o1_image,stimuli/out1.png,stimuli/correct_out1.png,stimuli/out2.png,,,,,,,,,,,,,,,,,,,,,,,,,,,,,,,,,,,,,,
,,607b087e7fd80dabd1ce4e63,27,female,2024-04-16_12h22.34.383,stockport_simplified,2022.2.4,Win32,30.03003003,661e456ee6de07e70aa9ef7b,661e51002fc11d4e371ec9ca,,,,,,,,,,,,,,,,,,,,,,,,,,,,,,,,,,773.6207,776.1872,"[8,1,2,7,3,4,5,6]","[[-0.3,0.2],[0.3,0.2]]","[[-0.125,-0.2],[0.125,-0.2]]",0.120474305,-0.202834156,1,0,0,2.033099999,o2_image,776.1875,1,776.6871,776.6872,778.6872,0,0,0,0,1,,,,,,,,,,,,,,,,,,,,,,,,,,,,,,,,,,,,,,,,,,,,,,,,,,
,,607b087e7fd80dabd1ce4e63,27,female,2024-04-16_12h22.34.383,stockport_simplified,2022.2.4,Win32,30.03003003,661e456ee6de07e70aa9ef7b,661e51002fc11d4e371ec9ca,,,,,,,,,,,,,,,,,,,,,,,,,,,,,,,,,,,,,,,,,,,,,,,,,,,,,,,,1,22,82,19,1,B,Y,N,o2_image,stimuli/out2.png,stimuli/out1.png,stimuli/correct_out2.png,,,,,,,,,,,,,,,,,,,,,,,,,,,,,,,,,,,,,,
,,607b087e7fd80dabd1ce4e63,27,female,2024-04-16_12h22.34.383,stockport_simplified,2022.2.4,Win32,30.03003003,661e456ee6de07e70aa9ef7b,661e51002fc11d4e371ec9ca,,,,,,,,,,,,,,,,,,,,,,,,,,,,,,,,,,778.6874,780.4205,"[8,1,2,7,3,4,5,6]","[[-0.3,0.2],[0.3,0.2]]","[[-0.125,-0.2],[0.125,-0.2]]",-0.12429135,-0.206073023,1,0,0,1.1998,o1_image,780.4208,0,780.9206,780.9206,782.9208,0,0,0,0,1,,,,,,,,,,,,,,,,,,,,,,,,,,,,,,,,,,,,,,,,,,,,,,,,,,
,,607b087e7fd80dabd1ce4e63,27,female,2024-04-16_12h22.34.383,stockport_simplified,2022.2.4,Win32,30.03003003,661e456ee6de07e70aa9ef7b,661e51002fc11d4e371ec9ca,,,,,,,,,,,,,,,,,,,,,,,,,,,,,,,,,,,,,,,,,,,,,,,,,,,,,,,,1,23,83,43,1,B,X,N,o2_image,stimuli/out2.png,stimuli/out1.png,stimuli/correct_out2.png,,,,,,,,,,,,,,,,,,,,,,,,,,,,,,,,,,,,,,
,,607b087e7fd80dabd1ce4e63,27,female,2024-04-16_12h22.34.383,stockport_simplified,2022.2.4,Win32,30.03003003,661e456ee6de07e70aa9ef7b,661e51002fc11d4e371ec9ca,,,,,,,,,,,,,,,,,,,,,,,,,,,,,,,,,,782.921,784.9872,"[8,1,2,7,3,4,5,6]","[[0.3,0.2],[-0.3,0.2]]","[[0.125,-0.2],[-0.125,-0.2]]",-0.139097589,-0.172758848,1,0,0,1.533099999,o2_image,784.9875,1,785.4872,785.4873,787.4873,0,0,0,0,1,,,,,,,,,,,,,,,,,,,,,,,,,,,,,,,,,,,,,,,,,,,,,,,,,,
,,607b087e7fd80dabd1ce4e63,27,female,2024-04-16_12h22.34.383,stockport_simplified,2022.2.4,Win32,30.03003003,661e456ee6de07e70aa9ef7b,661e51002fc11d4e371ec9ca,,,,,,,,,,,,,,,,,,,,,,,,,,,,,,,,,,,,,,,,,,,,,,,,,,,,,,,,1,24,84,18,1,B,Y,N,o2_image,stimuli/out2.png,stimuli/out1.png,stimuli/correct_out2.png,,,,,,,,,,,,,,,,,,,,,,,,,,,,,,,,,,,,,,
,,607b087e7fd80dabd1ce4e63,27,female,2024-04-16_12h22.34.383,stockport_simplified,2022.2.4,Win32,30.03003003,661e456ee6de07e70aa9ef7b,661e51002fc11d4e371ec9ca,,,,,,,,,,,,,,,,,,,,,,,,,,,,,,,,,,787.4876,789.754,"[8,1,2,7,3,4,5,6]","[[0.3,0.2],[-0.3,0.2]]","[[0.125,-0.2],[-0.125,-0.2]]",-0.119664391,-0.200520553,1,0,0,1.7331,o2_image,789.759,1,790.2542,790.2542,792.2541,0,0,0,0,1,,,,,,,,,,,,,,,,,,,,,,,,,,,,,,,,,,,,,,,,,,,,,,,,,,
,,607b087e7fd80dabd1ce4e63,27,female,2024-04-16_12h22.34.383,stockport_simplified,2022.2.4,Win32,30.03003003,661e456ee6de07e70aa9ef7b,661e51002fc11d4e371ec9ca,,,,,,,,,,,,,,,,,,,,,,,,,,,,,,,,,,,,,,,,,,,,,,,,,,,,,,,,1,25,85,25,1,N,M,D,o2_image,stimuli/out2.png,stimuli/out1.png,stimuli/correct_out2.png,,,,,,,,,,,,,,,,,,,,,,,,,,,,,,,,,,,,,,
,,607b087e7fd80dabd1ce4e63,27,female,2024-04-16_12h22.34.383,stockport_simplified,2022.2.4,Win32,30.03003003,661e456ee6de07e70aa9ef7b,661e51002fc11d4e371ec9ca,,,,,,,,,,,,,,,,,,,,,,,,,,,,,,,,,,792.2544,794.2542,"[8,1,2,7,3,4,5,6]","[[0.3,0.2],[-0.3,0.2]]","[[0.125,-0.2],[-0.125,-0.2]]",0.133892452,-0.199132461,1,0,0,1.466599999,o1_image,794.2545,1,794.754,794.754,796.754,0,0,0,0,1,,,,,,,,,,,,,,,,,,,,,,,,,,,,,,,,,,,,,,,,,,,,,,,,,,
,,607b087e7fd80dabd1ce4e63,27,female,2024-04-16_12h22.34.383,stockport_simplified,2022.2.4,Win32,30.03003003,661e456ee6de07e70aa9ef7b,661e51002fc11d4e371ec9ca,,,,,,,,,,,,,,,,,,,,,,,,,,,,,,,,,,,,,,,,,,,,,,,,,,,,,,,,1,26,86,31,1,A,X,N,o1_image,stimuli/out1.png,stimuli/correct_out1.png,stimuli/out2.png,,,,,,,,,,,,,,,,,,,,,,,,,,,,,,,,,,,,,,
,,607b087e7fd80dabd1ce4e63,27,female,2024-04-16_12h22.34.383,stockport_simplified,2022.2.4,Win32,30.03003003,661e456ee6de07e70aa9ef7b,661e51002fc11d4e371ec9ca,,,,,,,,,,,,,,,,,,,,,,,,,,,,,,,,,,796.7545,798.5874,"[8,1,2,7,3,4,5,6]","[[-0.3,0.2],[0.3,0.2]]","[[-0.125,-0.2],[0.125,-0.2]]",-0.101619285,-0.168131889,1,0,0,1.2997,o1_image,798.5878,1,799.0873,799.0873,801.0875,0,0,0,0,1,,,,,,,,,,,,,,,,,,,,,,,,,,,,,,,,,,,,,,,,,,,,,,,,,,
,,607b087e7fd80dabd1ce4e63,27,female,2024-04-16_12h22.34.383,stockport_simplified,2022.2.4,Win32,30.03003003,661e456ee6de07e70aa9ef7b,661e51002fc11d4e371ec9ca,,,,,,,,,,,,,,,,,,,,,,,,,,,,,,,,,,,,,,,,,,,,,,,,,,,,,,,,1,27,87,22,1,N,M,C,o1_image,stimuli/out1.png,stimuli/correct_out1.png,stimuli/out2.png,,,,,,,,,,,,,,,,,,,,,,,,,,,,,,,,,,,,,,
,,607b087e7fd80dabd1ce4e63,27,female,2024-04-16_12h22.34.383,stockport_simplified,2022.2.4,Win32,30.03003003,661e456ee6de07e70aa9ef7b,661e51002fc11d4e371ec9ca,,,,,,,,,,,,,,,,,,,,,,,,,,,,,,,,,,801.0878,803.2213,"[8,1,2,7,3,4,5,6]","[[-0.3,0.2],[0.3,0.2]]","[[-0.125,-0.2],[0.125,-0.2]]",0.194505551,-0.195430913,1,0,0,1.6004,o2_image,803.2217,1,803.7208,803.7208,805.7209,0,0,0,0,1,,,,,,,,,,,,,,,,,,,,,,,,,,,,,,,,,,,,,,,,,,,,,,,,,,
,,607b087e7fd80dabd1ce4e63,27,female,2024-04-16_12h22.34.383,stockport_simplified,2022.2.4,Win32,30.03003003,661e456ee6de07e70aa9ef7b,661e51002fc11d4e371ec9ca,,,,,,,,,,,,,,,,,,,,,,,,,,,,,,,,,,,,,,,,,,,,,,,,,,,,,,,,1,28,88,29,1,N,M,D,o2_image,stimuli/out2.png,stimuli/out1.png,stimuli/correct_out2.png,,,,,,,,,,,,,,,,,,,,,,,,,,,,,,,,,,,,,,
,,607b087e7fd80dabd1ce4e63,27,female,2024-04-16_12h22.34.383,stockport_simplified,2022.2.4,Win32,30.03003003,661e456ee6de07e70aa9ef7b,661e51002fc11d4e371ec9ca,,,,,,,,,,,,,,,,,,,,,,,,,,,,,,,,,,805.721,808.4541,"[8,1,2,7,3,4,5,6]","[[0.3,0.2],[-0.3,0.2]]","[[0.125,-0.2],[-0.125,-0.2]]",0.133429771,-0.190803954,1,0,0,2.1998,o1_image,808.4545,1,808.9541,808.9542,810.9542,0,0,0,0,1,,,,,,,,,,,,,,,,,,,,,,,,,,,,,,,,,,,,,,,,,,,,,,,,,,
,,607b087e7fd80dabd1ce4e63,27,female,2024-04-16_12h22.34.383,stockport_simplified,2022.2.4,Win32,30.03003003,661e456ee6de07e70aa9ef7b,661e51002fc11d4e371ec9ca,,,,,,,,,,,,,,,,,,,,,,,,,,,,,,,,,,,,,,,,,,,,,,,,,,,,,,,,1,29,89,30,1,A,X,N,o1_image,stimuli/out1.png,stimuli/correct_out1.png,stimuli/out2.png,,,,,,,,,,,,,,,,,,,,,,,,,,,,,,,,,,,,,,
,,607b087e7fd80dabd1ce4e63,27,female,2024-04-16_12h22.34.383,stockport_simplified,2022.2.4,Win32,30.03003003,661e456ee6de07e70aa9ef7b,661e51002fc11d4e371ec9ca,,,,,,,,,,,,,,,,,,,,,,,,,,,,,,,,,,810.9544,814.6209,"[8,1,2,7,3,4,5,6]","[[0.3,0.2],[-0.3,0.2]]","[[0.125,-0.2],[-0.125,-0.2]]",-0.117813617,-0.183863639,1,0,0,3.1332,o2_image,814.6259,1,815.1209,815.1209,817.121,0,0,0,0,1,,,,,,,,,,,,,,,,,,,,,,,,,,,,,,,,,,,,,,,,,,,,,,,,,,
,,607b087e7fd80dabd1ce4e63,27,female,2024-04-16_12h22.34.383,stockport_simplified,2022.2.4,Win32,30.03003003,661e456ee6de07e70aa9ef7b,661e51002fc11d4e371ec9ca,,,,,,,,,,,,,,,,,,,,,,,,,,,,,,,,,,,,,,,,,,,,,,,,,,,,,,,,1,30,90,57,1,N,M,D,o2_image,stimuli/out2.png,stimuli/out1.png,stimuli/correct_out2.png,,,,,,,,,,,,,,,,,,,,,,,,,,,,,,,,,,,,,,
,,607b087e7fd80dabd1ce4e63,27,female,2024-04-16_12h22.34.383,stockport_simplified,2022.2.4,Win32,30.03003003,661e456ee6de07e70aa9ef7b,661e51002fc11d4e371ec9ca,,,,,,,,,,,,,,,,,,,,,,,,,,,,,,,,,,817.1213,820.1878,"[8,1,2,7,3,4,5,6]","[[0.3,0.2],[-0.3,0.2]]","[[0.125,-0.2],[-0.125,-0.2]]",0.129728223,-0.183400958,1,0,0,2.5332,o1_image,820.1929,1,820.6876,820.6877,822.6876,0,0,0,0,1,,,,,,,,,,,,,,,,,,,,,,,,,,,,,,,,,,,,,,,,,,,,,,,,,,
,,607b087e7fd80dabd1ce4e63,27,female,2024-04-16_12h22.34.383,stockport_simplified,2022.2.4,Win32,30.03003003,661e456ee6de07e70aa9ef7b,661e51002fc11d4e371ec9ca,,,,,,,,,,,,,,,,,,,,,,,,,,,,,,,,,,,,,,,,,,,,,,,,,,,,,,,,1,31,91,9,1,A,Y,N,o1_image,stimuli/out1.png,stimuli/correct_out1.png,stimuli/out2.png,,,,,,,,,,,,,,,,,,,,,,,,,,,,,,,,,,,,,,
,,607b087e7fd80dabd1ce4e63,27,female,2024-04-16_12h22.34.383,stockport_simplified,2022.2.4,Win32,30.03003003,661e456ee6de07e70aa9ef7b,661e51002fc11d4e371ec9ca,,,,,,,,,,,,,,,,,,,,,,,,,,,,,,,,,,822.6878,825.1877,"[8,1,2,7,3,4,5,6]","[[-0.3,0.2],[0.3,0.2]]","[[-0.125,-0.2],[0.125,-0.2]]",-0.12012722,-0.20977457,1,0,0,1.9667,o1_image,825.188,0,825.6876,825.6876,827.6878,0,0,0,0,1,,,,,,,,,,,,,,,,,,,,,,,,,,,,,,,,,,,,,,,,,,,,,,,,,,
,,607b087e7fd80dabd1ce4e63,27,female,2024-04-16_12h22.34.383,stockport_simplified,2022.2.4,Win32,30.03003003,661e456ee6de07e70aa9ef7b,661e51002fc11d4e371ec9ca,,,,,,,,,,,,,,,,,,,,,,,,,,,,,,,,,,,,,,,,,,,,,,,,,,,,,,,,1,32,92,17,1,B,Y,N,o2_image,stimuli/out2.png,stimuli/out1.png,stimuli/correct_out2.png,,,,,,,,,,,,,,,,,,,,,,,,,,,,,,,,,,,,,,
,,607b087e7fd80dabd1ce4e63,27,female,2024-04-16_12h22.34.383,stockport_simplified,2022.2.4,Win32,30.03003003,661e456ee6de07e70aa9ef7b,661e51002fc11d4e371ec9ca,,,,,,,,,,,,,,,,,,,,,,,,,,,,,,,,,,827.688,829.7877,"[8,1,2,7,3,4,5,6]","[[-0.3,0.2],[0.3,0.2]]","[[-0.125,-0.2],[0.125,-0.2]]",-0.080335313,-0.207923796,1,0,0,1.5663,o1_image,829.7879,1,830.2876,830.2877,832.2879,0,0,0,0,1,,,,,,,,,,,,,,,,,,,,,,,,,,,,,,,,,,,,,,,,,,,,,,,,,,
,,607b087e7fd80dabd1ce4e63,27,female,2024-04-16_12h22.34.383,stockport_simplified,2022.2.4,Win32,30.03003003,661e456ee6de07e70aa9ef7b,661e51002fc11d4e371ec9ca,,,,,,,,,,,,,,,,,,,,,,,,,,,,,,,,,,,,,,,,,,,,,,,,,,,,,,,,1,33,93,34,1,A,X,N,o1_image,stimuli/out1.png,stimuli/correct_out1.png,stimuli/out2.png,,,,,,,,,,,,,,,,,,,,,,,,,,,,,,,,,,,,,,
,,607b087e7fd80dabd1ce4e63,27,female,2024-04-16_12h22.34.383,stockport_simplified,2022.2.4,Win32,30.03003003,661e456ee6de07e70aa9ef7b,661e51002fc11d4e371ec9ca,,,,,,,,,,,,,,,,,,,,,,,,,,,,,,,,,,832.2881,834.0877,"[8,1,2,7,3,4,5,6]","[[-0.3,0.2],[0.3,0.2]]","[[-0.125,-0.2],[0.125,-0.2]]",-0.106246244,-0.201446064,1,0,0,1.2996,o1_image,834.088,1,834.5878,834.5879,836.588,0,0,0,0,1,,,,,,,,,,,,,,,,,,,,,,,,,,,,,,,,,,,,,,,,,,,,,,,,,,
,,607b087e7fd80dabd1ce4e63,27,female,2024-04-16_12h22.34.383,stockport_simplified,2022.2.4,Win32,30.03003003,661e456ee6de07e70aa9ef7b,661e51002fc11d4e371ec9ca,,,,,,,,,,,,,,,,,,,,,,,,,,,,,,,,,,,,,,,,,,,,,,,,,,,,,,,,1,34,94,2,1,A,X,N,o1_image,stimuli/out1.png,stimuli/correct_out1.png,stimuli/out2.png,,,,,,,,,,,,,,,,,,,,,,,,,,,,,,,,,,,,,,
,,607b087e7fd80dabd1ce4e63,27,female,2024-04-16_12h22.34.383,stockport_simplified,2022.2.4,Win32,30.03003003,661e456ee6de07e70aa9ef7b,661e51002fc11d4e371ec9ca,,,,,,,,,,,,,,,,,,,,,,,,,,,,,,,,,,836.5882,839.4211,"[8,1,2,7,3,4,5,6]","[[-0.3,0.2],[0.3,0.2]]","[[0.125,-0.2],[-0.125,-0.2]]",-0.094678871,-0.202371327,1,0,0,2.2996,o2_image,839.4214,1,839.9214,839.9214,841.9211,0,0,0,0,1,,,,,,,,,,,,,,,,,,,,,,,,,,,,,,,,,,,,,,,,,,,,,,,,,,
,,607b087e7fd80dabd1ce4e63,27,female,2024-04-16_12h22.34.383,stockport_simplified,2022.2.4,Win32,30.03003003,661e456ee6de07e70aa9ef7b,661e51002fc11d4e371ec9ca,,,,,,,,,,,,,,,,,,,,,,,,,,,,,,,,,,,,,,,,,,,,,,,,,,,,,,,,1,35,95,40,1,B,X,N,o2_image,stimuli/out2.png,stimuli/out1.png,stimuli/correct_out2.png,,,,,,,,,,,,,,,,,,,,,,,,,,,,,,,,,,,,,,
,,607b087e7fd80dabd1ce4e63,27,female,2024-04-16_12h22.34.383,stockport_simplified,2022.2.4,Win32,30.03003003,661e456ee6de07e70aa9ef7b,661e51002fc11d4e371ec9ca,,,,,,,,,,,,,,,,,,,,,,,,,,,,,,,,,,841.9215,843.8878,"[8,1,2,7,3,4,5,6]","[[0.3,0.2],[-0.3,0.2]]","[[-0.125,-0.2],[0.125,-0.2]]",-0.115962843,-0.175535133,1,0,0,1.433099999,o1_image,843.8882,1,844.388,844.388,846.3886,0,0,0,0,1,,,,,,,,,,,,,,,,,,,,,,,,,,,,,,,,,,,,,,,,,,,,,,,,,,
,,607b087e7fd80dabd1ce4e63,27,female,2024-04-16_12h22.34.383,stockport_simplified,2022.2.4,Win32,30.03003003,661e456ee6de07e70aa9ef7b,661e51002fc11d4e371ec9ca,,,,,,,,,,,,,,,,,,,,,,,,,,,,,,,,,,,,,,,,,,,,,,,,,,,,,,,,1,36,96,32,1,A,X,N,o1_image,stimuli/out1.png,stimuli/correct_out1.png,stimuli/out2.png,,,,,,,,,,,,,,,,,,,,,,,,,,,,,,,,,,,,,,
,,607b087e7fd80dabd1ce4e63,27,female,2024-04-16_12h22.34.383,stockport_simplified,2022.2.4,Win32,30.03003003,661e456ee6de07e70aa9ef7b,661e51002fc11d4e371ec9ca,,,,,,,,,,,,,,,,,,,,,,,,,,,,,,,,,,846.3888,848.5546,"[8,1,2,7,3,4,5,6]","[[-0.3,0.2],[0.3,0.2]]","[[0.125,-0.2],[-0.125,-0.2]]",-0.085887782,-0.19959529,1,0,0,1.633,o2_image,848.5548,0,849.0546,849.0547,851.0545,0,0,0,0,1,,,,,,,,,,,,,,,,,,,,,,,,,,,,,,,,,,,,,,,,,,,,,,,,,,
,,607b087e7fd80dabd1ce4e63,27,female,2024-04-16_12h22.34.383,stockport_simplified,2022.2.4,Win32,30.03003003,661e456ee6de07e70aa9ef7b,661e51002fc11d4e371ec9ca,,,,,,,,,,,,,,,,,,,,,,,,,,,,,,,,,,,,,,,,,,,,,,,,,,,,,,,,1,37,97,39,1,A,Y,N,o1_image,stimuli/out1.png,stimuli/correct_out1.png,stimuli/out2.png,,,,,,,,,,,,,,,,,,,,,,,,,,,,,,,,,,,,,,
,,607b087e7fd80dabd1ce4e63,27,female,2024-04-16_12h22.34.383,stockport_simplified,2022.2.4,Win32,30.03003003,661e456ee6de07e70aa9ef7b,661e51002fc11d4e371ec9ca,,,,,,,,,,,,,,,,,,,,,,,,,,,,,,,,,,851.0548,853.5213,"[8,1,2,7,3,4,5,6]","[[0.3,0.2],[-0.3,0.2]]","[[-0.125,-0.2],[0.125,-0.2]]",0.082995951,-0.202371327,1,0,0,1.9331,o2_image,853.5217,1,854.0213,854.0213,856.0212,0,0,0,0,1,,,,,,,,,,,,,,,,,,,,,,,,,,,,,,,,,,,,,,,,,,,,,,,,,,
,,607b087e7fd80dabd1ce4e63,27,female,2024-04-16_12h22.34.383,stockport_simplified,2022.2.4,Win32,30.03003003,661e456ee6de07e70aa9ef7b,661e51002fc11d4e371ec9ca,,,,,,,,,,,,,,,,,,,,,,,,,,,,,,,,,,,,,,,,,,,,,,,,,,,,,,,,1,38,98,44,1,B,X,N,o2_image,stimuli/out2.png,stimuli/out1.png,stimuli/correct_out2.png,,,,,,,,,,,,,,,,,,,,,,,,,,,,,,,,,,,,,,
,,607b087e7fd80dabd1ce4e63,27,female,2024-04-16_12h22.34.383,stockport_simplified,2022.2.4,Win32,30.03003003,661e456ee6de07e70aa9ef7b,661e51002fc11d4e371ec9ca,,,,,,,,,,,,,,,,,,,,,,,,,,,,,,,,,,856.0215,858.5547,"[8,1,2,7,3,4,5,6]","[[0.3,0.2],[-0.3,0.2]]","[[0.125,-0.2],[-0.125,-0.2]]",-0.100231192,-0.219953752,1,0,0,1.9999,o2_image,858.555,1,859.0546,859.0547,861.0546,0,0,0,0,1,,,,,,,,,,,,,,,,,,,,,,,,,,,,,,,,,,,,,,,,,,,,,,,,,,
,,607b087e7fd80dabd1ce4e63,27,female,2024-04-16_12h22.34.383,stockport_simplified,2022.2.4,Win32,30.03003003,661e456ee6de07e70aa9ef7b,661e51002fc11d4e371ec9ca,,,,,,,,,,,,,,,,,,,,,,,,,,,,,,,,,,,,,,,,,,,,,,,,,,,,,,,,1,39,99,16,1,B,Y,N,o2_image,stimuli/out2.png,stimuli/out1.png,stimuli/correct_out2.png,,,,,,,,,,,,,,,,,,,,,,,,,,,,,,,,,,,,,,
,,607b087e7fd80dabd1ce4e63,27,female,2024-04-16_12h22.34.383,stockport_simplified,2022.2.4,Win32,30.03003003,661e456ee6de07e70aa9ef7b,661e51002fc11d4e371ec9ca,,,,,,,,,,,,,,,,,,,,,,,,,,,,,,,,,,861.0549,862.7214,"[8,1,2,7,3,4,5,6]","[[-0.3,0.2],[0.3,0.2]]","[[0.125,-0.2],[-0.125,-0.2]]",0.130190904,-0.191266635,1,0,0,1.1329,o1_image,862.7217,1,863.2213,863.2213,865.2215,0,0,0,0,1,,,,,,,,,,,,,,,,,,,,,,,,,,,,,,,,,,,,,,,,,,,,,,,,,,
,,607b087e7fd80dabd1ce4e63,27,female,2024-04-16_12h22.34.383,stockport_simplified,2022.2.4,Win32,30.03003003,661e456ee6de07e70aa9ef7b,661e51002fc11d4e371ec9ca,,,,,,,,,,,,,,,,,,,,,,,,,,,,,,,,,,,,,,,,,,,,,,,,,,,,,,,,1,40,100,37,1,A,Y,N,o1_image,stimuli/out1.png,stimuli/correct_out1.png,stimuli/out2.png,,,,,,,,,,,,,,,,,,,,,,,,,,,,,,,,,,,,,,
,,607b087e7fd80dabd1ce4e63,27,female,2024-04-16_12h22.34.383,stockport_simplified,2022.2.4,Win32,30.03003003,661e456ee6de07e70aa9ef7b,661e51002fc11d4e371ec9ca,,,,,,,,,,,,,,,,,,,,,,,,,,,,,,,,,,865.2218,866.9881,"[8,1,2,7,3,4,5,6]","[[-0.3,0.2],[0.3,0.2]]","[[-0.125,-0.2],[0.125,-0.2]]",-0.133545268,-0.206998286,1,0,0,1.2332,o1_image,866.9884,1,867.488,867.4881,869.4881,0,0,0,0,1,,,,,,,,,,,,,,,,,,,,,,,,,,,,,,,,,,,,,,,,,,,,,,,,,,
,,607b087e7fd80dabd1ce4e63,27,female,2024-04-16_12h22.34.383,stockport_simplified,2022.2.4,Win32,30.03003003,661e456ee6de07e70aa9ef7b,661e51002fc11d4e371ec9ca,,,,,,,,,,,,,,,,,,,,,,,,,,,,,,,,,,,,,,,,,,,,,,,,,,,,,,,,1,41,101,54,1,N,M,C,o1_image,stimuli/out1.png,stimuli/correct_out1.png,stimuli/out2.png,,,,,,,,,,,,,,,,,,,,,,,,,,,,,,,,,,,,,,
,,607b087e7fd80dabd1ce4e63,27,female,2024-04-16_12h22.34.383,stockport_simplified,2022.2.4,Win32,30.03003003,661e456ee6de07e70aa9ef7b,661e51002fc11d4e371ec9ca,,,,,,,,,,,,,,,,,,,,,,,,,,,,,,,,,,869.4884,871.6881,"[8,1,2,7,3,4,5,6]","[[-0.3,0.2],[0.3,0.2]]","[[0.125,-0.2],[-0.125,-0.2]]",-0.134007949,-0.175535133,1,0,0,1.6665,o2_image,871.6931,1,872.1883,872.1883,874.1882,0,0,0,0,1,,,,,,,,,,,,,,,,,,,,,,,,,,,,,,,,,,,,,,,,,,,,,,,,,,
,,607b087e7fd80dabd1ce4e63,27,female,2024-04-16_12h22.34.383,stockport_simplified,2022.2.4,Win32,30.03003003,661e456ee6de07e70aa9ef7b,661e51002fc11d4e371ec9ca,,,,,,,,,,,,,,,,,,,,,,,,,,,,,,,,,,,,,,,,,,,,,,,,,,,,,,,,1,42,102,58,1,N,M,D,o2_image,stimuli/out2.png,stimuli/out1.png,stimuli/correct_out2.png,,,,,,,,,,,,,,,,,,,,,,,,,,,,,,,,,,,,,,
,,607b087e7fd80dabd1ce4e63,27,female,2024-04-16_12h22.34.383,stockport_simplified,2022.2.4,Win32,30.03003003,661e456ee6de07e70aa9ef7b,661e51002fc11d4e371ec9ca,,,,,,,,,,,,,,,,,,,,,,,,,,,,,,,,,,874.1885,876.8883,"[8,1,2,7,3,4,5,6]","[[-0.3,0.2],[0.3,0.2]]","[[0.125,-0.2],[-0.125,-0.2]]",-0.133545268,-0.190803954,1,0,0,2.1666,o2_image,876.8886,1,877.3882,877.3882,879.3886,0,0,0,0,1,,,,,,,,,,,,,,,,,,,,,,,,,,,,,,,,,,,,,,,,,,,,,,,,,,
,,607b087e7fd80dabd1ce4e63,27,female,2024-04-16_12h22.34.383,stockport_simplified,2022.2.4,Win32,30.03003003,661e456ee6de07e70aa9ef7b,661e51002fc11d4e371ec9ca,,,,,,,,,,,,,,,,,,,,,,,,,,,,,,,,,,,,,,,,,,,,,,,,,,,,,,,,1,43,103,15,1,B,Y,N,o2_image,stimuli/out2.png,stimuli/out1.png,stimuli/correct_out2.png,,,,,,,,,,,,,,,,,,,,,,,,,,,,,,,,,,,,,,
,,607b087e7fd80dabd1ce4e63,27,female,2024-04-16_12h22.34.383,stockport_simplified,2022.2.4,Win32,30.03003003,661e456ee6de07e70aa9ef7b,661e51002fc11d4e371ec9ca,,,,,,,,,,,,,,,,,,,,,,,,,,,,,,,,,,879.3888,881.4549,"[8,1,2,7,3,4,5,6]","[[0.3,0.2],[-0.3,0.2]]","[[0.125,-0.2],[-0.125,-0.2]]",0.110295025,-0.206073023,1,0,0,1.533099999,o1_image,881.4552,1,881.9549,881.9549,883.955,0,0,0,0,1,,,,,,,,,,,,,,,,,,,,,,,,,,,,,,,,,,,,,,,,,,,,,,,,,,
,,607b087e7fd80dabd1ce4e63,27,female,2024-04-16_12h22.34.383,stockport_simplified,2022.2.4,Win32,30.03003003,661e456ee6de07e70aa9ef7b,661e51002fc11d4e371ec9ca,,,,,,,,,,,,,,,,,,,,,,,,,,,,,,,,,,,,,,,,,,,,,,,,,,,,,,,,1,44,104,7,1,A,Y,N,o1_image,stimuli/out1.png,stimuli/correct_out1.png,stimuli/out2.png,,,,,,,,,,,,,,,,,,,,,,,,,,,,,,,,,,,,,,
,,607b087e7fd80dabd1ce4e63,27,female,2024-04-16_12h22.34.383,stockport_simplified,2022.2.4,Win32,30.03003003,661e456ee6de07e70aa9ef7b,661e51002fc11d4e371ec9ca,,,,,,,,,,,,,,,,,,,,,,,,,,,,,,,,,,883.9552,885.9883,"[8,1,2,7,3,4,5,6]","[[-0.3,0.2],[0.3,0.2]]","[[0.125,-0.2],[-0.125,-0.2]]",0.094100693,-0.193580238,1,0,0,1.4998,o1_image,885.9885,1,886.4882,886.4883,888.4883,0,0,0,0,1,,,,,,,,,,,,,,,,,,,,,,,,,,,,,,,,,,,,,,,,,,,,,,,,,,
,,607b087e7fd80dabd1ce4e63,27,female,2024-04-16_12h22.34.383,stockport_simplified,2022.2.4,Win32,30.03003003,661e456ee6de07e70aa9ef7b,661e51002fc11d4e371ec9ca,,,,,,,,,,,,,,,,,,,,,,,,,,,,,,,,,,,,,,,,,,,,,,,,,,,,,,,,1,45,105,3,1,A,X,N,o1_image,stimuli/out1.png,stimuli/correct_out1.png,stimuli/out2.png,,,,,,,,,,,,,,,,,,,,,,,,,,,,,,,,,,,,,,
,,607b087e7fd80dabd1ce4e63,27,female,2024-04-16_12h22.34.383,stockport_simplified,2022.2.4,Win32,30.03003003,661e456ee6de07e70aa9ef7b,661e51002fc11d4e371ec9ca,,,,,,,,,,,,,,,,,,,,,,,,,,,,,,,,,,888.4886,890.3549,"[8,1,2,7,3,4,5,6]","[[0.3,0.2],[-0.3,0.2]]","[[-0.125,-0.2],[0.125,-0.2]]",-0.136784134,-0.221804525,1,0,0,1.3331,o1_image,890.3553,1,890.855,890.855,892.8551,0,0,0,0,1,,,,,,,,,,,,,,,,,,,,,,,,,,,,,,,,,,,,,,,,,,,,,,,,,,
,,607b087e7fd80dabd1ce4e63,27,female,2024-04-16_12h22.34.383,stockport_simplified,2022.2.4,Win32,30.03003003,661e456ee6de07e70aa9ef7b,661e51002fc11d4e371ec9ca,,,,,,,,,,,,,,,,,,,,,,,,,,,,,,,,,,,,,,,,,,,,,,,,,,,,,,,,1,46,106,24,1,N,M,C,o1_image,stimuli/out1.png,stimuli/correct_out1.png,stimuli/out2.png,,,,,,,,,,,,,,,,,,,,,,,,,,,,,,,,,,,,,,
,,607b087e7fd80dabd1ce4e63,27,female,2024-04-16_12h22.34.383,stockport_simplified,2022.2.4,Win32,30.03003003,661e456ee6de07e70aa9ef7b,661e51002fc11d4e371ec9ca,,,,,,,,,,,,,,,,,,,,,,,,,,,,,,,,,,892.8553,894.4549,"[8,1,2,7,3,4,5,6]","[[0.3,0.2],[-0.3,0.2]]","[[0.125,-0.2],[-0.125,-0.2]]",-0.093753459,-0.200057971,1,0,0,1.0665,o2_image,894.4552,1,894.955,894.9551,896.9551,0,0,0,0,1,,,,,,,,,,,,,,,,,,,,,,,,,,,,,,,,,,,,,,,,,,,,,,,,,,
,,607b087e7fd80dabd1ce4e63,27,female,2024-04-16_12h22.34.383,stockport_simplified,2022.2.4,Win32,30.03003003,661e456ee6de07e70aa9ef7b,661e51002fc11d4e371ec9ca,,,,,,,,,,,,,,,,,,,,,,,,,,,,,,,,,,,,,,,,,,,,,,,,,,,,,,,,1,47,107,59,1,N,M,D,o2_image,stimuli/out2.png,stimuli/out1.png,stimuli/correct_out2.png,,,,,,,,,,,,,,,,,,,,,,,,,,,,,,,,,,,,,,
,,607b087e7fd80dabd1ce4e63,27,female,2024-04-16_12h22.34.383,stockport_simplified,2022.2.4,Win32,30.03003003,661e456ee6de07e70aa9ef7b,661e51002fc11d4e371ec9ca,,,,,,,,,,,,,,,,,,,,,,,,,,,,,,,,,,896.9554,900.1218,"[8,1,2,7,3,4,5,6]","[[0.3,0.2],[-0.3,0.2]]","[[-0.125,-0.2],[0.125,-0.2]]",0.148236257,-0.207923796,1,0,0,2.633,o2_image,900.1268,1,900.6217,900.6217,902.6226,0,0,0,0,1,,,,,,,,,,,,,,,,,,,,,,,,,,,,,,,,,,,,,,,,,,,,,,,,,,
,,607b087e7fd80dabd1ce4e63,27,female,2024-04-16_12h22.34.383,stockport_simplified,2022.2.4,Win32,30.03003003,661e456ee6de07e70aa9ef7b,661e51002fc11d4e371ec9ca,,,,,,,,,,,,,,,,,,,,,,,,,,,,,,,,,,,,,,,,,,,,,,,,,,,,,,,,1,48,108,10,1,B,X,N,o2_image,stimuli/out2.png,stimuli/out1.png,stimuli/correct_out2.png,,,,,,,,,,,,,,,,,,,,,,,,,,,,,,,,,,,,,,
,,607b087e7fd80dabd1ce4e63,27,female,2024-04-16_12h22.34.383,stockport_simplified,2022.2.4,Win32,30.03003003,661e456ee6de07e70aa9ef7b,661e51002fc11d4e371ec9ca,,,,,,,,,,,,,,,,,,,,,,,,,,,,,,,,,,902.6229,905.4218,"[8,1,2,7,3,4,5,6]","[[0.3,0.2],[-0.3,0.2]]","[[-0.125,-0.2],[0.125,-0.2]]",0.136668637,-0.196819105,1,0,0,2.2665,o2_image,905.4222,1,905.9219,905.9219,907.922,0,0,0,0,1,,,,,,,,,,,,,,,,,,,,,,,,,,,,,,,,,,,,,,,,,,,,,,,,,,
,,607b087e7fd80dabd1ce4e63,27,female,2024-04-16_12h22.34.383,stockport_simplified,2022.2.4,Win32,30.03003003,661e456ee6de07e70aa9ef7b,661e51002fc11d4e371ec9ca,,,,,,,,,,,,,,,,,,,,,,,,,,,,,,,,,,,,,,,,,,,,,,,,,,,,,,,,1,49,109,28,1,N,M,D,o2_image,stimuli/out2.png,stimuli/out1.png,stimuli/correct_out2.png,,,,,,,,,,,,,,,,,,,,,,,,,,,,,,,,,,,,,,
,,607b087e7fd80dabd1ce4e63,27,female,2024-04-16_12h22.34.383,stockport_simplified,2022.2.4,Win32,30.03003003,661e456ee6de07e70aa9ef7b,661e51002fc11d4e371ec9ca,,,,,,,,,,,,,,,,,,,,,,,,,,,,,,,,,,907.9222,910.1219,"[8,1,2,7,3,4,5,6]","[[-0.3,0.2],[0.3,0.2]]","[[0.125,-0.2],[-0.125,-0.2]]",0.14314637,-0.225043392,1,0,0,1.6665,o1_image,910.1221,1,910.622,910.622,912.6219,0,0,0,0,1,,,,,,,,,,,,,,,,,,,,,,,,,,,,,,,,,,,,,,,,,,,,,,,,,,
,,607b087e7fd80dabd1ce4e63,27,female,2024-04-16_12h22.34.383,stockport_simplified,2022.2.4,Win32,30.03003003,661e456ee6de07e70aa9ef7b,661e51002fc11d4e371ec9ca,,,,,,,,,,,,,,,,,,,,,,,,,,,,,,,,,,,,,,,,,,,,,,,,,,,,,,,,1,50,110,1,1,A,X,N,o1_image,stimuli/out1.png,stimuli/correct_out1.png,stimuli/out2.png,,,,,,,,,,,,,,,,,,,,,,,,,,,,,,,,,,,,,,
,,607b087e7fd80dabd1ce4e63,27,female,2024-04-16_12h22.34.383,stockport_simplified,2022.2.4,Win32,30.03003003,661e456ee6de07e70aa9ef7b,661e51002fc11d4e371ec9ca,,,,,,,,,,,,,,,,,,,,,,,,,,,,,,,,,,912.6221,914.9219,"[8,1,2,7,3,4,5,6]","[[-0.3,0.2],[0.3,0.2]]","[[0.125,-0.2],[-0.125,-0.2]]",-0.122440576,-0.197281687,1,0,0,1.7665,o2_image,914.9222,1,915.4218,915.4218,917.422,0,0,0,0,1,,,,,,,,,,,,,,,,,,,,,,,,,,,,,,,,,,,,,,,,,,,,,,,,,,
,,607b087e7fd80dabd1ce4e63,27,female,2024-04-16_12h22.34.383,stockport_simplified,2022.2.4,Win32,30.03003003,661e456ee6de07e70aa9ef7b,661e51002fc11d4e371ec9ca,,,,,,,,,,,,,,,,,,,,,,,,,,,,,,,,,,,,,,,,,,,,,,,,,,,,,,,,1,51,111,27,1,N,M,D,o2_image,stimuli/out2.png,stimuli/out1.png,stimuli/correct_out2.png,,,,,,,,,,,,,,,,,,,,,,,,,,,,,,,,,,,,,,
,,607b087e7fd80dabd1ce4e63,27,female,2024-04-16_12h22.34.383,stockport_simplified,2022.2.4,Win32,30.03003003,661e456ee6de07e70aa9ef7b,661e51002fc11d4e371ec9ca,,,,,,,,,,,,,,,,,,,,,,,,,,,,,,,,,,917.4222,919.8885,"[8,1,2,7,3,4,5,6]","[[0.3,0.2],[-0.3,0.2]]","[[-0.125,-0.2],[0.125,-0.2]]",0.115847593,-0.202371327,1,0,0,1.933200001,o2_image,919.8935,1,920.3886,920.3886,922.3886,0,0,0,0,1,,,,,,,,,,,,,,,,,,,,,,,,,,,,,,,,,,,,,,,,,,,,,,,,,,
,,607b087e7fd80dabd1ce4e63,27,female,2024-04-16_12h22.34.383,stockport_simplified,2022.2.4,Win32,30.03003003,661e456ee6de07e70aa9ef7b,661e51002fc11d4e371ec9ca,,,,,,,,,,,,,,,,,,,,,,,,,,,,,,,,,,,,,,,,,,,,,,,,,,,,,,,,1,52,112,56,1,N,M,D,o2_image,stimuli/out2.png,stimuli/out1.png,stimuli/correct_out2.png,,,,,,,,,,,,,,,,,,,,,,,,,,,,,,,,,,,,,,
,,607b087e7fd80dabd1ce4e63,27,female,2024-04-16_12h22.34.383,stockport_simplified,2022.2.4,Win32,30.03003003,661e456ee6de07e70aa9ef7b,661e51002fc11d4e371ec9ca,,,,,,,,,,,,,,,,,,,,,,,,,,,,,,,,,,922.3888,924.1553,"[8,1,2,7,3,4,5,6]","[[-0.3,0.2],[0.3,0.2]]","[[-0.125,-0.2],[0.125,-0.2]]",0.139907503,-0.175997715,1,0,0,1.2664,o2_image,924.1557,1,924.6553,924.6554,926.6553,0,0,0,0,1,,,,,,,,,,,,,,,,,,,,,,,,,,,,,,,,,,,,,,,,,,,,,,,,,,
,,607b087e7fd80dabd1ce4e63,27,female,2024-04-16_12h22.34.383,stockport_simplified,2022.2.4,Win32,30.03003003,661e456ee6de07e70aa9ef7b,661e51002fc11d4e371ec9ca,,,,,,,,,,,,,,,,,,,,,,,,,,,,,,,,,,,,,,,,,,,,,,,,,,,,,,,,1,53,113,26,1,N,M,D,o2_image,stimuli/out2.png,stimuli/out1.png,stimuli/correct_out2.png,,,,,,,,,,,,,,,,,,,,,,,,,,,,,,,,,,,,,,
,,607b087e7fd80dabd1ce4e63,27,female,2024-04-16_12h22.34.383,stockport_simplified,2022.2.4,Win32,30.03003003,661e456ee6de07e70aa9ef7b,661e51002fc11d4e371ec9ca,,,,,,,,,,,,,,,,,,,,,,,,,,,,,,,,,,926.6556,929.7888,"[8,1,2,7,3,4,5,6]","[[-0.3,0.2],[0.3,0.2]]","[[-0.125,-0.2],[0.125,-0.2]]",0.083458929,-0.182012865,1,0,0,2.5999,o2_image,929.7937,1,930.2887,930.2888,932.2887,0,0,0,0,1,,,,,,,,,,,,,,,,,,,,,,,,,,,,,,,,,,,,,,,,,,,,,,,,,,
,,607b087e7fd80dabd1ce4e63,27,female,2024-04-16_12h22.34.383,stockport_simplified,2022.2.4,Win32,30.03003003,661e456ee6de07e70aa9ef7b,661e51002fc11d4e371ec9ca,,,,,,,,,,,,,,,,,,,,,,,,,,,,,,,,,,,,,,,,,,,,,,,,,,,,,,,,1,54,114,13,1,B,X,N,o2_image,stimuli/out2.png,stimuli/out1.png,stimuli/correct_out2.png,,,,,,,,,,,,,,,,,,,,,,,,,,,,,,,,,,,,,,
,,607b087e7fd80dabd1ce4e63,27,female,2024-04-16_12h22.34.383,stockport_simplified,2022.2.4,Win32,30.03003003,661e456ee6de07e70aa9ef7b,661e51002fc11d4e371ec9ca,,,,,,,,,,,,,,,,,,,,,,,,,,,,,,,,,,932.289,934.1221,"[8,1,2,7,3,4,5,6]","[[-0.3,0.2],[0.3,0.2]]","[[-0.125,-0.2],[0.125,-0.2]]",-0.10948511,-0.19959529,1,0,0,1.2998,o1_image,934.1224,1,934.6221,934.6221,936.6221,0,0,0,0,1,,,,,,,,,,,,,,,,,,,,,,,,,,,,,,,,,,,,,,,,,,,,,,,,,,
,,607b087e7fd80dabd1ce4e63,27,female,2024-04-16_12h22.34.383,stockport_simplified,2022.2.4,Win32,30.03003003,661e456ee6de07e70aa9ef7b,661e51002fc11d4e371ec9ca,,,,,,,,,,,,,,,,,,,,,,,,,,,,,,,,,,,,,,,,,,,,,,,,,,,,,,,,1,55,115,53,1,N,M,C,o1_image,stimuli/out1.png,stimuli/correct_out1.png,stimuli/out2.png,,,,,,,,,,,,,,,,,,,,,,,,,,,,,,,,,,,,,,
,,607b087e7fd80dabd1ce4e63,27,female,2024-04-16_12h22.34.383,stockport_simplified,2022.2.4,Win32,30.03003003,661e456ee6de07e70aa9ef7b,661e51002fc11d4e371ec9ca,,,,,,,,,,,,,,,,,,,,,,,,,,,,,,,,,,936.6224,939.0222,"[8,1,2,7,3,4,5,6]","[[-0.3,0.2],[0.3,0.2]]","[[0.125,-0.2],[-0.125,-0.2]]",0.126489357,-0.166281116,1,0,0,1.8665,o1_image,939.0226,1,939.5222,939.5222,941.5221,0,0,0,0,1,,,,,,,,,,,,,,,,,,,,,,,,,,,,,,,,,,,,,,,,,,,,,,,,,,
,,607b087e7fd80dabd1ce4e63,27,female,2024-04-16_12h22.34.383,stockport_simplified,2022.2.4,Win32,30.03003003,661e456ee6de07e70aa9ef7b,661e51002fc11d4e371ec9ca,,,,,,,,,,,,,,,,,,,,,,,,,,,,,,,,,,,,,,,,,,,,,,,,,,,,,,,,1,56,116,0,1,A,X,N,o1_image,stimuli/out1.png,stimuli/correct_out1.png,stimuli/out2.png,,,,,,,,,,,,,,,,,,,,,,,,,,,,,,,,,,,,,,
,,607b087e7fd80dabd1ce4e63,27,female,2024-04-16_12h22.34.383,stockport_simplified,2022.2.4,Win32,30.03003003,661e456ee6de07e70aa9ef7b,661e51002fc11d4e371ec9ca,,,,,,,,,,,,,,,,,,,,,,,,,,,,,,,,,,941.5224,944.5891,"[8,1,2,7,3,4,5,6]","[[0.3,0.2],[-0.3,0.2]]","[[0.125,-0.2],[-0.125,-0.2]]",-0.113186658,-0.186176995,1,0,0,2.5335,o2_image,944.5952,1,945.0889,945.0889,947.0889,0,0,0,0,1,,,,,,,,,,,,,,,,,,,,,,,,,,,,,,,,,,,,,,,,,,,,,,,,,,
,,607b087e7fd80dabd1ce4e63,27,female,2024-04-16_12h22.34.383,stockport_simplified,2022.2.4,Win32,30.03003003,661e456ee6de07e70aa9ef7b,661e51002fc11d4e371ec9ca,,,,,,,,,,,,,,,,,,,,,,,,,,,,,,,,,,,,,,,,,,,,,,,,,,,,,,,,1,57,117,42,1,B,X,N,o2_image,stimuli/out2.png,stimuli/out1.png,stimuli/correct_out2.png,,,,,,,,,,,,,,,,,,,,,,,,,,,,,,,,,,,,,,
,,607b087e7fd80dabd1ce4e63,27,female,2024-04-16_12h22.34.383,stockport_simplified,2022.2.4,Win32,30.03003003,661e456ee6de07e70aa9ef7b,661e51002fc11d4e371ec9ca,,,,,,,,,,,,,,,,,,,,,,,,,,,,,,,,,,947.0891,951.4223,"[8,1,2,7,3,4,5,6]","[[-0.3,0.2],[0.3,0.2]]","[[0.125,-0.2],[-0.125,-0.2]]",-0.100231192,-0.191729465,1,0,0,3.8,o2_image,951.4275,0,951.9223,951.9223,953.9225,0,0,0,0,1,,,,,,,,,,,,,,,,,,,,,,,,,,,,,,,,,,,,,,,,,,,,,,,,,,
,,607b087e7fd80dabd1ce4e63,27,female,2024-04-16_12h22.34.383,stockport_simplified,2022.2.4,Win32,30.03003003,661e456ee6de07e70aa9ef7b,661e51002fc11d4e371ec9ca,,,,,,,,,,,,,,,,,,,,,,,,,,,,,,,,,,,,,,,,,,,,,,,,,,,,,,,,1,58,118,8,1,A,Y,N,o1_image,stimuli/out1.png,stimuli/correct_out1.png,stimuli/out2.png,,,,,,,,,,,,,,,,,,,,,,,,,,,,,,,,,,,,,,
,,607b087e7fd80dabd1ce4e63,27,female,2024-04-16_12h22.34.383,stockport_simplified,2022.2.4,Win32,30.03003003,661e456ee6de07e70aa9ef7b,661e51002fc11d4e371ec9ca,,,,,,,,,,,,,,,,,,,,,,,,,,,,,,,,,,953.9228,956.0889,"[8,1,2,7,3,4,5,6]","[[-0.3,0.2],[0.3,0.2]]","[[-0.125,-0.2],[0.125,-0.2]]",-0.099768511,-0.174609622,1,0,0,1.6331,o1_image,956.0893,1,956.5892,956.5892,958.589,0,0,0,0,1,,,,,,,,,,,,,,,,,,,,,,,,,,,,,,,,,,,,,,,,,,,,,,,,,,
,,607b087e7fd80dabd1ce4e63,27,female,2024-04-16_12h22.34.383,stockport_simplified,2022.2.4,Win32,30.03003003,661e456ee6de07e70aa9ef7b,661e51002fc11d4e371ec9ca,,,,,,,,,,,,,,,,,,,,,,,,,,,,,,,,,,,,,,,,,,,,,,,,,,,,,,,,1,59,119,35,1,A,Y,N,o1_image,stimuli/out1.png,stimuli/correct_out1.png,stimuli/out2.png,,,,,,,,,,,,,,,,,,,,,,,,,,,,,,,,,,,,,,
,,607b087e7fd80dabd1ce4e63,27,female,2024-04-16_12h22.34.383,stockport_simplified,2022.2.4,Win32,30.03003003,661e456ee6de07e70aa9ef7b,661e51002fc11d4e371ec9ca,,,,,,,,,,,,,,,,,,,,,,,,,,,,,,,,,,958.5977,960.7557,"[8,1,2,7,3,4,5,6]","[[-0.3,0.2],[0.3,0.2]]","[[-0.125,-0.2],[0.125,-0.2]]",-0.101619285,-0.19866978,1,0,0,1.633,o1_image,960.7562,1,961.2557,961.2557,963.2557,,,,,,,,,,,,,,,,,,0,0,0,0,1,,,,,,,,,,,,,,,,,,,,,,,,,,,,,,,,,
,,607b087e7fd80dabd1ce4e63,27,female,2024-04-16_12h22.34.383,stockport_simplified,2022.2.4,Win32,30.03003003,661e456ee6de07e70aa9ef7b,661e51002fc11d4e371ec9ca,,,,,,,,,,,,,,,,,,,,,,,,,,,,,,,,,,,,,,,,,,,,,,,,,,,,,,,,,,,,,N,M,C,o1_image,stimuli/out1.png,stimuli/correct_out1.png,stimuli/out2.png,,,,,,0,0,0,44,1,,,,,,,,,,,,,,,,,,,,,,,,,,,,
,,607b087e7fd80dabd1ce4e63,27,female,2024-04-16_12h22.34.383,stockport_simplified,2022.2.4,Win32,30.03003003,661e456ee6de07e70aa9ef7b,661e51002fc11d4e371ec9ca,,,,,,,,,,,,,,,,,,,,,,,,,,,,,,,,,,963.2561,967.6224,"[8,1,2,7,3,4,5,6]","[[0.3,0.2],[-0.3,0.2]]","[[-0.125,-0.2],[0.125,-0.2]]",0.148236257,-0.193580238,1,0,0,3.833099999,o2_image,967.6274,1,968.1223,968.1224,970.1225,,,,,,,,,,,,,,,,,,0,0,0,0,1,,,,,,,,,,,,,,,,,,,,,,,,,,,,,,,,,
,,607b087e7fd80dabd1ce4e63,27,female,2024-04-16_12h22.34.383,stockport_simplified,2022.2.4,Win32,30.03003003,661e456ee6de07e70aa9ef7b,661e51002fc11d4e371ec9ca,,,,,,,,,,,,,,,,,,,,,,,,,,,,,,,,,,,,,,,,,,,,,,,,,,,,,,,,,,,,,B,X,N,o2_image,stimuli/out2.png,stimuli/out1.png,stimuli/correct_out2.png,,,,,,0,1,1,24,1,,,,,,,,,,,,,,,,,,,,,,,,,,,,
,,607b087e7fd80dabd1ce4e63,27,female,2024-04-16_12h22.34.383,stockport_simplified,2022.2.4,Win32,30.03003003,661e456ee6de07e70aa9ef7b,661e51002fc11d4e371ec9ca,,,,,,,,,,,,,,,,,,,,,,,,,,,,,,,,,,970.1227,972.1558,"[8,1,2,7,3,4,5,6]","[[0.3,0.2],[-0.3,0.2]]","[[-0.125,-0.2],[0.125,-0.2]]",-0.098843248,-0.182475448,1,0,0,1.4999,o1_image,972.1563,1,972.6557,972.6557,974.6558,,,,,,,,,,,,,,,,,,0,0,0,0,1,,,,,,,,,,,,,,,,,,,,,,,,,,,,,,,,,
,,607b087e7fd80dabd1ce4e63,27,female,2024-04-16_12h22.34.383,stockport_simplified,2022.2.4,Win32,30.03003003,661e456ee6de07e70aa9ef7b,661e51002fc11d4e371ec9ca,,,,,,,,,,,,,,,,,,,,,,,,,,,,,,,,,,,,,,,,,,,,,,,,,,,,,,,,,,,,,N,M,C,o1_image,stimuli/out1.png,stimuli/correct_out1.png,stimuli/out2.png,,,,,,0,2,2,43,1,,,,,,,,,,,,,,,,,,,,,,,,,,,,
,,607b087e7fd80dabd1ce4e63,27,female,2024-04-16_12h22.34.383,stockport_simplified,2022.2.4,Win32,30.03003003,661e456ee6de07e70aa9ef7b,661e51002fc11d4e371ec9ca,,,,,,,,,,,,,,,,,,,,,,,,,,,,,,,,,,974.656,976.9558,"[8,1,2,7,3,4,5,6]","[[-0.3,0.2],[0.3,0.2]]","[[0.125,-0.2],[-0.125,-0.2]]",0.08253327,-0.178773999,1,0,0,1.7665,o1_image,976.9562,1,977.4561,977.4561,979.4558,,,,,,,,,,,,,,,,,,0,0,0,0,1,,,,,,,,,,,,,,,,,,,,,,,,,,,,,,,,,
