counterbalance_2.started,counterbalance_2.stopped,participant,age,gender,date,expName,psychopyVersion,OS,frameRate,STUDY_ID,SESSION_ID,information_2.started,information_2.stopped,information_loop.thisRepN,information_loop.thisTrialN,information_loop.thisN,information_loop.thisIndex,information_loop.ran,information,consent_2.started,consent_2.stopped,slider_1.response,slider_2.response,slider_3.response,slider_4.response,slider_5.response,slider_6.response,instructions.started,instructions.stopped,task1_instr.thisRepN,task1_instr.thisTrialN,task1_instr.thisN,task1_instr.thisIndex,task1_instr.ran,task1,comprehension1_2.started,comprehension1_2.stopped,comp1_mouse.x,comp1_mouse.y,comp1_mouse.leftButton,comp1_mouse.midButton,comp1_mouse.rightButton,comp1_mouse.time,comp1_mouse.clicked_name,cue_o__trial_2.started,cue_o__trial_2.stopped,order,cue_order,out_order,cue_o_mouse.x,cue_o_mouse.y,cue_o_mouse.leftButton,cue_o_mouse.midButton,cue_o_mouse.rightButton,cue_o_mouse.time,cue_o_mouse.clicked_name,cue_selection_2.started,correct_answer,cue_selection_2.stopped,feedback_2.started,feedback_2.stopped,feedback_loop.thisRepN,feedback_loop.thisTrialN,feedback_loop.thisN,feedback_loop.thisIndex,feedback_loop.ran,stage1_trials.thisRepN,stage1_trials.thisTrialN,stage1_trials.thisN,stage1_trials.thisIndex,stage1_trials.ran,cue1,cue2,cue3,outcome,correct_out,o1_feedback,o2_feedback,stage2_feedback_loop.thisRepN,stage2_feedback_loop.thisTrialN,stage2_feedback_loop.thisN,stage2_feedback_loop.thisIndex,stage2_feedback_loop.ran,stage2_trials.thisRepN,stage2_trials.thisTrialN,stage2_trials.thisN,stage2_trials.thisIndex,stage2_trials.ran,stage3_feedback_loop.thisRepN,stage3_feedback_loop.thisTrialN,stage3_feedback_loop.thisN,stage3_feedback_loop.thisIndex,stage3_feedback_loop.ran,stage3_trials.thisRepN,stage3_trials.thisTrialN,stage3_trials.thisN,stage3_trials.thisIndex,stage3_trials.ran,debrief_2.started,debrief_2.stopped,debrief_loop.thisRepN,debrief_loop.thisTrialN,debrief_loop.thisN,debrief_loop.thisIndex,debrief_loop.ran,debrief_img,compr1_completed.thisRepN,compr1_completed.thisTrialN,compr1_completed.thisN,compr1_completed.thisIndex,compr1_completed.ran,consent_loop.thisRepN,consent_loop.thisTrialN,consent_loop.thisN,consent_loop.thisIndex,consent_loop.ran
0.001,0.002,5c5cad876d0fe50001f0390c,65,female,2024-04-19_17h37.17.449,stockport_simplified,2022.2.4,MacIntel,29.41176471,661e456ee6de07e70aa9ef7b,66229da53eacbc84adff1163,,,,,,,,,,,,,,,,,,,,,,,,,,,,,,,,,,,,,,,,,,,,,,,,,,,,,,,,,,,,,,,,,,,,,,,,,,,,,,,,,,,,,,,,,,,,,,,,,,,,,,,,,
,,5c5cad876d0fe50001f0390c,65,female,2024-04-19_17h37.17.449,stockport_simplified,2022.2.4,MacIntel,29.41176471,661e456ee6de07e70aa9ef7b,66229da53eacbc84adff1163,0.044,2.071,0,0,0,0,1,instructions/info1.png,,,,,,,,,,,,,,,,,,,,,,,,,,,,,,,,,,,,,,,,,,,,,,,,,,,,,,,,,,,,,,,,,,,,,,,,,,,,,,,,,,,,,,,,,,,,,,,,,
,,5c5cad876d0fe50001f0390c,65,female,2024-04-19_17h37.17.449,stockport_simplified,2022.2.4,MacIntel,29.41176471,661e456ee6de07e70aa9ef7b,66229da53eacbc84adff1163,2.072,7.234,0,1,1,1,1,instructions/info2.png,,,,,,,,,,,,,,,,,,,,,,,,,,,,,,,,,,,,,,,,,,,,,,,,,,,,,,,,,,,,,,,,,,,,,,,,,,,,,,,,,,,,,,,,,,,,,,,,,
,,5c5cad876d0fe50001f0390c,65,female,2024-04-19_17h37.17.449,stockport_simplified,2022.2.4,MacIntel,29.41176471,661e456ee6de07e70aa9ef7b,66229da53eacbc84adff1163,7.241,9.931,0,2,2,2,1,instructions/info3.png,,,,,,,,,,,,,,,,,,,,,,,,,,,,,,,,,,,,,,,,,,,,,,,,,,,,,,,,,,,,,,,,,,,,,,,,,,,,,,,,,,,,,,,,,,,,,,,,,
,,5c5cad876d0fe50001f0390c,65,female,2024-04-19_17h37.17.449,stockport_simplified,2022.2.4,MacIntel,29.41176471,661e456ee6de07e70aa9ef7b,66229da53eacbc84adff1163,,,,,,,,,9.932,20.666,1,1,1,1,1,1,,,,,,,,,,,,,,,,,,,,,,,,,,,,,,,,,,,,,,,,,,,,,,,,,,,,,,,,,,,,,,,,,,,,,,,,,,,,,,,,,,,,,,,,,
,,5c5cad876d0fe50001f0390c,65,female,2024-04-19_17h37.17.449,stockport_simplified,2022.2.4,MacIntel,29.41176471,661e456ee6de07e70aa9ef7b,66229da53eacbc84adff1163,,,,,,,,,,,,,,,,,20.707,50.504,0,0,0,0,1,instructions/task1_1.png,,,,,,,,,,,,,,,,,,,,,,,,,,,,,,,,,,,,,,,,,,,,,,,,,,,,,,,,,,,,,,,,,,,,,,,,,,,,,,,,,
,,5c5cad876d0fe50001f0390c,65,female,2024-04-19_17h37.17.449,stockport_simplified,2022.2.4,MacIntel,29.41176471,661e456ee6de07e70aa9ef7b,66229da53eacbc84adff1163,,,,,,,,,,,,,,,,,50.505,63.188,0,1,1,1,1,instructions/task1_2.png,,,,,,,,,,,,,,,,,,,,,,,,,,,,,,,,,,,,,,,,,,,,,,,,,,,,,,,,,,,,,,,,,,,,,,,,,,,,,,,,,
,,5c5cad876d0fe50001f0390c,65,female,2024-04-19_17h37.17.449,stockport_simplified,2022.2.4,MacIntel,29.41176471,661e456ee6de07e70aa9ef7b,66229da53eacbc84adff1163,,,,,,,,,,,,,,,,,63.19,78.795,0,2,2,2,1,instructions/task1_3.png,,,,,,,,,,,,,,,,,,,,,,,,,,,,,,,,,,,,,,,,,,,,,,,,,,,,,,,,,,,,,,,,,,,,,,,,,,,,,,,,,
,,5c5cad876d0fe50001f0390c,65,female,2024-04-19_17h37.17.449,stockport_simplified,2022.2.4,MacIntel,29.41176471,661e456ee6de07e70aa9ef7b,66229da53eacbc84adff1163,,,,,,,,,,,,,,,,,,,,,,,,,78.804,97.78,0.294561934,-0.332326284,1,0,0,18.972,comp1_resp1,97.832,104.645,"[7,2,4,3,6,1,8,5]","[[-0.3,0.2],[0.3,0.2]]","[[-0.125,-0.2],[0.125,-0.2]]",0.148036254,-0.203927492,1,0,0,6.304,o2_image,104.65,1,105.143,105.144,107.139,0,0,0,0,1,,,,,,,,,,,,,,,,,,,,,,,,,,,,,,,,,,,,,,,,,,,,,,,,,,
,,5c5cad876d0fe50001f0390c,65,female,2024-04-19_17h37.17.449,stockport_simplified,2022.2.4,MacIntel,29.41176471,661e456ee6de07e70aa9ef7b,66229da53eacbc84adff1163,,,,,,,,,,,,,,,,,,,,,,,,,,,,,,,,,,,,,,,,,,,,,,,,,,,,,,,,0,0,0,19,1,B,Y,N,o2_image,stimuli/out2.png,stimuli/out1.png,stimuli/correct_out2.png,,,,,,,,,,,,,,,,,,,,,,,,,,,,,,,,,,,,,,
,,5c5cad876d0fe50001f0390c,65,female,2024-04-19_17h37.17.449,stockport_simplified,2022.2.4,MacIntel,29.41176471,661e456ee6de07e70aa9ef7b,66229da53eacbc84adff1163,,,,,,,,,,,,,,,,,,,,,,,,,,,,,,,,,,107.14,110.959,"[7,2,4,3,6,1,8,5]","[[0.3,0.2],[-0.3,0.2]]","[[-0.125,-0.2],[0.125,-0.2]]",0.14652568,-0.193353474,1,0,0,3.286,o2_image,110.965,1,111.473,111.473,113.472,0,0,0,0,1,,,,,,,,,,,,,,,,,,,,,,,,,,,,,,,,,,,,,,,,,,,,,,,,,,
,,5c5cad876d0fe50001f0390c,65,female,2024-04-19_17h37.17.449,stockport_simplified,2022.2.4,MacIntel,29.41176471,661e456ee6de07e70aa9ef7b,66229da53eacbc84adff1163,,,,,,,,,,,,,,,,,,,,,,,,,,,,,,,,,,,,,,,,,,,,,,,,,,,,,,,,0,1,1,49,1,B,Y,N,o2_image,stimuli/out2.png,stimuli/out1.png,stimuli/correct_out2.png,,,,,,,,,,,,,,,,,,,,,,,,,,,,,,,,,,,,,,
,,5c5cad876d0fe50001f0390c,65,female,2024-04-19_17h37.17.449,stockport_simplified,2022.2.4,MacIntel,29.41176471,661e456ee6de07e70aa9ef7b,66229da53eacbc84adff1163,,,,,,,,,,,,,,,,,,,,,,,,,,,,,,,,,,113.473,118.409,"[7,2,4,3,6,1,8,5]","[[-0.3,0.2],[0.3,0.2]]","[[0.125,-0.2],[-0.125,-0.2]]",-0.119335347,-0.193353474,1,0,0,4.432,o2_image,118.411,0,118.906,118.906,120.907,0,0,0,0,1,,,,,,,,,,,,,,,,,,,,,,,,,,,,,,,,,,,,,,,,,,,,,,,,,,
,,5c5cad876d0fe50001f0390c,65,female,2024-04-19_17h37.17.449,stockport_simplified,2022.2.4,MacIntel,29.41176471,661e456ee6de07e70aa9ef7b,66229da53eacbc84adff1163,,,,,,,,,,,,,,,,,,,,,,,,,,,,,,,,,,,,,,,,,,,,,,,,,,,,,,,,0,2,2,6,1,A,Y,N,o1_image,stimuli/out1.png,stimuli/correct_out1.png,stimuli/out2.png,,,,,,,,,,,,,,,,,,,,,,,,,,,,,,,,,,,,,,
,,5c5cad876d0fe50001f0390c,65,female,2024-04-19_17h37.17.449,stockport_simplified,2022.2.4,MacIntel,29.41176471,661e456ee6de07e70aa9ef7b,66229da53eacbc84adff1163,,,,,,,,,,,,,,,,,,,,,,,,,,,,,,,,,,120.908,124.86,"[7,2,4,3,6,1,8,5]","[[0.3,0.2],[-0.3,0.2]]","[[-0.125,-0.2],[0.125,-0.2]]",0.140483384,-0.234138973,1,0,0,3.415,o2_image,124.862,1,125.342,125.342,127.341,0,0,0,0,1,,,,,,,,,,,,,,,,,,,,,,,,,,,,,,,,,,,,,,,,,,,,,,,,,,
,,5c5cad876d0fe50001f0390c,65,female,2024-04-19_17h37.17.449,stockport_simplified,2022.2.4,MacIntel,29.41176471,661e456ee6de07e70aa9ef7b,66229da53eacbc84adff1163,,,,,,,,,,,,,,,,,,,,,,,,,,,,,,,,,,,,,,,,,,,,,,,,,,,,,,,,0,3,3,41,1,B,X,N,o2_image,stimuli/out2.png,stimuli/out1.png,stimuli/correct_out2.png,,,,,,,,,,,,,,,,,,,,,,,,,,,,,,,,,,,,,,
,,5c5cad876d0fe50001f0390c,65,female,2024-04-19_17h37.17.449,stockport_simplified,2022.2.4,MacIntel,29.41176471,661e456ee6de07e70aa9ef7b,66229da53eacbc84adff1163,,,,,,,,,,,,,,,,,,,,,,,,,,,,,,,,,,127.345,129.86,"[7,2,4,3,6,1,8,5]","[[0.3,0.2],[-0.3,0.2]]","[[-0.125,-0.2],[0.125,-0.2]]",0.13897281,-0.203927492,1,0,0,1.975,o2_image,129.862,0,130.341,130.341,132.341,0,0,0,0,1,,,,,,,,,,,,,,,,,,,,,,,,,,,,,,,,,,,,,,,,,,,,,,,,,,
,,5c5cad876d0fe50001f0390c,65,female,2024-04-19_17h37.17.449,stockport_simplified,2022.2.4,MacIntel,29.41176471,661e456ee6de07e70aa9ef7b,66229da53eacbc84adff1163,,,,,,,,,,,,,,,,,,,,,,,,,,,,,,,,,,,,,,,,,,,,,,,,,,,,,,,,0,4,4,1,1,A,X,N,o1_image,stimuli/out1.png,stimuli/correct_out1.png,stimuli/out2.png,,,,,,,,,,,,,,,,,,,,,,,,,,,,,,,,,,,,,,
,,5c5cad876d0fe50001f0390c,65,female,2024-04-19_17h37.17.449,stockport_simplified,2022.2.4,MacIntel,29.41176471,661e456ee6de07e70aa9ef7b,66229da53eacbc84adff1163,,,,,,,,,,,,,,,,,,,,,,,,,,,,,,,,,,132.343,136.228,"[7,2,4,3,6,1,8,5]","[[0.3,0.2],[-0.3,0.2]]","[[0.125,-0.2],[-0.125,-0.2]]",-0.087613293,-0.225075529,1,0,0,3.353,o2_image,136.229,0,136.708,136.708,138.708,0,0,0,0,1,,,,,,,,,,,,,,,,,,,,,,,,,,,,,,,,,,,,,,,,,,,,,,,,,,
,,5c5cad876d0fe50001f0390c,65,female,2024-04-19_17h37.17.449,stockport_simplified,2022.2.4,MacIntel,29.41176471,661e456ee6de07e70aa9ef7b,66229da53eacbc84adff1163,,,,,,,,,,,,,,,,,,,,,,,,,,,,,,,,,,,,,,,,,,,,,,,,,,,,,,,,0,5,5,37,1,A,Y,N,o1_image,stimuli/out1.png,stimuli/correct_out1.png,stimuli/out2.png,,,,,,,,,,,,,,,,,,,,,,,,,,,,,,,,,,,,,,
,,5c5cad876d0fe50001f0390c,65,female,2024-04-19_17h37.17.449,stockport_simplified,2022.2.4,MacIntel,29.41176471,661e456ee6de07e70aa9ef7b,66229da53eacbc84adff1163,,,,,,,,,,,,,,,,,,,,,,,,,,,,,,,,,,138.71,143.721,"[7,2,4,3,6,1,8,5]","[[0.3,0.2],[-0.3,0.2]]","[[-0.125,-0.2],[0.125,-0.2]]",0.151057402,-0.1918429,1,0,0,4.479,o2_image,143.722,1,144.209,144.209,146.209,0,0,0,0,1,,,,,,,,,,,,,,,,,,,,,,,,,,,,,,,,,,,,,,,,,,,,,,,,,,
,,5c5cad876d0fe50001f0390c,65,female,2024-04-19_17h37.17.449,stockport_simplified,2022.2.4,MacIntel,29.41176471,661e456ee6de07e70aa9ef7b,66229da53eacbc84adff1163,,,,,,,,,,,,,,,,,,,,,,,,,,,,,,,,,,,,,,,,,,,,,,,,,,,,,,,,0,6,6,47,1,B,Y,N,o2_image,stimuli/out2.png,stimuli/out1.png,stimuli/correct_out2.png,,,,,,,,,,,,,,,,,,,,,,,,,,,,,,,,,,,,,,
,,5c5cad876d0fe50001f0390c,65,female,2024-04-19_17h37.17.449,stockport_simplified,2022.2.4,MacIntel,29.41176471,661e456ee6de07e70aa9ef7b,66229da53eacbc84adff1163,,,,,,,,,,,,,,,,,,,,,,,,,,,,,,,,,,146.21,150.002,"[7,2,4,3,6,1,8,5]","[[0.3,0.2],[-0.3,0.2]]","[[0.125,-0.2],[-0.125,-0.2]]",0.141993958,-0.219033233,1,0,0,3.249,o1_image,150.004,1,150.509,150.509,152.509,0,0,0,0,1,,,,,,,,,,,,,,,,,,,,,,,,,,,,,,,,,,,,,,,,,,,,,,,,,,
,,5c5cad876d0fe50001f0390c,65,female,2024-04-19_17h37.17.449,stockport_simplified,2022.2.4,MacIntel,29.41176471,661e456ee6de07e70aa9ef7b,66229da53eacbc84adff1163,,,,,,,,,,,,,,,,,,,,,,,,,,,,,,,,,,,,,,,,,,,,,,,,,,,,,,,,0,7,7,31,1,A,X,N,o1_image,stimuli/out1.png,stimuli/correct_out1.png,stimuli/out2.png,,,,,,,,,,,,,,,,,,,,,,,,,,,,,,,,,,,,,,
,,5c5cad876d0fe50001f0390c,65,female,2024-04-19_17h37.17.449,stockport_simplified,2022.2.4,MacIntel,29.41176471,661e456ee6de07e70aa9ef7b,66229da53eacbc84adff1163,,,,,,,,,,,,,,,,,,,,,,,,,,,,,,,,,,152.513,156.172,"[7,2,4,3,6,1,8,5]","[[-0.3,0.2],[0.3,0.2]]","[[-0.125,-0.2],[0.125,-0.2]]",0.134441088,-0.220543807,1,0,0,3.125,o2_image,156.174,1,156.678,156.678,158.676,0,0,0,0,1,,,,,,,,,,,,,,,,,,,,,,,,,,,,,,,,,,,,,,,,,,,,,,,,,,
,,5c5cad876d0fe50001f0390c,65,female,2024-04-19_17h37.17.449,stockport_simplified,2022.2.4,MacIntel,29.41176471,661e456ee6de07e70aa9ef7b,66229da53eacbc84adff1163,,,,,,,,,,,,,,,,,,,,,,,,,,,,,,,,,,,,,,,,,,,,,,,,,,,,,,,,0,8,8,17,1,B,Y,N,o2_image,stimuli/out2.png,stimuli/out1.png,stimuli/correct_out2.png,,,,,,,,,,,,,,,,,,,,,,,,,,,,,,,,,,,,,,
,,5c5cad876d0fe50001f0390c,65,female,2024-04-19_17h37.17.449,stockport_simplified,2022.2.4,MacIntel,29.41176471,661e456ee6de07e70aa9ef7b,66229da53eacbc84adff1163,,,,,,,,,,,,,,,,,,,,,,,,,,,,,,,,,,158.68,160.898,"[7,2,4,3,6,1,8,5]","[[-0.3,0.2],[0.3,0.2]]","[[0.125,-0.2],[-0.125,-0.2]]",-0.104229607,-0.212990937,1,0,0,1.689,o2_image,160.902,1,161.412,161.412,163.409,0,0,0,0,1,,,,,,,,,,,,,,,,,,,,,,,,,,,,,,,,,,,,,,,,,,,,,,,,,,
,,5c5cad876d0fe50001f0390c,65,female,2024-04-19_17h37.17.449,stockport_simplified,2022.2.4,MacIntel,29.41176471,661e456ee6de07e70aa9ef7b,66229da53eacbc84adff1163,,,,,,,,,,,,,,,,,,,,,,,,,,,,,,,,,,,,,,,,,,,,,,,,,,,,,,,,0,9,9,45,1,B,Y,N,o2_image,stimuli/out2.png,stimuli/out1.png,stimuli/correct_out2.png,,,,,,,,,,,,,,,,,,,,,,,,,,,,,,,,,,,,,,
,,5c5cad876d0fe50001f0390c,65,female,2024-04-19_17h37.17.449,stockport_simplified,2022.2.4,MacIntel,29.41176471,661e456ee6de07e70aa9ef7b,66229da53eacbc84adff1163,,,,,,,,,,,,,,,,,,,,,,,,,,,,,,,,,,163.411,167.608,"[7,2,4,3,6,1,8,5]","[[0.3,0.2],[-0.3,0.2]]","[[-0.125,-0.2],[0.125,-0.2]]",0.135951662,-0.194864048,1,0,0,3.662,o2_image,167.611,0,168.11,168.111,170.11,0,0,0,0,1,,,,,,,,,,,,,,,,,,,,,,,,,,,,,,,,,,,,,,,,,,,,,,,,,,
,,5c5cad876d0fe50001f0390c,65,female,2024-04-19_17h37.17.449,stockport_simplified,2022.2.4,MacIntel,29.41176471,661e456ee6de07e70aa9ef7b,66229da53eacbc84adff1163,,,,,,,,,,,,,,,,,,,,,,,,,,,,,,,,,,,,,,,,,,,,,,,,,,,,,,,,0,10,10,7,1,A,Y,N,o1_image,stimuli/out1.png,stimuli/correct_out1.png,stimuli/out2.png,,,,,,,,,,,,,,,,,,,,,,,,,,,,,,,,,,,,,,
,,5c5cad876d0fe50001f0390c,65,female,2024-04-19_17h37.17.449,stockport_simplified,2022.2.4,MacIntel,29.41176471,661e456ee6de07e70aa9ef7b,66229da53eacbc84adff1163,,,,,,,,,,,,,,,,,,,,,,,,,,,,,,,,,,170.112,172.791,"[7,2,4,3,6,1,8,5]","[[0.3,0.2],[-0.3,0.2]]","[[-0.125,-0.2],[0.125,-0.2]]",-0.120845921,-0.228096677,1,0,0,2.143,o1_image,172.795,1,173.277,173.277,175.277,0,0,0,0,1,,,,,,,,,,,,,,,,,,,,,,,,,,,,,,,,,,,,,,,,,,,,,,,,,,
,,5c5cad876d0fe50001f0390c,65,female,2024-04-19_17h37.17.449,stockport_simplified,2022.2.4,MacIntel,29.41176471,661e456ee6de07e70aa9ef7b,66229da53eacbc84adff1163,,,,,,,,,,,,,,,,,,,,,,,,,,,,,,,,,,,,,,,,,,,,,,,,,,,,,,,,0,11,11,51,1,N,M,C,o1_image,stimuli/out1.png,stimuli/correct_out1.png,stimuli/out2.png,,,,,,,,,,,,,,,,,,,,,,,,,,,,,,,,,,,,,,
,,5c5cad876d0fe50001f0390c,65,female,2024-04-19_17h37.17.449,stockport_simplified,2022.2.4,MacIntel,29.41176471,661e456ee6de07e70aa9ef7b,66229da53eacbc84adff1163,,,,,,,,,,,,,,,,,,,,,,,,,,,,,,,,,,175.28,177.438,"[7,2,4,3,6,1,8,5]","[[0.3,0.2],[-0.3,0.2]]","[[-0.125,-0.2],[0.125,-0.2]]",0.143504532,-0.200906344,1,0,0,1.626,o2_image,177.439,1,177.952,177.952,179.944,0,0,0,0,1,,,,,,,,,,,,,,,,,,,,,,,,,,,,,,,,,,,,,,,,,,,,,,,,,,
,,5c5cad876d0fe50001f0390c,65,female,2024-04-19_17h37.17.449,stockport_simplified,2022.2.4,MacIntel,29.41176471,661e456ee6de07e70aa9ef7b,66229da53eacbc84adff1163,,,,,,,,,,,,,,,,,,,,,,,,,,,,,,,,,,,,,,,,,,,,,,,,,,,,,,,,0,12,12,43,1,B,X,N,o2_image,stimuli/out2.png,stimuli/out1.png,stimuli/correct_out2.png,,,,,,,,,,,,,,,,,,,,,,,,,,,,,,,,,,,,,,
,,5c5cad876d0fe50001f0390c,65,female,2024-04-19_17h37.17.449,stockport_simplified,2022.2.4,MacIntel,29.41176471,661e456ee6de07e70aa9ef7b,66229da53eacbc84adff1163,,,,,,,,,,,,,,,,,,,,,,,,,,,,,,,,,,179.945,182.652,"[7,2,4,3,6,1,8,5]","[[-0.3,0.2],[0.3,0.2]]","[[0.125,-0.2],[-0.125,-0.2]]",-0.129909366,-0.200906344,1,0,0,2.174,o2_image,182.653,1,183.144,183.144,185.144,0,0,0,0,1,,,,,,,,,,,,,,,,,,,,,,,,,,,,,,,,,,,,,,,,,,,,,,,,,,
,,5c5cad876d0fe50001f0390c,65,female,2024-04-19_17h37.17.449,stockport_simplified,2022.2.4,MacIntel,29.41176471,661e456ee6de07e70aa9ef7b,66229da53eacbc84adff1163,,,,,,,,,,,,,,,,,,,,,,,,,,,,,,,,,,,,,,,,,,,,,,,,,,,,,,,,0,13,13,42,1,B,X,N,o2_image,stimuli/out2.png,stimuli/out1.png,stimuli/correct_out2.png,,,,,,,,,,,,,,,,,,,,,,,,,,,,,,,,,,,,,,
,,5c5cad876d0fe50001f0390c,65,female,2024-04-19_17h37.17.449,stockport_simplified,2022.2.4,MacIntel,29.41176471,661e456ee6de07e70aa9ef7b,66229da53eacbc84adff1163,,,,,,,,,,,,,,,,,,,,,,,,,,,,,,,,,,185.145,187.12,"[7,2,4,3,6,1,8,5]","[[0.3,0.2],[-0.3,0.2]]","[[0.125,-0.2],[-0.125,-0.2]]",-0.126888218,-0.203927492,1,0,0,1.441,o2_image,187.121,0,187.611,187.611,189.612,0,0,0,0,1,,,,,,,,,,,,,,,,,,,,,,,,,,,,,,,,,,,,,,,,,,,,,,,,,,
,,5c5cad876d0fe50001f0390c,65,female,2024-04-19_17h37.17.449,stockport_simplified,2022.2.4,MacIntel,29.41176471,661e456ee6de07e70aa9ef7b,66229da53eacbc84adff1163,,,,,,,,,,,,,,,,,,,,,,,,,,,,,,,,,,,,,,,,,,,,,,,,,,,,,,,,0,14,14,36,1,A,Y,N,o1_image,stimuli/out1.png,stimuli/correct_out1.png,stimuli/out2.png,,,,,,,,,,,,,,,,,,,,,,,,,,,,,,,,,,,,,,
,,5c5cad876d0fe50001f0390c,65,female,2024-04-19_17h37.17.449,stockport_simplified,2022.2.4,MacIntel,29.41176471,661e456ee6de07e70aa9ef7b,66229da53eacbc84adff1163,,,,,,,,,,,,,,,,,,,,,,,,,,,,,,,,,,189.615,192.779,"[7,2,4,3,6,1,8,5]","[[-0.3,0.2],[0.3,0.2]]","[[0.125,-0.2],[-0.125,-0.2]]",0.125377644,-0.203927492,1,0,0,2.63,o1_image,192.78,1,193.278,193.278,195.278,0,0,0,0,1,,,,,,,,,,,,,,,,,,,,,,,,,,,,,,,,,,,,,,,,,,,,,,,,,,
,,5c5cad876d0fe50001f0390c,65,female,2024-04-19_17h37.17.449,stockport_simplified,2022.2.4,MacIntel,29.41176471,661e456ee6de07e70aa9ef7b,66229da53eacbc84adff1163,,,,,,,,,,,,,,,,,,,,,,,,,,,,,,,,,,,,,,,,,,,,,,,,,,,,,,,,0,15,15,30,1,A,X,N,o1_image,stimuli/out1.png,stimuli/correct_out1.png,stimuli/out2.png,,,,,,,,,,,,,,,,,,,,,,,,,,,,,,,,,,,,,,
,,5c5cad876d0fe50001f0390c,65,female,2024-04-19_17h37.17.449,stockport_simplified,2022.2.4,MacIntel,29.41176471,661e456ee6de07e70aa9ef7b,66229da53eacbc84adff1163,,,,,,,,,,,,,,,,,,,,,,,,,,,,,,,,,,195.279,198.859,"[7,2,4,3,6,1,8,5]","[[-0.3,0.2],[0.3,0.2]]","[[0.125,-0.2],[-0.125,-0.2]]",-0.143504532,-0.194864048,1,0,0,3.045,o2_image,198.86,1,199.341,199.341,201.347,0,0,0,0,1,,,,,,,,,,,,,,,,,,,,,,,,,,,,,,,,,,,,,,,,,,,,,,,,,,
,,5c5cad876d0fe50001f0390c,65,female,2024-04-19_17h37.17.449,stockport_simplified,2022.2.4,MacIntel,29.41176471,661e456ee6de07e70aa9ef7b,66229da53eacbc84adff1163,,,,,,,,,,,,,,,,,,,,,,,,,,,,,,,,,,,,,,,,,,,,,,,,,,,,,,,,0,16,16,48,1,B,Y,N,o2_image,stimuli/out2.png,stimuli/out1.png,stimuli/correct_out2.png,,,,,,,,,,,,,,,,,,,,,,,,,,,,,,,,,,,,,,
,,5c5cad876d0fe50001f0390c,65,female,2024-04-19_17h37.17.449,stockport_simplified,2022.2.4,MacIntel,29.41176471,661e456ee6de07e70aa9ef7b,66229da53eacbc84adff1163,,,,,,,,,,,,,,,,,,,,,,,,,,,,,,,,,,201.355,205.243,"[7,2,4,3,6,1,8,5]","[[0.3,0.2],[-0.3,0.2]]","[[-0.125,-0.2],[0.125,-0.2]]",0.14652568,-0.20694864,1,0,0,3.359,o2_image,205.249,1,205.753,205.756,207.748,0,0,0,0,1,,,,,,,,,,,,,,,,,,,,,,,,,,,,,,,,,,,,,,,,,,,,,,,,,,
,,5c5cad876d0fe50001f0390c,65,female,2024-04-19_17h37.17.449,stockport_simplified,2022.2.4,MacIntel,29.41176471,661e456ee6de07e70aa9ef7b,66229da53eacbc84adff1163,,,,,,,,,,,,,,,,,,,,,,,,,,,,,,,,,,,,,,,,,,,,,,,,,,,,,,,,0,17,17,14,1,B,X,N,o2_image,stimuli/out2.png,stimuli/out1.png,stimuli/correct_out2.png,,,,,,,,,,,,,,,,,,,,,,,,,,,,,,,,,,,,,,
,,5c5cad876d0fe50001f0390c,65,female,2024-04-19_17h37.17.449,stockport_simplified,2022.2.4,MacIntel,29.41176471,661e456ee6de07e70aa9ef7b,66229da53eacbc84adff1163,,,,,,,,,,,,,,,,,,,,,,,,,,,,,,,,,,207.749,213.131,"[7,2,4,3,6,1,8,5]","[[-0.3,0.2],[0.3,0.2]]","[[0.125,-0.2],[-0.125,-0.2]]",0.123867069,-0.232628399,1,0,0,4.845,o1_image,213.132,0,213.614,213.614,215.614,0,0,0,0,1,,,,,,,,,,,,,,,,,,,,,,,,,,,,,,,,,,,,,,,,,,,,,,,,,,
,,5c5cad876d0fe50001f0390c,65,female,2024-04-19_17h37.17.449,stockport_simplified,2022.2.4,MacIntel,29.41176471,661e456ee6de07e70aa9ef7b,66229da53eacbc84adff1163,,,,,,,,,,,,,,,,,,,,,,,,,,,,,,,,,,,,,,,,,,,,,,,,,,,,,,,,0,18,18,55,1,N,M,D,o2_image,stimuli/out2.png,stimuli/out1.png,stimuli/correct_out2.png,,,,,,,,,,,,,,,,,,,,,,,,,,,,,,,,,,,,,,
,,5c5cad876d0fe50001f0390c,65,female,2024-04-19_17h37.17.449,stockport_simplified,2022.2.4,MacIntel,29.41176471,661e456ee6de07e70aa9ef7b,66229da53eacbc84adff1163,,,,,,,,,,,,,,,,,,,,,,,,,,,,,,,,,,215.616,217.77,"[7,2,4,3,6,1,8,5]","[[0.3,0.2],[-0.3,0.2]]","[[-0.125,-0.2],[0.125,-0.2]]",0.120845921,-0.211480363,1,0,0,1.62,o2_image,217.772,1,218.249,218.249,220.248,0,0,0,0,1,,,,,,,,,,,,,,,,,,,,,,,,,,,,,,,,,,,,,,,,,,,,,,,,,,
,,5c5cad876d0fe50001f0390c,65,female,2024-04-19_17h37.17.449,stockport_simplified,2022.2.4,MacIntel,29.41176471,661e456ee6de07e70aa9ef7b,66229da53eacbc84adff1163,,,,,,,,,,,,,,,,,,,,,,,,,,,,,,,,,,,,,,,,,,,,,,,,,,,,,,,,0,19,19,58,1,N,M,D,o2_image,stimuli/out2.png,stimuli/out1.png,stimuli/correct_out2.png,,,,,,,,,,,,,,,,,,,,,,,,,,,,,,,,,,,,,,
,,5c5cad876d0fe50001f0390c,65,female,2024-04-19_17h37.17.449,stockport_simplified,2022.2.4,MacIntel,29.41176471,661e456ee6de07e70aa9ef7b,66229da53eacbc84adff1163,,,,,,,,,,,,,,,,,,,,,,,,,,,,,,,,,,220.249,223.584,"[7,2,4,3,6,1,8,5]","[[0.3,0.2],[-0.3,0.2]]","[[-0.125,-0.2],[0.125,-0.2]]",-0.122356495,-0.219033233,1,0,0,2.8,o1_image,223.587,1,224.081,224.081,226.082,0,0,0,0,1,,,,,,,,,,,,,,,,,,,,,,,,,,,,,,,,,,,,,,,,,,,,,,,,,,
,,5c5cad876d0fe50001f0390c,65,female,2024-04-19_17h37.17.449,stockport_simplified,2022.2.4,MacIntel,29.41176471,661e456ee6de07e70aa9ef7b,66229da53eacbc84adff1163,,,,,,,,,,,,,,,,,,,,,,,,,,,,,,,,,,,,,,,,,,,,,,,,,,,,,,,,0,20,20,8,1,A,Y,N,o1_image,stimuli/out1.png,stimuli/correct_out1.png,stimuli/out2.png,,,,,,,,,,,,,,,,,,,,,,,,,,,,,,,,,,,,,,
,,5c5cad876d0fe50001f0390c,65,female,2024-04-19_17h37.17.449,stockport_simplified,2022.2.4,MacIntel,29.41176471,661e456ee6de07e70aa9ef7b,66229da53eacbc84adff1163,,,,,,,,,,,,,,,,,,,,,,,,,,,,,,,,,,226.084,228.882,"[7,2,4,3,6,1,8,5]","[[-0.3,0.2],[0.3,0.2]]","[[0.125,-0.2],[-0.125,-0.2]]",0.128398792,-0.226586103,1,0,0,2.264,o1_image,228.883,1,229.381,229.381,231.381,0,0,0,0,1,,,,,,,,,,,,,,,,,,,,,,,,,,,,,,,,,,,,,,,,,,,,,,,,,,
,,5c5cad876d0fe50001f0390c,65,female,2024-04-19_17h37.17.449,stockport_simplified,2022.2.4,MacIntel,29.41176471,661e456ee6de07e70aa9ef7b,66229da53eacbc84adff1163,,,,,,,,,,,,,,,,,,,,,,,,,,,,,,,,,,,,,,,,,,,,,,,,,,,,,,,,0,21,21,3,1,A,X,N,o1_image,stimuli/out1.png,stimuli/correct_out1.png,stimuli/out2.png,,,,,,,,,,,,,,,,,,,,,,,,,,,,,,,,,,,,,,
,,5c5cad876d0fe50001f0390c,65,female,2024-04-19_17h37.17.449,stockport_simplified,2022.2.4,MacIntel,29.41176471,661e456ee6de07e70aa9ef7b,66229da53eacbc84adff1163,,,,,,,,,,,,,,,,,,,,,,,,,,,,,,,,,,231.383,234.82,"[7,2,4,3,6,1,8,5]","[[-0.3,0.2],[0.3,0.2]]","[[-0.125,-0.2],[0.125,-0.2]]",0.140483384,-0.205438066,1,0,0,2.896,o2_image,234.822,1,235.315,235.315,237.315,0,0,0,0,1,,,,,,,,,,,,,,,,,,,,,,,,,,,,,,,,,,,,,,,,,,,,,,,,,,
,,5c5cad876d0fe50001f0390c,65,female,2024-04-19_17h37.17.449,stockport_simplified,2022.2.4,MacIntel,29.41176471,661e456ee6de07e70aa9ef7b,66229da53eacbc84adff1163,,,,,,,,,,,,,,,,,,,,,,,,,,,,,,,,,,,,,,,,,,,,,,,,,,,,,,,,0,22,22,16,1,B,Y,N,o2_image,stimuli/out2.png,stimuli/out1.png,stimuli/correct_out2.png,,,,,,,,,,,,,,,,,,,,,,,,,,,,,,,,,,,,,,
,,5c5cad876d0fe50001f0390c,65,female,2024-04-19_17h37.17.449,stockport_simplified,2022.2.4,MacIntel,29.41176471,661e456ee6de07e70aa9ef7b,66229da53eacbc84adff1163,,,,,,,,,,,,,,,,,,,,,,,,,,,,,,,,,,237.316,240.209,"[7,2,4,3,6,1,8,5]","[[-0.3,0.2],[0.3,0.2]]","[[-0.125,-0.2],[0.125,-0.2]]",0.135951662,-0.197885196,1,0,0,2.39,o2_image,240.21,1,240.715,240.715,242.719,0,0,0,0,1,,,,,,,,,,,,,,,,,,,,,,,,,,,,,,,,,,,,,,,,,,,,,,,,,,
,,5c5cad876d0fe50001f0390c,65,female,2024-04-19_17h37.17.449,stockport_simplified,2022.2.4,MacIntel,29.41176471,661e456ee6de07e70aa9ef7b,66229da53eacbc84adff1163,,,,,,,,,,,,,,,,,,,,,,,,,,,,,,,,,,,,,,,,,,,,,,,,,,,,,,,,0,23,23,13,1,B,X,N,o2_image,stimuli/out2.png,stimuli/out1.png,stimuli/correct_out2.png,,,,,,,,,,,,,,,,,,,,,,,,,,,,,,,,,,,,,,
,,5c5cad876d0fe50001f0390c,65,female,2024-04-19_17h37.17.449,stockport_simplified,2022.2.4,MacIntel,29.41176471,661e456ee6de07e70aa9ef7b,66229da53eacbc84adff1163,,,,,,,,,,,,,,,,,,,,,,,,,,,,,,,,,,242.723,246.293,"[7,2,4,3,6,1,8,5]","[[0.3,0.2],[-0.3,0.2]]","[[0.125,-0.2],[-0.125,-0.2]]",-0.092145015,-0.208459215,1,0,0,3.041,o2_image,246.294,1,246.789,246.789,248.784,0,0,0,0,1,,,,,,,,,,,,,,,,,,,,,,,,,,,,,,,,,,,,,,,,,,,,,,,,,,
,,5c5cad876d0fe50001f0390c,65,female,2024-04-19_17h37.17.449,stockport_simplified,2022.2.4,MacIntel,29.41176471,661e456ee6de07e70aa9ef7b,66229da53eacbc84adff1163,,,,,,,,,,,,,,,,,,,,,,,,,,,,,,,,,,,,,,,,,,,,,,,,,,,,,,,,0,24,24,57,1,N,M,D,o2_image,stimuli/out2.png,stimuli/out1.png,stimuli/correct_out2.png,,,,,,,,,,,,,,,,,,,,,,,,,,,,,,,,,,,,,,
,,5c5cad876d0fe50001f0390c,65,female,2024-04-19_17h37.17.449,stockport_simplified,2022.2.4,MacIntel,29.41176471,661e456ee6de07e70aa9ef7b,66229da53eacbc84adff1163,,,,,,,,,,,,,,,,,,,,,,,,,,,,,,,,,,248.789,252.202,"[7,2,4,3,6,1,8,5]","[[0.3,0.2],[-0.3,0.2]]","[[0.125,-0.2],[-0.125,-0.2]]",0.128398792,-0.208459215,1,0,0,2.879,o1_image,252.204,1,252.683,252.683,254.683,0,0,0,0,1,,,,,,,,,,,,,,,,,,,,,,,,,,,,,,,,,,,,,,,,,,,,,,,,,,
,,5c5cad876d0fe50001f0390c,65,female,2024-04-19_17h37.17.449,stockport_simplified,2022.2.4,MacIntel,29.41176471,661e456ee6de07e70aa9ef7b,66229da53eacbc84adff1163,,,,,,,,,,,,,,,,,,,,,,,,,,,,,,,,,,,,,,,,,,,,,,,,,,,,,,,,0,25,25,4,1,A,X,N,o1_image,stimuli/out1.png,stimuli/correct_out1.png,stimuli/out2.png,,,,,,,,,,,,,,,,,,,,,,,,,,,,,,,,,,,,,,
,,5c5cad876d0fe50001f0390c,65,female,2024-04-19_17h37.17.449,stockport_simplified,2022.2.4,MacIntel,29.41176471,661e456ee6de07e70aa9ef7b,66229da53eacbc84adff1163,,,,,,,,,,,,,,,,,,,,,,,,,,,,,,,,,,254.685,257.138,"[7,2,4,3,6,1,8,5]","[[0.3,0.2],[-0.3,0.2]]","[[0.125,-0.2],[-0.125,-0.2]]",-0.114803625,-0.194864048,1,0,0,1.921,o2_image,257.14,1,257.617,257.617,259.617,0,0,0,0,1,,,,,,,,,,,,,,,,,,,,,,,,,,,,,,,,,,,,,,,,,,,,,,,,,,
,,5c5cad876d0fe50001f0390c,65,female,2024-04-19_17h37.17.449,stockport_simplified,2022.2.4,MacIntel,29.41176471,661e456ee6de07e70aa9ef7b,66229da53eacbc84adff1163,,,,,,,,,,,,,,,,,,,,,,,,,,,,,,,,,,,,,,,,,,,,,,,,,,,,,,,,0,26,26,28,1,N,M,D,o2_image,stimuli/out2.png,stimuli/out1.png,stimuli/correct_out2.png,,,,,,,,,,,,,,,,,,,,,,,,,,,,,,,,,,,,,,
,,5c5cad876d0fe50001f0390c,65,female,2024-04-19_17h37.17.449,stockport_simplified,2022.2.4,MacIntel,29.41176471,661e456ee6de07e70aa9ef7b,66229da53eacbc84adff1163,,,,,,,,,,,,,,,,,,,,,,,,,,,,,,,,,,259.618,262.768,"[7,2,4,3,6,1,8,5]","[[0.3,0.2],[-0.3,0.2]]","[[-0.125,-0.2],[0.125,-0.2]]",0.120845921,-0.219033233,1,0,0,2.617,o2_image,262.77,0,263.25,263.251,265.25,0,0,0,0,1,,,,,,,,,,,,,,,,,,,,,,,,,,,,,,,,,,,,,,,,,,,,,,,,,,
,,5c5cad876d0fe50001f0390c,65,female,2024-04-19_17h37.17.449,stockport_simplified,2022.2.4,MacIntel,29.41176471,661e456ee6de07e70aa9ef7b,66229da53eacbc84adff1163,,,,,,,,,,,,,,,,,,,,,,,,,,,,,,,,,,,,,,,,,,,,,,,,,,,,,,,,0,27,27,53,1,N,M,C,o1_image,stimuli/out1.png,stimuli/correct_out1.png,stimuli/out2.png,,,,,,,,,,,,,,,,,,,,,,,,,,,,,,,,,,,,,,
,,5c5cad876d0fe50001f0390c,65,female,2024-04-19_17h37.17.449,stockport_simplified,2022.2.4,MacIntel,29.41176471,661e456ee6de07e70aa9ef7b,66229da53eacbc84adff1163,,,,,,,,,,,,,,,,,,,,,,,,,,,,,,,,,,265.25,268.399,"[7,2,4,3,6,1,8,5]","[[0.3,0.2],[-0.3,0.2]]","[[0.125,-0.2],[-0.125,-0.2]]",0.13897281,-0.214501511,1,0,0,2.615,o1_image,268.402,1,268.884,268.884,270.886,0,0,0,0,1,,,,,,,,,,,,,,,,,,,,,,,,,,,,,,,,,,,,,,,,,,,,,,,,,,
,,5c5cad876d0fe50001f0390c,65,female,2024-04-19_17h37.17.449,stockport_simplified,2022.2.4,MacIntel,29.41176471,661e456ee6de07e70aa9ef7b,66229da53eacbc84adff1163,,,,,,,,,,,,,,,,,,,,,,,,,,,,,,,,,,,,,,,,,,,,,,,,,,,,,,,,0,28,28,0,1,A,X,N,o1_image,stimuli/out1.png,stimuli/correct_out1.png,stimuli/out2.png,,,,,,,,,,,,,,,,,,,,,,,,,,,,,,,,,,,,,,
,,5c5cad876d0fe50001f0390c,65,female,2024-04-19_17h37.17.449,stockport_simplified,2022.2.4,MacIntel,29.41176471,661e456ee6de07e70aa9ef7b,66229da53eacbc84adff1163,,,,,,,,,,,,,,,,,,,,,,,,,,,,,,,,,,270.888,274.686,"[7,2,4,3,6,1,8,5]","[[-0.3,0.2],[0.3,0.2]]","[[-0.125,-0.2],[0.125,-0.2]]",-0.113293051,-0.222054381,1,0,0,3.268,o1_image,274.688,1,275.184,275.184,277.185,0,0,0,0,1,,,,,,,,,,,,,,,,,,,,,,,,,,,,,,,,,,,,,,,,,,,,,,,,,,
,,5c5cad876d0fe50001f0390c,65,female,2024-04-19_17h37.17.449,stockport_simplified,2022.2.4,MacIntel,29.41176471,661e456ee6de07e70aa9ef7b,66229da53eacbc84adff1163,,,,,,,,,,,,,,,,,,,,,,,,,,,,,,,,,,,,,,,,,,,,,,,,,,,,,,,,0,29,29,24,1,N,M,C,o1_image,stimuli/out1.png,stimuli/correct_out1.png,stimuli/out2.png,,,,,,,,,,,,,,,,,,,,,,,,,,,,,,,,,,,,,,
,,5c5cad876d0fe50001f0390c,65,female,2024-04-19_17h37.17.449,stockport_simplified,2022.2.4,MacIntel,29.41176471,661e456ee6de07e70aa9ef7b,66229da53eacbc84adff1163,,,,,,,,,,,,,,,,,,,,,,,,,,,,,,,,,,277.186,280.92,"[7,2,4,3,6,1,8,5]","[[0.3,0.2],[-0.3,0.2]]","[[0.125,-0.2],[-0.125,-0.2]]",0.13897281,-0.212990937,1,0,0,3.201,o1_image,280.921,1,281.419,281.419,283.421,0,0,0,0,1,,,,,,,,,,,,,,,,,,,,,,,,,,,,,,,,,,,,,,,,,,,,,,,,,,
,,5c5cad876d0fe50001f0390c,65,female,2024-04-19_17h37.17.449,stockport_simplified,2022.2.4,MacIntel,29.41176471,661e456ee6de07e70aa9ef7b,66229da53eacbc84adff1163,,,,,,,,,,,,,,,,,,,,,,,,,,,,,,,,,,,,,,,,,,,,,,,,,,,,,,,,0,30,30,38,1,A,Y,N,o1_image,stimuli/out1.png,stimuli/correct_out1.png,stimuli/out2.png,,,,,,,,,,,,,,,,,,,,,,,,,,,,,,,,,,,,,,
,,5c5cad876d0fe50001f0390c,65,female,2024-04-19_17h37.17.449,stockport_simplified,2022.2.4,MacIntel,29.41176471,661e456ee6de07e70aa9ef7b,66229da53eacbc84adff1163,,,,,,,,,,,,,,,,,,,,,,,,,,,,,,,,,,283.423,286.818,"[7,2,4,3,6,1,8,5]","[[0.3,0.2],[-0.3,0.2]]","[[-0.125,-0.2],[0.125,-0.2]]",-0.116314199,-0.222054381,1,0,0,2.866,o1_image,286.82,1,287.321,287.321,289.319,0,0,0,0,1,,,,,,,,,,,,,,,,,,,,,,,,,,,,,,,,,,,,,,,,,,,,,,,,,,
,,5c5cad876d0fe50001f0390c,65,female,2024-04-19_17h37.17.449,stockport_simplified,2022.2.4,MacIntel,29.41176471,661e456ee6de07e70aa9ef7b,66229da53eacbc84adff1163,,,,,,,,,,,,,,,,,,,,,,,,,,,,,,,,,,,,,,,,,,,,,,,,,,,,,,,,0,31,31,33,1,A,X,N,o1_image,stimuli/out1.png,stimuli/correct_out1.png,stimuli/out2.png,,,,,,,,,,,,,,,,,,,,,,,,,,,,,,,,,,,,,,
,,5c5cad876d0fe50001f0390c,65,female,2024-04-19_17h37.17.449,stockport_simplified,2022.2.4,MacIntel,29.41176471,661e456ee6de07e70aa9ef7b,66229da53eacbc84adff1163,,,,,,,,,,,,,,,,,,,,,,,,,,,,,,,,,,289.32,293.469,"[7,2,4,3,6,1,8,5]","[[-0.3,0.2],[0.3,0.2]]","[[-0.125,-0.2],[0.125,-0.2]]",0.143504532,-0.202416918,1,0,0,3.613,o2_image,293.471,1,293.954,293.954,295.955,0,0,0,0,1,,,,,,,,,,,,,,,,,,,,,,,,,,,,,,,,,,,,,,,,,,,,,,,,,,
,,5c5cad876d0fe50001f0390c,65,female,2024-04-19_17h37.17.449,stockport_simplified,2022.2.4,MacIntel,29.41176471,661e456ee6de07e70aa9ef7b,66229da53eacbc84adff1163,,,,,,,,,,,,,,,,,,,,,,,,,,,,,,,,,,,,,,,,,,,,,,,,,,,,,,,,0,32,32,59,1,N,M,D,o2_image,stimuli/out2.png,stimuli/out1.png,stimuli/correct_out2.png,,,,,,,,,,,,,,,,,,,,,,,,,,,,,,,,,,,,,,
,,5c5cad876d0fe50001f0390c,65,female,2024-04-19_17h37.17.449,stockport_simplified,2022.2.4,MacIntel,29.41176471,661e456ee6de07e70aa9ef7b,66229da53eacbc84adff1163,,,,,,,,,,,,,,,,,,,,,,,,,,,,,,,,,,295.957,298.954,"[7,2,4,3,6,1,8,5]","[[-0.3,0.2],[0.3,0.2]]","[[-0.125,-0.2],[0.125,-0.2]]",-0.113293051,-0.223564955,1,0,0,2.468,o1_image,298.955,1,299.453,299.453,301.453,0,0,0,0,1,,,,,,,,,,,,,,,,,,,,,,,,,,,,,,,,,,,,,,,,,,,,,,,,,,
,,5c5cad876d0fe50001f0390c,65,female,2024-04-19_17h37.17.449,stockport_simplified,2022.2.4,MacIntel,29.41176471,661e456ee6de07e70aa9ef7b,66229da53eacbc84adff1163,,,,,,,,,,,,,,,,,,,,,,,,,,,,,,,,,,,,,,,,,,,,,,,,,,,,,,,,0,33,33,21,1,N,M,C,o1_image,stimuli/out1.png,stimuli/correct_out1.png,stimuli/out2.png,,,,,,,,,,,,,,,,,,,,,,,,,,,,,,,,,,,,,,
,,5c5cad876d0fe50001f0390c,65,female,2024-04-19_17h37.17.449,stockport_simplified,2022.2.4,MacIntel,29.41176471,661e456ee6de07e70aa9ef7b,66229da53eacbc84adff1163,,,,,,,,,,,,,,,,,,,,,,,,,,,,,,,,,,301.454,304.855,"[7,2,4,3,6,1,8,5]","[[-0.3,0.2],[0.3,0.2]]","[[-0.125,-0.2],[0.125,-0.2]]",-0.114803625,-0.222054381,1,0,0,2.895,o1_image,304.856,1,305.36,305.37,307.354,0,0,0,0,1,,,,,,,,,,,,,,,,,,,,,,,,,,,,,,,,,,,,,,,,,,,,,,,,,,
,,5c5cad876d0fe50001f0390c,65,female,2024-04-19_17h37.17.449,stockport_simplified,2022.2.4,MacIntel,29.41176471,661e456ee6de07e70aa9ef7b,66229da53eacbc84adff1163,,,,,,,,,,,,,,,,,,,,,,,,,,,,,,,,,,,,,,,,,,,,,,,,,,,,,,,,0,34,34,5,1,A,Y,N,o1_image,stimuli/out1.png,stimuli/correct_out1.png,stimuli/out2.png,,,,,,,,,,,,,,,,,,,,,,,,,,,,,,,,,,,,,,
,,5c5cad876d0fe50001f0390c,65,female,2024-04-19_17h37.17.449,stockport_simplified,2022.2.4,MacIntel,29.41176471,661e456ee6de07e70aa9ef7b,66229da53eacbc84adff1163,,,,,,,,,,,,,,,,,,,,,,,,,,,,,,,,,,307.356,310.358,"[7,2,4,3,6,1,8,5]","[[0.3,0.2],[-0.3,0.2]]","[[-0.125,-0.2],[0.125,-0.2]]",0.13897281,-0.203927492,1,0,0,2.471,o2_image,310.36,1,310.854,310.855,312.854,0,0,0,0,1,,,,,,,,,,,,,,,,,,,,,,,,,,,,,,,,,,,,,,,,,,,,,,,,,,
,,5c5cad876d0fe50001f0390c,65,female,2024-04-19_17h37.17.449,stockport_simplified,2022.2.4,MacIntel,29.41176471,661e456ee6de07e70aa9ef7b,66229da53eacbc84adff1163,,,,,,,,,,,,,,,,,,,,,,,,,,,,,,,,,,,,,,,,,,,,,,,,,,,,,,,,0,35,35,12,1,B,X,N,o2_image,stimuli/out2.png,stimuli/out1.png,stimuli/correct_out2.png,,,,,,,,,,,,,,,,,,,,,,,,,,,,,,,,,,,,,,
,,5c5cad876d0fe50001f0390c,65,female,2024-04-19_17h37.17.449,stockport_simplified,2022.2.4,MacIntel,29.41176471,661e456ee6de07e70aa9ef7b,66229da53eacbc84adff1163,,,,,,,,,,,,,,,,,,,,,,,,,,,,,,,,,,312.855,315.19,"[7,2,4,3,6,1,8,5]","[[0.3,0.2],[-0.3,0.2]]","[[-0.125,-0.2],[0.125,-0.2]]",0.140483384,-0.203927492,1,0,0,1.803,o2_image,315.191,1,315.688,315.688,317.688,0,0,0,0,1,,,,,,,,,,,,,,,,,,,,,,,,,,,,,,,,,,,,,,,,,,,,,,,,,,
,,5c5cad876d0fe50001f0390c,65,female,2024-04-19_17h37.17.449,stockport_simplified,2022.2.4,MacIntel,29.41176471,661e456ee6de07e70aa9ef7b,66229da53eacbc84adff1163,,,,,,,,,,,,,,,,,,,,,,,,,,,,,,,,,,,,,,,,,,,,,,,,,,,,,,,,0,36,36,44,1,B,X,N,o2_image,stimuli/out2.png,stimuli/out1.png,stimuli/correct_out2.png,,,,,,,,,,,,,,,,,,,,,,,,,,,,,,,,,,,,,,
,,5c5cad876d0fe50001f0390c,65,female,2024-04-19_17h37.17.449,stockport_simplified,2022.2.4,MacIntel,29.41176471,661e456ee6de07e70aa9ef7b,66229da53eacbc84adff1163,,,,,,,,,,,,,,,,,,,,,,,,,,,,,,,,,,317.689,322.538,"[7,2,4,3,6,1,8,5]","[[0.3,0.2],[-0.3,0.2]]","[[0.125,-0.2],[-0.125,-0.2]]",0.143504532,-0.193353474,1,0,0,4.316,o1_image,322.54,0,323.021,323.022,325.022,0,0,0,0,1,,,,,,,,,,,,,,,,,,,,,,,,,,,,,,,,,,,,,,,,,,,,,,,,,,
,,5c5cad876d0fe50001f0390c,65,female,2024-04-19_17h37.17.449,stockport_simplified,2022.2.4,MacIntel,29.41176471,661e456ee6de07e70aa9ef7b,66229da53eacbc84adff1163,,,,,,,,,,,,,,,,,,,,,,,,,,,,,,,,,,,,,,,,,,,,,,,,,,,,,,,,0,37,37,25,1,N,M,D,o2_image,stimuli/out2.png,stimuli/out1.png,stimuli/correct_out2.png,,,,,,,,,,,,,,,,,,,,,,,,,,,,,,,,,,,,,,
,,5c5cad876d0fe50001f0390c,65,female,2024-04-19_17h37.17.449,stockport_simplified,2022.2.4,MacIntel,29.41176471,661e456ee6de07e70aa9ef7b,66229da53eacbc84adff1163,,,,,,,,,,,,,,,,,,,,,,,,,,,,,,,,,,325.023,327.508,"[7,2,4,3,6,1,8,5]","[[0.3,0.2],[-0.3,0.2]]","[[-0.125,-0.2],[0.125,-0.2]]",-0.110271903,-0.219033233,1,0,0,1.949,o1_image,327.509,1,327.989,327.989,329.989,0,0,0,0,1,,,,,,,,,,,,,,,,,,,,,,,,,,,,,,,,,,,,,,,,,,,,,,,,,,
,,5c5cad876d0fe50001f0390c,65,female,2024-04-19_17h37.17.449,stockport_simplified,2022.2.4,MacIntel,29.41176471,661e456ee6de07e70aa9ef7b,66229da53eacbc84adff1163,,,,,,,,,,,,,,,,,,,,,,,,,,,,,,,,,,,,,,,,,,,,,,,,,,,,,,,,0,38,38,34,1,A,X,N,o1_image,stimuli/out1.png,stimuli/correct_out1.png,stimuli/out2.png,,,,,,,,,,,,,,,,,,,,,,,,,,,,,,,,,,,,,,
,,5c5cad876d0fe50001f0390c,65,female,2024-04-19_17h37.17.449,stockport_simplified,2022.2.4,MacIntel,29.41176471,661e456ee6de07e70aa9ef7b,66229da53eacbc84adff1163,,,,,,,,,,,,,,,,,,,,,,,,,,,,,,,,,,329.99,332.207,"[7,2,4,3,6,1,8,5]","[[0.3,0.2],[-0.3,0.2]]","[[-0.125,-0.2],[0.125,-0.2]]",-0.108761329,-0.223564955,1,0,0,1.683,o1_image,332.208,1,332.689,332.689,334.689,0,0,0,0,1,,,,,,,,,,,,,,,,,,,,,,,,,,,,,,,,,,,,,,,,,,,,,,,,,,
,,5c5cad876d0fe50001f0390c,65,female,2024-04-19_17h37.17.449,stockport_simplified,2022.2.4,MacIntel,29.41176471,661e456ee6de07e70aa9ef7b,66229da53eacbc84adff1163,,,,,,,,,,,,,,,,,,,,,,,,,,,,,,,,,,,,,,,,,,,,,,,,,,,,,,,,0,39,39,23,1,N,M,C,o1_image,stimuli/out1.png,stimuli/correct_out1.png,stimuli/out2.png,,,,,,,,,,,,,,,,,,,,,,,,,,,,,,,,,,,,,,
,,5c5cad876d0fe50001f0390c,65,female,2024-04-19_17h37.17.449,stockport_simplified,2022.2.4,MacIntel,29.41176471,661e456ee6de07e70aa9ef7b,66229da53eacbc84adff1163,,,,,,,,,,,,,,,,,,,,,,,,,,,,,,,,,,334.69,337.923,"[7,2,4,3,6,1,8,5]","[[-0.3,0.2],[0.3,0.2]]","[[0.125,-0.2],[-0.125,-0.2]]",0.148036254,-0.203927492,1,0,0,2.699,o1_image,337.925,0,338.424,338.424,340.423,0,0,0,0,1,,,,,,,,,,,,,,,,,,,,,,,,,,,,,,,,,,,,,,,,,,,,,,,,,,
,,5c5cad876d0fe50001f0390c,65,female,2024-04-19_17h37.17.449,stockport_simplified,2022.2.4,MacIntel,29.41176471,661e456ee6de07e70aa9ef7b,66229da53eacbc84adff1163,,,,,,,,,,,,,,,,,,,,,,,,,,,,,,,,,,,,,,,,,,,,,,,,,,,,,,,,0,40,40,26,1,N,M,D,o2_image,stimuli/out2.png,stimuli/out1.png,stimuli/correct_out2.png,,,,,,,,,,,,,,,,,,,,,,,,,,,,,,,,,,,,,,
,,5c5cad876d0fe50001f0390c,65,female,2024-04-19_17h37.17.449,stockport_simplified,2022.2.4,MacIntel,29.41176471,661e456ee6de07e70aa9ef7b,66229da53eacbc84adff1163,,,,,,,,,,,,,,,,,,,,,,,,,,,,,,,,,,340.425,343.459,"[7,2,4,3,6,1,8,5]","[[0.3,0.2],[-0.3,0.2]]","[[-0.125,-0.2],[0.125,-0.2]]",0.14652568,-0.203927492,1,0,0,2.503,o2_image,343.462,1,343.956,343.957,345.957,0,0,0,0,1,,,,,,,,,,,,,,,,,,,,,,,,,,,,,,,,,,,,,,,,,,,,,,,,,,
,,5c5cad876d0fe50001f0390c,65,female,2024-04-19_17h37.17.449,stockport_simplified,2022.2.4,MacIntel,29.41176471,661e456ee6de07e70aa9ef7b,66229da53eacbc84adff1163,,,,,,,,,,,,,,,,,,,,,,,,,,,,,,,,,,,,,,,,,,,,,,,,,,,,,,,,0,41,41,29,1,N,M,D,o2_image,stimuli/out2.png,stimuli/out1.png,stimuli/correct_out2.png,,,,,,,,,,,,,,,,,,,,,,,,,,,,,,,,,,,,,,
,,5c5cad876d0fe50001f0390c,65,female,2024-04-19_17h37.17.449,stockport_simplified,2022.2.4,MacIntel,29.41176471,661e456ee6de07e70aa9ef7b,66229da53eacbc84adff1163,,,,,,,,,,,,,,,,,,,,,,,,,,,,,,,,,,345.959,348.297,"[7,2,4,3,6,1,8,5]","[[-0.3,0.2],[0.3,0.2]]","[[-0.125,-0.2],[0.125,-0.2]]",0.14652568,-0.190332326,1,0,0,1.805,o2_image,348.299,1,348.79,348.79,350.79,0,0,0,0,1,,,,,,,,,,,,,,,,,,,,,,,,,,,,,,,,,,,,,,,,,,,,,,,,,,
,,5c5cad876d0fe50001f0390c,65,female,2024-04-19_17h37.17.449,stockport_simplified,2022.2.4,MacIntel,29.41176471,661e456ee6de07e70aa9ef7b,66229da53eacbc84adff1163,,,,,,,,,,,,,,,,,,,,,,,,,,,,,,,,,,,,,,,,,,,,,,,,,,,,,,,,0,42,42,56,1,N,M,D,o2_image,stimuli/out2.png,stimuli/out1.png,stimuli/correct_out2.png,,,,,,,,,,,,,,,,,,,,,,,,,,,,,,,,,,,,,,
,,5c5cad876d0fe50001f0390c,65,female,2024-04-19_17h37.17.449,stockport_simplified,2022.2.4,MacIntel,29.41176471,661e456ee6de07e70aa9ef7b,66229da53eacbc84adff1163,,,,,,,,,,,,,,,,,,,,,,,,,,,,,,,,,,350.791,353.738,"[7,2,4,3,6,1,8,5]","[[0.3,0.2],[-0.3,0.2]]","[[0.125,-0.2],[-0.125,-0.2]]",-0.108761329,-0.20694864,1,0,0,2.411,o2_image,353.739,1,354.224,354.224,356.224,0,0,0,0,1,,,,,,,,,,,,,,,,,,,,,,,,,,,,,,,,,,,,,,,,,,,,,,,,,,
,,5c5cad876d0fe50001f0390c,65,female,2024-04-19_17h37.17.449,stockport_simplified,2022.2.4,MacIntel,29.41176471,661e456ee6de07e70aa9ef7b,66229da53eacbc84adff1163,,,,,,,,,,,,,,,,,,,,,,,,,,,,,,,,,,,,,,,,,,,,,,,,,,,,,,,,0,43,43,11,1,B,X,N,o2_image,stimuli/out2.png,stimuli/out1.png,stimuli/correct_out2.png,,,,,,,,,,,,,,,,,,,,,,,,,,,,,,,,,,,,,,
,,5c5cad876d0fe50001f0390c,65,female,2024-04-19_17h37.17.449,stockport_simplified,2022.2.4,MacIntel,29.41176471,661e456ee6de07e70aa9ef7b,66229da53eacbc84adff1163,,,,,,,,,,,,,,,,,,,,,,,,,,,,,,,,,,356.225,359.32,"[7,2,4,3,6,1,8,5]","[[0.3,0.2],[-0.3,0.2]]","[[0.125,-0.2],[-0.125,-0.2]]",0.122356495,-0.208459215,1,0,0,2.555,o1_image,359.321,1,359.823,359.823,361.824,0,0,0,0,1,,,,,,,,,,,,,,,,,,,,,,,,,,,,,,,,,,,,,,,,,,,,,,,,,,
,,5c5cad876d0fe50001f0390c,65,female,2024-04-19_17h37.17.449,stockport_simplified,2022.2.4,MacIntel,29.41176471,661e456ee6de07e70aa9ef7b,66229da53eacbc84adff1163,,,,,,,,,,,,,,,,,,,,,,,,,,,,,,,,,,,,,,,,,,,,,,,,,,,,,,,,0,44,44,22,1,N,M,C,o1_image,stimuli/out1.png,stimuli/correct_out1.png,stimuli/out2.png,,,,,,,,,,,,,,,,,,,,,,,,,,,,,,,,,,,,,,
,,5c5cad876d0fe50001f0390c,65,female,2024-04-19_17h37.17.449,stockport_simplified,2022.2.4,MacIntel,29.41176471,661e456ee6de07e70aa9ef7b,66229da53eacbc84adff1163,,,,,,,,,,,,,,,,,,,,,,,,,,,,,,,,,,361.825,366.608,"[7,2,4,3,6,1,8,5]","[[-0.3,0.2],[0.3,0.2]]","[[0.125,-0.2],[-0.125,-0.2]]",0.132930514,-0.222054381,1,0,0,4.25,o1_image,366.61,1,367.091,367.091,369.091,0,0,0,0,1,,,,,,,,,,,,,,,,,,,,,,,,,,,,,,,,,,,,,,,,,,,,,,,,,,
,,5c5cad876d0fe50001f0390c,65,female,2024-04-19_17h37.17.449,stockport_simplified,2022.2.4,MacIntel,29.41176471,661e456ee6de07e70aa9ef7b,66229da53eacbc84adff1163,,,,,,,,,,,,,,,,,,,,,,,,,,,,,,,,,,,,,,,,,,,,,,,,,,,,,,,,0,45,45,35,1,A,Y,N,o1_image,stimuli/out1.png,stimuli/correct_out1.png,stimuli/out2.png,,,,,,,,,,,,,,,,,,,,,,,,,,,,,,,,,,,,,,
,,5c5cad876d0fe50001f0390c,65,female,2024-04-19_17h37.17.449,stockport_simplified,2022.2.4,MacIntel,29.41176471,661e456ee6de07e70aa9ef7b,66229da53eacbc84adff1163,,,,,,,,,,,,,,,,,,,,,,,,,,,,,,,,,,369.092,371.201,"[7,2,4,3,6,1,8,5]","[[0.3,0.2],[-0.3,0.2]]","[[0.125,-0.2],[-0.125,-0.2]]",0.135951662,-0.196374622,1,0,0,1.576,o1_image,371.202,1,371.69,371.69,373.691,0,0,0,0,1,,,,,,,,,,,,,,,,,,,,,,,,,,,,,,,,,,,,,,,,,,,,,,,,,,
,,5c5cad876d0fe50001f0390c,65,female,2024-04-19_17h37.17.449,stockport_simplified,2022.2.4,MacIntel,29.41176471,661e456ee6de07e70aa9ef7b,66229da53eacbc84adff1163,,,,,,,,,,,,,,,,,,,,,,,,,,,,,,,,,,,,,,,,,,,,,,,,,,,,,,,,0,46,46,9,1,A,Y,N,o1_image,stimuli/out1.png,stimuli/correct_out1.png,stimuli/out2.png,,,,,,,,,,,,,,,,,,,,,,,,,,,,,,,,,,,,,,
,,5c5cad876d0fe50001f0390c,65,female,2024-04-19_17h37.17.449,stockport_simplified,2022.2.4,MacIntel,29.41176471,661e456ee6de07e70aa9ef7b,66229da53eacbc84adff1163,,,,,,,,,,,,,,,,,,,,,,,,,,,,,,,,,,373.692,376.301,"[7,2,4,3,6,1,8,5]","[[0.3,0.2],[-0.3,0.2]]","[[-0.125,-0.2],[0.125,-0.2]]",-0.099697885,-0.232628399,1,0,0,2.076,o1_image,376.303,1,376.792,376.792,378.792,0,0,0,0,1,,,,,,,,,,,,,,,,,,,,,,,,,,,,,,,,,,,,,,,,,,,,,,,,,,
,,5c5cad876d0fe50001f0390c,65,female,2024-04-19_17h37.17.449,stockport_simplified,2022.2.4,MacIntel,29.41176471,661e456ee6de07e70aa9ef7b,66229da53eacbc84adff1163,,,,,,,,,,,,,,,,,,,,,,,,,,,,,,,,,,,,,,,,,,,,,,,,,,,,,,,,0,47,47,32,1,A,X,N,o1_image,stimuli/out1.png,stimuli/correct_out1.png,stimuli/out2.png,,,,,,,,,,,,,,,,,,,,,,,,,,,,,,,,,,,,,,
,,5c5cad876d0fe50001f0390c,65,female,2024-04-19_17h37.17.449,stockport_simplified,2022.2.4,MacIntel,29.41176471,661e456ee6de07e70aa9ef7b,66229da53eacbc84adff1163,,,,,,,,,,,,,,,,,,,,,,,,,,,,,,,,,,378.794,382.056,"[7,2,4,3,6,1,8,5]","[[0.3,0.2],[-0.3,0.2]]","[[0.125,-0.2],[-0.125,-0.2]]",-0.105740181,-0.225075529,1,0,0,2.723,o2_image,382.059,1,382.559,382.559,384.568,0,0,0,0,1,,,,,,,,,,,,,,,,,,,,,,,,,,,,,,,,,,,,,,,,,,,,,,,,,,
,,5c5cad876d0fe50001f0390c,65,female,2024-04-19_17h37.17.449,stockport_simplified,2022.2.4,MacIntel,29.41176471,661e456ee6de07e70aa9ef7b,66229da53eacbc84adff1163,,,,,,,,,,,,,,,,,,,,,,,,,,,,,,,,,,,,,,,,,,,,,,,,,,,,,,,,0,48,48,10,1,B,X,N,o2_image,stimuli/out2.png,stimuli/out1.png,stimuli/correct_out2.png,,,,,,,,,,,,,,,,,,,,,,,,,,,,,,,,,,,,,,
,,5c5cad876d0fe50001f0390c,65,female,2024-04-19_17h37.17.449,stockport_simplified,2022.2.4,MacIntel,29.41176471,661e456ee6de07e70aa9ef7b,66229da53eacbc84adff1163,,,,,,,,,,,,,,,,,,,,,,,,,,,,,,,,,,384.57,387.318,"[7,2,4,3,6,1,8,5]","[[-0.3,0.2],[0.3,0.2]]","[[-0.125,-0.2],[0.125,-0.2]]",-0.110271903,-0.229607251,1,0,0,2.217,o1_image,387.319,1,387.826,387.826,389.829,0,0,0,0,1,,,,,,,,,,,,,,,,,,,,,,,,,,,,,,,,,,,,,,,,,,,,,,,,,,
,,5c5cad876d0fe50001f0390c,65,female,2024-04-19_17h37.17.449,stockport_simplified,2022.2.4,MacIntel,29.41176471,661e456ee6de07e70aa9ef7b,66229da53eacbc84adff1163,,,,,,,,,,,,,,,,,,,,,,,,,,,,,,,,,,,,,,,,,,,,,,,,,,,,,,,,0,49,49,50,1,N,M,C,o1_image,stimuli/out1.png,stimuli/correct_out1.png,stimuli/out2.png,,,,,,,,,,,,,,,,,,,,,,,,,,,,,,,,,,,,,,
,,5c5cad876d0fe50001f0390c,65,female,2024-04-19_17h37.17.449,stockport_simplified,2022.2.4,MacIntel,29.41176471,661e456ee6de07e70aa9ef7b,66229da53eacbc84adff1163,,,,,,,,,,,,,,,,,,,,,,,,,,,,,,,,,,389.832,392.62,"[7,2,4,3,6,1,8,5]","[[-0.3,0.2],[0.3,0.2]]","[[-0.125,-0.2],[0.125,-0.2]]",0.123867069,-0.214501511,1,0,0,2.26,o2_image,392.621,1,393.128,393.128,395.126,0,0,0,0,1,,,,,,,,,,,,,,,,,,,,,,,,,,,,,,,,,,,,,,,,,,,,,,,,,,
,,5c5cad876d0fe50001f0390c,65,female,2024-04-19_17h37.17.449,stockport_simplified,2022.2.4,MacIntel,29.41176471,661e456ee6de07e70aa9ef7b,66229da53eacbc84adff1163,,,,,,,,,,,,,,,,,,,,,,,,,,,,,,,,,,,,,,,,,,,,,,,,,,,,,,,,0,50,50,46,1,B,Y,N,o2_image,stimuli/out2.png,stimuli/out1.png,stimuli/correct_out2.png,,,,,,,,,,,,,,,,,,,,,,,,,,,,,,,,,,,,,,
,,5c5cad876d0fe50001f0390c,65,female,2024-04-19_17h37.17.449,stockport_simplified,2022.2.4,MacIntel,29.41176471,661e456ee6de07e70aa9ef7b,66229da53eacbc84adff1163,,,,,,,,,,,,,,,,,,,,,,,,,,,,,,,,,,395.128,398.678,"[7,2,4,3,6,1,8,5]","[[-0.3,0.2],[0.3,0.2]]","[[-0.125,-0.2],[0.125,-0.2]]",0.140483384,-0.202416918,1,0,0,3.017,o2_image,398.681,1,399.161,399.161,401.16,0,0,0,0,1,,,,,,,,,,,,,,,,,,,,,,,,,,,,,,,,,,,,,,,,,,,,,,,,,,
,,5c5cad876d0fe50001f0390c,65,female,2024-04-19_17h37.17.449,stockport_simplified,2022.2.4,MacIntel,29.41176471,661e456ee6de07e70aa9ef7b,66229da53eacbc84adff1163,,,,,,,,,,,,,,,,,,,,,,,,,,,,,,,,,,,,,,,,,,,,,,,,,,,,,,,,0,51,51,27,1,N,M,D,o2_image,stimuli/out2.png,stimuli/out1.png,stimuli/correct_out2.png,,,,,,,,,,,,,,,,,,,,,,,,,,,,,,,,,,,,,,
,,5c5cad876d0fe50001f0390c,65,female,2024-04-19_17h37.17.449,stockport_simplified,2022.2.4,MacIntel,29.41176471,661e456ee6de07e70aa9ef7b,66229da53eacbc84adff1163,,,,,,,,,,,,,,,,,,,,,,,,,,,,,,,,,,401.163,403.751,"[7,2,4,3,6,1,8,5]","[[0.3,0.2],[-0.3,0.2]]","[[-0.125,-0.2],[0.125,-0.2]]",-0.120845921,-0.228096677,1,0,0,2.053,o1_image,403.752,1,404.259,404.259,406.261,0,0,0,0,1,,,,,,,,,,,,,,,,,,,,,,,,,,,,,,,,,,,,,,,,,,,,,,,,,,
,,5c5cad876d0fe50001f0390c,65,female,2024-04-19_17h37.17.449,stockport_simplified,2022.2.4,MacIntel,29.41176471,661e456ee6de07e70aa9ef7b,66229da53eacbc84adff1163,,,,,,,,,,,,,,,,,,,,,,,,,,,,,,,,,,,,,,,,,,,,,,,,,,,,,,,,0,52,52,20,1,N,M,C,o1_image,stimuli/out1.png,stimuli/correct_out1.png,stimuli/out2.png,,,,,,,,,,,,,,,,,,,,,,,,,,,,,,,,,,,,,,
,,5c5cad876d0fe50001f0390c,65,female,2024-04-19_17h37.17.449,stockport_simplified,2022.2.4,MacIntel,29.41176471,661e456ee6de07e70aa9ef7b,66229da53eacbc84adff1163,,,,,,,,,,,,,,,,,,,,,,,,,,,,,,,,,,406.262,408.888,"[7,2,4,3,6,1,8,5]","[[0.3,0.2],[-0.3,0.2]]","[[0.125,-0.2],[-0.125,-0.2]]",-0.119335347,-0.246223565,1,0,0,2.12,o2_image,408.889,1,409.397,409.397,411.394,0,0,0,0,1,,,,,,,,,,,,,,,,,,,,,,,,,,,,,,,,,,,,,,,,,,,,,,,,,,
,,5c5cad876d0fe50001f0390c,65,female,2024-04-19_17h37.17.449,stockport_simplified,2022.2.4,MacIntel,29.41176471,661e456ee6de07e70aa9ef7b,66229da53eacbc84adff1163,,,,,,,,,,,,,,,,,,,,,,,,,,,,,,,,,,,,,,,,,,,,,,,,,,,,,,,,0,53,53,15,1,B,Y,N,o2_image,stimuli/out2.png,stimuli/out1.png,stimuli/correct_out2.png,,,,,,,,,,,,,,,,,,,,,,,,,,,,,,,,,,,,,,
,,5c5cad876d0fe50001f0390c,65,female,2024-04-19_17h37.17.449,stockport_simplified,2022.2.4,MacIntel,29.41176471,661e456ee6de07e70aa9ef7b,66229da53eacbc84adff1163,,,,,,,,,,,,,,,,,,,,,,,,,,,,,,,,,,411.394,414.199,"[7,2,4,3,6,1,8,5]","[[0.3,0.2],[-0.3,0.2]]","[[-0.125,-0.2],[0.125,-0.2]]",-0.113293051,-0.225075529,1,0,0,2.303,o1_image,414.2,1,414.695,414.695,416.696,0,0,0,0,1,,,,,,,,,,,,,,,,,,,,,,,,,,,,,,,,,,,,,,,,,,,,,,,,,,
,,5c5cad876d0fe50001f0390c,65,female,2024-04-19_17h37.17.449,stockport_simplified,2022.2.4,MacIntel,29.41176471,661e456ee6de07e70aa9ef7b,66229da53eacbc84adff1163,,,,,,,,,,,,,,,,,,,,,,,,,,,,,,,,,,,,,,,,,,,,,,,,,,,,,,,,0,54,54,2,1,A,X,N,o1_image,stimuli/out1.png,stimuli/correct_out1.png,stimuli/out2.png,,,,,,,,,,,,,,,,,,,,,,,,,,,,,,,,,,,,,,
,,5c5cad876d0fe50001f0390c,65,female,2024-04-19_17h37.17.449,stockport_simplified,2022.2.4,MacIntel,29.41176471,661e456ee6de07e70aa9ef7b,66229da53eacbc84adff1163,,,,,,,,,,,,,,,,,,,,,,,,,,,,,,,,,,416.698,418.96,"[7,2,4,3,6,1,8,5]","[[-0.3,0.2],[0.3,0.2]]","[[-0.125,-0.2],[0.125,-0.2]]",-0.104229607,-0.20694864,1,0,0,1.731,o1_image,418.961,1,419.461,419.461,421.461,0,0,0,0,1,,,,,,,,,,,,,,,,,,,,,,,,,,,,,,,,,,,,,,,,,,,,,,,,,,
,,5c5cad876d0fe50001f0390c,65,female,2024-04-19_17h37.17.449,stockport_simplified,2022.2.4,MacIntel,29.41176471,661e456ee6de07e70aa9ef7b,66229da53eacbc84adff1163,,,,,,,,,,,,,,,,,,,,,,,,,,,,,,,,,,,,,,,,,,,,,,,,,,,,,,,,0,55,55,54,1,N,M,C,o1_image,stimuli/out1.png,stimuli/correct_out1.png,stimuli/out2.png,,,,,,,,,,,,,,,,,,,,,,,,,,,,,,,,,,,,,,
,,5c5cad876d0fe50001f0390c,65,female,2024-04-19_17h37.17.449,stockport_simplified,2022.2.4,MacIntel,29.41176471,661e456ee6de07e70aa9ef7b,66229da53eacbc84adff1163,,,,,,,,,,,,,,,,,,,,,,,,,,,,,,,,,,421.463,424.679,"[7,2,4,3,6,1,8,5]","[[-0.3,0.2],[0.3,0.2]]","[[0.125,-0.2],[-0.125,-0.2]]",-0.111782477,-0.217522659,1,0,0,2.683,o2_image,424.68,1,425.163,425.163,427.161,0,0,0,0,1,,,,,,,,,,,,,,,,,,,,,,,,,,,,,,,,,,,,,,,,,,,,,,,,,,
,,5c5cad876d0fe50001f0390c,65,female,2024-04-19_17h37.17.449,stockport_simplified,2022.2.4,MacIntel,29.41176471,661e456ee6de07e70aa9ef7b,66229da53eacbc84adff1163,,,,,,,,,,,,,,,,,,,,,,,,,,,,,,,,,,,,,,,,,,,,,,,,,,,,,,,,0,56,56,40,1,B,X,N,o2_image,stimuli/out2.png,stimuli/out1.png,stimuli/correct_out2.png,,,,,,,,,,,,,,,,,,,,,,,,,,,,,,,,,,,,,,
,,5c5cad876d0fe50001f0390c,65,female,2024-04-19_17h37.17.449,stockport_simplified,2022.2.4,MacIntel,29.41176471,661e456ee6de07e70aa9ef7b,66229da53eacbc84adff1163,,,,,,,,,,,,,,,,,,,,,,,,,,,,,,,,,,427.162,429.318,"[7,2,4,3,6,1,8,5]","[[-0.3,0.2],[0.3,0.2]]","[[-0.125,-0.2],[0.125,-0.2]]",-0.105740181,-0.225075529,1,0,0,1.654,o1_image,429.319,0,429.796,429.796,431.796,0,0,0,0,1,,,,,,,,,,,,,,,,,,,,,,,,,,,,,,,,,,,,,,,,,,,,,,,,,,
,,5c5cad876d0fe50001f0390c,65,female,2024-04-19_17h37.17.449,stockport_simplified,2022.2.4,MacIntel,29.41176471,661e456ee6de07e70aa9ef7b,66229da53eacbc84adff1163,,,,,,,,,,,,,,,,,,,,,,,,,,,,,,,,,,,,,,,,,,,,,,,,,,,,,,,,0,57,57,18,1,B,Y,N,o2_image,stimuli/out2.png,stimuli/out1.png,stimuli/correct_out2.png,,,,,,,,,,,,,,,,,,,,,,,,,,,,,,,,,,,,,,
,,5c5cad876d0fe50001f0390c,65,female,2024-04-19_17h37.17.449,stockport_simplified,2022.2.4,MacIntel,29.41176471,661e456ee6de07e70aa9ef7b,66229da53eacbc84adff1163,,,,,,,,,,,,,,,,,,,,,,,,,,,,,,,,,,431.797,434.413,"[7,2,4,3,6,1,8,5]","[[-0.3,0.2],[0.3,0.2]]","[[-0.125,-0.2],[0.125,-0.2]]",-0.119335347,-0.232628399,1,0,0,2.083,o1_image,434.416,1,434.896,434.897,436.898,0,0,0,0,1,,,,,,,,,,,,,,,,,,,,,,,,,,,,,,,,,,,,,,,,,,,,,,,,,,
,,5c5cad876d0fe50001f0390c,65,female,2024-04-19_17h37.17.449,stockport_simplified,2022.2.4,MacIntel,29.41176471,661e456ee6de07e70aa9ef7b,66229da53eacbc84adff1163,,,,,,,,,,,,,,,,,,,,,,,,,,,,,,,,,,,,,,,,,,,,,,,,,,,,,,,,0,58,58,39,1,A,Y,N,o1_image,stimuli/out1.png,stimuli/correct_out1.png,stimuli/out2.png,,,,,,,,,,,,,,,,,,,,,,,,,,,,,,,,,,,,,,
,,5c5cad876d0fe50001f0390c,65,female,2024-04-19_17h37.17.449,stockport_simplified,2022.2.4,MacIntel,29.41176471,661e456ee6de07e70aa9ef7b,66229da53eacbc84adff1163,,,,,,,,,,,,,,,,,,,,,,,,,,,,,,,,,,436.899,439.378,"[7,2,4,3,6,1,8,5]","[[-0.3,0.2],[0.3,0.2]]","[[-0.125,-0.2],[0.125,-0.2]]",-0.108761329,-0.226586103,1,0,0,1.947,o1_image,439.379,1,439.863,439.863,441.865,0,0,0,0,1,,,,,,,,,,,,,,,,,,,,,,,,,,,,,,,,,,,,,,,,,,,,,,,,,,
,,5c5cad876d0fe50001f0390c,65,female,2024-04-19_17h37.17.449,stockport_simplified,2022.2.4,MacIntel,29.41176471,661e456ee6de07e70aa9ef7b,66229da53eacbc84adff1163,,,,,,,,,,,,,,,,,,,,,,,,,,,,,,,,,,,,,,,,,,,,,,,,,,,,,,,,0,59,59,52,1,N,M,C,o1_image,stimuli/out1.png,stimuli/correct_out1.png,stimuli/out2.png,,,,,,,,,,,,,,,,,,,,,,,,,,,,,,,,,,,,,,
,,5c5cad876d0fe50001f0390c,65,female,2024-04-19_17h37.17.449,stockport_simplified,2022.2.4,MacIntel,29.41176471,661e456ee6de07e70aa9ef7b,66229da53eacbc84adff1163,,,,,,,,,,,,,,,,,,,,,,,,,,,,,,,,,,441.866,444.497,"[7,2,4,3,6,1,8,5]","[[-0.3,0.2],[0.3,0.2]]","[[0.125,-0.2],[-0.125,-0.2]]",-0.114803625,-0.211480363,1,0,0,2.098,o2_image,444.498,1,444.997,444.997,446.997,0,0,0,0,1,,,,,,,,,,,,,,,,,,,,,,,,,,,,,,,,,,,,,,,,,,,,,,,,,,
,,5c5cad876d0fe50001f0390c,65,female,2024-04-19_17h37.17.449,stockport_simplified,2022.2.4,MacIntel,29.41176471,661e456ee6de07e70aa9ef7b,66229da53eacbc84adff1163,,,,,,,,,,,,,,,,,,,,,,,,,,,,,,,,,,,,,,,,,,,,,,,,,,,,,,,,1,0,60,15,1,B,Y,N,o2_image,stimuli/out2.png,stimuli/out1.png,stimuli/correct_out2.png,,,,,,,,,,,,,,,,,,,,,,,,,,,,,,,,,,,,,,
,,5c5cad876d0fe50001f0390c,65,female,2024-04-19_17h37.17.449,stockport_simplified,2022.2.4,MacIntel,29.41176471,661e456ee6de07e70aa9ef7b,66229da53eacbc84adff1163,,,,,,,,,,,,,,,,,,,,,,,,,,,,,,,,,,446.997,450.049,"[7,2,4,3,6,1,8,5]","[[-0.3,0.2],[0.3,0.2]]","[[0.125,-0.2],[-0.125,-0.2]]",0.134441088,-0.205438066,1,0,0,2.518,o1_image,450.05,1,450.532,450.532,452.531,0,0,0,0,1,,,,,,,,,,,,,,,,,,,,,,,,,,,,,,,,,,,,,,,,,,,,,,,,,,
,,5c5cad876d0fe50001f0390c,65,female,2024-04-19_17h37.17.449,stockport_simplified,2022.2.4,MacIntel,29.41176471,661e456ee6de07e70aa9ef7b,66229da53eacbc84adff1163,,,,,,,,,,,,,,,,,,,,,,,,,,,,,,,,,,,,,,,,,,,,,,,,,,,,,,,,1,1,61,32,1,A,X,N,o1_image,stimuli/out1.png,stimuli/correct_out1.png,stimuli/out2.png,,,,,,,,,,,,,,,,,,,,,,,,,,,,,,,,,,,,,,
,,5c5cad876d0fe50001f0390c,65,female,2024-04-19_17h37.17.449,stockport_simplified,2022.2.4,MacIntel,29.41176471,661e456ee6de07e70aa9ef7b,66229da53eacbc84adff1163,,,,,,,,,,,,,,,,,,,,,,,,,,,,,,,,,,452.532,455.311,"[7,2,4,3,6,1,8,5]","[[0.3,0.2],[-0.3,0.2]]","[[0.125,-0.2],[-0.125,-0.2]]",0.13141994,-0.243202417,1,0,0,2.246,o1_image,455.312,1,455.797,455.797,457.797,0,0,0,0,1,,,,,,,,,,,,,,,,,,,,,,,,,,,,,,,,,,,,,,,,,,,,,,,,,,
,,5c5cad876d0fe50001f0390c,65,female,2024-04-19_17h37.17.449,stockport_simplified,2022.2.4,MacIntel,29.41176471,661e456ee6de07e70aa9ef7b,66229da53eacbc84adff1163,,,,,,,,,,,,,,,,,,,,,,,,,,,,,,,,,,,,,,,,,,,,,,,,,,,,,,,,1,2,62,30,1,A,X,N,o1_image,stimuli/out1.png,stimuli/correct_out1.png,stimuli/out2.png,,,,,,,,,,,,,,,,,,,,,,,,,,,,,,,,,,,,,,
,,5c5cad876d0fe50001f0390c,65,female,2024-04-19_17h37.17.449,stockport_simplified,2022.2.4,MacIntel,29.41176471,661e456ee6de07e70aa9ef7b,66229da53eacbc84adff1163,,,,,,,,,,,,,,,,,,,,,,,,,,,,,,,,,,457.798,460.74,"[7,2,4,3,6,1,8,5]","[[-0.3,0.2],[0.3,0.2]]","[[0.125,-0.2],[-0.125,-0.2]]",0.129909366,-0.241691843,1,0,0,2.408,o1_image,460.74,1,461.231,461.231,463.231,0,0,0,0,1,,,,,,,,,,,,,,,,,,,,,,,,,,,,,,,,,,,,,,,,,,,,,,,,,,
,,5c5cad876d0fe50001f0390c,65,female,2024-04-19_17h37.17.449,stockport_simplified,2022.2.4,MacIntel,29.41176471,661e456ee6de07e70aa9ef7b,66229da53eacbc84adff1163,,,,,,,,,,,,,,,,,,,,,,,,,,,,,,,,,,,,,,,,,,,,,,,,,,,,,,,,1,3,63,0,1,A,X,N,o1_image,stimuli/out1.png,stimuli/correct_out1.png,stimuli/out2.png,,,,,,,,,,,,,,,,,,,,,,,,,,,,,,,,,,,,,,
,,5c5cad876d0fe50001f0390c,65,female,2024-04-19_17h37.17.449,stockport_simplified,2022.2.4,MacIntel,29.41176471,661e456ee6de07e70aa9ef7b,66229da53eacbc84adff1163,,,,,,,,,,,,,,,,,,,,,,,,,,,,,,,,,,463.232,465.728,"[7,2,4,3,6,1,8,5]","[[0.3,0.2],[-0.3,0.2]]","[[-0.125,-0.2],[0.125,-0.2]]",-0.117824773,-0.232628399,1,0,0,1.961,o1_image,465.729,1,466.23,466.23,468.231,0,0,0,0,1,,,,,,,,,,,,,,,,,,,,,,,,,,,,,,,,,,,,,,,,,,,,,,,,,,
,,5c5cad876d0fe50001f0390c,65,female,2024-04-19_17h37.17.449,stockport_simplified,2022.2.4,MacIntel,29.41176471,661e456ee6de07e70aa9ef7b,66229da53eacbc84adff1163,,,,,,,,,,,,,,,,,,,,,,,,,,,,,,,,,,,,,,,,,,,,,,,,,,,,,,,,1,4,64,34,1,A,X,N,o1_image,stimuli/out1.png,stimuli/correct_out1.png,stimuli/out2.png,,,,,,,,,,,,,,,,,,,,,,,,,,,,,,,,,,,,,,
,,5c5cad876d0fe50001f0390c,65,female,2024-04-19_17h37.17.449,stockport_simplified,2022.2.4,MacIntel,29.41176471,661e456ee6de07e70aa9ef7b,66229da53eacbc84adff1163,,,,,,,,,,,,,,,,,,,,,,,,,,,,,,,,,,468.232,470.991,"[7,2,4,3,6,1,8,5]","[[0.3,0.2],[-0.3,0.2]]","[[-0.125,-0.2],[0.125,-0.2]]",0.13141994,-0.232628399,1,0,0,2.224,o2_image,470.992,1,471.473,471.473,473.467,0,0,0,0,1,,,,,,,,,,,,,,,,,,,,,,,,,,,,,,,,,,,,,,,,,,,,,,,,,,
,,5c5cad876d0fe50001f0390c,65,female,2024-04-19_17h37.17.449,stockport_simplified,2022.2.4,MacIntel,29.41176471,661e456ee6de07e70aa9ef7b,66229da53eacbc84adff1163,,,,,,,,,,,,,,,,,,,,,,,,,,,,,,,,,,,,,,,,,,,,,,,,,,,,,,,,1,5,65,17,1,B,Y,N,o2_image,stimuli/out2.png,stimuli/out1.png,stimuli/correct_out2.png,,,,,,,,,,,,,,,,,,,,,,,,,,,,,,,,,,,,,,
,,5c5cad876d0fe50001f0390c,65,female,2024-04-19_17h37.17.449,stockport_simplified,2022.2.4,MacIntel,29.41176471,661e456ee6de07e70aa9ef7b,66229da53eacbc84adff1163,,,,,,,,,,,,,,,,,,,,,,,,,,,,,,,,,,473.468,476.529,"[7,2,4,3,6,1,8,5]","[[-0.3,0.2],[0.3,0.2]]","[[0.125,-0.2],[-0.125,-0.2]]",0.128398792,-0.237160121,1,0,0,2.529,o1_image,476.529,1,477.032,477.032,479.034,0,0,0,0,1,,,,,,,,,,,,,,,,,,,,,,,,,,,,,,,,,,,,,,,,,,,,,,,,,,
,,5c5cad876d0fe50001f0390c,65,female,2024-04-19_17h37.17.449,stockport_simplified,2022.2.4,MacIntel,29.41176471,661e456ee6de07e70aa9ef7b,66229da53eacbc84adff1163,,,,,,,,,,,,,,,,,,,,,,,,,,,,,,,,,,,,,,,,,,,,,,,,,,,,,,,,1,6,66,3,1,A,X,N,o1_image,stimuli/out1.png,stimuli/correct_out1.png,stimuli/out2.png,,,,,,,,,,,,,,,,,,,,,,,,,,,,,,,,,,,,,,
,,5c5cad876d0fe50001f0390c,65,female,2024-04-19_17h37.17.449,stockport_simplified,2022.2.4,MacIntel,29.41176471,661e456ee6de07e70aa9ef7b,66229da53eacbc84adff1163,,,,,,,,,,,,,,,,,,,,,,,,,,,,,,,,,,479.037,481.548,"[7,2,4,3,6,1,8,5]","[[0.3,0.2],[-0.3,0.2]]","[[-0.125,-0.2],[0.125,-0.2]]",-0.119335347,-0.229607251,1,0,0,1.981,o1_image,481.549,1,482.032,482.032,484.033,0,0,0,0,1,,,,,,,,,,,,,,,,,,,,,,,,,,,,,,,,,,,,,,,,,,,,,,,,,,
,,5c5cad876d0fe50001f0390c,65,female,2024-04-19_17h37.17.449,stockport_simplified,2022.2.4,MacIntel,29.41176471,661e456ee6de07e70aa9ef7b,66229da53eacbc84adff1163,,,,,,,,,,,,,,,,,,,,,,,,,,,,,,,,,,,,,,,,,,,,,,,,,,,,,,,,1,7,67,7,1,A,Y,N,o1_image,stimuli/out1.png,stimuli/correct_out1.png,stimuli/out2.png,,,,,,,,,,,,,,,,,,,,,,,,,,,,,,,,,,,,,,
,,5c5cad876d0fe50001f0390c,65,female,2024-04-19_17h37.17.449,stockport_simplified,2022.2.4,MacIntel,29.41176471,661e456ee6de07e70aa9ef7b,66229da53eacbc84adff1163,,,,,,,,,,,,,,,,,,,,,,,,,,,,,,,,,,484.033,487.587,"[7,2,4,3,6,1,8,5]","[[-0.3,0.2],[0.3,0.2]]","[[0.125,-0.2],[-0.125,-0.2]]",-0.102719033,-0.219033233,1,0,0,3.052,o2_image,487.588,1,488.067,488.068,490.067,0,0,0,0,1,,,,,,,,,,,,,,,,,,,,,,,,,,,,,,,,,,,,,,,,,,,,,,,,,,
,,5c5cad876d0fe50001f0390c,65,female,2024-04-19_17h37.17.449,stockport_simplified,2022.2.4,MacIntel,29.41176471,661e456ee6de07e70aa9ef7b,66229da53eacbc84adff1163,,,,,,,,,,,,,,,,,,,,,,,,,,,,,,,,,,,,,,,,,,,,,,,,,,,,,,,,1,8,68,45,1,B,Y,N,o2_image,stimuli/out2.png,stimuli/out1.png,stimuli/correct_out2.png,,,,,,,,,,,,,,,,,,,,,,,,,,,,,,,,,,,,,,
,,5c5cad876d0fe50001f0390c,65,female,2024-04-19_17h37.17.449,stockport_simplified,2022.2.4,MacIntel,29.41176471,661e456ee6de07e70aa9ef7b,66229da53eacbc84adff1163,,,,,,,,,,,,,,,,,,,,,,,,,,,,,,,,,,490.067,492.391,"[7,2,4,3,6,1,8,5]","[[-0.3,0.2],[0.3,0.2]]","[[-0.125,-0.2],[0.125,-0.2]]",-0.111782477,-0.232628399,1,0,0,1.78,o1_image,492.392,1,492.902,492.902,494.9,0,0,0,0,1,,,,,,,,,,,,,,,,,,,,,,,,,,,,,,,,,,,,,,,,,,,,,,,,,,
,,5c5cad876d0fe50001f0390c,65,female,2024-04-19_17h37.17.449,stockport_simplified,2022.2.4,MacIntel,29.41176471,661e456ee6de07e70aa9ef7b,66229da53eacbc84adff1163,,,,,,,,,,,,,,,,,,,,,,,,,,,,,,,,,,,,,,,,,,,,,,,,,,,,,,,,1,9,69,1,1,A,X,N,o1_image,stimuli/out1.png,stimuli/correct_out1.png,stimuli/out2.png,,,,,,,,,,,,,,,,,,,,,,,,,,,,,,,,,,,,,,
,,5c5cad876d0fe50001f0390c,65,female,2024-04-19_17h37.17.449,stockport_simplified,2022.2.4,MacIntel,29.41176471,661e456ee6de07e70aa9ef7b,66229da53eacbc84adff1163,,,,,,,,,,,,,,,,,,,,,,,,,,,,,,,,,,494.901,497.349,"[7,2,4,3,6,1,8,5]","[[-0.3,0.2],[0.3,0.2]]","[[-0.125,-0.2],[0.125,-0.2]]",0.093655589,-0.203927492,1,0,0,1.915,o2_image,497.35,1,497.834,497.834,499.834,0,0,0,0,1,,,,,,,,,,,,,,,,,,,,,,,,,,,,,,,,,,,,,,,,,,,,,,,,,,
,,5c5cad876d0fe50001f0390c,65,female,2024-04-19_17h37.17.449,stockport_simplified,2022.2.4,MacIntel,29.41176471,661e456ee6de07e70aa9ef7b,66229da53eacbc84adff1163,,,,,,,,,,,,,,,,,,,,,,,,,,,,,,,,,,,,,,,,,,,,,,,,,,,,,,,,1,10,70,46,1,B,Y,N,o2_image,stimuli/out2.png,stimuli/out1.png,stimuli/correct_out2.png,,,,,,,,,,,,,,,,,,,,,,,,,,,,,,,,,,,,,,
,,5c5cad876d0fe50001f0390c,65,female,2024-04-19_17h37.17.449,stockport_simplified,2022.2.4,MacIntel,29.41176471,661e456ee6de07e70aa9ef7b,66229da53eacbc84adff1163,,,,,,,,,,,,,,,,,,,,,,,,,,,,,,,,,,499.835,502.436,"[7,2,4,3,6,1,8,5]","[[-0.3,0.2],[0.3,0.2]]","[[0.125,-0.2],[-0.125,-0.2]]",0.120845921,-0.255287009,1,0,0,2.067,o1_image,502.436,1,502.934,502.934,504.934,0,0,0,0,1,,,,,,,,,,,,,,,,,,,,,,,,,,,,,,,,,,,,,,,,,,,,,,,,,,
,,5c5cad876d0fe50001f0390c,65,female,2024-04-19_17h37.17.449,stockport_simplified,2022.2.4,MacIntel,29.41176471,661e456ee6de07e70aa9ef7b,66229da53eacbc84adff1163,,,,,,,,,,,,,,,,,,,,,,,,,,,,,,,,,,,,,,,,,,,,,,,,,,,,,,,,1,11,71,53,1,N,M,C,o1_image,stimuli/out1.png,stimuli/correct_out1.png,stimuli/out2.png,,,,,,,,,,,,,,,,,,,,,,,,,,,,,,,,,,,,,,
,,5c5cad876d0fe50001f0390c,65,female,2024-04-19_17h37.17.449,stockport_simplified,2022.2.4,MacIntel,29.41176471,661e456ee6de07e70aa9ef7b,66229da53eacbc84adff1163,,,,,,,,,,,,,,,,,,,,,,,,,,,,,,,,,,504.935,508.784,"[7,2,4,3,6,1,8,5]","[[-0.3,0.2],[0.3,0.2]]","[[-0.125,-0.2],[0.125,-0.2]]",-0.13141994,-0.232628399,1,0,0,3.313,o1_image,508.785,1,509.269,509.269,511.268,0,0,0,0,1,,,,,,,,,,,,,,,,,,,,,,,,,,,,,,,,,,,,,,,,,,,,,,,,,,
,,5c5cad876d0fe50001f0390c,65,female,2024-04-19_17h37.17.449,stockport_simplified,2022.2.4,MacIntel,29.41176471,661e456ee6de07e70aa9ef7b,66229da53eacbc84adff1163,,,,,,,,,,,,,,,,,,,,,,,,,,,,,,,,,,,,,,,,,,,,,,,,,,,,,,,,1,12,72,5,1,A,Y,N,o1_image,stimuli/out1.png,stimuli/correct_out1.png,stimuli/out2.png,,,,,,,,,,,,,,,,,,,,,,,,,,,,,,,,,,,,,,
,,5c5cad876d0fe50001f0390c,65,female,2024-04-19_17h37.17.449,stockport_simplified,2022.2.4,MacIntel,29.41176471,661e456ee6de07e70aa9ef7b,66229da53eacbc84adff1163,,,,,,,,,,,,,,,,,,,,,,,,,,,,,,,,,,511.269,513.939,"[7,2,4,3,6,1,8,5]","[[0.3,0.2],[-0.3,0.2]]","[[0.125,-0.2],[-0.125,-0.2]]",0.129909366,-0.217522659,1,0,0,2.135,o1_image,513.94,1,514.435,514.435,516.437,0,0,0,0,1,,,,,,,,,,,,,,,,,,,,,,,,,,,,,,,,,,,,,,,,,,,,,,,,,,
,,5c5cad876d0fe50001f0390c,65,female,2024-04-19_17h37.17.449,stockport_simplified,2022.2.4,MacIntel,29.41176471,661e456ee6de07e70aa9ef7b,66229da53eacbc84adff1163,,,,,,,,,,,,,,,,,,,,,,,,,,,,,,,,,,,,,,,,,,,,,,,,,,,,,,,,1,13,73,23,1,N,M,C,o1_image,stimuli/out1.png,stimuli/correct_out1.png,stimuli/out2.png,,,,,,,,,,,,,,,,,,,,,,,,,,,,,,,,,,,,,,
,,5c5cad876d0fe50001f0390c,65,female,2024-04-19_17h37.17.449,stockport_simplified,2022.2.4,MacIntel,29.41176471,661e456ee6de07e70aa9ef7b,66229da53eacbc84adff1163,,,,,,,,,,,,,,,,,,,,,,,,,,,,,,,,,,516.442,519.719,"[7,2,4,3,6,1,8,5]","[[0.3,0.2],[-0.3,0.2]]","[[-0.125,-0.2],[0.125,-0.2]]",0.113293051,-0.225075529,1,0,0,2.75,o2_image,519.72,1,520.202,520.202,522.202,0,0,0,0,1,,,,,,,,,,,,,,,,,,,,,,,,,,,,,,,,,,,,,,,,,,,,,,,,,,
,,5c5cad876d0fe50001f0390c,65,female,2024-04-19_17h37.17.449,stockport_simplified,2022.2.4,MacIntel,29.41176471,661e456ee6de07e70aa9ef7b,66229da53eacbc84adff1163,,,,,,,,,,,,,,,,,,,,,,,,,,,,,,,,,,,,,,,,,,,,,,,,,,,,,,,,1,14,74,13,1,B,X,N,o2_image,stimuli/out2.png,stimuli/out1.png,stimuli/correct_out2.png,,,,,,,,,,,,,,,,,,,,,,,,,,,,,,,,,,,,,,
,,5c5cad876d0fe50001f0390c,65,female,2024-04-19_17h37.17.449,stockport_simplified,2022.2.4,MacIntel,29.41176471,661e456ee6de07e70aa9ef7b,66229da53eacbc84adff1163,,,,,,,,,,,,,,,,,,,,,,,,,,,,,,,,,,522.203,525.139,"[7,2,4,3,6,1,8,5]","[[-0.3,0.2],[0.3,0.2]]","[[-0.125,-0.2],[0.125,-0.2]]",0.104229607,-0.20694864,1,0,0,2.403,o2_image,525.14,1,525.568,525.569,527.569,0,0,0,0,1,,,,,,,,,,,,,,,,,,,,,,,,,,,,,,,,,,,,,,,,,,,,,,,,,,
,,5c5cad876d0fe50001f0390c,65,female,2024-04-19_17h37.17.449,stockport_simplified,2022.2.4,MacIntel,29.41176471,661e456ee6de07e70aa9ef7b,66229da53eacbc84adff1163,,,,,,,,,,,,,,,,,,,,,,,,,,,,,,,,,,,,,,,,,,,,,,,,,,,,,,,,1,15,75,43,1,B,X,N,o2_image,stimuli/out2.png,stimuli/out1.png,stimuli/correct_out2.png,,,,,,,,,,,,,,,,,,,,,,,,,,,,,,,,,,,,,,
,,5c5cad876d0fe50001f0390c,65,female,2024-04-19_17h37.17.449,stockport_simplified,2022.2.4,MacIntel,29.41176471,661e456ee6de07e70aa9ef7b,66229da53eacbc84adff1163,,,,,,,,,,,,,,,,,,,,,,,,,,,,,,,,,,527.57,530.653,"[7,2,4,3,6,1,8,5]","[[-0.3,0.2],[0.3,0.2]]","[[0.125,-0.2],[-0.125,-0.2]]",-0.110271903,-0.220543807,1,0,0,2.549,o2_image,530.656,1,531.135,531.135,533.137,0,0,0,0,1,,,,,,,,,,,,,,,,,,,,,,,,,,,,,,,,,,,,,,,,,,,,,,,,,,
,,5c5cad876d0fe50001f0390c,65,female,2024-04-19_17h37.17.449,stockport_simplified,2022.2.4,MacIntel,29.41176471,661e456ee6de07e70aa9ef7b,66229da53eacbc84adff1163,,,,,,,,,,,,,,,,,,,,,,,,,,,,,,,,,,,,,,,,,,,,,,,,,,,,,,,,1,16,76,59,1,N,M,D,o2_image,stimuli/out2.png,stimuli/out1.png,stimuli/correct_out2.png,,,,,,,,,,,,,,,,,,,,,,,,,,,,,,,,,,,,,,
,,5c5cad876d0fe50001f0390c,65,female,2024-04-19_17h37.17.449,stockport_simplified,2022.2.4,MacIntel,29.41176471,661e456ee6de07e70aa9ef7b,66229da53eacbc84adff1163,,,,,,,,,,,,,,,,,,,,,,,,,,,,,,,,,,533.148,535,"[7,2,4,3,6,1,8,5]","[[-0.3,0.2],[0.3,0.2]]","[[-0.125,-0.2],[0.125,-0.2]]",0.128398792,-0.203927492,1,0,0,1.329,o2_image,535.014,1,535.503,535.503,537.503,0,0,0,0,1,,,,,,,,,,,,,,,,,,,,,,,,,,,,,,,,,,,,,,,,,,,,,,,,,,
,,5c5cad876d0fe50001f0390c,65,female,2024-04-19_17h37.17.449,stockport_simplified,2022.2.4,MacIntel,29.41176471,661e456ee6de07e70aa9ef7b,66229da53eacbc84adff1163,,,,,,,,,,,,,,,,,,,,,,,,,,,,,,,,,,,,,,,,,,,,,,,,,,,,,,,,1,17,77,26,1,N,M,D,o2_image,stimuli/out2.png,stimuli/out1.png,stimuli/correct_out2.png,,,,,,,,,,,,,,,,,,,,,,,,,,,,,,,,,,,,,,
,,5c5cad876d0fe50001f0390c,65,female,2024-04-19_17h37.17.449,stockport_simplified,2022.2.4,MacIntel,29.41176471,661e456ee6de07e70aa9ef7b,66229da53eacbc84adff1163,,,,,,,,,,,,,,,,,,,,,,,,,,,,,,,,,,537.505,540.146,"[7,2,4,3,6,1,8,5]","[[-0.3,0.2],[0.3,0.2]]","[[0.125,-0.2],[-0.125,-0.2]]",0.13141994,-0.229607251,1,0,0,2.103,o1_image,540.147,1,540.636,540.636,542.637,0,0,0,0,1,,,,,,,,,,,,,,,,,,,,,,,,,,,,,,,,,,,,,,,,,,,,,,,,,,
,,5c5cad876d0fe50001f0390c,65,female,2024-04-19_17h37.17.449,stockport_simplified,2022.2.4,MacIntel,29.41176471,661e456ee6de07e70aa9ef7b,66229da53eacbc84adff1163,,,,,,,,,,,,,,,,,,,,,,,,,,,,,,,,,,,,,,,,,,,,,,,,,,,,,,,,1,18,78,39,1,A,Y,N,o1_image,stimuli/out1.png,stimuli/correct_out1.png,stimuli/out2.png,,,,,,,,,,,,,,,,,,,,,,,,,,,,,,,,,,,,,,
,,5c5cad876d0fe50001f0390c,65,female,2024-04-19_17h37.17.449,stockport_simplified,2022.2.4,MacIntel,29.41176471,661e456ee6de07e70aa9ef7b,66229da53eacbc84adff1163,,,,,,,,,,,,,,,,,,,,,,,,,,,,,,,,,,542.638,544.821,"[7,2,4,3,6,1,8,5]","[[0.3,0.2],[-0.3,0.2]]","[[-0.125,-0.2],[0.125,-0.2]]",0.132930514,-0.19939577,1,0,0,1.65,o2_image,544.823,1,545.304,545.304,547.304,0,0,0,0,1,,,,,,,,,,,,,,,,,,,,,,,,,,,,,,,,,,,,,,,,,,,,,,,,,,
,,5c5cad876d0fe50001f0390c,65,female,2024-04-19_17h37.17.449,stockport_simplified,2022.2.4,MacIntel,29.41176471,661e456ee6de07e70aa9ef7b,66229da53eacbc84adff1163,,,,,,,,,,,,,,,,,,,,,,,,,,,,,,,,,,,,,,,,,,,,,,,,,,,,,,,,1,19,79,28,1,N,M,D,o2_image,stimuli/out2.png,stimuli/out1.png,stimuli/correct_out2.png,,,,,,,,,,,,,,,,,,,,,,,,,,,,,,,,,,,,,,
,,5c5cad876d0fe50001f0390c,65,female,2024-04-19_17h37.17.449,stockport_simplified,2022.2.4,MacIntel,29.41176471,661e456ee6de07e70aa9ef7b,66229da53eacbc84adff1163,,,,,,,,,,,,,,,,,,,,,,,,,,,,,,,,,,547.305,549.651,"[7,2,4,3,6,1,8,5]","[[0.3,0.2],[-0.3,0.2]]","[[-0.125,-0.2],[0.125,-0.2]]",0.13897281,-0.194864048,1,0,0,1.812,o2_image,549.653,1,550.137,550.137,552.138,0,0,0,0,1,,,,,,,,,,,,,,,,,,,,,,,,,,,,,,,,,,,,,,,,,,,,,,,,,,
,,5c5cad876d0fe50001f0390c,65,female,2024-04-19_17h37.17.449,stockport_simplified,2022.2.4,MacIntel,29.41176471,661e456ee6de07e70aa9ef7b,66229da53eacbc84adff1163,,,,,,,,,,,,,,,,,,,,,,,,,,,,,,,,,,,,,,,,,,,,,,,,,,,,,,,,1,20,80,47,1,B,Y,N,o2_image,stimuli/out2.png,stimuli/out1.png,stimuli/correct_out2.png,,,,,,,,,,,,,,,,,,,,,,,,,,,,,,,,,,,,,,
,,5c5cad876d0fe50001f0390c,65,female,2024-04-19_17h37.17.449,stockport_simplified,2022.2.4,MacIntel,29.41176471,661e456ee6de07e70aa9ef7b,66229da53eacbc84adff1163,,,,,,,,,,,,,,,,,,,,,,,,,,,,,,,,,,552.14,554.533,"[7,2,4,3,6,1,8,5]","[[0.3,0.2],[-0.3,0.2]]","[[0.125,-0.2],[-0.125,-0.2]]",-0.108761329,-0.225075529,1,0,0,1.858,o2_image,554.535,1,555.042,555.043,557.037,0,0,0,0,1,,,,,,,,,,,,,,,,,,,,,,,,,,,,,,,,,,,,,,,,,,,,,,,,,,
,,5c5cad876d0fe50001f0390c,65,female,2024-04-19_17h37.17.449,stockport_simplified,2022.2.4,MacIntel,29.41176471,661e456ee6de07e70aa9ef7b,66229da53eacbc84adff1163,,,,,,,,,,,,,,,,,,,,,,,,,,,,,,,,,,,,,,,,,,,,,,,,,,,,,,,,1,21,81,18,1,B,Y,N,o2_image,stimuli/out2.png,stimuli/out1.png,stimuli/correct_out2.png,,,,,,,,,,,,,,,,,,,,,,,,,,,,,,,,,,,,,,
,,5c5cad876d0fe50001f0390c,65,female,2024-04-19_17h37.17.449,stockport_simplified,2022.2.4,MacIntel,29.41176471,661e456ee6de07e70aa9ef7b,66229da53eacbc84adff1163,,,,,,,,,,,,,,,,,,,,,,,,,,,,,,,,,,557.037,559.554,"[7,2,4,3,6,1,8,5]","[[-0.3,0.2],[0.3,0.2]]","[[0.125,-0.2],[-0.125,-0.2]]",0.128398792,-0.216012085,1,0,0,2.016,o1_image,559.556,1,560.038,560.038,562.041,0,0,0,0,1,,,,,,,,,,,,,,,,,,,,,,,,,,,,,,,,,,,,,,,,,,,,,,,,,,
,,5c5cad876d0fe50001f0390c,65,female,2024-04-19_17h37.17.449,stockport_simplified,2022.2.4,MacIntel,29.41176471,661e456ee6de07e70aa9ef7b,66229da53eacbc84adff1163,,,,,,,,,,,,,,,,,,,,,,,,,,,,,,,,,,,,,,,,,,,,,,,,,,,,,,,,1,22,82,51,1,N,M,C,o1_image,stimuli/out1.png,stimuli/correct_out1.png,stimuli/out2.png,,,,,,,,,,,,,,,,,,,,,,,,,,,,,,,,,,,,,,
,,5c5cad876d0fe50001f0390c,65,female,2024-04-19_17h37.17.449,stockport_simplified,2022.2.4,MacIntel,29.41176471,661e456ee6de07e70aa9ef7b,66229da53eacbc84adff1163,,,,,,,,,,,,,,,,,,,,,,,,,,,,,,,,,,562.043,564.798,"[7,2,4,3,6,1,8,5]","[[0.3,0.2],[-0.3,0.2]]","[[-0.125,-0.2],[0.125,-0.2]]",-0.105740181,-0.232628399,1,0,0,2.225,o1_image,564.799,1,565.309,565.309,567.305,0,0,0,0,1,,,,,,,,,,,,,,,,,,,,,,,,,,,,,,,,,,,,,,,,,,,,,,,,,,
,,5c5cad876d0fe50001f0390c,65,female,2024-04-19_17h37.17.449,stockport_simplified,2022.2.4,MacIntel,29.41176471,661e456ee6de07e70aa9ef7b,66229da53eacbc84adff1163,,,,,,,,,,,,,,,,,,,,,,,,,,,,,,,,,,,,,,,,,,,,,,,,,,,,,,,,1,23,83,33,1,A,X,N,o1_image,stimuli/out1.png,stimuli/correct_out1.png,stimuli/out2.png,,,,,,,,,,,,,,,,,,,,,,,,,,,,,,,,,,,,,,
,,5c5cad876d0fe50001f0390c,65,female,2024-04-19_17h37.17.449,stockport_simplified,2022.2.4,MacIntel,29.41176471,661e456ee6de07e70aa9ef7b,66229da53eacbc84adff1163,,,,,,,,,,,,,,,,,,,,,,,,,,,,,,,,,,567.307,570.683,"[7,2,4,3,6,1,8,5]","[[0.3,0.2],[-0.3,0.2]]","[[0.125,-0.2],[-0.125,-0.2]]",-0.132930514,-0.222054381,1,0,0,2.843,o2_image,570.684,1,571.175,571.175,573.173,0,0,0,0,1,,,,,,,,,,,,,,,,,,,,,,,,,,,,,,,,,,,,,,,,,,,,,,,,,,
,,5c5cad876d0fe50001f0390c,65,female,2024-04-19_17h37.17.449,stockport_simplified,2022.2.4,MacIntel,29.41176471,661e456ee6de07e70aa9ef7b,66229da53eacbc84adff1163,,,,,,,,,,,,,,,,,,,,,,,,,,,,,,,,,,,,,,,,,,,,,,,,,,,,,,,,1,24,84,10,1,B,X,N,o2_image,stimuli/out2.png,stimuli/out1.png,stimuli/correct_out2.png,,,,,,,,,,,,,,,,,,,,,,,,,,,,,,,,,,,,,,
,,5c5cad876d0fe50001f0390c,65,female,2024-04-19_17h37.17.449,stockport_simplified,2022.2.4,MacIntel,29.41176471,661e456ee6de07e70aa9ef7b,66229da53eacbc84adff1163,,,,,,,,,,,,,,,,,,,,,,,,,,,,,,,,,,573.175,575.649,"[7,2,4,3,6,1,8,5]","[[0.3,0.2],[-0.3,0.2]]","[[-0.125,-0.2],[0.125,-0.2]]",-0.119335347,-0.229607251,1,0,0,1.941,o1_image,575.651,0,576.14,576.14,578.141,0,0,0,0,1,,,,,,,,,,,,,,,,,,,,,,,,,,,,,,,,,,,,,,,,,,,,,,,,,,
,,5c5cad876d0fe50001f0390c,65,female,2024-04-19_17h37.17.449,stockport_simplified,2022.2.4,MacIntel,29.41176471,661e456ee6de07e70aa9ef7b,66229da53eacbc84adff1163,,,,,,,,,,,,,,,,,,,,,,,,,,,,,,,,,,,,,,,,,,,,,,,,,,,,,,,,1,25,85,25,1,N,M,D,o2_image,stimuli/out2.png,stimuli/out1.png,stimuli/correct_out2.png,,,,,,,,,,,,,,,,,,,,,,,,,,,,,,,,,,,,,,
,,5c5cad876d0fe50001f0390c,65,female,2024-04-19_17h37.17.449,stockport_simplified,2022.2.4,MacIntel,29.41176471,661e456ee6de07e70aa9ef7b,66229da53eacbc84adff1163,,,,,,,,,,,,,,,,,,,,,,,,,,,,,,,,,,578.143,580.99,"[7,2,4,3,6,1,8,5]","[[-0.3,0.2],[0.3,0.2]]","[[-0.125,-0.2],[0.125,-0.2]]",0.137462236,-0.212990937,1,0,0,2.316,o2_image,580.992,1,581.478,581.484,583.474,0,0,0,0,1,,,,,,,,,,,,,,,,,,,,,,,,,,,,,,,,,,,,,,,,,,,,,,,,,,
,,5c5cad876d0fe50001f0390c,65,female,2024-04-19_17h37.17.449,stockport_simplified,2022.2.4,MacIntel,29.41176471,661e456ee6de07e70aa9ef7b,66229da53eacbc84adff1163,,,,,,,,,,,,,,,,,,,,,,,,,,,,,,,,,,,,,,,,,,,,,,,,,,,,,,,,1,26,86,41,1,B,X,N,o2_image,stimuli/out2.png,stimuli/out1.png,stimuli/correct_out2.png,,,,,,,,,,,,,,,,,,,,,,,,,,,,,,,,,,,,,,
,,5c5cad876d0fe50001f0390c,65,female,2024-04-19_17h37.17.449,stockport_simplified,2022.2.4,MacIntel,29.41176471,661e456ee6de07e70aa9ef7b,66229da53eacbc84adff1163,,,,,,,,,,,,,,,,,,,,,,,,,,,,,,,,,,583.477,586.029,"[7,2,4,3,6,1,8,5]","[[-0.3,0.2],[0.3,0.2]]","[[0.125,-0.2],[-0.125,-0.2]]",-0.098187311,-0.216012085,1,0,0,2.015,o2_image,586.032,1,586.541,586.541,588.539,0,0,0,0,1,,,,,,,,,,,,,,,,,,,,,,,,,,,,,,,,,,,,,,,,,,,,,,,,,,
,,5c5cad876d0fe50001f0390c,65,female,2024-04-19_17h37.17.449,stockport_simplified,2022.2.4,MacIntel,29.41176471,661e456ee6de07e70aa9ef7b,66229da53eacbc84adff1163,,,,,,,,,,,,,,,,,,,,,,,,,,,,,,,,,,,,,,,,,,,,,,,,,,,,,,,,1,27,87,29,1,N,M,D,o2_image,stimuli/out2.png,stimuli/out1.png,stimuli/correct_out2.png,,,,,,,,,,,,,,,,,,,,,,,,,,,,,,,,,,,,,,
,,5c5cad876d0fe50001f0390c,65,female,2024-04-19_17h37.17.449,stockport_simplified,2022.2.4,MacIntel,29.41176471,661e456ee6de07e70aa9ef7b,66229da53eacbc84adff1163,,,,,,,,,,,,,,,,,,,,,,,,,,,,,,,,,,588.54,591.79,"[7,2,4,3,6,1,8,5]","[[0.3,0.2],[-0.3,0.2]]","[[-0.125,-0.2],[0.125,-0.2]]",0.123867069,-0.237160121,1,0,0,2.747,o2_image,591.792,1,592.274,592.275,594.278,0,0,0,0,1,,,,,,,,,,,,,,,,,,,,,,,,,,,,,,,,,,,,,,,,,,,,,,,,,,
,,5c5cad876d0fe50001f0390c,65,female,2024-04-19_17h37.17.449,stockport_simplified,2022.2.4,MacIntel,29.41176471,661e456ee6de07e70aa9ef7b,66229da53eacbc84adff1163,,,,,,,,,,,,,,,,,,,,,,,,,,,,,,,,,,,,,,,,,,,,,,,,,,,,,,,,1,28,88,14,1,B,X,N,o2_image,stimuli/out2.png,stimuli/out1.png,stimuli/correct_out2.png,,,,,,,,,,,,,,,,,,,,,,,,,,,,,,,,,,,,,,
,,5c5cad876d0fe50001f0390c,65,female,2024-04-19_17h37.17.449,stockport_simplified,2022.2.4,MacIntel,29.41176471,661e456ee6de07e70aa9ef7b,66229da53eacbc84adff1163,,,,,,,,,,,,,,,,,,,,,,,,,,,,,,,,,,594.281,596.68,"[7,2,4,3,6,1,8,5]","[[-0.3,0.2],[0.3,0.2]]","[[0.125,-0.2],[-0.125,-0.2]]",-0.108761329,-0.226586103,1,0,0,1.872,o2_image,596.681,1,597.175,597.176,599.175,0,0,0,0,1,,,,,,,,,,,,,,,,,,,,,,,,,,,,,,,,,,,,,,,,,,,,,,,,,,
,,5c5cad876d0fe50001f0390c,65,female,2024-04-19_17h37.17.449,stockport_simplified,2022.2.4,MacIntel,29.41176471,661e456ee6de07e70aa9ef7b,66229da53eacbc84adff1163,,,,,,,,,,,,,,,,,,,,,,,,,,,,,,,,,,,,,,,,,,,,,,,,,,,,,,,,1,29,89,16,1,B,Y,N,o2_image,stimuli/out2.png,stimuli/out1.png,stimuli/correct_out2.png,,,,,,,,,,,,,,,,,,,,,,,,,,,,,,,,,,,,,,
,,5c5cad876d0fe50001f0390c,65,female,2024-04-19_17h37.17.449,stockport_simplified,2022.2.4,MacIntel,29.41176471,661e456ee6de07e70aa9ef7b,66229da53eacbc84adff1163,,,,,,,,,,,,,,,,,,,,,,,,,,,,,,,,,,599.176,601.939,"[7,2,4,3,6,1,8,5]","[[0.3,0.2],[-0.3,0.2]]","[[-0.125,-0.2],[0.125,-0.2]]",-0.111782477,-0.219033233,1,0,0,2.229,o1_image,601.94,1,602.441,602.441,604.442,0,0,0,0,1,,,,,,,,,,,,,,,,,,,,,,,,,,,,,,,,,,,,,,,,,,,,,,,,,,
,,5c5cad876d0fe50001f0390c,65,female,2024-04-19_17h37.17.449,stockport_simplified,2022.2.4,MacIntel,29.41176471,661e456ee6de07e70aa9ef7b,66229da53eacbc84adff1163,,,,,,,,,,,,,,,,,,,,,,,,,,,,,,,,,,,,,,,,,,,,,,,,,,,,,,,,1,30,90,36,1,A,Y,N,o1_image,stimuli/out1.png,stimuli/correct_out1.png,stimuli/out2.png,,,,,,,,,,,,,,,,,,,,,,,,,,,,,,,,,,,,,,
,,5c5cad876d0fe50001f0390c,65,female,2024-04-19_17h37.17.449,stockport_simplified,2022.2.4,MacIntel,29.41176471,661e456ee6de07e70aa9ef7b,66229da53eacbc84adff1163,,,,,,,,,,,,,,,,,,,,,,,,,,,,,,,,,,604.444,606.791,"[7,2,4,3,6,1,8,5]","[[0.3,0.2],[-0.3,0.2]]","[[0.125,-0.2],[-0.125,-0.2]]",0.120845921,-0.226586103,1,0,0,1.815,o1_image,606.792,1,607.275,607.275,609.275,0,0,0,0,1,,,,,,,,,,,,,,,,,,,,,,,,,,,,,,,,,,,,,,,,,,,,,,,,,,
,,5c5cad876d0fe50001f0390c,65,female,2024-04-19_17h37.17.449,stockport_simplified,2022.2.4,MacIntel,29.41176471,661e456ee6de07e70aa9ef7b,66229da53eacbc84adff1163,,,,,,,,,,,,,,,,,,,,,,,,,,,,,,,,,,,,,,,,,,,,,,,,,,,,,,,,1,31,91,2,1,A,X,N,o1_image,stimuli/out1.png,stimuli/correct_out1.png,stimuli/out2.png,,,,,,,,,,,,,,,,,,,,,,,,,,,,,,,,,,,,,,
,,5c5cad876d0fe50001f0390c,65,female,2024-04-19_17h37.17.449,stockport_simplified,2022.2.4,MacIntel,29.41176471,661e456ee6de07e70aa9ef7b,66229da53eacbc84adff1163,,,,,,,,,,,,,,,,,,,,,,,,,,,,,,,,,,609.276,611.439,"[7,2,4,3,6,1,8,5]","[[0.3,0.2],[-0.3,0.2]]","[[-0.125,-0.2],[0.125,-0.2]]",0.126888218,-0.19939577,1,0,0,1.628,o2_image,611.441,1,611.943,611.943,613.943,0,0,0,0,1,,,,,,,,,,,,,,,,,,,,,,,,,,,,,,,,,,,,,,,,,,,,,,,,,,
,,5c5cad876d0fe50001f0390c,65,female,2024-04-19_17h37.17.449,stockport_simplified,2022.2.4,MacIntel,29.41176471,661e456ee6de07e70aa9ef7b,66229da53eacbc84adff1163,,,,,,,,,,,,,,,,,,,,,,,,,,,,,,,,,,,,,,,,,,,,,,,,,,,,,,,,1,32,92,58,1,N,M,D,o2_image,stimuli/out2.png,stimuli/out1.png,stimuli/correct_out2.png,,,,,,,,,,,,,,,,,,,,,,,,,,,,,,,,,,,,,,
,,5c5cad876d0fe50001f0390c,65,female,2024-04-19_17h37.17.449,stockport_simplified,2022.2.4,MacIntel,29.41176471,661e456ee6de07e70aa9ef7b,66229da53eacbc84adff1163,,,,,,,,,,,,,,,,,,,,,,,,,,,,,,,,,,613.944,616.923,"[7,2,4,3,6,1,8,5]","[[0.3,0.2],[-0.3,0.2]]","[[0.125,-0.2],[-0.125,-0.2]]",-0.110271903,-0.212990937,1,0,0,2.448,o2_image,616.924,1,617.409,617.409,619.409,0,0,0,0,1,,,,,,,,,,,,,,,,,,,,,,,,,,,,,,,,,,,,,,,,,,,,,,,,,,
,,5c5cad876d0fe50001f0390c,65,female,2024-04-19_17h37.17.449,stockport_simplified,2022.2.4,MacIntel,29.41176471,661e456ee6de07e70aa9ef7b,66229da53eacbc84adff1163,,,,,,,,,,,,,,,,,,,,,,,,,,,,,,,,,,,,,,,,,,,,,,,,,,,,,,,,1,33,93,27,1,N,M,D,o2_image,stimuli/out2.png,stimuli/out1.png,stimuli/correct_out2.png,,,,,,,,,,,,,,,,,,,,,,,,,,,,,,,,,,,,,,
,,5c5cad876d0fe50001f0390c,65,female,2024-04-19_17h37.17.449,stockport_simplified,2022.2.4,MacIntel,29.41176471,661e456ee6de07e70aa9ef7b,66229da53eacbc84adff1163,,,,,,,,,,,,,,,,,,,,,,,,,,,,,,,,,,619.41,621.9,"[7,2,4,3,6,1,8,5]","[[0.3,0.2],[-0.3,0.2]]","[[0.125,-0.2],[-0.125,-0.2]]",0.125377644,-0.208459215,1,0,0,1.956,o1_image,621.902,1,622.409,622.409,624.409,0,0,0,0,1,,,,,,,,,,,,,,,,,,,,,,,,,,,,,,,,,,,,,,,,,,,,,,,,,,
,,5c5cad876d0fe50001f0390c,65,female,2024-04-19_17h37.17.449,stockport_simplified,2022.2.4,MacIntel,29.41176471,661e456ee6de07e70aa9ef7b,66229da53eacbc84adff1163,,,,,,,,,,,,,,,,,,,,,,,,,,,,,,,,,,,,,,,,,,,,,,,,,,,,,,,,1,34,94,8,1,A,Y,N,o1_image,stimuli/out1.png,stimuli/correct_out1.png,stimuli/out2.png,,,,,,,,,,,,,,,,,,,,,,,,,,,,,,,,,,,,,,
,,5c5cad876d0fe50001f0390c,65,female,2024-04-19_17h37.17.449,stockport_simplified,2022.2.4,MacIntel,29.41176471,661e456ee6de07e70aa9ef7b,66229da53eacbc84adff1163,,,,,,,,,,,,,,,,,,,,,,,,,,,,,,,,,,624.411,627.447,"[7,2,4,3,6,1,8,5]","[[0.3,0.2],[-0.3,0.2]]","[[-0.125,-0.2],[0.125,-0.2]]",-0.119335347,-0.223564955,1,0,0,2.502,o1_image,627.448,1,627.944,627.944,629.944,0,0,0,0,1,,,,,,,,,,,,,,,,,,,,,,,,,,,,,,,,,,,,,,,,,,,,,,,,,,
,,5c5cad876d0fe50001f0390c,65,female,2024-04-19_17h37.17.449,stockport_simplified,2022.2.4,MacIntel,29.41176471,661e456ee6de07e70aa9ef7b,66229da53eacbc84adff1163,,,,,,,,,,,,,,,,,,,,,,,,,,,,,,,,,,,,,,,,,,,,,,,,,,,,,,,,1,35,95,52,1,N,M,C,o1_image,stimuli/out1.png,stimuli/correct_out1.png,stimuli/out2.png,,,,,,,,,,,,,,,,,,,,,,,,,,,,,,,,,,,,,,
,,5c5cad876d0fe50001f0390c,65,female,2024-04-19_17h37.17.449,stockport_simplified,2022.2.4,MacIntel,29.41176471,661e456ee6de07e70aa9ef7b,66229da53eacbc84adff1163,,,,,,,,,,,,,,,,,,,,,,,,,,,,,,,,,,629.945,632.448,"[7,2,4,3,6,1,8,5]","[[-0.3,0.2],[0.3,0.2]]","[[0.125,-0.2],[-0.125,-0.2]]",0.132930514,-0.222054381,1,0,0,1.966,o1_image,632.45,1,632.945,632.945,634.945,0,0,0,0,1,,,,,,,,,,,,,,,,,,,,,,,,,,,,,,,,,,,,,,,,,,,,,,,,,,
,,5c5cad876d0fe50001f0390c,65,female,2024-04-19_17h37.17.449,stockport_simplified,2022.2.4,MacIntel,29.41176471,661e456ee6de07e70aa9ef7b,66229da53eacbc84adff1163,,,,,,,,,,,,,,,,,,,,,,,,,,,,,,,,,,,,,,,,,,,,,,,,,,,,,,,,1,36,96,9,1,A,Y,N,o1_image,stimuli/out1.png,stimuli/correct_out1.png,stimuli/out2.png,,,,,,,,,,,,,,,,,,,,,,,,,,,,,,,,,,,,,,
,,5c5cad876d0fe50001f0390c,65,female,2024-04-19_17h37.17.449,stockport_simplified,2022.2.4,MacIntel,29.41176471,661e456ee6de07e70aa9ef7b,66229da53eacbc84adff1163,,,,,,,,,,,,,,,,,,,,,,,,,,,,,,,,,,634.947,638.07,"[7,2,4,3,6,1,8,5]","[[0.3,0.2],[-0.3,0.2]]","[[-0.125,-0.2],[0.125,-0.2]]",-0.125377644,-0.200906344,1,0,0,2.583,o1_image,638.071,1,638.578,638.578,640.578,0,0,0,0,1,,,,,,,,,,,,,,,,,,,,,,,,,,,,,,,,,,,,,,,,,,,,,,,,,,
,,5c5cad876d0fe50001f0390c,65,female,2024-04-19_17h37.17.449,stockport_simplified,2022.2.4,MacIntel,29.41176471,661e456ee6de07e70aa9ef7b,66229da53eacbc84adff1163,,,,,,,,,,,,,,,,,,,,,,,,,,,,,,,,,,,,,,,,,,,,,,,,,,,,,,,,1,37,97,35,1,A,Y,N,o1_image,stimuli/out1.png,stimuli/correct_out1.png,stimuli/out2.png,,,,,,,,,,,,,,,,,,,,,,,,,,,,,,,,,,,,,,
,,5c5cad876d0fe50001f0390c,65,female,2024-04-19_17h37.17.449,stockport_simplified,2022.2.4,MacIntel,29.41176471,661e456ee6de07e70aa9ef7b,66229da53eacbc84adff1163,,,,,,,,,,,,,,,,,,,,,,,,,,,,,,,,,,640.58,644.177,"[7,2,4,3,6,1,8,5]","[[-0.3,0.2],[0.3,0.2]]","[[-0.125,-0.2],[0.125,-0.2]]",0.114803625,-0.197885196,1,0,0,3.065,o2_image,644.18,1,644.68,644.68,646.68,0,0,0,0,1,,,,,,,,,,,,,,,,,,,,,,,,,,,,,,,,,,,,,,,,,,,,,,,,,,
,,5c5cad876d0fe50001f0390c,65,female,2024-04-19_17h37.17.449,stockport_simplified,2022.2.4,MacIntel,29.41176471,661e456ee6de07e70aa9ef7b,66229da53eacbc84adff1163,,,,,,,,,,,,,,,,,,,,,,,,,,,,,,,,,,,,,,,,,,,,,,,,,,,,,,,,1,38,98,19,1,B,Y,N,o2_image,stimuli/out2.png,stimuli/out1.png,stimuli/correct_out2.png,,,,,,,,,,,,,,,,,,,,,,,,,,,,,,,,,,,,,,
,,5c5cad876d0fe50001f0390c,65,female,2024-04-19_17h37.17.449,stockport_simplified,2022.2.4,MacIntel,29.41176471,661e456ee6de07e70aa9ef7b,66229da53eacbc84adff1163,,,,,,,,,,,,,,,,,,,,,,,,,,,,,,,,,,646.683,650.958,"[7,2,4,3,6,1,8,5]","[[0.3,0.2],[-0.3,0.2]]","[[0.125,-0.2],[-0.125,-0.2]]",0.141993958,-0.223564955,1,0,0,3.745,o1_image,650.96,1,651.445,651.446,653.423,0,0,0,0,1,,,,,,,,,,,,,,,,,,,,,,,,,,,,,,,,,,,,,,,,,,,,,,,,,,
,,5c5cad876d0fe50001f0390c,65,female,2024-04-19_17h37.17.449,stockport_simplified,2022.2.4,MacIntel,29.41176471,661e456ee6de07e70aa9ef7b,66229da53eacbc84adff1163,,,,,,,,,,,,,,,,,,,,,,,,,,,,,,,,,,,,,,,,,,,,,,,,,,,,,,,,1,39,99,22,1,N,M,C,o1_image,stimuli/out1.png,stimuli/correct_out1.png,stimuli/out2.png,,,,,,,,,,,,,,,,,,,,,,,,,,,,,,,,,,,,,,
,,5c5cad876d0fe50001f0390c,65,female,2024-04-19_17h37.17.449,stockport_simplified,2022.2.4,MacIntel,29.41176471,661e456ee6de07e70aa9ef7b,66229da53eacbc84adff1163,,,,,,,,,,,,,,,,,,,,,,,,,,,,,,,,,,653.424,656.414,"[7,2,4,3,6,1,8,5]","[[-0.3,0.2],[0.3,0.2]]","[[0.125,-0.2],[-0.125,-0.2]]",0.137462236,-0.226586103,1,0,0,2.466,o1_image,656.415,1,656.913,656.913,658.913,0,0,0,0,1,,,,,,,,,,,,,,,,,,,,,,,,,,,,,,,,,,,,,,,,,,,,,,,,,,
,,5c5cad876d0fe50001f0390c,65,female,2024-04-19_17h37.17.449,stockport_simplified,2022.2.4,MacIntel,29.41176471,661e456ee6de07e70aa9ef7b,66229da53eacbc84adff1163,,,,,,,,,,,,,,,,,,,,,,,,,,,,,,,,,,,,,,,,,,,,,,,,,,,,,,,,1,40,100,37,1,A,Y,N,o1_image,stimuli/out1.png,stimuli/correct_out1.png,stimuli/out2.png,,,,,,,,,,,,,,,,,,,,,,,,,,,,,,,,,,,,,,
,,5c5cad876d0fe50001f0390c,65,female,2024-04-19_17h37.17.449,stockport_simplified,2022.2.4,MacIntel,29.41176471,661e456ee6de07e70aa9ef7b,66229da53eacbc84adff1163,,,,,,,,,,,,,,,,,,,,,,,,,,,,,,,,,,658.913,662.433,"[7,2,4,3,6,1,8,5]","[[-0.3,0.2],[0.3,0.2]]","[[0.125,-0.2],[-0.125,-0.2]]",-0.122356495,-0.212990937,1,0,0,2.987,o2_image,662.434,1,662.914,662.914,664.914,0,0,0,0,1,,,,,,,,,,,,,,,,,,,,,,,,,,,,,,,,,,,,,,,,,,,,,,,,,,
,,5c5cad876d0fe50001f0390c,65,female,2024-04-19_17h37.17.449,stockport_simplified,2022.2.4,MacIntel,29.41176471,661e456ee6de07e70aa9ef7b,66229da53eacbc84adff1163,,,,,,,,,,,,,,,,,,,,,,,,,,,,,,,,,,,,,,,,,,,,,,,,,,,,,,,,1,41,101,44,1,B,X,N,o2_image,stimuli/out2.png,stimuli/out1.png,stimuli/correct_out2.png,,,,,,,,,,,,,,,,,,,,,,,,,,,,,,,,,,,,,,
,,5c5cad876d0fe50001f0390c,65,female,2024-04-19_17h37.17.449,stockport_simplified,2022.2.4,MacIntel,29.41176471,661e456ee6de07e70aa9ef7b,66229da53eacbc84adff1163,,,,,,,,,,,,,,,,,,,,,,,,,,,,,,,,,,664.915,667.249,"[7,2,4,3,6,1,8,5]","[[0.3,0.2],[-0.3,0.2]]","[[0.125,-0.2],[-0.125,-0.2]]",0.143504532,-0.235649547,1,0,0,1.803,o1_image,667.25,1,667.746,667.746,669.746,0,0,0,0,1,,,,,,,,,,,,,,,,,,,,,,,,,,,,,,,,,,,,,,,,,,,,,,,,,,
,,5c5cad876d0fe50001f0390c,65,female,2024-04-19_17h37.17.449,stockport_simplified,2022.2.4,MacIntel,29.41176471,661e456ee6de07e70aa9ef7b,66229da53eacbc84adff1163,,,,,,,,,,,,,,,,,,,,,,,,,,,,,,,,,,,,,,,,,,,,,,,,,,,,,,,,1,42,102,31,1,A,X,N,o1_image,stimuli/out1.png,stimuli/correct_out1.png,stimuli/out2.png,,,,,,,,,,,,,,,,,,,,,,,,,,,,,,,,,,,,,,
,,5c5cad876d0fe50001f0390c,65,female,2024-04-19_17h37.17.449,stockport_simplified,2022.2.4,MacIntel,29.41176471,661e456ee6de07e70aa9ef7b,66229da53eacbc84adff1163,,,,,,,,,,,,,,,,,,,,,,,,,,,,,,,,,,669.747,673.239,"[7,2,4,3,6,1,8,5]","[[-0.3,0.2],[0.3,0.2]]","[[-0.125,-0.2],[0.125,-0.2]]",-0.113293051,-0.226586103,1,0,0,2.958,o1_image,673.24,1,673.749,673.75,675.747,0,0,0,0,1,,,,,,,,,,,,,,,,,,,,,,,,,,,,,,,,,,,,,,,,,,,,,,,,,,
,,5c5cad876d0fe50001f0390c,65,female,2024-04-19_17h37.17.449,stockport_simplified,2022.2.4,MacIntel,29.41176471,661e456ee6de07e70aa9ef7b,66229da53eacbc84adff1163,,,,,,,,,,,,,,,,,,,,,,,,,,,,,,,,,,,,,,,,,,,,,,,,,,,,,,,,1,43,103,20,1,N,M,C,o1_image,stimuli/out1.png,stimuli/correct_out1.png,stimuli/out2.png,,,,,,,,,,,,,,,,,,,,,,,,,,,,,,,,,,,,,,
,,5c5cad876d0fe50001f0390c,65,female,2024-04-19_17h37.17.449,stockport_simplified,2022.2.4,MacIntel,29.41176471,661e456ee6de07e70aa9ef7b,66229da53eacbc84adff1163,,,,,,,,,,,,,,,,,,,,,,,,,,,,,,,,,,675.747,678.29,"[7,2,4,3,6,1,8,5]","[[0.3,0.2],[-0.3,0.2]]","[[0.125,-0.2],[-0.125,-0.2]]",-0.098187311,-0.228096677,1,0,0,2.003,o2_image,678.292,1,678.78,678.78,680.781,0,0,0,0,1,,,,,,,,,,,,,,,,,,,,,,,,,,,,,,,,,,,,,,,,,,,,,,,,,,
,,5c5cad876d0fe50001f0390c,65,female,2024-04-19_17h37.17.449,stockport_simplified,2022.2.4,MacIntel,29.41176471,661e456ee6de07e70aa9ef7b,66229da53eacbc84adff1163,,,,,,,,,,,,,,,,,,,,,,,,,,,,,,,,,,,,,,,,,,,,,,,,,,,,,,,,1,44,104,48,1,B,Y,N,o2_image,stimuli/out2.png,stimuli/out1.png,stimuli/correct_out2.png,,,,,,,,,,,,,,,,,,,,,,,,,,,,,,,,,,,,,,
,,5c5cad876d0fe50001f0390c,65,female,2024-04-19_17h37.17.449,stockport_simplified,2022.2.4,MacIntel,29.41176471,661e456ee6de07e70aa9ef7b,66229da53eacbc84adff1163,,,,,,,,,,,,,,,,,,,,,,,,,,,,,,,,,,680.781,683.069,"[7,2,4,3,6,1,8,5]","[[-0.3,0.2],[0.3,0.2]]","[[0.125,-0.2],[-0.125,-0.2]]",0.126888218,-0.212990937,1,0,0,1.753,o1_image,683.07,1,683.547,683.547,685.547,0,0,0,0,1,,,,,,,,,,,,,,,,,,,,,,,,,,,,,,,,,,,,,,,,,,,,,,,,,,
,,5c5cad876d0fe50001f0390c,65,female,2024-04-19_17h37.17.449,stockport_simplified,2022.2.4,MacIntel,29.41176471,661e456ee6de07e70aa9ef7b,66229da53eacbc84adff1163,,,,,,,,,,,,,,,,,,,,,,,,,,,,,,,,,,,,,,,,,,,,,,,,,,,,,,,,1,45,105,24,1,N,M,C,o1_image,stimuli/out1.png,stimuli/correct_out1.png,stimuli/out2.png,,,,,,,,,,,,,,,,,,,,,,,,,,,,,,,,,,,,,,
,,5c5cad876d0fe50001f0390c,65,female,2024-04-19_17h37.17.449,stockport_simplified,2022.2.4,MacIntel,29.41176471,661e456ee6de07e70aa9ef7b,66229da53eacbc84adff1163,,,,,,,,,,,,,,,,,,,,,,,,,,,,,,,,,,685.548,687.55,"[7,2,4,3,6,1,8,5]","[[-0.3,0.2],[0.3,0.2]]","[[-0.125,-0.2],[0.125,-0.2]]",-0.101208459,-0.237160121,1,0,0,1.469,o1_image,687.551,1,688.048,688.049,690.048,0,0,0,0,1,,,,,,,,,,,,,,,,,,,,,,,,,,,,,,,,,,,,,,,,,,,,,,,,,,
,,5c5cad876d0fe50001f0390c,65,female,2024-04-19_17h37.17.449,stockport_simplified,2022.2.4,MacIntel,29.41176471,661e456ee6de07e70aa9ef7b,66229da53eacbc84adff1163,,,,,,,,,,,,,,,,,,,,,,,,,,,,,,,,,,,,,,,,,,,,,,,,,,,,,,,,1,46,106,54,1,N,M,C,o1_image,stimuli/out1.png,stimuli/correct_out1.png,stimuli/out2.png,,,,,,,,,,,,,,,,,,,,,,,,,,,,,,,,,,,,,,
,,5c5cad876d0fe50001f0390c,65,female,2024-04-19_17h37.17.449,stockport_simplified,2022.2.4,MacIntel,29.41176471,661e456ee6de07e70aa9ef7b,66229da53eacbc84adff1163,,,,,,,,,,,,,,,,,,,,,,,,,,,,,,,,,,690.049,692.77,"[7,2,4,3,6,1,8,5]","[[0.3,0.2],[-0.3,0.2]]","[[0.125,-0.2],[-0.125,-0.2]]",0.129909366,-0.247734139,1,0,0,2.188,o1_image,692.771,1,693.248,693.248,695.249,0,0,0,0,1,,,,,,,,,,,,,,,,,,,,,,,,,,,,,,,,,,,,,,,,,,,,,,,,,,
,,5c5cad876d0fe50001f0390c,65,female,2024-04-19_17h37.17.449,stockport_simplified,2022.2.4,MacIntel,29.41176471,661e456ee6de07e70aa9ef7b,66229da53eacbc84adff1163,,,,,,,,,,,,,,,,,,,,,,,,,,,,,,,,,,,,,,,,,,,,,,,,,,,,,,,,1,47,107,38,1,A,Y,N,o1_image,stimuli/out1.png,stimuli/correct_out1.png,stimuli/out2.png,,,,,,,,,,,,,,,,,,,,,,,,,,,,,,,,,,,,,,
,,5c5cad876d0fe50001f0390c,65,female,2024-04-19_17h37.17.449,stockport_simplified,2022.2.4,MacIntel,29.41176471,661e456ee6de07e70aa9ef7b,66229da53eacbc84adff1163,,,,,,,,,,,,,,,,,,,,,,,,,,,,,,,,,,695.25,698.216,"[7,2,4,3,6,1,8,5]","[[-0.3,0.2],[0.3,0.2]]","[[0.125,-0.2],[-0.125,-0.2]]",0.135951662,-0.225075529,1,0,0,2.434,o1_image,698.218,1,698.716,698.716,700.715,0,0,0,0,1,,,,,,,,,,,,,,,,,,,,,,,,,,,,,,,,,,,,,,,,,,,,,,,,,,
,,5c5cad876d0fe50001f0390c,65,female,2024-04-19_17h37.17.449,stockport_simplified,2022.2.4,MacIntel,29.41176471,661e456ee6de07e70aa9ef7b,66229da53eacbc84adff1163,,,,,,,,,,,,,,,,,,,,,,,,,,,,,,,,,,,,,,,,,,,,,,,,,,,,,,,,1,48,108,6,1,A,Y,N,o1_image,stimuli/out1.png,stimuli/correct_out1.png,stimuli/out2.png,,,,,,,,,,,,,,,,,,,,,,,,,,,,,,,,,,,,,,
,,5c5cad876d0fe50001f0390c,65,female,2024-04-19_17h37.17.449,stockport_simplified,2022.2.4,MacIntel,29.41176471,661e456ee6de07e70aa9ef7b,66229da53eacbc84adff1163,,,,,,,,,,,,,,,,,,,,,,,,,,,,,,,,,,700.717,703.948,"[7,2,4,3,6,1,8,5]","[[0.3,0.2],[-0.3,0.2]]","[[-0.125,-0.2],[0.125,-0.2]]",0.123867069,-0.209969789,1,0,0,2.697,o2_image,703.949,1,704.448,704.448,706.449,0,0,0,0,1,,,,,,,,,,,,,,,,,,,,,,,,,,,,,,,,,,,,,,,,,,,,,,,,,,
,,5c5cad876d0fe50001f0390c,65,female,2024-04-19_17h37.17.449,stockport_simplified,2022.2.4,MacIntel,29.41176471,661e456ee6de07e70aa9ef7b,66229da53eacbc84adff1163,,,,,,,,,,,,,,,,,,,,,,,,,,,,,,,,,,,,,,,,,,,,,,,,,,,,,,,,1,49,109,11,1,B,X,N,o2_image,stimuli/out2.png,stimuli/out1.png,stimuli/correct_out2.png,,,,,,,,,,,,,,,,,,,,,,,,,,,,,,,,,,,,,,
,,5c5cad876d0fe50001f0390c,65,female,2024-04-19_17h37.17.449,stockport_simplified,2022.2.4,MacIntel,29.41176471,661e456ee6de07e70aa9ef7b,66229da53eacbc84adff1163,,,,,,,,,,,,,,,,,,,,,,,,,,,,,,,,,,706.45,709.962,"[7,2,4,3,6,1,8,5]","[[-0.3,0.2],[0.3,0.2]]","[[0.125,-0.2],[-0.125,-0.2]]",0.141993958,-0.211480363,1,0,0,2.979,o1_image,709.963,1,710.45,710.45,712.449,0,0,0,0,1,,,,,,,,,,,,,,,,,,,,,,,,,,,,,,,,,,,,,,,,,,,,,,,,,,
,,5c5cad876d0fe50001f0390c,65,female,2024-04-19_17h37.17.449,stockport_simplified,2022.2.4,MacIntel,29.41176471,661e456ee6de07e70aa9ef7b,66229da53eacbc84adff1163,,,,,,,,,,,,,,,,,,,,,,,,,,,,,,,,,,,,,,,,,,,,,,,,,,,,,,,,1,50,110,50,1,N,M,C,o1_image,stimuli/out1.png,stimuli/correct_out1.png,stimuli/out2.png,,,,,,,,,,,,,,,,,,,,,,,,,,,,,,,,,,,,,,
,,5c5cad876d0fe50001f0390c,65,female,2024-04-19_17h37.17.449,stockport_simplified,2022.2.4,MacIntel,29.41176471,661e456ee6de07e70aa9ef7b,66229da53eacbc84adff1163,,,,,,,,,,,,,,,,,,,,,,,,,,,,,,,,,,712.45,714.687,"[7,2,4,3,6,1,8,5]","[[0.3,0.2],[-0.3,0.2]]","[[-0.125,-0.2],[0.125,-0.2]]",0.113293051,-0.190332326,1,0,0,1.703,o2_image,714.688,1,715.182,715.182,717.183,0,0,0,0,1,,,,,,,,,,,,,,,,,,,,,,,,,,,,,,,,,,,,,,,,,,,,,,,,,,
,,5c5cad876d0fe50001f0390c,65,female,2024-04-19_17h37.17.449,stockport_simplified,2022.2.4,MacIntel,29.41176471,661e456ee6de07e70aa9ef7b,66229da53eacbc84adff1163,,,,,,,,,,,,,,,,,,,,,,,,,,,,,,,,,,,,,,,,,,,,,,,,,,,,,,,,1,51,111,57,1,N,M,D,o2_image,stimuli/out2.png,stimuli/out1.png,stimuli/correct_out2.png,,,,,,,,,,,,,,,,,,,,,,,,,,,,,,,,,,,,,,
,,5c5cad876d0fe50001f0390c,65,female,2024-04-19_17h37.17.449,stockport_simplified,2022.2.4,MacIntel,29.41176471,661e456ee6de07e70aa9ef7b,66229da53eacbc84adff1163,,,,,,,,,,,,,,,,,,,,,,,,,,,,,,,,,,717.184,720.31,"[7,2,4,3,6,1,8,5]","[[-0.3,0.2],[0.3,0.2]]","[[-0.125,-0.2],[0.125,-0.2]]",0.111782477,-0.203927492,1,0,0,2.623,o2_image,720.311,1,720.817,720.817,722.817,0,0,0,0,1,,,,,,,,,,,,,,,,,,,,,,,,,,,,,,,,,,,,,,,,,,,,,,,,,,
,,5c5cad876d0fe50001f0390c,65,female,2024-04-19_17h37.17.449,stockport_simplified,2022.2.4,MacIntel,29.41176471,661e456ee6de07e70aa9ef7b,66229da53eacbc84adff1163,,,,,,,,,,,,,,,,,,,,,,,,,,,,,,,,,,,,,,,,,,,,,,,,,,,,,,,,1,52,112,12,1,B,X,N,o2_image,stimuli/out2.png,stimuli/out1.png,stimuli/correct_out2.png,,,,,,,,,,,,,,,,,,,,,,,,,,,,,,,,,,,,,,
,,5c5cad876d0fe50001f0390c,65,female,2024-04-19_17h37.17.449,stockport_simplified,2022.2.4,MacIntel,29.41176471,661e456ee6de07e70aa9ef7b,66229da53eacbc84adff1163,,,,,,,,,,,,,,,,,,,,,,,,,,,,,,,,,,722.818,724.693,"[7,2,4,3,6,1,8,5]","[[-0.3,0.2],[0.3,0.2]]","[[-0.125,-0.2],[0.125,-0.2]]",-0.122356495,-0.225075529,1,0,0,1.341,o1_image,724.693,1,725.184,725.184,727.184,0,0,0,0,1,,,,,,,,,,,,,,,,,,,,,,,,,,,,,,,,,,,,,,,,,,,,,,,,,,
,,5c5cad876d0fe50001f0390c,65,female,2024-04-19_17h37.17.449,stockport_simplified,2022.2.4,MacIntel,29.41176471,661e456ee6de07e70aa9ef7b,66229da53eacbc84adff1163,,,,,,,,,,,,,,,,,,,,,,,,,,,,,,,,,,,,,,,,,,,,,,,,,,,,,,,,1,53,113,21,1,N,M,C,o1_image,stimuli/out1.png,stimuli/correct_out1.png,stimuli/out2.png,,,,,,,,,,,,,,,,,,,,,,,,,,,,,,,,,,,,,,
,,5c5cad876d0fe50001f0390c,65,female,2024-04-19_17h37.17.449,stockport_simplified,2022.2.4,MacIntel,29.41176471,661e456ee6de07e70aa9ef7b,66229da53eacbc84adff1163,,,,,,,,,,,,,,,,,,,,,,,,,,,,,,,,,,727.185,729.453,"[7,2,4,3,6,1,8,5]","[[-0.3,0.2],[0.3,0.2]]","[[0.125,-0.2],[-0.125,-0.2]]",-0.117824773,-0.208459215,1,0,0,1.735,o2_image,729.454,1,729.951,729.951,731.95,0,0,0,0,1,,,,,,,,,,,,,,,,,,,,,,,,,,,,,,,,,,,,,,,,,,,,,,,,,,
,,5c5cad876d0fe50001f0390c,65,female,2024-04-19_17h37.17.449,stockport_simplified,2022.2.4,MacIntel,29.41176471,661e456ee6de07e70aa9ef7b,66229da53eacbc84adff1163,,,,,,,,,,,,,,,,,,,,,,,,,,,,,,,,,,,,,,,,,,,,,,,,,,,,,,,,1,54,114,55,1,N,M,D,o2_image,stimuli/out2.png,stimuli/out1.png,stimuli/correct_out2.png,,,,,,,,,,,,,,,,,,,,,,,,,,,,,,,,,,,,,,
,,5c5cad876d0fe50001f0390c,65,female,2024-04-19_17h37.17.449,stockport_simplified,2022.2.4,MacIntel,29.41176471,661e456ee6de07e70aa9ef7b,66229da53eacbc84adff1163,,,,,,,,,,,,,,,,,,,,,,,,,,,,,,,,,,731.951,734.151,"[7,2,4,3,6,1,8,5]","[[-0.3,0.2],[0.3,0.2]]","[[-0.125,-0.2],[0.125,-0.2]]",0.13141994,-0.203927492,1,0,0,1.698,o2_image,734.152,1,734.651,734.652,736.651,0,0,0,0,1,,,,,,,,,,,,,,,,,,,,,,,,,,,,,,,,,,,,,,,,,,,,,,,,,,
,,5c5cad876d0fe50001f0390c,65,female,2024-04-19_17h37.17.449,stockport_simplified,2022.2.4,MacIntel,29.41176471,661e456ee6de07e70aa9ef7b,66229da53eacbc84adff1163,,,,,,,,,,,,,,,,,,,,,,,,,,,,,,,,,,,,,,,,,,,,,,,,,,,,,,,,1,55,115,49,1,B,Y,N,o2_image,stimuli/out2.png,stimuli/out1.png,stimuli/correct_out2.png,,,,,,,,,,,,,,,,,,,,,,,,,,,,,,,,,,,,,,
,,5c5cad876d0fe50001f0390c,65,female,2024-04-19_17h37.17.449,stockport_simplified,2022.2.4,MacIntel,29.41176471,661e456ee6de07e70aa9ef7b,66229da53eacbc84adff1163,,,,,,,,,,,,,,,,,,,,,,,,,,,,,,,,,,736.652,739.167,"[7,2,4,3,6,1,8,5]","[[-0.3,0.2],[0.3,0.2]]","[[-0.125,-0.2],[0.125,-0.2]]",-0.128398792,-0.229607251,1,0,0,1.98,o1_image,739.169,1,739.652,739.652,741.652,0,0,0,0,1,,,,,,,,,,,,,,,,,,,,,,,,,,,,,,,,,,,,,,,,,,,,,,,,,,
,,5c5cad876d0fe50001f0390c,65,female,2024-04-19_17h37.17.449,stockport_simplified,2022.2.4,MacIntel,29.41176471,661e456ee6de07e70aa9ef7b,66229da53eacbc84adff1163,,,,,,,,,,,,,,,,,,,,,,,,,,,,,,,,,,,,,,,,,,,,,,,,,,,,,,,,1,56,116,4,1,A,X,N,o1_image,stimuli/out1.png,stimuli/correct_out1.png,stimuli/out2.png,,,,,,,,,,,,,,,,,,,,,,,,,,,,,,,,,,,,,,
,,5c5cad876d0fe50001f0390c,65,female,2024-04-19_17h37.17.449,stockport_simplified,2022.2.4,MacIntel,29.41176471,661e456ee6de07e70aa9ef7b,66229da53eacbc84adff1163,,,,,,,,,,,,,,,,,,,,,,,,,,,,,,,,,,741.654,744.901,"[7,2,4,3,6,1,8,5]","[[-0.3,0.2],[0.3,0.2]]","[[0.125,-0.2],[-0.125,-0.2]]",-0.102719033,-0.203927492,1,0,0,2.716,o2_image,744.903,1,745.385,745.385,747.385,0,0,0,0,1,,,,,,,,,,,,,,,,,,,,,,,,,,,,,,,,,,,,,,,,,,,,,,,,,,
,,5c5cad876d0fe50001f0390c,65,female,2024-04-19_17h37.17.449,stockport_simplified,2022.2.4,MacIntel,29.41176471,661e456ee6de07e70aa9ef7b,66229da53eacbc84adff1163,,,,,,,,,,,,,,,,,,,,,,,,,,,,,,,,,,,,,,,,,,,,,,,,,,,,,,,,1,57,117,40,1,B,X,N,o2_image,stimuli/out2.png,stimuli/out1.png,stimuli/correct_out2.png,,,,,,,,,,,,,,,,,,,,,,,,,,,,,,,,,,,,,,
,,5c5cad876d0fe50001f0390c,65,female,2024-04-19_17h37.17.449,stockport_simplified,2022.2.4,MacIntel,29.41176471,661e456ee6de07e70aa9ef7b,66229da53eacbc84adff1163,,,,,,,,,,,,,,,,,,,,,,,,,,,,,,,,,,747.386,750.398,"[7,2,4,3,6,1,8,5]","[[0.3,0.2],[-0.3,0.2]]","[[-0.125,-0.2],[0.125,-0.2]]",0.128398792,-0.223564955,1,0,0,2.479,o2_image,750.399,1,750.886,750.886,752.888,0,0,0,0,1,,,,,,,,,,,,,,,,,,,,,,,,,,,,,,,,,,,,,,,,,,,,,,,,,,
,,5c5cad876d0fe50001f0390c,65,female,2024-04-19_17h37.17.449,stockport_simplified,2022.2.4,MacIntel,29.41176471,661e456ee6de07e70aa9ef7b,66229da53eacbc84adff1163,,,,,,,,,,,,,,,,,,,,,,,,,,,,,,,,,,,,,,,,,,,,,,,,,,,,,,,,1,58,118,42,1,B,X,N,o2_image,stimuli/out2.png,stimuli/out1.png,stimuli/correct_out2.png,,,,,,,,,,,,,,,,,,,,,,,,,,,,,,,,,,,,,,
,,5c5cad876d0fe50001f0390c,65,female,2024-04-19_17h37.17.449,stockport_simplified,2022.2.4,MacIntel,29.41176471,661e456ee6de07e70aa9ef7b,66229da53eacbc84adff1163,,,,,,,,,,,,,,,,,,,,,,,,,,,,,,,,,,752.891,755.116,"[7,2,4,3,6,1,8,5]","[[0.3,0.2],[-0.3,0.2]]","[[0.125,-0.2],[-0.125,-0.2]]",-0.114803625,-0.205438066,1,0,0,1.696,o2_image,755.117,1,755.619,755.619,757.619,0,0,0,0,1,,,,,,,,,,,,,,,,,,,,,,,,,,,,,,,,,,,,,,,,,,,,,,,,,,
,,5c5cad876d0fe50001f0390c,65,female,2024-04-19_17h37.17.449,stockport_simplified,2022.2.4,MacIntel,29.41176471,661e456ee6de07e70aa9ef7b,66229da53eacbc84adff1163,,,,,,,,,,,,,,,,,,,,,,,,,,,,,,,,,,,,,,,,,,,,,,,,,,,,,,,,1,59,119,56,1,N,M,D,o2_image,stimuli/out2.png,stimuli/out1.png,stimuli/correct_out2.png,,,,,,,,,,,,,,,,,,,,,,,,,,,,,,,,,,,,,,
,,5c5cad876d0fe50001f0390c,65,female,2024-04-19_17h37.17.449,stockport_simplified,2022.2.4,MacIntel,29.41176471,661e456ee6de07e70aa9ef7b,66229da53eacbc84adff1163,,,,,,,,,,,,,,,,,,,,,,,,,,,,,,,,,,757.71,760.256,"[7,2,4,3,6,1,8,5]","[[-0.3,0.2],[0.3,0.2]]","[[-0.125,-0.2],[0.125,-0.2]]",0.14652568,-0.222054381,1,0,0,2.036,o2_image,760.258,1,760.753,760.753,762.756,,,,,,,,,,,,,,,,,,0,0,0,0,1,,,,,,,,,,,,,,,,,,,,,,,,,,,,,,,,,
,,5c5cad876d0fe50001f0390c,65,female,2024-04-19_17h37.17.449,stockport_simplified,2022.2.4,MacIntel,29.41176471,661e456ee6de07e70aa9ef7b,66229da53eacbc84adff1163,,,,,,,,,,,,,,,,,,,,,,,,,,,,,,,,,,,,,,,,,,,,,,,,,,,,,,,,,,,,,B,X,N,o2_image,stimuli/out2.png,stimuli/out1.png,stimuli/correct_out2.png,,,,,,0,0,0,21,1,,,,,,,,,,,,,,,,,,,,,,,,,,,,
,,5c5cad876d0fe50001f0390c,65,female,2024-04-19_17h37.17.449,stockport_simplified,2022.2.4,MacIntel,29.41176471,661e456ee6de07e70aa9ef7b,66229da53eacbc84adff1163,,,,,,,,,,,,,,,,,,,,,,,,,,,,,,,,,,762.763,764.992,"[7,2,4,3,6,1,8,5]","[[-0.3,0.2],[0.3,0.2]]","[[0.125,-0.2],[-0.125,-0.2]]",0.128398792,-0.229607251,1,0,0,1.705,o1_image,764.993,1,765.505,765.505,767.487,,,,,,,,,,,,,,,,,,0,0,0,0,1,,,,,,,,,,,,,,,,,,,,,,,,,,,,,,,,,
,,5c5cad876d0fe50001f0390c,65,female,2024-04-19_17h37.17.449,stockport_simplified,2022.2.4,MacIntel,29.41176471,661e456ee6de07e70aa9ef7b,66229da53eacbc84adff1163,,,,,,,,,,,,,,,,,,,,,,,,,,,,,,,,,,,,,,,,,,,,,,,,,,,,,,,,,,,,,N,M,C,o1_image,stimuli/out1.png,stimuli/correct_out1.png,stimuli/out2.png,,,,,,0,1,1,42,1,,,,,,,,,,,,,,,,,,,,,,,,,,,,
,,5c5cad876d0fe50001f0390c,65,female,2024-04-19_17h37.17.449,stockport_simplified,2022.2.4,MacIntel,29.41176471,661e456ee6de07e70aa9ef7b,66229da53eacbc84adff1163,,,,,,,,,,,,,,,,,,,,,,,,,,,,,,,,,,767.49,769.709,"[7,2,4,3,6,1,8,5]","[[-0.3,0.2],[0.3,0.2]]","[[0.125,-0.2],[-0.125,-0.2]]",0.132930514,-0.240181269,1,0,0,1.688,o1_image,769.71,1,770.189,770.189,772.187,,,,,,,,,,,,,,,,,,0,0,0,0,1,,,,,,,,,,,,,,,,,,,,,,,,,,,,,,,,,
,,5c5cad876d0fe50001f0390c,65,female,2024-04-19_17h37.17.449,stockport_simplified,2022.2.4,MacIntel,29.41176471,661e456ee6de07e70aa9ef7b,66229da53eacbc84adff1163,,,,,,,,,,,,,,,,,,,,,,,,,,,,,,,,,,,,,,,,,,,,,,,,,,,,,,,,,,,,,N,M,C,o1_image,stimuli/out1.png,stimuli/correct_out1.png,stimuli/out2.png,,,,,,0,2,2,46,1,,,,,,,,,,,,,,,,,,,,,,,,,,,,
,,5c5cad876d0fe50001f0390c,65,female,2024-04-19_17h37.17.449,stockport_simplified,2022.2.4,MacIntel,29.41176471,661e456ee6de07e70aa9ef7b,66229da53eacbc84adff1163,,,,,,,,,,,,,,,,,,,,,,,,,,,,,,,,,,772.188,775.293,"[7,2,4,3,6,1,8,5]","[[0.3,0.2],[-0.3,0.2]]","[[-0.125,-0.2],[0.125,-0.2]]",-0.132930514,-0.222054381,1,0,0,2.571,o1_image,775.294,1,775.787,775.788,777.788,,,,,,,,,,,,,,,,,,0,0,0,0,1,,,,,,,,,,,,,,,,,,,,,,,,,,,,,,,,,
,,5c5cad876d0fe50001f0390c,65,female,2024-04-19_17h37.17.449,stockport_simplified,2022.2.4,MacIntel,29.41176471,661e456ee6de07e70aa9ef7b,66229da53eacbc84adff1163,,,,,,,,,,,,,,,,,,,,,,,,,,,,,,,,,,,,,,,,,,,,,,,,,,,,,,,,,,,,,A,X,N,o1_image,stimuli/out1.png,stimuli/correct_out1.png,stimuli/out2.png,,,,,,0,3,3,1,1,,,,,,,,,,,,,,,,,,,,,,,,,,,,
