counterbalance_2.started,counterbalance_2.stopped,participant,age,gender,date,expName,psychopyVersion,OS,frameRate,STUDY_ID,SESSION_ID,information_2.started,information_2.stopped,information_loop.thisRepN,information_loop.thisTrialN,information_loop.thisN,information_loop.thisIndex,information_loop.ran,information,consent_2.started,consent_2.stopped,slider_1.response,slider_2.response,slider_3.response,slider_4.response,slider_5.response,slider_6.response,instructions.started,instructions.stopped,task1_instr.thisRepN,task1_instr.thisTrialN,task1_instr.thisN,task1_instr.thisIndex,task1_instr.ran,task1,comprehension1_2.started,comprehension1_2.stopped,comp1_mouse.x,comp1_mouse.y,comp1_mouse.leftButton,comp1_mouse.midButton,comp1_mouse.rightButton,comp1_mouse.time,comp1_mouse.clicked_name,cue_o__trial_2.started,cue_o__trial_2.stopped,order,cue_order,out_order,cue_o_mouse.x,cue_o_mouse.y,cue_o_mouse.leftButton,cue_o_mouse.midButton,cue_o_mouse.rightButton,cue_o_mouse.time,cue_o_mouse.clicked_name,cue_selection_2.started,correct_answer,cue_selection_2.stopped,feedback_2.started,feedback_2.stopped,feedback_loop.thisRepN,feedback_loop.thisTrialN,feedback_loop.thisN,feedback_loop.thisIndex,feedback_loop.ran,stage1_trials.thisRepN,stage1_trials.thisTrialN,stage1_trials.thisN,stage1_trials.thisIndex,stage1_trials.ran,cue1,cue2,cue3,outcome,correct_out,o1_feedback,o2_feedback,stage2_feedback_loop.thisRepN,stage2_feedback_loop.thisTrialN,stage2_feedback_loop.thisN,stage2_feedback_loop.thisIndex,stage2_feedback_loop.ran,stage2_trials.thisRepN,stage2_trials.thisTrialN,stage2_trials.thisN,stage2_trials.thisIndex,stage2_trials.ran,stage3_feedback_loop.thisRepN,stage3_feedback_loop.thisTrialN,stage3_feedback_loop.thisN,stage3_feedback_loop.thisIndex,stage3_feedback_loop.ran,stage3_trials.thisRepN,stage3_trials.thisTrialN,stage3_trials.thisN,stage3_trials.thisIndex,stage3_trials.ran,debrief_2.started,debrief_2.stopped,debrief_loop.thisRepN,debrief_loop.thisTrialN,debrief_loop.thisN,debrief_loop.thisIndex,debrief_loop.ran,debrief_img,compr1_completed.thisRepN,compr1_completed.thisTrialN,compr1_completed.thisN,compr1_completed.thisIndex,compr1_completed.ran,consent_loop.thisRepN,consent_loop.thisTrialN,consent_loop.thisN,consent_loop.thisIndex,consent_loop.ran
0.0005,0.0008,63b6bfc861dd62d55125a428,42,male,2024-04-24_12h32.44.469,stockport_simplified,2022.2.4,Linux x86_64,4.285628573,661e456ee6de07e70aa9ef7b,6628df8aee7521f2090bf142,,,,,,,,,,,,,,,,,,,,,,,,,,,,,,,,,,,,,,,,,,,,,,,,,,,,,,,,,,,,,,,,,,,,,,,,,,,,,,,,,,,,,,,,,,,,,,,,,,,,,,,,,
,,63b6bfc861dd62d55125a428,42,male,2024-04-24_12h32.44.469,stockport_simplified,2022.2.4,Linux x86_64,4.285628573,661e456ee6de07e70aa9ef7b,6628df8aee7521f2090bf142,0.0259,14.7313,0,0,0,0,1,instructions/info1.png,,,,,,,,,,,,,,,,,,,,,,,,,,,,,,,,,,,,,,,,,,,,,,,,,,,,,,,,,,,,,,,,,,,,,,,,,,,,,,,,,,,,,,,,,,,,,,,,,
,,63b6bfc861dd62d55125a428,42,male,2024-04-24_12h32.44.469,stockport_simplified,2022.2.4,Linux x86_64,4.285628573,661e456ee6de07e70aa9ef7b,6628df8aee7521f2090bf142,14.7321,17.4513,0,1,1,1,1,instructions/info2.png,,,,,,,,,,,,,,,,,,,,,,,,,,,,,,,,,,,,,,,,,,,,,,,,,,,,,,,,,,,,,,,,,,,,,,,,,,,,,,,,,,,,,,,,,,,,,,,,,
,,63b6bfc861dd62d55125a428,42,male,2024-04-24_12h32.44.469,stockport_simplified,2022.2.4,Linux x86_64,4.285628573,661e456ee6de07e70aa9ef7b,6628df8aee7521f2090bf142,17.4515,35.7288,0,2,2,2,1,instructions/info3.png,,,,,,,,,,,,,,,,,,,,,,,,,,,,,,,,,,,,,,,,,,,,,,,,,,,,,,,,,,,,,,,,,,,,,,,,,,,,,,,,,,,,,,,,,,,,,,,,,
,,63b6bfc861dd62d55125a428,42,male,2024-04-24_12h32.44.469,stockport_simplified,2022.2.4,Linux x86_64,4.285628573,661e456ee6de07e70aa9ef7b,6628df8aee7521f2090bf142,,,,,,,,,35.7386,64.6746,1,1,1,1,1,1,,,,,,,,,,,,,,,,,,,,,,,,,,,,,,,,,,,,,,,,,,,,,,,,,,,,,,,,,,,,,,,,,,,,,,,,,,,,,,,,,,,,,,,,,
,,63b6bfc861dd62d55125a428,42,male,2024-04-24_12h32.44.469,stockport_simplified,2022.2.4,Linux x86_64,4.285628573,661e456ee6de07e70aa9ef7b,6628df8aee7521f2090bf142,,,,,,,,,,,,,,,,,64.6933,88.1666,0,0,0,0,1,instructions/task1_1.png,,,,,,,,,,,,,,,,,,,,,,,,,,,,,,,,,,,,,,,,,,,,,,,,,,,,,,,,,,,,,,,,,,,,,,,,,,,,,,,,,
,,63b6bfc861dd62d55125a428,42,male,2024-04-24_12h32.44.469,stockport_simplified,2022.2.4,Linux x86_64,4.285628573,661e456ee6de07e70aa9ef7b,6628df8aee7521f2090bf142,,,,,,,,,,,,,,,,,88.1751,104.4681,0,1,1,1,1,instructions/task1_2.png,,,,,,,,,,,,,,,,,,,,,,,,,,,,,,,,,,,,,,,,,,,,,,,,,,,,,,,,,,,,,,,,,,,,,,,,,,,,,,,,,
,,63b6bfc861dd62d55125a428,42,male,2024-04-24_12h32.44.469,stockport_simplified,2022.2.4,Linux x86_64,4.285628573,661e456ee6de07e70aa9ef7b,6628df8aee7521f2090bf142,,,,,,,,,,,,,,,,,104.477,138.1795,0,2,2,2,1,instructions/task1_3.png,,,,,,,,,,,,,,,,,,,,,,,,,,,,,,,,,,,,,,,,,,,,,,,,,,,,,,,,,,,,,,,,,,,,,,,,,,,,,,,,,
,,63b6bfc861dd62d55125a428,42,male,2024-04-24_12h32.44.469,stockport_simplified,2022.2.4,Linux x86_64,4.285628573,661e456ee6de07e70aa9ef7b,6628df8aee7521f2090bf142,,,,,,,,,,,,,,,,,,,,,,,,,138.1802,159.5286,0.001966568,-0.328908555,1,0,0,21.3476,comp1_resp1,159.5678,163.8304,"[7,3,6,2,4,8,1,5]","[[-0.3,0.2],[0.3,0.2]]","[[0.125,-0.2],[-0.125,-0.2]]",0.142576205,-0.220747296,1,0,0,3.6043,o1_image,163.8413,0,164.267,164.2671,166.2618,0,0,0,0,1,,,,,,,,,,,,,,,,,,,,,,,,,,,,,,,,,,,,,,,,,,,,,,,,,,
,,63b6bfc861dd62d55125a428,42,male,2024-04-24_12h32.44.469,stockport_simplified,2022.2.4,Linux x86_64,4.285628573,661e456ee6de07e70aa9ef7b,6628df8aee7521f2090bf142,,,,,,,,,,,,,,,,,,,,,,,,,,,,,,,,,,,,,,,,,,,,,,,,,,,,,,,,0,0,0,12,1,B,X,N,o2_image,stimuli/out2.png,stimuli/out1.png,stimuli/correct_out2.png,,,,,,,,,,,,,,,,,,,,,,,,,,,,,,,,,,,,,,
,,63b6bfc861dd62d55125a428,42,male,2024-04-24_12h32.44.469,stockport_simplified,2022.2.4,Linux x86_64,4.285628573,661e456ee6de07e70aa9ef7b,6628df8aee7521f2090bf142,,,,,,,,,,,,,,,,,,,,,,,,,,,,,,,,,,166.2624,168.7151,"[7,3,6,2,4,8,1,5]","[[0.3,0.2],[-0.3,0.2]]","[[0.125,-0.2],[-0.125,-0.2]]",0.131760079,-0.166666667,1,0,0,1.7869,o1_image,168.7165,0,169.0961,169.0962,170.9305,0,0,0,0,1,,,,,,,,,,,,,,,,,,,,,,,,,,,,,,,,,,,,,,,,,,,,,,,,,,
,,63b6bfc861dd62d55125a428,42,male,2024-04-24_12h32.44.469,stockport_simplified,2022.2.4,Linux x86_64,4.285628573,661e456ee6de07e70aa9ef7b,6628df8aee7521f2090bf142,,,,,,,,,,,,,,,,,,,,,,,,,,,,,,,,,,,,,,,,,,,,,,,,,,,,,,,,0,1,1,45,1,B,Y,N,o2_image,stimuli/out2.png,stimuli/out1.png,stimuli/correct_out2.png,,,,,,,,,,,,,,,,,,,,,,,,,,,,,,,,,,,,,,
,,63b6bfc861dd62d55125a428,42,male,2024-04-24_12h32.44.469,stockport_simplified,2022.2.4,Linux x86_64,4.285628573,661e456ee6de07e70aa9ef7b,6628df8aee7521f2090bf142,,,,,,,,,,,,,,,,,,,,,,,,,,,,,,,,,,170.9309,173.4318,"[7,3,6,2,4,8,1,5]","[[0.3,0.2],[-0.3,0.2]]","[[0.125,-0.2],[-0.125,-0.2]]",-0.103244838,-0.203048181,1,0,0,1.8533,o2_image,173.4329,1,173.8359,173.8359,175.6825,0,0,0,0,1,,,,,,,,,,,,,,,,,,,,,,,,,,,,,,,,,,,,,,,,,,,,,,,,,,
,,63b6bfc861dd62d55125a428,42,male,2024-04-24_12h32.44.469,stockport_simplified,2022.2.4,Linux x86_64,4.285628573,661e456ee6de07e70aa9ef7b,6628df8aee7521f2090bf142,,,,,,,,,,,,,,,,,,,,,,,,,,,,,,,,,,,,,,,,,,,,,,,,,,,,,,,,0,2,2,25,1,N,M,D,o2_image,stimuli/out2.png,stimuli/out1.png,stimuli/correct_out2.png,,,,,,,,,,,,,,,,,,,,,,,,,,,,,,,,,,,,,,
,,63b6bfc861dd62d55125a428,42,male,2024-04-24_12h32.44.469,stockport_simplified,2022.2.4,Linux x86_64,4.285628573,661e456ee6de07e70aa9ef7b,6628df8aee7521f2090bf142,,,,,,,,,,,,,,,,,,,,,,,,,,,,,,,,,,175.6832,185.5542,"[7,3,6,2,4,8,1,5]","[[0.3,0.2],[-0.3,0.2]]","[[-0.125,-0.2],[0.125,-0.2]]",0.1366765,-0.15093412,1,0,0,9.2349,o2_image,185.5619,0,185.8705,185.8705,187.6578,0,0,0,0,1,,,,,,,,,,,,,,,,,,,,,,,,,,,,,,,,,,,,,,,,,,,,,,,,,,
,,63b6bfc861dd62d55125a428,42,male,2024-04-24_12h32.44.469,stockport_simplified,2022.2.4,Linux x86_64,4.285628573,661e456ee6de07e70aa9ef7b,6628df8aee7521f2090bf142,,,,,,,,,,,,,,,,,,,,,,,,,,,,,,,,,,,,,,,,,,,,,,,,,,,,,,,,0,3,3,21,1,N,M,C,o1_image,stimuli/out1.png,stimuli/correct_out1.png,stimuli/out2.png,,,,,,,,,,,,,,,,,,,,,,,,,,,,,,,,,,,,,,
,,63b6bfc861dd62d55125a428,42,male,2024-04-24_12h32.44.469,stockport_simplified,2022.2.4,Linux x86_64,4.285628573,661e456ee6de07e70aa9ef7b,6628df8aee7521f2090bf142,,,,,,,,,,,,,,,,,,,,,,,,,,,,,,,,,,187.6583,190.5936,"[7,3,6,2,4,8,1,5]","[[-0.3,0.2],[0.3,0.2]]","[[-0.125,-0.2],[0.125,-0.2]]",0.118977384,-0.215830875,1,0,0,2.4002,o2_image,190.5942,0,190.8879,190.8879,192.7391,0,0,0,0,1,,,,,,,,,,,,,,,,,,,,,,,,,,,,,,,,,,,,,,,,,,,,,,,,,,
,,63b6bfc861dd62d55125a428,42,male,2024-04-24_12h32.44.469,stockport_simplified,2022.2.4,Linux x86_64,4.285628573,661e456ee6de07e70aa9ef7b,6628df8aee7521f2090bf142,,,,,,,,,,,,,,,,,,,,,,,,,,,,,,,,,,,,,,,,,,,,,,,,,,,,,,,,0,4,4,54,1,N,M,C,o1_image,stimuli/out1.png,stimuli/correct_out1.png,stimuli/out2.png,,,,,,,,,,,,,,,,,,,,,,,,,,,,,,,,,,,,,,
,,63b6bfc861dd62d55125a428,42,male,2024-04-24_12h32.44.469,stockport_simplified,2022.2.4,Linux x86_64,4.285628573,661e456ee6de07e70aa9ef7b,6628df8aee7521f2090bf142,,,,,,,,,,,,,,,,,,,,,,,,,,,,,,,,,,192.7395,196.7257,"[7,3,6,2,4,8,1,5]","[[0.3,0.2],[-0.3,0.2]]","[[0.125,-0.2],[-0.125,-0.2]]",-0.132743363,-0.202064897,1,0,0,3.2402,o2_image,196.7333,1,197.0587,197.0587,198.8881,0,0,0,0,1,,,,,,,,,,,,,,,,,,,,,,,,,,,,,,,,,,,,,,,,,,,,,,,,,,
,,63b6bfc861dd62d55125a428,42,male,2024-04-24_12h32.44.469,stockport_simplified,2022.2.4,Linux x86_64,4.285628573,661e456ee6de07e70aa9ef7b,6628df8aee7521f2090bf142,,,,,,,,,,,,,,,,,,,,,,,,,,,,,,,,,,,,,,,,,,,,,,,,,,,,,,,,0,5,5,43,1,B,X,N,o2_image,stimuli/out2.png,stimuli/out1.png,stimuli/correct_out2.png,,,,,,,,,,,,,,,,,,,,,,,,,,,,,,,,,,,,,,
,,63b6bfc861dd62d55125a428,42,male,2024-04-24_12h32.44.469,stockport_simplified,2022.2.4,Linux x86_64,4.285628573,661e456ee6de07e70aa9ef7b,6628df8aee7521f2090bf142,,,,,,,,,,,,,,,,,,,,,,,,,,,,,,,,,,198.8886,202.6011,"[7,3,6,2,4,8,1,5]","[[0.3,0.2],[-0.3,0.2]]","[[-0.125,-0.2],[0.125,-0.2]]",0.133726647,-0.196165192,1,0,0,2.9953,o2_image,202.6022,0,202.9339,202.934,205.0228,0,0,0,0,1,,,,,,,,,,,,,,,,,,,,,,,,,,,,,,,,,,,,,,,,,,,,,,,,,,
,,63b6bfc861dd62d55125a428,42,male,2024-04-24_12h32.44.469,stockport_simplified,2022.2.4,Linux x86_64,4.285628573,661e456ee6de07e70aa9ef7b,6628df8aee7521f2090bf142,,,,,,,,,,,,,,,,,,,,,,,,,,,,,,,,,,,,,,,,,,,,,,,,,,,,,,,,0,6,6,1,1,A,X,N,o1_image,stimuli/out1.png,stimuli/correct_out1.png,stimuli/out2.png,,,,,,,,,,,,,,,,,,,,,,,,,,,,,,,,,,,,,,
,,63b6bfc861dd62d55125a428,42,male,2024-04-24_12h32.44.469,stockport_simplified,2022.2.4,Linux x86_64,4.285628573,661e456ee6de07e70aa9ef7b,6628df8aee7521f2090bf142,,,,,,,,,,,,,,,,,,,,,,,,,,,,,,,,,,205.0233,208.9393,"[7,3,6,2,4,8,1,5]","[[-0.3,0.2],[0.3,0.2]]","[[-0.125,-0.2],[0.125,-0.2]]",0.124877089,-0.156833825,1,0,0,3.3745,o2_image,208.9403,1,209.2401,209.2401,211.0092,0,0,0,0,1,,,,,,,,,,,,,,,,,,,,,,,,,,,,,,,,,,,,,,,,,,,,,,,,,,
,,63b6bfc861dd62d55125a428,42,male,2024-04-24_12h32.44.469,stockport_simplified,2022.2.4,Linux x86_64,4.285628573,661e456ee6de07e70aa9ef7b,6628df8aee7521f2090bf142,,,,,,,,,,,,,,,,,,,,,,,,,,,,,,,,,,,,,,,,,,,,,,,,,,,,,,,,0,7,7,42,1,B,X,N,o2_image,stimuli/out2.png,stimuli/out1.png,stimuli/correct_out2.png,,,,,,,,,,,,,,,,,,,,,,,,,,,,,,,,,,,,,,
,,63b6bfc861dd62d55125a428,42,male,2024-04-24_12h32.44.469,stockport_simplified,2022.2.4,Linux x86_64,4.285628573,661e456ee6de07e70aa9ef7b,6628df8aee7521f2090bf142,,,,,,,,,,,,,,,,,,,,,,,,,,,,,,,,,,211.0097,214.888,"[7,3,6,2,4,8,1,5]","[[-0.3,0.2],[0.3,0.2]]","[[0.125,-0.2],[-0.125,-0.2]]",-0.117010816,-0.168633235,1,0,0,3.3411,o2_image,214.8959,0,215.2298,215.2299,217.0925,0,0,0,0,1,,,,,,,,,,,,,,,,,,,,,,,,,,,,,,,,,,,,,,,,,,,,,,,,,,
,,63b6bfc861dd62d55125a428,42,male,2024-04-24_12h32.44.469,stockport_simplified,2022.2.4,Linux x86_64,4.285628573,661e456ee6de07e70aa9ef7b,6628df8aee7521f2090bf142,,,,,,,,,,,,,,,,,,,,,,,,,,,,,,,,,,,,,,,,,,,,,,,,,,,,,,,,0,8,8,52,1,N,M,C,o1_image,stimuli/out1.png,stimuli/correct_out1.png,stimuli/out2.png,,,,,,,,,,,,,,,,,,,,,,,,,,,,,,,,,,,,,,
,,63b6bfc861dd62d55125a428,42,male,2024-04-24_12h32.44.469,stockport_simplified,2022.2.4,Linux x86_64,4.285628573,661e456ee6de07e70aa9ef7b,6628df8aee7521f2090bf142,,,,,,,,,,,,,,,,,,,,,,,,,,,,,,,,,,217.0929,219.7491,"[7,3,6,2,4,8,1,5]","[[0.3,0.2],[-0.3,0.2]]","[[-0.125,-0.2],[0.125,-0.2]]",0.090462144,-0.172566372,1,0,0,2.126,o2_image,219.7499,0,220.0533,220.0533,221.9277,0,0,0,0,1,,,,,,,,,,,,,,,,,,,,,,,,,,,,,,,,,,,,,,,,,,,,,,,,,,
,,63b6bfc861dd62d55125a428,42,male,2024-04-24_12h32.44.469,stockport_simplified,2022.2.4,Linux x86_64,4.285628573,661e456ee6de07e70aa9ef7b,6628df8aee7521f2090bf142,,,,,,,,,,,,,,,,,,,,,,,,,,,,,,,,,,,,,,,,,,,,,,,,,,,,,,,,0,9,9,33,1,A,X,N,o1_image,stimuli/out1.png,stimuli/correct_out1.png,stimuli/out2.png,,,,,,,,,,,,,,,,,,,,,,,,,,,,,,,,,,,,,,
,,63b6bfc861dd62d55125a428,42,male,2024-04-24_12h32.44.469,stockport_simplified,2022.2.4,Linux x86_64,4.285628573,661e456ee6de07e70aa9ef7b,6628df8aee7521f2090bf142,,,,,,,,,,,,,,,,,,,,,,,,,,,,,,,,,,221.928,226.2946,"[7,3,6,2,4,8,1,5]","[[-0.3,0.2],[0.3,0.2]]","[[-0.125,-0.2],[0.125,-0.2]]",-0.113077679,-0.180432645,1,0,0,3.8552,o1_image,226.295,1,226.5974,226.5974,228.3987,0,0,0,0,1,,,,,,,,,,,,,,,,,,,,,,,,,,,,,,,,,,,,,,,,,,,,,,,,,,
,,63b6bfc861dd62d55125a428,42,male,2024-04-24_12h32.44.469,stockport_simplified,2022.2.4,Linux x86_64,4.285628573,661e456ee6de07e70aa9ef7b,6628df8aee7521f2090bf142,,,,,,,,,,,,,,,,,,,,,,,,,,,,,,,,,,,,,,,,,,,,,,,,,,,,,,,,0,10,10,23,1,N,M,C,o1_image,stimuli/out1.png,stimuli/correct_out1.png,stimuli/out2.png,,,,,,,,,,,,,,,,,,,,,,,,,,,,,,,,,,,,,,
,,63b6bfc861dd62d55125a428,42,male,2024-04-24_12h32.44.469,stockport_simplified,2022.2.4,Linux x86_64,4.285628573,661e456ee6de07e70aa9ef7b,6628df8aee7521f2090bf142,,,,,,,,,,,,,,,,,,,,,,,,,,,,,,,,,,228.3991,232.3748,"[7,3,6,2,4,8,1,5]","[[0.3,0.2],[-0.3,0.2]]","[[-0.125,-0.2],[0.125,-0.2]]",-0.121927237,-0.180432645,1,0,0,3.4139,o1_image,232.3844,0,232.6868,232.6869,234.566,0,0,0,0,1,,,,,,,,,,,,,,,,,,,,,,,,,,,,,,,,,,,,,,,,,,,,,,,,,,
,,63b6bfc861dd62d55125a428,42,male,2024-04-24_12h32.44.469,stockport_simplified,2022.2.4,Linux x86_64,4.285628573,661e456ee6de07e70aa9ef7b,6628df8aee7521f2090bf142,,,,,,,,,,,,,,,,,,,,,,,,,,,,,,,,,,,,,,,,,,,,,,,,,,,,,,,,0,11,11,28,1,N,M,D,o2_image,stimuli/out2.png,stimuli/out1.png,stimuli/correct_out2.png,,,,,,,,,,,,,,,,,,,,,,,,,,,,,,,,,,,,,,
,,63b6bfc861dd62d55125a428,42,male,2024-04-24_12h32.44.469,stockport_simplified,2022.2.4,Linux x86_64,4.285628573,661e456ee6de07e70aa9ef7b,6628df8aee7521f2090bf142,,,,,,,,,,,,,,,,,,,,,,,,,,,,,,,,,,234.5666,238.279,"[7,3,6,2,4,8,1,5]","[[0.3,0.2],[-0.3,0.2]]","[[-0.125,-0.2],[0.125,-0.2]]",0.119960669,-0.175516224,1,0,0,3.1781,o2_image,238.2795,1,238.7178,238.7178,240.7999,0,0,0,0,1,,,,,,,,,,,,,,,,,,,,,,,,,,,,,,,,,,,,,,,,,,,,,,,,,,
,,63b6bfc861dd62d55125a428,42,male,2024-04-24_12h32.44.469,stockport_simplified,2022.2.4,Linux x86_64,4.285628573,661e456ee6de07e70aa9ef7b,6628df8aee7521f2090bf142,,,,,,,,,,,,,,,,,,,,,,,,,,,,,,,,,,,,,,,,,,,,,,,,,,,,,,,,0,12,12,40,1,B,X,N,o2_image,stimuli/out2.png,stimuli/out1.png,stimuli/correct_out2.png,,,,,,,,,,,,,,,,,,,,,,,,,,,,,,,,,,,,,,
,,63b6bfc861dd62d55125a428,42,male,2024-04-24_12h32.44.469,stockport_simplified,2022.2.4,Linux x86_64,4.285628573,661e456ee6de07e70aa9ef7b,6628df8aee7521f2090bf142,,,,,,,,,,,,,,,,,,,,,,,,,,,,,,,,,,240.8002,244.3956,"[7,3,6,2,4,8,1,5]","[[-0.3,0.2],[0.3,0.2]]","[[0.125,-0.2],[-0.125,-0.2]]",-0.126843658,-0.158800393,1,0,0,3.0705,o2_image,244.3964,0,244.6942,244.6942,246.6399,0,0,0,0,1,,,,,,,,,,,,,,,,,,,,,,,,,,,,,,,,,,,,,,,,,,,,,,,,,,
,,63b6bfc861dd62d55125a428,42,male,2024-04-24_12h32.44.469,stockport_simplified,2022.2.4,Linux x86_64,4.285628573,661e456ee6de07e70aa9ef7b,6628df8aee7521f2090bf142,,,,,,,,,,,,,,,,,,,,,,,,,,,,,,,,,,,,,,,,,,,,,,,,,,,,,,,,0,13,13,6,1,A,Y,N,o1_image,stimuli/out1.png,stimuli/correct_out1.png,stimuli/out2.png,,,,,,,,,,,,,,,,,,,,,,,,,,,,,,,,,,,,,,
,,63b6bfc861dd62d55125a428,42,male,2024-04-24_12h32.44.469,stockport_simplified,2022.2.4,Linux x86_64,4.285628573,661e456ee6de07e70aa9ef7b,6628df8aee7521f2090bf142,,,,,,,,,,,,,,,,,,,,,,,,,,,,,,,,,,246.6404,252.9758,"[7,3,6,2,4,8,1,5]","[[-0.3,0.2],[0.3,0.2]]","[[0.125,-0.2],[-0.125,-0.2]]",0.127826942,-0.183382498,1,0,0,5.8331,o1_image,252.9845,0,253.2988,253.2989,255.32,0,0,0,0,1,,,,,,,,,,,,,,,,,,,,,,,,,,,,,,,,,,,,,,,,,,,,,,,,,,
,,63b6bfc861dd62d55125a428,42,male,2024-04-24_12h32.44.469,stockport_simplified,2022.2.4,Linux x86_64,4.285628573,661e456ee6de07e70aa9ef7b,6628df8aee7521f2090bf142,,,,,,,,,,,,,,,,,,,,,,,,,,,,,,,,,,,,,,,,,,,,,,,,,,,,,,,,0,14,14,19,1,B,Y,N,o2_image,stimuli/out2.png,stimuli/out1.png,stimuli/correct_out2.png,,,,,,,,,,,,,,,,,,,,,,,,,,,,,,,,,,,,,,
,,63b6bfc861dd62d55125a428,42,male,2024-04-24_12h32.44.469,stockport_simplified,2022.2.4,Linux x86_64,4.285628573,661e456ee6de07e70aa9ef7b,6628df8aee7521f2090bf142,,,,,,,,,,,,,,,,,,,,,,,,,,,,,,,,,,255.3204,259.8483,"[7,3,6,2,4,8,1,5]","[[-0.3,0.2],[0.3,0.2]]","[[0.125,-0.2],[-0.125,-0.2]]",-0.115044248,-0.189282203,1,0,0,3.9816,o2_image,259.8561,1,260.1469,260.147,262.164,0,0,0,0,1,,,,,,,,,,,,,,,,,,,,,,,,,,,,,,,,,,,,,,,,,,,,,,,,,,
,,63b6bfc861dd62d55125a428,42,male,2024-04-24_12h32.44.469,stockport_simplified,2022.2.4,Linux x86_64,4.285628573,661e456ee6de07e70aa9ef7b,6628df8aee7521f2090bf142,,,,,,,,,,,,,,,,,,,,,,,,,,,,,,,,,,,,,,,,,,,,,,,,,,,,,,,,0,15,15,27,1,N,M,D,o2_image,stimuli/out2.png,stimuli/out1.png,stimuli/correct_out2.png,,,,,,,,,,,,,,,,,,,,,,,,,,,,,,,,,,,,,,
,,63b6bfc861dd62d55125a428,42,male,2024-04-24_12h32.44.469,stockport_simplified,2022.2.4,Linux x86_64,4.285628573,661e456ee6de07e70aa9ef7b,6628df8aee7521f2090bf142,,,,,,,,,,,,,,,,,,,,,,,,,,,,,,,,,,262.1644,267.4492,"[7,3,6,2,4,8,1,5]","[[0.3,0.2],[-0.3,0.2]]","[[-0.125,-0.2],[0.125,-0.2]]",-0.146509341,-0.171583088,1,0,0,4.7601,o1_image,267.458,1,267.7848,267.7848,269.5697,0,0,0,0,1,,,,,,,,,,,,,,,,,,,,,,,,,,,,,,,,,,,,,,,,,,,,,,,,,,
,,63b6bfc861dd62d55125a428,42,male,2024-04-24_12h32.44.469,stockport_simplified,2022.2.4,Linux x86_64,4.285628573,661e456ee6de07e70aa9ef7b,6628df8aee7521f2090bf142,,,,,,,,,,,,,,,,,,,,,,,,,,,,,,,,,,,,,,,,,,,,,,,,,,,,,,,,0,16,16,35,1,A,Y,N,o1_image,stimuli/out1.png,stimuli/correct_out1.png,stimuli/out2.png,,,,,,,,,,,,,,,,,,,,,,,,,,,,,,,,,,,,,,
,,63b6bfc861dd62d55125a428,42,male,2024-04-24_12h32.44.469,stockport_simplified,2022.2.4,Linux x86_64,4.285628573,661e456ee6de07e70aa9ef7b,6628df8aee7521f2090bf142,,,,,,,,,,,,,,,,,,,,,,,,,,,,,,,,,,269.5701,271.7549,"[7,3,6,2,4,8,1,5]","[[0.3,0.2],[-0.3,0.2]]","[[-0.125,-0.2],[0.125,-0.2]]",-0.1366765,-0.180432645,1,0,0,1.6455,o1_image,271.7562,0,272.1622,272.1622,274.0075,0,0,0,0,1,,,,,,,,,,,,,,,,,,,,,,,,,,,,,,,,,,,,,,,,,,,,,,,,,,
,,63b6bfc861dd62d55125a428,42,male,2024-04-24_12h32.44.469,stockport_simplified,2022.2.4,Linux x86_64,4.285628573,661e456ee6de07e70aa9ef7b,6628df8aee7521f2090bf142,,,,,,,,,,,,,,,,,,,,,,,,,,,,,,,,,,,,,,,,,,,,,,,,,,,,,,,,0,17,17,14,1,B,X,N,o2_image,stimuli/out2.png,stimuli/out1.png,stimuli/correct_out2.png,,,,,,,,,,,,,,,,,,,,,,,,,,,,,,,,,,,,,,
,,63b6bfc861dd62d55125a428,42,male,2024-04-24_12h32.44.469,stockport_simplified,2022.2.4,Linux x86_64,4.285628573,661e456ee6de07e70aa9ef7b,6628df8aee7521f2090bf142,,,,,,,,,,,,,,,,,,,,,,,,,,,,,,,,,,274.0078,277.8962,"[7,3,6,2,4,8,1,5]","[[0.3,0.2],[-0.3,0.2]]","[[-0.125,-0.2],[0.125,-0.2]]",-0.097345133,-0.190265487,1,0,0,3.3702,o1_image,277.8967,0,278.1846,278.1846,279.9826,0,0,0,0,1,,,,,,,,,,,,,,,,,,,,,,,,,,,,,,,,,,,,,,,,,,,,,,,,,,
,,63b6bfc861dd62d55125a428,42,male,2024-04-24_12h32.44.469,stockport_simplified,2022.2.4,Linux x86_64,4.285628573,661e456ee6de07e70aa9ef7b,6628df8aee7521f2090bf142,,,,,,,,,,,,,,,,,,,,,,,,,,,,,,,,,,,,,,,,,,,,,,,,,,,,,,,,0,18,18,29,1,N,M,D,o2_image,stimuli/out2.png,stimuli/out1.png,stimuli/correct_out2.png,,,,,,,,,,,,,,,,,,,,,,,,,,,,,,,,,,,,,,
,,63b6bfc861dd62d55125a428,42,male,2024-04-24_12h32.44.469,stockport_simplified,2022.2.4,Linux x86_64,4.285628573,661e456ee6de07e70aa9ef7b,6628df8aee7521f2090bf142,,,,,,,,,,,,,,,,,,,,,,,,,,,,,,,,,,279.9828,285.4676,"[7,3,6,2,4,8,1,5]","[[-0.3,0.2],[0.3,0.2]]","[[0.125,-0.2],[-0.125,-0.2]]",0.133726647,-0.192232055,1,0,0,4.7439,o1_image,285.4753,0,285.7885,285.7886,287.5639,0,0,0,0,1,,,,,,,,,,,,,,,,,,,,,,,,,,,,,,,,,,,,,,,,,,,,,,,,,,
,,63b6bfc861dd62d55125a428,42,male,2024-04-24_12h32.44.469,stockport_simplified,2022.2.4,Linux x86_64,4.285628573,661e456ee6de07e70aa9ef7b,6628df8aee7521f2090bf142,,,,,,,,,,,,,,,,,,,,,,,,,,,,,,,,,,,,,,,,,,,,,,,,,,,,,,,,0,19,19,46,1,B,Y,N,o2_image,stimuli/out2.png,stimuli/out1.png,stimuli/correct_out2.png,,,,,,,,,,,,,,,,,,,,,,,,,,,,,,,,,,,,,,
,,63b6bfc861dd62d55125a428,42,male,2024-04-24_12h32.44.469,stockport_simplified,2022.2.4,Linux x86_64,4.285628573,661e456ee6de07e70aa9ef7b,6628df8aee7521f2090bf142,,,,,,,,,,,,,,,,,,,,,,,,,,,,,,,,,,287.5644,291.4466,"[7,3,6,2,4,8,1,5]","[[-0.3,0.2],[0.3,0.2]]","[[-0.125,-0.2],[0.125,-0.2]]",0.123893805,-0.193215339,1,0,0,3.3805,o2_image,291.4542,0,292.0551,292.0551,293.944,0,0,0,0,1,,,,,,,,,,,,,,,,,,,,,,,,,,,,,,,,,,,,,,,,,,,,,,,,,,
,,63b6bfc861dd62d55125a428,42,male,2024-04-24_12h32.44.469,stockport_simplified,2022.2.4,Linux x86_64,4.285628573,661e456ee6de07e70aa9ef7b,6628df8aee7521f2090bf142,,,,,,,,,,,,,,,,,,,,,,,,,,,,,,,,,,,,,,,,,,,,,,,,,,,,,,,,0,20,20,32,1,A,X,N,o1_image,stimuli/out1.png,stimuli/correct_out1.png,stimuli/out2.png,,,,,,,,,,,,,,,,,,,,,,,,,,,,,,,,,,,,,,
,,63b6bfc861dd62d55125a428,42,male,2024-04-24_12h32.44.469,stockport_simplified,2022.2.4,Linux x86_64,4.285628573,661e456ee6de07e70aa9ef7b,6628df8aee7521f2090bf142,,,,,,,,,,,,,,,,,,,,,,,,,,,,,,,,,,293.9443,298.6947,"[7,3,6,2,4,8,1,5]","[[-0.3,0.2],[0.3,0.2]]","[[-0.125,-0.2],[0.125,-0.2]]",-0.128810226,-0.204031465,1,0,0,4.1822,o1_image,298.6954,1,299.0858,299.0858,300.9363,0,0,0,0,1,,,,,,,,,,,,,,,,,,,,,,,,,,,,,,,,,,,,,,,,,,,,,,,,,,
,,63b6bfc861dd62d55125a428,42,male,2024-04-24_12h32.44.469,stockport_simplified,2022.2.4,Linux x86_64,4.285628573,661e456ee6de07e70aa9ef7b,6628df8aee7521f2090bf142,,,,,,,,,,,,,,,,,,,,,,,,,,,,,,,,,,,,,,,,,,,,,,,,,,,,,,,,0,21,21,8,1,A,Y,N,o1_image,stimuli/out1.png,stimuli/correct_out1.png,stimuli/out2.png,,,,,,,,,,,,,,,,,,,,,,,,,,,,,,,,,,,,,,
,,63b6bfc861dd62d55125a428,42,male,2024-04-24_12h32.44.469,stockport_simplified,2022.2.4,Linux x86_64,4.285628573,661e456ee6de07e70aa9ef7b,6628df8aee7521f2090bf142,,,,,,,,,,,,,,,,,,,,,,,,,,,,,,,,,,300.9368,305.1865,"[7,3,6,2,4,8,1,5]","[[0.3,0.2],[-0.3,0.2]]","[[0.125,-0.2],[-0.125,-0.2]]",-0.128810226,-0.204031465,1,0,0,3.4821,o2_image,305.1873,0,305.4891,305.4892,307.5187,0,0,0,0,1,,,,,,,,,,,,,,,,,,,,,,,,,,,,,,,,,,,,,,,,,,,,,,,,,,
,,63b6bfc861dd62d55125a428,42,male,2024-04-24_12h32.44.469,stockport_simplified,2022.2.4,Linux x86_64,4.285628573,661e456ee6de07e70aa9ef7b,6628df8aee7521f2090bf142,,,,,,,,,,,,,,,,,,,,,,,,,,,,,,,,,,,,,,,,,,,,,,,,,,,,,,,,0,22,22,2,1,A,X,N,o1_image,stimuli/out1.png,stimuli/correct_out1.png,stimuli/out2.png,,,,,,,,,,,,,,,,,,,,,,,,,,,,,,,,,,,,,,
,,63b6bfc861dd62d55125a428,42,male,2024-04-24_12h32.44.469,stockport_simplified,2022.2.4,Linux x86_64,4.285628573,661e456ee6de07e70aa9ef7b,6628df8aee7521f2090bf142,,,,,,,,,,,,,,,,,,,,,,,,,,,,,,,,,,307.5191,311.1647,"[7,3,6,2,4,8,1,5]","[[-0.3,0.2],[0.3,0.2]]","[[-0.125,-0.2],[0.125,-0.2]]",0.128810226,-0.192232055,1,0,0,3.0774,o2_image,311.1759,1,311.5135,311.5135,313.3618,0,0,0,0,1,,,,,,,,,,,,,,,,,,,,,,,,,,,,,,,,,,,,,,,,,,,,,,,,,,
,,63b6bfc861dd62d55125a428,42,male,2024-04-24_12h32.44.469,stockport_simplified,2022.2.4,Linux x86_64,4.285628573,661e456ee6de07e70aa9ef7b,6628df8aee7521f2090bf142,,,,,,,,,,,,,,,,,,,,,,,,,,,,,,,,,,,,,,,,,,,,,,,,,,,,,,,,0,23,23,18,1,B,Y,N,o2_image,stimuli/out2.png,stimuli/out1.png,stimuli/correct_out2.png,,,,,,,,,,,,,,,,,,,,,,,,,,,,,,,,,,,,,,
,,63b6bfc861dd62d55125a428,42,male,2024-04-24_12h32.44.469,stockport_simplified,2022.2.4,Linux x86_64,4.285628573,661e456ee6de07e70aa9ef7b,6628df8aee7521f2090bf142,,,,,,,,,,,,,,,,,,,,,,,,,,,,,,,,,,313.3622,317.7678,"[7,3,6,2,4,8,1,5]","[[-0.3,0.2],[0.3,0.2]]","[[-0.125,-0.2],[0.125,-0.2]]",-0.10619469,-0.191248771,1,0,0,3.6249,o1_image,317.77,1,318.072,318.0721,320.1546,0,0,0,0,1,,,,,,,,,,,,,,,,,,,,,,,,,,,,,,,,,,,,,,,,,,,,,,,,,,
,,63b6bfc861dd62d55125a428,42,male,2024-04-24_12h32.44.469,stockport_simplified,2022.2.4,Linux x86_64,4.285628573,661e456ee6de07e70aa9ef7b,6628df8aee7521f2090bf142,,,,,,,,,,,,,,,,,,,,,,,,,,,,,,,,,,,,,,,,,,,,,,,,,,,,,,,,0,24,24,22,1,N,M,C,o1_image,stimuli/out1.png,stimuli/correct_out1.png,stimuli/out2.png,,,,,,,,,,,,,,,,,,,,,,,,,,,,,,,,,,,,,,
,,63b6bfc861dd62d55125a428,42,male,2024-04-24_12h32.44.469,stockport_simplified,2022.2.4,Linux x86_64,4.285628573,661e456ee6de07e70aa9ef7b,6628df8aee7521f2090bf142,,,,,,,,,,,,,,,,,,,,,,,,,,,,,,,,,,320.155,323.2693,"[7,3,6,2,4,8,1,5]","[[-0.3,0.2],[0.3,0.2]]","[[0.125,-0.2],[-0.125,-0.2]]",0.133726647,-0.182399213,1,0,0,2.6134,o1_image,323.2785,1,323.5756,323.5756,325.3565,0,0,0,0,1,,,,,,,,,,,,,,,,,,,,,,,,,,,,,,,,,,,,,,,,,,,,,,,,,,
,,63b6bfc861dd62d55125a428,42,male,2024-04-24_12h32.44.469,stockport_simplified,2022.2.4,Linux x86_64,4.285628573,661e456ee6de07e70aa9ef7b,6628df8aee7521f2090bf142,,,,,,,,,,,,,,,,,,,,,,,,,,,,,,,,,,,,,,,,,,,,,,,,,,,,,,,,0,25,25,20,1,N,M,C,o1_image,stimuli/out1.png,stimuli/correct_out1.png,stimuli/out2.png,,,,,,,,,,,,,,,,,,,,,,,,,,,,,,,,,,,,,,
,,63b6bfc861dd62d55125a428,42,male,2024-04-24_12h32.44.469,stockport_simplified,2022.2.4,Linux x86_64,4.285628573,661e456ee6de07e70aa9ef7b,6628df8aee7521f2090bf142,,,,,,,,,,,,,,,,,,,,,,,,,,,,,,,,,,325.357,330.3974,"[7,3,6,2,4,8,1,5]","[[0.3,0.2],[-0.3,0.2]]","[[-0.125,-0.2],[0.125,-0.2]]",-0.124877089,-0.172566372,1,0,0,4.5166,o1_image,330.3978,0,330.7191,330.7191,332.5119,0,0,0,0,1,,,,,,,,,,,,,,,,,,,,,,,,,,,,,,,,,,,,,,,,,,,,,,,,,,
,,63b6bfc861dd62d55125a428,42,male,2024-04-24_12h32.44.469,stockport_simplified,2022.2.4,Linux x86_64,4.285628573,661e456ee6de07e70aa9ef7b,6628df8aee7521f2090bf142,,,,,,,,,,,,,,,,,,,,,,,,,,,,,,,,,,,,,,,,,,,,,,,,,,,,,,,,0,26,26,16,1,B,Y,N,o2_image,stimuli/out2.png,stimuli/out1.png,stimuli/correct_out2.png,,,,,,,,,,,,,,,,,,,,,,,,,,,,,,,,,,,,,,
,,63b6bfc861dd62d55125a428,42,male,2024-04-24_12h32.44.469,stockport_simplified,2022.2.4,Linux x86_64,4.285628573,661e456ee6de07e70aa9ef7b,6628df8aee7521f2090bf142,,,,,,,,,,,,,,,,,,,,,,,,,,,,,,,,,,332.5127,336.9778,"[7,3,6,2,4,8,1,5]","[[0.3,0.2],[-0.3,0.2]]","[[-0.125,-0.2],[0.125,-0.2]]",-0.125860374,-0.19813176,1,0,0,3.9287,o1_image,336.9882,1,337.2797,337.2797,339.0609,0,0,0,0,1,,,,,,,,,,,,,,,,,,,,,,,,,,,,,,,,,,,,,,,,,,,,,,,,,,
,,63b6bfc861dd62d55125a428,42,male,2024-04-24_12h32.44.469,stockport_simplified,2022.2.4,Linux x86_64,4.285628573,661e456ee6de07e70aa9ef7b,6628df8aee7521f2090bf142,,,,,,,,,,,,,,,,,,,,,,,,,,,,,,,,,,,,,,,,,,,,,,,,,,,,,,,,0,27,27,38,1,A,Y,N,o1_image,stimuli/out1.png,stimuli/correct_out1.png,stimuli/out2.png,,,,,,,,,,,,,,,,,,,,,,,,,,,,,,,,,,,,,,
,,63b6bfc861dd62d55125a428,42,male,2024-04-24_12h32.44.469,stockport_simplified,2022.2.4,Linux x86_64,4.285628573,661e456ee6de07e70aa9ef7b,6628df8aee7521f2090bf142,,,,,,,,,,,,,,,,,,,,,,,,,,,,,,,,,,339.0614,341.2964,"[7,3,6,2,4,8,1,5]","[[-0.3,0.2],[0.3,0.2]]","[[0.125,-0.2],[-0.125,-0.2]]",-0.125860374,-0.19813176,1,0,0,1.7257,o2_image,341.2971,1,341.612,341.612,343.3989,0,0,0,0,1,,,,,,,,,,,,,,,,,,,,,,,,,,,,,,,,,,,,,,,,,,,,,,,,,,
,,63b6bfc861dd62d55125a428,42,male,2024-04-24_12h32.44.469,stockport_simplified,2022.2.4,Linux x86_64,4.285628573,661e456ee6de07e70aa9ef7b,6628df8aee7521f2090bf142,,,,,,,,,,,,,,,,,,,,,,,,,,,,,,,,,,,,,,,,,,,,,,,,,,,,,,,,0,28,28,55,1,N,M,D,o2_image,stimuli/out2.png,stimuli/out1.png,stimuli/correct_out2.png,,,,,,,,,,,,,,,,,,,,,,,,,,,,,,,,,,,,,,
,,63b6bfc861dd62d55125a428,42,male,2024-04-24_12h32.44.469,stockport_simplified,2022.2.4,Linux x86_64,4.285628573,661e456ee6de07e70aa9ef7b,6628df8aee7521f2090bf142,,,,,,,,,,,,,,,,,,,,,,,,,,,,,,,,,,343.3992,347.873,"[7,3,6,2,4,8,1,5]","[[-0.3,0.2],[0.3,0.2]]","[[0.125,-0.2],[-0.125,-0.2]]",-0.168141593,-0.192232055,1,0,0,3.9296,o2_image,347.8741,0,348.1927,348.1927,350.0544,0,0,0,0,1,,,,,,,,,,,,,,,,,,,,,,,,,,,,,,,,,,,,,,,,,,,,,,,,,,
,,63b6bfc861dd62d55125a428,42,male,2024-04-24_12h32.44.469,stockport_simplified,2022.2.4,Linux x86_64,4.285628573,661e456ee6de07e70aa9ef7b,6628df8aee7521f2090bf142,,,,,,,,,,,,,,,,,,,,,,,,,,,,,,,,,,,,,,,,,,,,,,,,,,,,,,,,0,29,29,3,1,A,X,N,o1_image,stimuli/out1.png,stimuli/correct_out1.png,stimuli/out2.png,,,,,,,,,,,,,,,,,,,,,,,,,,,,,,,,,,,,,,
,,63b6bfc861dd62d55125a428,42,male,2024-04-24_12h32.44.469,stockport_simplified,2022.2.4,Linux x86_64,4.285628573,661e456ee6de07e70aa9ef7b,6628df8aee7521f2090bf142,,,,,,,,,,,,,,,,,,,,,,,,,,,,,,,,,,350.055,354.1984,"[7,3,6,2,4,8,1,5]","[[-0.3,0.2],[0.3,0.2]]","[[-0.125,-0.2],[0.125,-0.2]]",0.114060964,-0.182399213,1,0,0,3.628,o2_image,354.1988,1,354.4951,354.4952,356.5324,0,0,0,0,1,,,,,,,,,,,,,,,,,,,,,,,,,,,,,,,,,,,,,,,,,,,,,,,,,,
,,63b6bfc861dd62d55125a428,42,male,2024-04-24_12h32.44.469,stockport_simplified,2022.2.4,Linux x86_64,4.285628573,661e456ee6de07e70aa9ef7b,6628df8aee7521f2090bf142,,,,,,,,,,,,,,,,,,,,,,,,,,,,,,,,,,,,,,,,,,,,,,,,,,,,,,,,0,30,30,26,1,N,M,D,o2_image,stimuli/out2.png,stimuli/out1.png,stimuli/correct_out2.png,,,,,,,,,,,,,,,,,,,,,,,,,,,,,,,,,,,,,,
,,63b6bfc861dd62d55125a428,42,male,2024-04-24_12h32.44.469,stockport_simplified,2022.2.4,Linux x86_64,4.285628573,661e456ee6de07e70aa9ef7b,6628df8aee7521f2090bf142,,,,,,,,,,,,,,,,,,,,,,,,,,,,,,,,,,356.5328,362.5699,"[7,3,6,2,4,8,1,5]","[[0.3,0.2],[-0.3,0.2]]","[[0.125,-0.2],[-0.125,-0.2]]",-0.097345133,-0.178466077,1,0,0,5.5317,o2_image,362.5772,1,362.96,362.9601,364.7801,0,0,0,0,1,,,,,,,,,,,,,,,,,,,,,,,,,,,,,,,,,,,,,,,,,,,,,,,,,,
,,63b6bfc861dd62d55125a428,42,male,2024-04-24_12h32.44.469,stockport_simplified,2022.2.4,Linux x86_64,4.285628573,661e456ee6de07e70aa9ef7b,6628df8aee7521f2090bf142,,,,,,,,,,,,,,,,,,,,,,,,,,,,,,,,,,,,,,,,,,,,,,,,,,,,,,,,0,31,31,11,1,B,X,N,o2_image,stimuli/out2.png,stimuli/out1.png,stimuli/correct_out2.png,,,,,,,,,,,,,,,,,,,,,,,,,,,,,,,,,,,,,,
,,63b6bfc861dd62d55125a428,42,male,2024-04-24_12h32.44.469,stockport_simplified,2022.2.4,Linux x86_64,4.285628573,661e456ee6de07e70aa9ef7b,6628df8aee7521f2090bf142,,,,,,,,,,,,,,,,,,,,,,,,,,,,,,,,,,364.7807,367.4189,"[7,3,6,2,4,8,1,5]","[[-0.3,0.2],[0.3,0.2]]","[[0.125,-0.2],[-0.125,-0.2]]",-0.099311701,-0.172566372,1,0,0,2.076,o2_image,367.4192,0,367.7139,367.7139,369.8091,0,0,0,0,1,,,,,,,,,,,,,,,,,,,,,,,,,,,,,,,,,,,,,,,,,,,,,,,,,,
,,63b6bfc861dd62d55125a428,42,male,2024-04-24_12h32.44.469,stockport_simplified,2022.2.4,Linux x86_64,4.285628573,661e456ee6de07e70aa9ef7b,6628df8aee7521f2090bf142,,,,,,,,,,,,,,,,,,,,,,,,,,,,,,,,,,,,,,,,,,,,,,,,,,,,,,,,0,32,32,30,1,A,X,N,o1_image,stimuli/out1.png,stimuli/correct_out1.png,stimuli/out2.png,,,,,,,,,,,,,,,,,,,,,,,,,,,,,,,,,,,,,,
,,63b6bfc861dd62d55125a428,42,male,2024-04-24_12h32.44.469,stockport_simplified,2022.2.4,Linux x86_64,4.285628573,661e456ee6de07e70aa9ef7b,6628df8aee7521f2090bf142,,,,,,,,,,,,,,,,,,,,,,,,,,,,,,,,,,369.8095,374.6093,"[7,3,6,2,4,8,1,5]","[[-0.3,0.2],[0.3,0.2]]","[[-0.125,-0.2],[0.125,-0.2]]",0.1366765,-0.190265487,1,0,0,4.0498,o2_image,374.6168,1,374.9291,374.9291,377.0201,0,0,0,0,1,,,,,,,,,,,,,,,,,,,,,,,,,,,,,,,,,,,,,,,,,,,,,,,,,,
,,63b6bfc861dd62d55125a428,42,male,2024-04-24_12h32.44.469,stockport_simplified,2022.2.4,Linux x86_64,4.285628573,661e456ee6de07e70aa9ef7b,6628df8aee7521f2090bf142,,,,,,,,,,,,,,,,,,,,,,,,,,,,,,,,,,,,,,,,,,,,,,,,,,,,,,,,0,33,33,44,1,B,X,N,o2_image,stimuli/out2.png,stimuli/out1.png,stimuli/correct_out2.png,,,,,,,,,,,,,,,,,,,,,,,,,,,,,,,,,,,,,,
,,63b6bfc861dd62d55125a428,42,male,2024-04-24_12h32.44.469,stockport_simplified,2022.2.4,Linux x86_64,4.285628573,661e456ee6de07e70aa9ef7b,6628df8aee7521f2090bf142,,,,,,,,,,,,,,,,,,,,,,,,,,,,,,,,,,377.0206,380.729,"[7,3,6,2,4,8,1,5]","[[-0.3,0.2],[0.3,0.2]]","[[-0.125,-0.2],[0.125,-0.2]]",-0.185840708,-0.178466077,1,0,0,3.1412,o1_image,380.7296,0,381.0447,381.0447,382.8561,0,0,0,0,1,,,,,,,,,,,,,,,,,,,,,,,,,,,,,,,,,,,,,,,,,,,,,,,,,,
,,63b6bfc861dd62d55125a428,42,male,2024-04-24_12h32.44.469,stockport_simplified,2022.2.4,Linux x86_64,4.285628573,661e456ee6de07e70aa9ef7b,6628df8aee7521f2090bf142,,,,,,,,,,,,,,,,,,,,,,,,,,,,,,,,,,,,,,,,,,,,,,,,,,,,,,,,0,34,34,57,1,N,M,D,o2_image,stimuli/out2.png,stimuli/out1.png,stimuli/correct_out2.png,,,,,,,,,,,,,,,,,,,,,,,,,,,,,,,,,,,,,,
,,63b6bfc861dd62d55125a428,42,male,2024-04-24_12h32.44.469,stockport_simplified,2022.2.4,Linux x86_64,4.285628573,661e456ee6de07e70aa9ef7b,6628df8aee7521f2090bf142,,,,,,,,,,,,,,,,,,,,,,,,,,,,,,,,,,382.8564,387.3747,"[7,3,6,2,4,8,1,5]","[[0.3,0.2],[-0.3,0.2]]","[[0.125,-0.2],[-0.125,-0.2]]",-0.120943953,-0.170599803,1,0,0,3.7819,o2_image,387.3829,0,387.7112,387.7112,389.7068,0,0,0,0,1,,,,,,,,,,,,,,,,,,,,,,,,,,,,,,,,,,,,,,,,,,,,,,,,,,
,,63b6bfc861dd62d55125a428,42,male,2024-04-24_12h32.44.469,stockport_simplified,2022.2.4,Linux x86_64,4.285628573,661e456ee6de07e70aa9ef7b,6628df8aee7521f2090bf142,,,,,,,,,,,,,,,,,,,,,,,,,,,,,,,,,,,,,,,,,,,,,,,,,,,,,,,,0,35,35,5,1,A,Y,N,o1_image,stimuli/out1.png,stimuli/correct_out1.png,stimuli/out2.png,,,,,,,,,,,,,,,,,,,,,,,,,,,,,,,,,,,,,,
,,63b6bfc861dd62d55125a428,42,male,2024-04-24_12h32.44.469,stockport_simplified,2022.2.4,Linux x86_64,4.285628573,661e456ee6de07e70aa9ef7b,6628df8aee7521f2090bf142,,,,,,,,,,,,,,,,,,,,,,,,,,,,,,,,,,389.7072,393.7585,"[7,3,6,2,4,8,1,5]","[[0.3,0.2],[-0.3,0.2]]","[[-0.125,-0.2],[0.125,-0.2]]",-0.114060964,-0.183382498,1,0,0,3.5007,o1_image,393.7592,1,394.0606,394.0607,396.0971,0,0,0,0,1,,,,,,,,,,,,,,,,,,,,,,,,,,,,,,,,,,,,,,,,,,,,,,,,,,
,,63b6bfc861dd62d55125a428,42,male,2024-04-24_12h32.44.469,stockport_simplified,2022.2.4,Linux x86_64,4.285628573,661e456ee6de07e70aa9ef7b,6628df8aee7521f2090bf142,,,,,,,,,,,,,,,,,,,,,,,,,,,,,,,,,,,,,,,,,,,,,,,,,,,,,,,,0,36,36,9,1,A,Y,N,o1_image,stimuli/out1.png,stimuli/correct_out1.png,stimuli/out2.png,,,,,,,,,,,,,,,,,,,,,,,,,,,,,,,,,,,,,,
,,63b6bfc861dd62d55125a428,42,male,2024-04-24_12h32.44.469,stockport_simplified,2022.2.4,Linux x86_64,4.285628573,661e456ee6de07e70aa9ef7b,6628df8aee7521f2090bf142,,,,,,,,,,,,,,,,,,,,,,,,,,,,,,,,,,396.0974,399.2236,"[7,3,6,2,4,8,1,5]","[[-0.3,0.2],[0.3,0.2]]","[[-0.125,-0.2],[0.125,-0.2]]",0.138643068,-0.205014749,1,0,0,2.3805,o2_image,399.2243,1,399.5253,399.5253,401.3349,0,0,0,0,1,,,,,,,,,,,,,,,,,,,,,,,,,,,,,,,,,,,,,,,,,,,,,,,,,,
,,63b6bfc861dd62d55125a428,42,male,2024-04-24_12h32.44.469,stockport_simplified,2022.2.4,Linux x86_64,4.285628573,661e456ee6de07e70aa9ef7b,6628df8aee7521f2090bf142,,,,,,,,,,,,,,,,,,,,,,,,,,,,,,,,,,,,,,,,,,,,,,,,,,,,,,,,0,37,37,17,1,B,Y,N,o2_image,stimuli/out2.png,stimuli/out1.png,stimuli/correct_out2.png,,,,,,,,,,,,,,,,,,,,,,,,,,,,,,,,,,,,,,
,,63b6bfc861dd62d55125a428,42,male,2024-04-24_12h32.44.469,stockport_simplified,2022.2.4,Linux x86_64,4.285628573,661e456ee6de07e70aa9ef7b,6628df8aee7521f2090bf142,,,,,,,,,,,,,,,,,,,,,,,,,,,,,,,,,,401.3352,405.9483,"[7,3,6,2,4,8,1,5]","[[-0.3,0.2],[0.3,0.2]]","[[-0.125,-0.2],[0.125,-0.2]]",0.1366765,-0.195181908,1,0,0,4.0992,o2_image,405.9575,1,406.2994,406.2994,408.3823,0,0,0,0,1,,,,,,,,,,,,,,,,,,,,,,,,,,,,,,,,,,,,,,,,,,,,,,,,,,
,,63b6bfc861dd62d55125a428,42,male,2024-04-24_12h32.44.469,stockport_simplified,2022.2.4,Linux x86_64,4.285628573,661e456ee6de07e70aa9ef7b,6628df8aee7521f2090bf142,,,,,,,,,,,,,,,,,,,,,,,,,,,,,,,,,,,,,,,,,,,,,,,,,,,,,,,,0,38,38,56,1,N,M,D,o2_image,stimuli/out2.png,stimuli/out1.png,stimuli/correct_out2.png,,,,,,,,,,,,,,,,,,,,,,,,,,,,,,,,,,,,,,
,,63b6bfc861dd62d55125a428,42,male,2024-04-24_12h32.44.469,stockport_simplified,2022.2.4,Linux x86_64,4.285628573,661e456ee6de07e70aa9ef7b,6628df8aee7521f2090bf142,,,,,,,,,,,,,,,,,,,,,,,,,,,,,,,,,,408.3828,413.8154,"[7,3,6,2,4,8,1,5]","[[-0.3,0.2],[0.3,0.2]]","[[0.125,-0.2],[-0.125,-0.2]]",-0.105211406,-0.179449361,1,0,0,4.8792,o2_image,413.8231,1,414.1245,414.1245,415.9421,0,0,0,0,1,,,,,,,,,,,,,,,,,,,,,,,,,,,,,,,,,,,,,,,,,,,,,,,,,,
,,63b6bfc861dd62d55125a428,42,male,2024-04-24_12h32.44.469,stockport_simplified,2022.2.4,Linux x86_64,4.285628573,661e456ee6de07e70aa9ef7b,6628df8aee7521f2090bf142,,,,,,,,,,,,,,,,,,,,,,,,,,,,,,,,,,,,,,,,,,,,,,,,,,,,,,,,0,39,39,13,1,B,X,N,o2_image,stimuli/out2.png,stimuli/out1.png,stimuli/correct_out2.png,,,,,,,,,,,,,,,,,,,,,,,,,,,,,,,,,,,,,,
,,63b6bfc861dd62d55125a428,42,male,2024-04-24_12h32.44.469,stockport_simplified,2022.2.4,Linux x86_64,4.285628573,661e456ee6de07e70aa9ef7b,6628df8aee7521f2090bf142,,,,,,,,,,,,,,,,,,,,,,,,,,,,,,,,,,415.9426,421.0576,"[7,3,6,2,4,8,1,5]","[[0.3,0.2],[-0.3,0.2]]","[[-0.125,-0.2],[0.125,-0.2]]",-0.126843658,-0.203048181,1,0,0,4.3601,o1_image,421.0661,1,421.3633,421.3634,423.1949,0,0,0,0,1,,,,,,,,,,,,,,,,,,,,,,,,,,,,,,,,,,,,,,,,,,,,,,,,,,
,,63b6bfc861dd62d55125a428,42,male,2024-04-24_12h32.44.469,stockport_simplified,2022.2.4,Linux x86_64,4.285628573,661e456ee6de07e70aa9ef7b,6628df8aee7521f2090bf142,,,,,,,,,,,,,,,,,,,,,,,,,,,,,,,,,,,,,,,,,,,,,,,,,,,,,,,,0,40,40,39,1,A,Y,N,o1_image,stimuli/out1.png,stimuli/correct_out1.png,stimuli/out2.png,,,,,,,,,,,,,,,,,,,,,,,,,,,,,,,,,,,,,,
,,63b6bfc861dd62d55125a428,42,male,2024-04-24_12h32.44.469,stockport_simplified,2022.2.4,Linux x86_64,4.285628573,661e456ee6de07e70aa9ef7b,6628df8aee7521f2090bf142,,,,,,,,,,,,,,,,,,,,,,,,,,,,,,,,,,423.1953,427.9481,"[7,3,6,2,4,8,1,5]","[[0.3,0.2],[-0.3,0.2]]","[[-0.125,-0.2],[0.125,-0.2]]",-0.126843658,-0.203048181,1,0,0,4.2287,o1_image,427.956,1,428.2477,428.2477,430.103,0,0,0,0,1,,,,,,,,,,,,,,,,,,,,,,,,,,,,,,,,,,,,,,,,,,,,,,,,,,
,,63b6bfc861dd62d55125a428,42,male,2024-04-24_12h32.44.469,stockport_simplified,2022.2.4,Linux x86_64,4.285628573,661e456ee6de07e70aa9ef7b,6628df8aee7521f2090bf142,,,,,,,,,,,,,,,,,,,,,,,,,,,,,,,,,,,,,,,,,,,,,,,,,,,,,,,,0,41,41,0,1,A,X,N,o1_image,stimuli/out1.png,stimuli/correct_out1.png,stimuli/out2.png,,,,,,,,,,,,,,,,,,,,,,,,,,,,,,,,,,,,,,
,,63b6bfc861dd62d55125a428,42,male,2024-04-24_12h32.44.469,stockport_simplified,2022.2.4,Linux x86_64,4.285628573,661e456ee6de07e70aa9ef7b,6628df8aee7521f2090bf142,,,,,,,,,,,,,,,,,,,,,,,,,,,,,,,,,,430.1033,434.1157,"[7,3,6,2,4,8,1,5]","[[-0.3,0.2],[0.3,0.2]]","[[0.125,-0.2],[-0.125,-0.2]]",0.181907571,-0.190265487,1,0,0,3.2279,o1_image,434.1162,1,434.3981,434.3981,436.4082,0,0,0,0,1,,,,,,,,,,,,,,,,,,,,,,,,,,,,,,,,,,,,,,,,,,,,,,,,,,
,,63b6bfc861dd62d55125a428,42,male,2024-04-24_12h32.44.469,stockport_simplified,2022.2.4,Linux x86_64,4.285628573,661e456ee6de07e70aa9ef7b,6628df8aee7521f2090bf142,,,,,,,,,,,,,,,,,,,,,,,,,,,,,,,,,,,,,,,,,,,,,,,,,,,,,,,,0,42,42,34,1,A,X,N,o1_image,stimuli/out1.png,stimuli/correct_out1.png,stimuli/out2.png,,,,,,,,,,,,,,,,,,,,,,,,,,,,,,,,,,,,,,
,,63b6bfc861dd62d55125a428,42,male,2024-04-24_12h32.44.469,stockport_simplified,2022.2.4,Linux x86_64,4.285628573,661e456ee6de07e70aa9ef7b,6628df8aee7521f2090bf142,,,,,,,,,,,,,,,,,,,,,,,,,,,,,,,,,,436.4089,442.5105,"[7,3,6,2,4,8,1,5]","[[0.3,0.2],[-0.3,0.2]]","[[-0.125,-0.2],[0.125,-0.2]]",-0.119960669,-0.202064897,1,0,0,5.5824,o1_image,442.5194,1,442.8551,442.8551,444.7912,0,0,0,0,1,,,,,,,,,,,,,,,,,,,,,,,,,,,,,,,,,,,,,,,,,,,,,,,,,,
,,63b6bfc861dd62d55125a428,42,male,2024-04-24_12h32.44.469,stockport_simplified,2022.2.4,Linux x86_64,4.285628573,661e456ee6de07e70aa9ef7b,6628df8aee7521f2090bf142,,,,,,,,,,,,,,,,,,,,,,,,,,,,,,,,,,,,,,,,,,,,,,,,,,,,,,,,0,43,43,53,1,N,M,C,o1_image,stimuli/out1.png,stimuli/correct_out1.png,stimuli/out2.png,,,,,,,,,,,,,,,,,,,,,,,,,,,,,,,,,,,,,,
,,63b6bfc861dd62d55125a428,42,male,2024-04-24_12h32.44.469,stockport_simplified,2022.2.4,Linux x86_64,4.285628573,661e456ee6de07e70aa9ef7b,6628df8aee7521f2090bf142,,,,,,,,,,,,,,,,,,,,,,,,,,,,,,,,,,444.7918,448.738,"[7,3,6,2,4,8,1,5]","[[-0.3,0.2],[0.3,0.2]]","[[0.125,-0.2],[-0.125,-0.2]]",-0.119960669,-0.202064897,1,0,0,3.4021,o2_image,448.7493,1,449.0594,449.0594,451.0953,0,0,0,0,1,,,,,,,,,,,,,,,,,,,,,,,,,,,,,,,,,,,,,,,,,,,,,,,,,,
,,63b6bfc861dd62d55125a428,42,male,2024-04-24_12h32.44.469,stockport_simplified,2022.2.4,Linux x86_64,4.285628573,661e456ee6de07e70aa9ef7b,6628df8aee7521f2090bf142,,,,,,,,,,,,,,,,,,,,,,,,,,,,,,,,,,,,,,,,,,,,,,,,,,,,,,,,0,44,44,15,1,B,Y,N,o2_image,stimuli/out2.png,stimuli/out1.png,stimuli/correct_out2.png,,,,,,,,,,,,,,,,,,,,,,,,,,,,,,,,,,,,,,
,,63b6bfc861dd62d55125a428,42,male,2024-04-24_12h32.44.469,stockport_simplified,2022.2.4,Linux x86_64,4.285628573,661e456ee6de07e70aa9ef7b,6628df8aee7521f2090bf142,,,,,,,,,,,,,,,,,,,,,,,,,,,,,,,,,,451.0958,455.3144,"[7,3,6,2,4,8,1,5]","[[-0.3,0.2],[0.3,0.2]]","[[-0.125,-0.2],[0.125,-0.2]]",-0.119960669,-0.202064897,1,0,0,3.4389,o1_image,455.319,0,455.6071,455.6072,457.4244,0,0,0,0,1,,,,,,,,,,,,,,,,,,,,,,,,,,,,,,,,,,,,,,,,,,,,,,,,,,
,,63b6bfc861dd62d55125a428,42,male,2024-04-24_12h32.44.469,stockport_simplified,2022.2.4,Linux x86_64,4.285628573,661e456ee6de07e70aa9ef7b,6628df8aee7521f2090bf142,,,,,,,,,,,,,,,,,,,,,,,,,,,,,,,,,,,,,,,,,,,,,,,,,,,,,,,,0,45,45,49,1,B,Y,N,o2_image,stimuli/out2.png,stimuli/out1.png,stimuli/correct_out2.png,,,,,,,,,,,,,,,,,,,,,,,,,,,,,,,,,,,,,,
,,63b6bfc861dd62d55125a428,42,male,2024-04-24_12h32.44.469,stockport_simplified,2022.2.4,Linux x86_64,4.285628573,661e456ee6de07e70aa9ef7b,6628df8aee7521f2090bf142,,,,,,,,,,,,,,,,,,,,,,,,,,,,,,,,,,457.4249,462.0843,"[7,3,6,2,4,8,1,5]","[[0.3,0.2],[-0.3,0.2]]","[[-0.125,-0.2],[0.125,-0.2]]",0.127826942,-0.200098328,1,0,0,4.1455,o2_image,462.0945,0,462.3811,462.3811,464.1814,0,0,0,0,1,,,,,,,,,,,,,,,,,,,,,,,,,,,,,,,,,,,,,,,,,,,,,,,,,,
,,63b6bfc861dd62d55125a428,42,male,2024-04-24_12h32.44.469,stockport_simplified,2022.2.4,Linux x86_64,4.285628573,661e456ee6de07e70aa9ef7b,6628df8aee7521f2090bf142,,,,,,,,,,,,,,,,,,,,,,,,,,,,,,,,,,,,,,,,,,,,,,,,,,,,,,,,0,46,46,36,1,A,Y,N,o1_image,stimuli/out1.png,stimuli/correct_out1.png,stimuli/out2.png,,,,,,,,,,,,,,,,,,,,,,,,,,,,,,,,,,,,,,
,,63b6bfc861dd62d55125a428,42,male,2024-04-24_12h32.44.469,stockport_simplified,2022.2.4,Linux x86_64,4.285628573,661e456ee6de07e70aa9ef7b,6628df8aee7521f2090bf142,,,,,,,,,,,,,,,,,,,,,,,,,,,,,,,,,,464.182,468.9742,"[7,3,6,2,4,8,1,5]","[[0.3,0.2],[-0.3,0.2]]","[[0.125,-0.2],[-0.125,-0.2]]",0.14847591,-0.185349066,1,0,0,4.2735,o1_image,468.9812,1,469.2625,469.2625,471.0574,0,0,0,0,1,,,,,,,,,,,,,,,,,,,,,,,,,,,,,,,,,,,,,,,,,,,,,,,,,,
,,63b6bfc861dd62d55125a428,42,male,2024-04-24_12h32.44.469,stockport_simplified,2022.2.4,Linux x86_64,4.285628573,661e456ee6de07e70aa9ef7b,6628df8aee7521f2090bf142,,,,,,,,,,,,,,,,,,,,,,,,,,,,,,,,,,,,,,,,,,,,,,,,,,,,,,,,0,47,47,31,1,A,X,N,o1_image,stimuli/out1.png,stimuli/correct_out1.png,stimuli/out2.png,,,,,,,,,,,,,,,,,,,,,,,,,,,,,,,,,,,,,,
,,63b6bfc861dd62d55125a428,42,male,2024-04-24_12h32.44.469,stockport_simplified,2022.2.4,Linux x86_64,4.285628573,661e456ee6de07e70aa9ef7b,6628df8aee7521f2090bf142,,,,,,,,,,,,,,,,,,,,,,,,,,,,,,,,,,471.0581,475.418,"[7,3,6,2,4,8,1,5]","[[0.3,0.2],[-0.3,0.2]]","[[0.125,-0.2],[-0.125,-0.2]]",-0.12979351,-0.180432645,1,0,0,3.6298,o2_image,475.4183,1,475.7286,475.7286,477.7651,0,0,0,0,1,,,,,,,,,,,,,,,,,,,,,,,,,,,,,,,,,,,,,,,,,,,,,,,,,,
,,63b6bfc861dd62d55125a428,42,male,2024-04-24_12h32.44.469,stockport_simplified,2022.2.4,Linux x86_64,4.285628573,661e456ee6de07e70aa9ef7b,6628df8aee7521f2090bf142,,,,,,,,,,,,,,,,,,,,,,,,,,,,,,,,,,,,,,,,,,,,,,,,,,,,,,,,0,48,48,41,1,B,X,N,o2_image,stimuli/out2.png,stimuli/out1.png,stimuli/correct_out2.png,,,,,,,,,,,,,,,,,,,,,,,,,,,,,,,,,,,,,,
,,63b6bfc861dd62d55125a428,42,male,2024-04-24_12h32.44.469,stockport_simplified,2022.2.4,Linux x86_64,4.285628573,661e456ee6de07e70aa9ef7b,6628df8aee7521f2090bf142,,,,,,,,,,,,,,,,,,,,,,,,,,,,,,,,,,477.7656,480.7272,"[7,3,6,2,4,8,1,5]","[[-0.3,0.2],[0.3,0.2]]","[[-0.125,-0.2],[0.125,-0.2]]",-0.12979351,-0.180432645,1,0,0,2.2341,o1_image,480.7279,0,481.0395,481.0395,482.8195,0,0,0,0,1,,,,,,,,,,,,,,,,,,,,,,,,,,,,,,,,,,,,,,,,,,,,,,,,,,
,,63b6bfc861dd62d55125a428,42,male,2024-04-24_12h32.44.469,stockport_simplified,2022.2.4,Linux x86_64,4.285628573,661e456ee6de07e70aa9ef7b,6628df8aee7521f2090bf142,,,,,,,,,,,,,,,,,,,,,,,,,,,,,,,,,,,,,,,,,,,,,,,,,,,,,,,,0,49,49,59,1,N,M,D,o2_image,stimuli/out2.png,stimuli/out1.png,stimuli/correct_out2.png,,,,,,,,,,,,,,,,,,,,,,,,,,,,,,,,,,,,,,
,,63b6bfc861dd62d55125a428,42,male,2024-04-24_12h32.44.469,stockport_simplified,2022.2.4,Linux x86_64,4.285628573,661e456ee6de07e70aa9ef7b,6628df8aee7521f2090bf142,,,,,,,,,,,,,,,,,,,,,,,,,,,,,,,,,,482.8197,487.5151,"[7,3,6,2,4,8,1,5]","[[0.3,0.2],[-0.3,0.2]]","[[0.125,-0.2],[-0.125,-0.2]]",-0.115044248,-0.172566372,1,0,0,4.1589,o2_image,487.5237,0,487.8515,487.8515,489.6722,0,0,0,0,1,,,,,,,,,,,,,,,,,,,,,,,,,,,,,,,,,,,,,,,,,,,,,,,,,,
,,63b6bfc861dd62d55125a428,42,male,2024-04-24_12h32.44.469,stockport_simplified,2022.2.4,Linux x86_64,4.285628573,661e456ee6de07e70aa9ef7b,6628df8aee7521f2090bf142,,,,,,,,,,,,,,,,,,,,,,,,,,,,,,,,,,,,,,,,,,,,,,,,,,,,,,,,0,50,50,7,1,A,Y,N,o1_image,stimuli/out1.png,stimuli/correct_out1.png,stimuli/out2.png,,,,,,,,,,,,,,,,,,,,,,,,,,,,,,,,,,,,,,
,,63b6bfc861dd62d55125a428,42,male,2024-04-24_12h32.44.469,stockport_simplified,2022.2.4,Linux x86_64,4.285628573,661e456ee6de07e70aa9ef7b,6628df8aee7521f2090bf142,,,,,,,,,,,,,,,,,,,,,,,,,,,,,,,,,,489.6729,492.5763,"[7,3,6,2,4,8,1,5]","[[0.3,0.2],[-0.3,0.2]]","[[-0.125,-0.2],[0.125,-0.2]]",-0.093411996,-0.210914454,1,0,0,2.1765,o1_image,492.5768,1,492.9166,492.9166,494.8964,0,0,0,0,1,,,,,,,,,,,,,,,,,,,,,,,,,,,,,,,,,,,,,,,,,,,,,,,,,,
,,63b6bfc861dd62d55125a428,42,male,2024-04-24_12h32.44.469,stockport_simplified,2022.2.4,Linux x86_64,4.285628573,661e456ee6de07e70aa9ef7b,6628df8aee7521f2090bf142,,,,,,,,,,,,,,,,,,,,,,,,,,,,,,,,,,,,,,,,,,,,,,,,,,,,,,,,0,51,51,50,1,N,M,C,o1_image,stimuli/out1.png,stimuli/correct_out1.png,stimuli/out2.png,,,,,,,,,,,,,,,,,,,,,,,,,,,,,,,,,,,,,,
,,63b6bfc861dd62d55125a428,42,male,2024-04-24_12h32.44.469,stockport_simplified,2022.2.4,Linux x86_64,4.285628573,661e456ee6de07e70aa9ef7b,6628df8aee7521f2090bf142,,,,,,,,,,,,,,,,,,,,,,,,,,,,,,,,,,494.8969,499.2672,"[7,3,6,2,4,8,1,5]","[[-0.3,0.2],[0.3,0.2]]","[[0.125,-0.2],[-0.125,-0.2]]",0.114060964,-0.184365782,1,0,0,3.8251,o1_image,499.2676,1,499.5464,499.5465,501.5682,0,0,0,0,1,,,,,,,,,,,,,,,,,,,,,,,,,,,,,,,,,,,,,,,,,,,,,,,,,,
,,63b6bfc861dd62d55125a428,42,male,2024-04-24_12h32.44.469,stockport_simplified,2022.2.4,Linux x86_64,4.285628573,661e456ee6de07e70aa9ef7b,6628df8aee7521f2090bf142,,,,,,,,,,,,,,,,,,,,,,,,,,,,,,,,,,,,,,,,,,,,,,,,,,,,,,,,0,52,52,24,1,N,M,C,o1_image,stimuli/out1.png,stimuli/correct_out1.png,stimuli/out2.png,,,,,,,,,,,,,,,,,,,,,,,,,,,,,,,,,,,,,,
,,63b6bfc861dd62d55125a428,42,male,2024-04-24_12h32.44.469,stockport_simplified,2022.2.4,Linux x86_64,4.285628573,661e456ee6de07e70aa9ef7b,6628df8aee7521f2090bf142,,,,,,,,,,,,,,,,,,,,,,,,,,,,,,,,,,501.5687,505.994,"[7,3,6,2,4,8,1,5]","[[0.3,0.2],[-0.3,0.2]]","[[0.125,-0.2],[-0.125,-0.2]]",-0.113077679,-0.200098328,1,0,0,3.8846,o2_image,506.0039,1,506.317,506.317,508.0968,0,0,0,0,1,,,,,,,,,,,,,,,,,,,,,,,,,,,,,,,,,,,,,,,,,,,,,,,,,,
,,63b6bfc861dd62d55125a428,42,male,2024-04-24_12h32.44.469,stockport_simplified,2022.2.4,Linux x86_64,4.285628573,661e456ee6de07e70aa9ef7b,6628df8aee7521f2090bf142,,,,,,,,,,,,,,,,,,,,,,,,,,,,,,,,,,,,,,,,,,,,,,,,,,,,,,,,0,53,53,47,1,B,Y,N,o2_image,stimuli/out2.png,stimuli/out1.png,stimuli/correct_out2.png,,,,,,,,,,,,,,,,,,,,,,,,,,,,,,,,,,,,,,
,,63b6bfc861dd62d55125a428,42,male,2024-04-24_12h32.44.469,stockport_simplified,2022.2.4,Linux x86_64,4.285628573,661e456ee6de07e70aa9ef7b,6628df8aee7521f2090bf142,,,,,,,,,,,,,,,,,,,,,,,,,,,,,,,,,,508.0973,512.9421,"[7,3,6,2,4,8,1,5]","[[-0.3,0.2],[0.3,0.2]]","[[0.125,-0.2],[-0.125,-0.2]]",-0.104228122,-0.184365782,1,0,0,4.1038,o2_image,512.9516,0,513.3469,513.3469,515.2571,0,0,0,0,1,,,,,,,,,,,,,,,,,,,,,,,,,,,,,,,,,,,,,,,,,,,,,,,,,,
,,63b6bfc861dd62d55125a428,42,male,2024-04-24_12h32.44.469,stockport_simplified,2022.2.4,Linux x86_64,4.285628573,661e456ee6de07e70aa9ef7b,6628df8aee7521f2090bf142,,,,,,,,,,,,,,,,,,,,,,,,,,,,,,,,,,,,,,,,,,,,,,,,,,,,,,,,0,54,54,51,1,N,M,C,o1_image,stimuli/out1.png,stimuli/correct_out1.png,stimuli/out2.png,,,,,,,,,,,,,,,,,,,,,,,,,,,,,,,,,,,,,,
,,63b6bfc861dd62d55125a428,42,male,2024-04-24_12h32.44.469,stockport_simplified,2022.2.4,Linux x86_64,4.285628573,661e456ee6de07e70aa9ef7b,6628df8aee7521f2090bf142,,,,,,,,,,,,,,,,,,,,,,,,,,,,,,,,,,515.2574,522.9875,"[7,3,6,2,4,8,1,5]","[[-0.3,0.2],[0.3,0.2]]","[[-0.125,-0.2],[0.125,-0.2]]",0.138643068,-0.16273353,1,0,0,7.0963,o2_image,522.9958,1,523.2989,523.299,525.34,0,0,0,0,1,,,,,,,,,,,,,,,,,,,,,,,,,,,,,,,,,,,,,,,,,,,,,,,,,,
,,63b6bfc861dd62d55125a428,42,male,2024-04-24_12h32.44.469,stockport_simplified,2022.2.4,Linux x86_64,4.285628573,661e456ee6de07e70aa9ef7b,6628df8aee7521f2090bf142,,,,,,,,,,,,,,,,,,,,,,,,,,,,,,,,,,,,,,,,,,,,,,,,,,,,,,,,0,55,55,48,1,B,Y,N,o2_image,stimuli/out2.png,stimuli/out1.png,stimuli/correct_out2.png,,,,,,,,,,,,,,,,,,,,,,,,,,,,,,,,,,,,,,
,,63b6bfc861dd62d55125a428,42,male,2024-04-24_12h32.44.469,stockport_simplified,2022.2.4,Linux x86_64,4.285628573,661e456ee6de07e70aa9ef7b,6628df8aee7521f2090bf142,,,,,,,,,,,,,,,,,,,,,,,,,,,,,,,,,,525.3404,529.9911,"[7,3,6,2,4,8,1,5]","[[-0.3,0.2],[0.3,0.2]]","[[-0.125,-0.2],[0.125,-0.2]]",-0.105211406,-0.187315634,1,0,0,4.1288,o1_image,529.9919,0,530.2977,530.2978,532.074,0,0,0,0,1,,,,,,,,,,,,,,,,,,,,,,,,,,,,,,,,,,,,,,,,,,,,,,,,,,
,,63b6bfc861dd62d55125a428,42,male,2024-04-24_12h32.44.469,stockport_simplified,2022.2.4,Linux x86_64,4.285628573,661e456ee6de07e70aa9ef7b,6628df8aee7521f2090bf142,,,,,,,,,,,,,,,,,,,,,,,,,,,,,,,,,,,,,,,,,,,,,,,,,,,,,,,,0,56,56,58,1,N,M,D,o2_image,stimuli/out2.png,stimuli/out1.png,stimuli/correct_out2.png,,,,,,,,,,,,,,,,,,,,,,,,,,,,,,,,,,,,,,
,,63b6bfc861dd62d55125a428,42,male,2024-04-24_12h32.44.469,stockport_simplified,2022.2.4,Linux x86_64,4.285628573,661e456ee6de07e70aa9ef7b,6628df8aee7521f2090bf142,,,,,,,,,,,,,,,,,,,,,,,,,,,,,,,,,,532.0748,537.7997,"[7,3,6,2,4,8,1,5]","[[0.3,0.2],[-0.3,0.2]]","[[-0.125,-0.2],[0.125,-0.2]]",0.114060964,-0.197148476,1,0,0,5.209,o2_image,537.8093,1,538.1015,538.1015,540.1348,0,0,0,0,1,,,,,,,,,,,,,,,,,,,,,,,,,,,,,,,,,,,,,,,,,,,,,,,,,,
,,63b6bfc861dd62d55125a428,42,male,2024-04-24_12h32.44.469,stockport_simplified,2022.2.4,Linux x86_64,4.285628573,661e456ee6de07e70aa9ef7b,6628df8aee7521f2090bf142,,,,,,,,,,,,,,,,,,,,,,,,,,,,,,,,,,,,,,,,,,,,,,,,,,,,,,,,0,57,57,10,1,B,X,N,o2_image,stimuli/out2.png,stimuli/out1.png,stimuli/correct_out2.png,,,,,,,,,,,,,,,,,,,,,,,,,,,,,,,,,,,,,,
,,63b6bfc861dd62d55125a428,42,male,2024-04-24_12h32.44.469,stockport_simplified,2022.2.4,Linux x86_64,4.285628573,661e456ee6de07e70aa9ef7b,6628df8aee7521f2090bf142,,,,,,,,,,,,,,,,,,,,,,,,,,,,,,,,,,540.1351,545.8116,"[7,3,6,2,4,8,1,5]","[[0.3,0.2],[-0.3,0.2]]","[[-0.125,-0.2],[0.125,-0.2]]",-0.098328417,-0.184365782,1,0,0,4.8137,o1_image,545.8211,1,546.1526,546.1526,547.9592,0,0,0,0,1,,,,,,,,,,,,,,,,,,,,,,,,,,,,,,,,,,,,,,,,,,,,,,,,,,
,,63b6bfc861dd62d55125a428,42,male,2024-04-24_12h32.44.469,stockport_simplified,2022.2.4,Linux x86_64,4.285628573,661e456ee6de07e70aa9ef7b,6628df8aee7521f2090bf142,,,,,,,,,,,,,,,,,,,,,,,,,,,,,,,,,,,,,,,,,,,,,,,,,,,,,,,,0,58,58,37,1,A,Y,N,o1_image,stimuli/out1.png,stimuli/correct_out1.png,stimuli/out2.png,,,,,,,,,,,,,,,,,,,,,,,,,,,,,,,,,,,,,,
,,63b6bfc861dd62d55125a428,42,male,2024-04-24_12h32.44.469,stockport_simplified,2022.2.4,Linux x86_64,4.285628573,661e456ee6de07e70aa9ef7b,6628df8aee7521f2090bf142,,,,,,,,,,,,,,,,,,,,,,,,,,,,,,,,,,547.9595,553.7432,"[7,3,6,2,4,8,1,5]","[[-0.3,0.2],[0.3,0.2]]","[[0.125,-0.2],[-0.125,-0.2]]",-0.130776794,-0.188298918,1,0,0,5.2648,o2_image,553.7509,0,554.06,554.06,555.8716,0,0,0,0,1,,,,,,,,,,,,,,,,,,,,,,,,,,,,,,,,,,,,,,,,,,,,,,,,,,
,,63b6bfc861dd62d55125a428,42,male,2024-04-24_12h32.44.469,stockport_simplified,2022.2.4,Linux x86_64,4.285628573,661e456ee6de07e70aa9ef7b,6628df8aee7521f2090bf142,,,,,,,,,,,,,,,,,,,,,,,,,,,,,,,,,,,,,,,,,,,,,,,,,,,,,,,,0,59,59,4,1,A,X,N,o1_image,stimuli/out1.png,stimuli/correct_out1.png,stimuli/out2.png,,,,,,,,,,,,,,,,,,,,,,,,,,,,,,,,,,,,,,
,,63b6bfc861dd62d55125a428,42,male,2024-04-24_12h32.44.469,stockport_simplified,2022.2.4,Linux x86_64,4.285628573,661e456ee6de07e70aa9ef7b,6628df8aee7521f2090bf142,,,,,,,,,,,,,,,,,,,,,,,,,,,,,,,,,,555.8721,558.4648,"[7,3,6,2,4,8,1,5]","[[0.3,0.2],[-0.3,0.2]]","[[-0.125,-0.2],[0.125,-0.2]]",0.118977384,-0.181415929,1,0,0,2.0914,o2_image,558.4656,1,558.7675,558.7675,560.7222,0,0,0,0,1,,,,,,,,,,,,,,,,,,,,,,,,,,,,,,,,,,,,,,,,,,,,,,,,,,
,,63b6bfc861dd62d55125a428,42,male,2024-04-24_12h32.44.469,stockport_simplified,2022.2.4,Linux x86_64,4.285628573,661e456ee6de07e70aa9ef7b,6628df8aee7521f2090bf142,,,,,,,,,,,,,,,,,,,,,,,,,,,,,,,,,,,,,,,,,,,,,,,,,,,,,,,,1,0,60,45,1,B,Y,N,o2_image,stimuli/out2.png,stimuli/out1.png,stimuli/correct_out2.png,,,,,,,,,,,,,,,,,,,,,,,,,,,,,,,,,,,,,,
,,63b6bfc861dd62d55125a428,42,male,2024-04-24_12h32.44.469,stockport_simplified,2022.2.4,Linux x86_64,4.285628573,661e456ee6de07e70aa9ef7b,6628df8aee7521f2090bf142,,,,,,,,,,,,,,,,,,,,,,,,,,,,,,,,,,560.7225,563.8368,"[7,3,6,2,4,8,1,5]","[[-0.3,0.2],[0.3,0.2]]","[[0.125,-0.2],[-0.125,-0.2]]",-0.095378564,-0.172566372,1,0,0,2.5807,o2_image,563.8374,1,564.1352,564.1352,565.9789,0,0,0,0,1,,,,,,,,,,,,,,,,,,,,,,,,,,,,,,,,,,,,,,,,,,,,,,,,,,
,,63b6bfc861dd62d55125a428,42,male,2024-04-24_12h32.44.469,stockport_simplified,2022.2.4,Linux x86_64,4.285628573,661e456ee6de07e70aa9ef7b,6628df8aee7521f2090bf142,,,,,,,,,,,,,,,,,,,,,,,,,,,,,,,,,,,,,,,,,,,,,,,,,,,,,,,,1,1,61,58,1,N,M,D,o2_image,stimuli/out2.png,stimuli/out1.png,stimuli/correct_out2.png,,,,,,,,,,,,,,,,,,,,,,,,,,,,,,,,,,,,,,
,,63b6bfc861dd62d55125a428,42,male,2024-04-24_12h32.44.469,stockport_simplified,2022.2.4,Linux x86_64,4.285628573,661e456ee6de07e70aa9ef7b,6628df8aee7521f2090bf142,,,,,,,,,,,,,,,,,,,,,,,,,,,,,,,,,,565.9793,567.6351,"[7,3,6,2,4,8,1,5]","[[0.3,0.2],[-0.3,0.2]]","[[0.125,-0.2],[-0.125,-0.2]]",-0.095378564,-0.172566372,1,0,0,1.1489,o2_image,567.6354,1,567.9295,567.9295,569.9843,0,0,0,0,1,,,,,,,,,,,,,,,,,,,,,,,,,,,,,,,,,,,,,,,,,,,,,,,,,,
,,63b6bfc861dd62d55125a428,42,male,2024-04-24_12h32.44.469,stockport_simplified,2022.2.4,Linux x86_64,4.285628573,661e456ee6de07e70aa9ef7b,6628df8aee7521f2090bf142,,,,,,,,,,,,,,,,,,,,,,,,,,,,,,,,,,,,,,,,,,,,,,,,,,,,,,,,1,2,62,27,1,N,M,D,o2_image,stimuli/out2.png,stimuli/out1.png,stimuli/correct_out2.png,,,,,,,,,,,,,,,,,,,,,,,,,,,,,,,,,,,,,,
,,63b6bfc861dd62d55125a428,42,male,2024-04-24_12h32.44.469,stockport_simplified,2022.2.4,Linux x86_64,4.285628573,661e456ee6de07e70aa9ef7b,6628df8aee7521f2090bf142,,,,,,,,,,,,,,,,,,,,,,,,,,,,,,,,,,569.9849,574.6928,"[7,3,6,2,4,8,1,5]","[[0.3,0.2],[-0.3,0.2]]","[[-0.125,-0.2],[0.125,-0.2]]",-0.117010816,-0.179449361,1,0,0,4.203,o1_image,574.7017,1,574.9974,574.9974,576.8986,0,0,0,0,1,,,,,,,,,,,,,,,,,,,,,,,,,,,,,,,,,,,,,,,,,,,,,,,,,,
,,63b6bfc861dd62d55125a428,42,male,2024-04-24_12h32.44.469,stockport_simplified,2022.2.4,Linux x86_64,4.285628573,661e456ee6de07e70aa9ef7b,6628df8aee7521f2090bf142,,,,,,,,,,,,,,,,,,,,,,,,,,,,,,,,,,,,,,,,,,,,,,,,,,,,,,,,1,3,63,7,1,A,Y,N,o1_image,stimuli/out1.png,stimuli/correct_out1.png,stimuli/out2.png,,,,,,,,,,,,,,,,,,,,,,,,,,,,,,,,,,,,,,
,,63b6bfc861dd62d55125a428,42,male,2024-04-24_12h32.44.469,stockport_simplified,2022.2.4,Linux x86_64,4.285628573,661e456ee6de07e70aa9ef7b,6628df8aee7521f2090bf142,,,,,,,,,,,,,,,,,,,,,,,,,,,,,,,,,,576.8991,580.6932,"[7,3,6,2,4,8,1,5]","[[0.3,0.2],[-0.3,0.2]]","[[0.125,-0.2],[-0.125,-0.2]]",0.092428712,-0.176499508,1,0,0,2.9965,o1_image,580.6941,1,581.019,581.019,582.8497,0,0,0,0,1,,,,,,,,,,,,,,,,,,,,,,,,,,,,,,,,,,,,,,,,,,,,,,,,,,
,,63b6bfc861dd62d55125a428,42,male,2024-04-24_12h32.44.469,stockport_simplified,2022.2.4,Linux x86_64,4.285628573,661e456ee6de07e70aa9ef7b,6628df8aee7521f2090bf142,,,,,,,,,,,,,,,,,,,,,,,,,,,,,,,,,,,,,,,,,,,,,,,,,,,,,,,,1,4,64,34,1,A,X,N,o1_image,stimuli/out1.png,stimuli/correct_out1.png,stimuli/out2.png,,,,,,,,,,,,,,,,,,,,,,,,,,,,,,,,,,,,,,
,,63b6bfc861dd62d55125a428,42,male,2024-04-24_12h32.44.469,stockport_simplified,2022.2.4,Linux x86_64,4.285628573,661e456ee6de07e70aa9ef7b,6628df8aee7521f2090bf142,,,,,,,,,,,,,,,,,,,,,,,,,,,,,,,,,,582.8502,586.8892,"[7,3,6,2,4,8,1,5]","[[-0.3,0.2],[0.3,0.2]]","[[-0.125,-0.2],[0.125,-0.2]]",-0.1366765,-0.191248771,1,0,0,3.2804,o1_image,586.8968,1,587.2029,587.2029,589.2425,0,0,0,0,1,,,,,,,,,,,,,,,,,,,,,,,,,,,,,,,,,,,,,,,,,,,,,,,,,,
,,63b6bfc861dd62d55125a428,42,male,2024-04-24_12h32.44.469,stockport_simplified,2022.2.4,Linux x86_64,4.285628573,661e456ee6de07e70aa9ef7b,6628df8aee7521f2090bf142,,,,,,,,,,,,,,,,,,,,,,,,,,,,,,,,,,,,,,,,,,,,,,,,,,,,,,,,1,5,65,36,1,A,Y,N,o1_image,stimuli/out1.png,stimuli/correct_out1.png,stimuli/out2.png,,,,,,,,,,,,,,,,,,,,,,,,,,,,,,,,,,,,,,
,,63b6bfc861dd62d55125a428,42,male,2024-04-24_12h32.44.469,stockport_simplified,2022.2.4,Linux x86_64,4.285628573,661e456ee6de07e70aa9ef7b,6628df8aee7521f2090bf142,,,,,,,,,,,,,,,,,,,,,,,,,,,,,,,,,,589.2429,592.3679,"[7,3,6,2,4,8,1,5]","[[-0.3,0.2],[0.3,0.2]]","[[0.125,-0.2],[-0.125,-0.2]]",0.079646018,-0.171583088,1,0,0,2.3858,o1_image,592.3686,1,592.6752,592.6753,594.529,0,0,0,0,1,,,,,,,,,,,,,,,,,,,,,,,,,,,,,,,,,,,,,,,,,,,,,,,,,,
,,63b6bfc861dd62d55125a428,42,male,2024-04-24_12h32.44.469,stockport_simplified,2022.2.4,Linux x86_64,4.285628573,661e456ee6de07e70aa9ef7b,6628df8aee7521f2090bf142,,,,,,,,,,,,,,,,,,,,,,,,,,,,,,,,,,,,,,,,,,,,,,,,,,,,,,,,1,6,66,33,1,A,X,N,o1_image,stimuli/out1.png,stimuli/correct_out1.png,stimuli/out2.png,,,,,,,,,,,,,,,,,,,,,,,,,,,,,,,,,,,,,,
,,63b6bfc861dd62d55125a428,42,male,2024-04-24_12h32.44.469,stockport_simplified,2022.2.4,Linux x86_64,4.285628573,661e456ee6de07e70aa9ef7b,6628df8aee7521f2090bf142,,,,,,,,,,,,,,,,,,,,,,,,,,,,,,,,,,594.5294,596.5589,"[7,3,6,2,4,8,1,5]","[[-0.3,0.2],[0.3,0.2]]","[[0.125,-0.2],[-0.125,-0.2]]",0.079646018,-0.171583088,1,0,0,1.4955,o1_image,596.5593,1,596.8522,596.8522,598.6641,0,0,0,0,1,,,,,,,,,,,,,,,,,,,,,,,,,,,,,,,,,,,,,,,,,,,,,,,,,,
,,63b6bfc861dd62d55125a428,42,male,2024-04-24_12h32.44.469,stockport_simplified,2022.2.4,Linux x86_64,4.285628573,661e456ee6de07e70aa9ef7b,6628df8aee7521f2090bf142,,,,,,,,,,,,,,,,,,,,,,,,,,,,,,,,,,,,,,,,,,,,,,,,,,,,,,,,1,7,67,51,1,N,M,C,o1_image,stimuli/out1.png,stimuli/correct_out1.png,stimuli/out2.png,,,,,,,,,,,,,,,,,,,,,,,,,,,,,,,,,,,,,,
,,63b6bfc861dd62d55125a428,42,male,2024-04-24_12h32.44.469,stockport_simplified,2022.2.4,Linux x86_64,4.285628573,661e456ee6de07e70aa9ef7b,6628df8aee7521f2090bf142,,,,,,,,,,,,,,,,,,,,,,,,,,,,,,,,,,598.6648,604.5131,"[7,3,6,2,4,8,1,5]","[[0.3,0.2],[-0.3,0.2]]","[[-0.125,-0.2],[0.125,-0.2]]",0.126843658,-0.18633235,1,0,0,5.3011,o2_image,604.5207,1,604.8189,604.8189,606.6334,0,0,0,0,1,,,,,,,,,,,,,,,,,,,,,,,,,,,,,,,,,,,,,,,,,,,,,,,,,,
,,63b6bfc861dd62d55125a428,42,male,2024-04-24_12h32.44.469,stockport_simplified,2022.2.4,Linux x86_64,4.285628573,661e456ee6de07e70aa9ef7b,6628df8aee7521f2090bf142,,,,,,,,,,,,,,,,,,,,,,,,,,,,,,,,,,,,,,,,,,,,,,,,,,,,,,,,1,8,68,15,1,B,Y,N,o2_image,stimuli/out2.png,stimuli/out1.png,stimuli/correct_out2.png,,,,,,,,,,,,,,,,,,,,,,,,,,,,,,,,,,,,,,
,,63b6bfc861dd62d55125a428,42,male,2024-04-24_12h32.44.469,stockport_simplified,2022.2.4,Linux x86_64,4.285628573,661e456ee6de07e70aa9ef7b,6628df8aee7521f2090bf142,,,,,,,,,,,,,,,,,,,,,,,,,,,,,,,,,,606.6341,609.8819,"[7,3,6,2,4,8,1,5]","[[0.3,0.2],[-0.3,0.2]]","[[0.125,-0.2],[-0.125,-0.2]]",0.139626352,-0.178466077,1,0,0,2.708,o1_image,609.8825,1,610.1896,610.1896,612.054,0,0,0,0,1,,,,,,,,,,,,,,,,,,,,,,,,,,,,,,,,,,,,,,,,,,,,,,,,,,
,,63b6bfc861dd62d55125a428,42,male,2024-04-24_12h32.44.469,stockport_simplified,2022.2.4,Linux x86_64,4.285628573,661e456ee6de07e70aa9ef7b,6628df8aee7521f2090bf142,,,,,,,,,,,,,,,,,,,,,,,,,,,,,,,,,,,,,,,,,,,,,,,,,,,,,,,,1,9,69,20,1,N,M,C,o1_image,stimuli/out1.png,stimuli/correct_out1.png,stimuli/out2.png,,,,,,,,,,,,,,,,,,,,,,,,,,,,,,,,,,,,,,
,,63b6bfc861dd62d55125a428,42,male,2024-04-24_12h32.44.469,stockport_simplified,2022.2.4,Linux x86_64,4.285628573,661e456ee6de07e70aa9ef7b,6628df8aee7521f2090bf142,,,,,,,,,,,,,,,,,,,,,,,,,,,,,,,,,,612.0544,616.4565,"[7,3,6,2,4,8,1,5]","[[-0.3,0.2],[0.3,0.2]]","[[0.125,-0.2],[-0.125,-0.2]]",-0.101278269,-0.187315634,1,0,0,3.6145,o2_image,616.4641,1,616.7707,616.7708,618.5786,0,0,0,0,1,,,,,,,,,,,,,,,,,,,,,,,,,,,,,,,,,,,,,,,,,,,,,,,,,,
,,63b6bfc861dd62d55125a428,42,male,2024-04-24_12h32.44.469,stockport_simplified,2022.2.4,Linux x86_64,4.285628573,661e456ee6de07e70aa9ef7b,6628df8aee7521f2090bf142,,,,,,,,,,,,,,,,,,,,,,,,,,,,,,,,,,,,,,,,,,,,,,,,,,,,,,,,1,10,70,14,1,B,X,N,o2_image,stimuli/out2.png,stimuli/out1.png,stimuli/correct_out2.png,,,,,,,,,,,,,,,,,,,,,,,,,,,,,,,,,,,,,,
,,63b6bfc861dd62d55125a428,42,male,2024-04-24_12h32.44.469,stockport_simplified,2022.2.4,Linux x86_64,4.285628573,661e456ee6de07e70aa9ef7b,6628df8aee7521f2090bf142,,,,,,,,,,,,,,,,,,,,,,,,,,,,,,,,,,618.5791,622.3068,"[7,3,6,2,4,8,1,5]","[[0.3,0.2],[-0.3,0.2]]","[[0.125,-0.2],[-0.125,-0.2]]",0.104228122,-0.189282203,1,0,0,3.2255,o1_image,622.3075,1,622.6212,622.6212,624.6231,0,0,0,0,1,,,,,,,,,,,,,,,,,,,,,,,,,,,,,,,,,,,,,,,,,,,,,,,,,,
,,63b6bfc861dd62d55125a428,42,male,2024-04-24_12h32.44.469,stockport_simplified,2022.2.4,Linux x86_64,4.285628573,661e456ee6de07e70aa9ef7b,6628df8aee7521f2090bf142,,,,,,,,,,,,,,,,,,,,,,,,,,,,,,,,,,,,,,,,,,,,,,,,,,,,,,,,1,11,71,9,1,A,Y,N,o1_image,stimuli/out1.png,stimuli/correct_out1.png,stimuli/out2.png,,,,,,,,,,,,,,,,,,,,,,,,,,,,,,,,,,,,,,
,,63b6bfc861dd62d55125a428,42,male,2024-04-24_12h32.44.469,stockport_simplified,2022.2.4,Linux x86_64,4.285628573,661e456ee6de07e70aa9ef7b,6628df8aee7521f2090bf142,,,,,,,,,,,,,,,,,,,,,,,,,,,,,,,,,,624.6235,628.9513,"[7,3,6,2,4,8,1,5]","[[0.3,0.2],[-0.3,0.2]]","[[-0.125,-0.2],[0.125,-0.2]]",0.131760079,-0.190265487,1,0,0,3.7856,o2_image,628.9604,0,629.2943,629.2943,631.1182,0,0,0,0,1,,,,,,,,,,,,,,,,,,,,,,,,,,,,,,,,,,,,,,,,,,,,,,,,,,
,,63b6bfc861dd62d55125a428,42,male,2024-04-24_12h32.44.469,stockport_simplified,2022.2.4,Linux x86_64,4.285628573,661e456ee6de07e70aa9ef7b,6628df8aee7521f2090bf142,,,,,,,,,,,,,,,,,,,,,,,,,,,,,,,,,,,,,,,,,,,,,,,,,,,,,,,,1,12,72,35,1,A,Y,N,o1_image,stimuli/out1.png,stimuli/correct_out1.png,stimuli/out2.png,,,,,,,,,,,,,,,,,,,,,,,,,,,,,,,,,,,,,,
,,63b6bfc861dd62d55125a428,42,male,2024-04-24_12h32.44.469,stockport_simplified,2022.2.4,Linux x86_64,4.285628573,661e456ee6de07e70aa9ef7b,6628df8aee7521f2090bf142,,,,,,,,,,,,,,,,,,,,,,,,,,,,,,,,,,631.1186,634.4575,"[7,3,6,2,4,8,1,5]","[[-0.3,0.2],[0.3,0.2]]","[[0.125,-0.2],[-0.125,-0.2]]",-0.104228122,-0.185349066,1,0,0,2.8014,o2_image,634.458,1,634.7588,634.7588,636.5364,0,0,0,0,1,,,,,,,,,,,,,,,,,,,,,,,,,,,,,,,,,,,,,,,,,,,,,,,,,,
,,63b6bfc861dd62d55125a428,42,male,2024-04-24_12h32.44.469,stockport_simplified,2022.2.4,Linux x86_64,4.285628573,661e456ee6de07e70aa9ef7b,6628df8aee7521f2090bf142,,,,,,,,,,,,,,,,,,,,,,,,,,,,,,,,,,,,,,,,,,,,,,,,,,,,,,,,1,13,73,44,1,B,X,N,o2_image,stimuli/out2.png,stimuli/out1.png,stimuli/correct_out2.png,,,,,,,,,,,,,,,,,,,,,,,,,,,,,,,,,,,,,,
,,63b6bfc861dd62d55125a428,42,male,2024-04-24_12h32.44.469,stockport_simplified,2022.2.4,Linux x86_64,4.285628573,661e456ee6de07e70aa9ef7b,6628df8aee7521f2090bf142,,,,,,,,,,,,,,,,,,,,,,,,,,,,,,,,,,636.5367,640.5094,"[7,3,6,2,4,8,1,5]","[[0.3,0.2],[-0.3,0.2]]","[[0.125,-0.2],[-0.125,-0.2]]",0.119960669,-0.185349066,1,0,0,3.2161,o1_image,640.5099,0,640.8114,640.8114,642.74,0,0,0,0,1,,,,,,,,,,,,,,,,,,,,,,,,,,,,,,,,,,,,,,,,,,,,,,,,,,
,,63b6bfc861dd62d55125a428,42,male,2024-04-24_12h32.44.469,stockport_simplified,2022.2.4,Linux x86_64,4.285628573,661e456ee6de07e70aa9ef7b,6628df8aee7521f2090bf142,,,,,,,,,,,,,,,,,,,,,,,,,,,,,,,,,,,,,,,,,,,,,,,,,,,,,,,,1,14,74,16,1,B,Y,N,o2_image,stimuli/out2.png,stimuli/out1.png,stimuli/correct_out2.png,,,,,,,,,,,,,,,,,,,,,,,,,,,,,,,,,,,,,,
,,63b6bfc861dd62d55125a428,42,male,2024-04-24_12h32.44.469,stockport_simplified,2022.2.4,Linux x86_64,4.285628573,661e456ee6de07e70aa9ef7b,6628df8aee7521f2090bf142,,,,,,,,,,,,,,,,,,,,,,,,,,,,,,,,,,642.7403,647.3667,"[7,3,6,2,4,8,1,5]","[[-0.3,0.2],[0.3,0.2]]","[[-0.125,-0.2],[0.125,-0.2]]",-0.123893805,-0.168633235,1,0,0,4.0982,o1_image,647.377,0,647.7858,647.7859,649.6087,0,0,0,0,1,,,,,,,,,,,,,,,,,,,,,,,,,,,,,,,,,,,,,,,,,,,,,,,,,,
,,63b6bfc861dd62d55125a428,42,male,2024-04-24_12h32.44.469,stockport_simplified,2022.2.4,Linux x86_64,4.285628573,661e456ee6de07e70aa9ef7b,6628df8aee7521f2090bf142,,,,,,,,,,,,,,,,,,,,,,,,,,,,,,,,,,,,,,,,,,,,,,,,,,,,,,,,1,15,75,28,1,N,M,D,o2_image,stimuli/out2.png,stimuli/out1.png,stimuli/correct_out2.png,,,,,,,,,,,,,,,,,,,,,,,,,,,,,,,,,,,,,,
,,63b6bfc861dd62d55125a428,42,male,2024-04-24_12h32.44.469,stockport_simplified,2022.2.4,Linux x86_64,4.285628573,661e456ee6de07e70aa9ef7b,6628df8aee7521f2090bf142,,,,,,,,,,,,,,,,,,,,,,,,,,,,,,,,,,649.6093,654.2316,"[7,3,6,2,4,8,1,5]","[[0.3,0.2],[-0.3,0.2]]","[[-0.125,-0.2],[0.125,-0.2]]",0.15339233,-0.187315634,1,0,0,3.8771,o2_image,654.2427,1,654.5488,654.5488,656.6174,0,0,0,0,1,,,,,,,,,,,,,,,,,,,,,,,,,,,,,,,,,,,,,,,,,,,,,,,,,,
,,63b6bfc861dd62d55125a428,42,male,2024-04-24_12h32.44.469,stockport_simplified,2022.2.4,Linux x86_64,4.285628573,661e456ee6de07e70aa9ef7b,6628df8aee7521f2090bf142,,,,,,,,,,,,,,,,,,,,,,,,,,,,,,,,,,,,,,,,,,,,,,,,,,,,,,,,1,16,76,11,1,B,X,N,o2_image,stimuli/out2.png,stimuli/out1.png,stimuli/correct_out2.png,,,,,,,,,,,,,,,,,,,,,,,,,,,,,,,,,,,,,,
,,63b6bfc861dd62d55125a428,42,male,2024-04-24_12h32.44.469,stockport_simplified,2022.2.4,Linux x86_64,4.285628573,661e456ee6de07e70aa9ef7b,6628df8aee7521f2090bf142,,,,,,,,,,,,,,,,,,,,,,,,,,,,,,,,,,656.6179,658.9211,"[7,3,6,2,4,8,1,5]","[[0.3,0.2],[-0.3,0.2]]","[[-0.125,-0.2],[0.125,-0.2]]",0.142576205,-0.175516224,1,0,0,1.559,o2_image,658.9216,0,659.2449,659.2449,661.0718,0,0,0,0,1,,,,,,,,,,,,,,,,,,,,,,,,,,,,,,,,,,,,,,,,,,,,,,,,,,
,,63b6bfc861dd62d55125a428,42,male,2024-04-24_12h32.44.469,stockport_simplified,2022.2.4,Linux x86_64,4.285628573,661e456ee6de07e70aa9ef7b,6628df8aee7521f2090bf142,,,,,,,,,,,,,,,,,,,,,,,,,,,,,,,,,,,,,,,,,,,,,,,,,,,,,,,,1,17,77,50,1,N,M,C,o1_image,stimuli/out1.png,stimuli/correct_out1.png,stimuli/out2.png,,,,,,,,,,,,,,,,,,,,,,,,,,,,,,,,,,,,,,
,,63b6bfc861dd62d55125a428,42,male,2024-04-24_12h32.44.469,stockport_simplified,2022.2.4,Linux x86_64,4.285628573,661e456ee6de07e70aa9ef7b,6628df8aee7521f2090bf142,,,,,,,,,,,,,,,,,,,,,,,,,,,,,,,,,,661.0722,665.061,"[7,3,6,2,4,8,1,5]","[[-0.3,0.2],[0.3,0.2]]","[[0.125,-0.2],[-0.125,-0.2]]",0.123893805,-0.189282203,1,0,0,3.1462,o1_image,665.0751,1,665.3713,665.3714,667.4264,0,0,0,0,1,,,,,,,,,,,,,,,,,,,,,,,,,,,,,,,,,,,,,,,,,,,,,,,,,,
,,63b6bfc861dd62d55125a428,42,male,2024-04-24_12h32.44.469,stockport_simplified,2022.2.4,Linux x86_64,4.285628573,661e456ee6de07e70aa9ef7b,6628df8aee7521f2090bf142,,,,,,,,,,,,,,,,,,,,,,,,,,,,,,,,,,,,,,,,,,,,,,,,,,,,,,,,1,18,78,0,1,A,X,N,o1_image,stimuli/out1.png,stimuli/correct_out1.png,stimuli/out2.png,,,,,,,,,,,,,,,,,,,,,,,,,,,,,,,,,,,,,,
,,63b6bfc861dd62d55125a428,42,male,2024-04-24_12h32.44.469,stockport_simplified,2022.2.4,Linux x86_64,4.285628573,661e456ee6de07e70aa9ef7b,6628df8aee7521f2090bf142,,,,,,,,,,,,,,,,,,,,,,,,,,,,,,,,,,667.4268,670.5403,"[7,3,6,2,4,8,1,5]","[[0.3,0.2],[-0.3,0.2]]","[[-0.125,-0.2],[0.125,-0.2]]",-0.090462144,-0.188298918,1,0,0,2.375,o1_image,670.5425,1,670.8715,670.8715,672.9373,0,0,0,0,1,,,,,,,,,,,,,,,,,,,,,,,,,,,,,,,,,,,,,,,,,,,,,,,,,,
,,63b6bfc861dd62d55125a428,42,male,2024-04-24_12h32.44.469,stockport_simplified,2022.2.4,Linux x86_64,4.285628573,661e456ee6de07e70aa9ef7b,6628df8aee7521f2090bf142,,,,,,,,,,,,,,,,,,,,,,,,,,,,,,,,,,,,,,,,,,,,,,,,,,,,,,,,1,19,79,31,1,A,X,N,o1_image,stimuli/out1.png,stimuli/correct_out1.png,stimuli/out2.png,,,,,,,,,,,,,,,,,,,,,,,,,,,,,,,,,,,,,,
,,63b6bfc861dd62d55125a428,42,male,2024-04-24_12h32.44.469,stockport_simplified,2022.2.4,Linux x86_64,4.285628573,661e456ee6de07e70aa9ef7b,6628df8aee7521f2090bf142,,,,,,,,,,,,,,,,,,,,,,,,,,,,,,,,,,672.9378,675.8597,"[7,3,6,2,4,8,1,5]","[[-0.3,0.2],[0.3,0.2]]","[[-0.125,-0.2],[0.125,-0.2]]",0.113077679,-0.172566372,1,0,0,2.3972,o2_image,675.8603,1,676.1894,676.1896,677.9731,0,0,0,0,1,,,,,,,,,,,,,,,,,,,,,,,,,,,,,,,,,,,,,,,,,,,,,,,,,,
,,63b6bfc861dd62d55125a428,42,male,2024-04-24_12h32.44.469,stockport_simplified,2022.2.4,Linux x86_64,4.285628573,661e456ee6de07e70aa9ef7b,6628df8aee7521f2090bf142,,,,,,,,,,,,,,,,,,,,,,,,,,,,,,,,,,,,,,,,,,,,,,,,,,,,,,,,1,20,80,19,1,B,Y,N,o2_image,stimuli/out2.png,stimuli/out1.png,stimuli/correct_out2.png,,,,,,,,,,,,,,,,,,,,,,,,,,,,,,,,,,,,,,
,,63b6bfc861dd62d55125a428,42,male,2024-04-24_12h32.44.469,stockport_simplified,2022.2.4,Linux x86_64,4.285628573,661e456ee6de07e70aa9ef7b,6628df8aee7521f2090bf142,,,,,,,,,,,,,,,,,,,,,,,,,,,,,,,,,,677.9737,682.011,"[7,3,6,2,4,8,1,5]","[[-0.3,0.2],[0.3,0.2]]","[[0.125,-0.2],[-0.125,-0.2]]",0.14159292,-0.175516224,1,0,0,3.2991,o1_image,682.0117,1,682.3244,682.3244,684.4053,0,0,0,0,1,,,,,,,,,,,,,,,,,,,,,,,,,,,,,,,,,,,,,,,,,,,,,,,,,,
,,63b6bfc861dd62d55125a428,42,male,2024-04-24_12h32.44.469,stockport_simplified,2022.2.4,Linux x86_64,4.285628573,661e456ee6de07e70aa9ef7b,6628df8aee7521f2090bf142,,,,,,,,,,,,,,,,,,,,,,,,,,,,,,,,,,,,,,,,,,,,,,,,,,,,,,,,1,21,81,4,1,A,X,N,o1_image,stimuli/out1.png,stimuli/correct_out1.png,stimuli/out2.png,,,,,,,,,,,,,,,,,,,,,,,,,,,,,,,,,,,,,,
,,63b6bfc861dd62d55125a428,42,male,2024-04-24_12h32.44.469,stockport_simplified,2022.2.4,Linux x86_64,4.285628573,661e456ee6de07e70aa9ef7b,6628df8aee7521f2090bf142,,,,,,,,,,,,,,,,,,,,,,,,,,,,,,,,,,684.4055,687.5219,"[7,3,6,2,4,8,1,5]","[[-0.3,0.2],[0.3,0.2]]","[[-0.125,-0.2],[0.125,-0.2]]",0.121927237,-0.169616519,1,0,0,2.5916,o2_image,687.5296,1,687.8314,687.8314,689.9202,0,0,0,0,1,,,,,,,,,,,,,,,,,,,,,,,,,,,,,,,,,,,,,,,,,,,,,,,,,,
,,63b6bfc861dd62d55125a428,42,male,2024-04-24_12h32.44.469,stockport_simplified,2022.2.4,Linux x86_64,4.285628573,661e456ee6de07e70aa9ef7b,6628df8aee7521f2090bf142,,,,,,,,,,,,,,,,,,,,,,,,,,,,,,,,,,,,,,,,,,,,,,,,,,,,,,,,1,22,82,55,1,N,M,D,o2_image,stimuli/out2.png,stimuli/out1.png,stimuli/correct_out2.png,,,,,,,,,,,,,,,,,,,,,,,,,,,,,,,,,,,,,,
,,63b6bfc861dd62d55125a428,42,male,2024-04-24_12h32.44.469,stockport_simplified,2022.2.4,Linux x86_64,4.285628573,661e456ee6de07e70aa9ef7b,6628df8aee7521f2090bf142,,,,,,,,,,,,,,,,,,,,,,,,,,,,,,,,,,689.9205,692.2989,"[7,3,6,2,4,8,1,5]","[[0.3,0.2],[-0.3,0.2]]","[[0.125,-0.2],[-0.125,-0.2]]",-0.102261554,-0.177482793,1,0,0,1.6405,o2_image,692.3,1,692.617,692.617,694.4185,0,0,0,0,1,,,,,,,,,,,,,,,,,,,,,,,,,,,,,,,,,,,,,,,,,,,,,,,,,,
,,63b6bfc861dd62d55125a428,42,male,2024-04-24_12h32.44.469,stockport_simplified,2022.2.4,Linux x86_64,4.285628573,661e456ee6de07e70aa9ef7b,6628df8aee7521f2090bf142,,,,,,,,,,,,,,,,,,,,,,,,,,,,,,,,,,,,,,,,,,,,,,,,,,,,,,,,1,23,83,57,1,N,M,D,o2_image,stimuli/out2.png,stimuli/out1.png,stimuli/correct_out2.png,,,,,,,,,,,,,,,,,,,,,,,,,,,,,,,,,,,,,,
,,63b6bfc861dd62d55125a428,42,male,2024-04-24_12h32.44.469,stockport_simplified,2022.2.4,Linux x86_64,4.285628573,661e456ee6de07e70aa9ef7b,6628df8aee7521f2090bf142,,,,,,,,,,,,,,,,,,,,,,,,,,,,,,,,,,694.419,697.2728,"[7,3,6,2,4,8,1,5]","[[0.3,0.2],[-0.3,0.2]]","[[-0.125,-0.2],[0.125,-0.2]]",0.088495575,-0.18633235,1,0,0,2.3515,o2_image,697.2735,0,697.5623,697.5624,699.5718,0,0,0,0,1,,,,,,,,,,,,,,,,,,,,,,,,,,,,,,,,,,,,,,,,,,,,,,,,,,
,,63b6bfc861dd62d55125a428,42,male,2024-04-24_12h32.44.469,stockport_simplified,2022.2.4,Linux x86_64,4.285628573,661e456ee6de07e70aa9ef7b,6628df8aee7521f2090bf142,,,,,,,,,,,,,,,,,,,,,,,,,,,,,,,,,,,,,,,,,,,,,,,,,,,,,,,,1,24,84,24,1,N,M,C,o1_image,stimuli/out1.png,stimuli/correct_out1.png,stimuli/out2.png,,,,,,,,,,,,,,,,,,,,,,,,,,,,,,,,,,,,,,
,,63b6bfc861dd62d55125a428,42,male,2024-04-24_12h32.44.469,stockport_simplified,2022.2.4,Linux x86_64,4.285628573,661e456ee6de07e70aa9ef7b,6628df8aee7521f2090bf142,,,,,,,,,,,,,,,,,,,,,,,,,,,,,,,,,,699.572,702.6051,"[7,3,6,2,4,8,1,5]","[[0.3,0.2],[-0.3,0.2]]","[[0.125,-0.2],[-0.125,-0.2]]",-0.091445428,-0.177482793,1,0,0,2.5057,o2_image,702.6055,1,702.8986,702.8987,704.6672,0,0,0,0,1,,,,,,,,,,,,,,,,,,,,,,,,,,,,,,,,,,,,,,,,,,,,,,,,,,
,,63b6bfc861dd62d55125a428,42,male,2024-04-24_12h32.44.469,stockport_simplified,2022.2.4,Linux x86_64,4.285628573,661e456ee6de07e70aa9ef7b,6628df8aee7521f2090bf142,,,,,,,,,,,,,,,,,,,,,,,,,,,,,,,,,,,,,,,,,,,,,,,,,,,,,,,,1,25,85,59,1,N,M,D,o2_image,stimuli/out2.png,stimuli/out1.png,stimuli/correct_out2.png,,,,,,,,,,,,,,,,,,,,,,,,,,,,,,,,,,,,,,
,,63b6bfc861dd62d55125a428,42,male,2024-04-24_12h32.44.469,stockport_simplified,2022.2.4,Linux x86_64,4.285628573,661e456ee6de07e70aa9ef7b,6628df8aee7521f2090bf142,,,,,,,,,,,,,,,,,,,,,,,,,,,,,,,,,,704.6675,706.3466,"[7,3,6,2,4,8,1,5]","[[0.3,0.2],[-0.3,0.2]]","[[0.125,-0.2],[-0.125,-0.2]]",-0.107177974,-0.177482793,1,0,0,1.1788,o2_image,706.3472,1,706.6449,706.645,708.5865,0,0,0,0,1,,,,,,,,,,,,,,,,,,,,,,,,,,,,,,,,,,,,,,,,,,,,,,,,,,
,,63b6bfc861dd62d55125a428,42,male,2024-04-24_12h32.44.469,stockport_simplified,2022.2.4,Linux x86_64,4.285628573,661e456ee6de07e70aa9ef7b,6628df8aee7521f2090bf142,,,,,,,,,,,,,,,,,,,,,,,,,,,,,,,,,,,,,,,,,,,,,,,,,,,,,,,,1,26,86,29,1,N,M,D,o2_image,stimuli/out2.png,stimuli/out1.png,stimuli/correct_out2.png,,,,,,,,,,,,,,,,,,,,,,,,,,,,,,,,,,,,,,
,,63b6bfc861dd62d55125a428,42,male,2024-04-24_12h32.44.469,stockport_simplified,2022.2.4,Linux x86_64,4.285628573,661e456ee6de07e70aa9ef7b,6628df8aee7521f2090bf142,,,,,,,,,,,,,,,,,,,,,,,,,,,,,,,,,,708.5868,711.3982,"[7,3,6,2,4,8,1,5]","[[0.3,0.2],[-0.3,0.2]]","[[0.125,-0.2],[-0.125,-0.2]]",0.109144543,-0.177482793,1,0,0,2.2497,o1_image,711.3995,1,711.7729,711.7729,713.9094,0,0,0,0,1,,,,,,,,,,,,,,,,,,,,,,,,,,,,,,,,,,,,,,,,,,,,,,,,,,
,,63b6bfc861dd62d55125a428,42,male,2024-04-24_12h32.44.469,stockport_simplified,2022.2.4,Linux x86_64,4.285628573,661e456ee6de07e70aa9ef7b,6628df8aee7521f2090bf142,,,,,,,,,,,,,,,,,,,,,,,,,,,,,,,,,,,,,,,,,,,,,,,,,,,,,,,,1,27,87,32,1,A,X,N,o1_image,stimuli/out1.png,stimuli/correct_out1.png,stimuli/out2.png,,,,,,,,,,,,,,,,,,,,,,,,,,,,,,,,,,,,,,
,,63b6bfc861dd62d55125a428,42,male,2024-04-24_12h32.44.469,stockport_simplified,2022.2.4,Linux x86_64,4.285628573,661e456ee6de07e70aa9ef7b,6628df8aee7521f2090bf142,,,,,,,,,,,,,,,,,,,,,,,,,,,,,,,,,,713.91,717.7995,"[7,3,6,2,4,8,1,5]","[[-0.3,0.2],[0.3,0.2]]","[[0.125,-0.2],[-0.125,-0.2]]",0.137659784,-0.177482793,1,0,0,3.2057,o1_image,717.8005,0,718.1775,718.1775,720.1008,0,0,0,0,1,,,,,,,,,,,,,,,,,,,,,,,,,,,,,,,,,,,,,,,,,,,,,,,,,,
,,63b6bfc861dd62d55125a428,42,male,2024-04-24_12h32.44.469,stockport_simplified,2022.2.4,Linux x86_64,4.285628573,661e456ee6de07e70aa9ef7b,6628df8aee7521f2090bf142,,,,,,,,,,,,,,,,,,,,,,,,,,,,,,,,,,,,,,,,,,,,,,,,,,,,,,,,1,28,88,43,1,B,X,N,o2_image,stimuli/out2.png,stimuli/out1.png,stimuli/correct_out2.png,,,,,,,,,,,,,,,,,,,,,,,,,,,,,,,,,,,,,,
,,63b6bfc861dd62d55125a428,42,male,2024-04-24_12h32.44.469,stockport_simplified,2022.2.4,Linux x86_64,4.285628573,661e456ee6de07e70aa9ef7b,6628df8aee7521f2090bf142,,,,,,,,,,,,,,,,,,,,,,,,,,,,,,,,,,720.1012,722.4215,"[7,3,6,2,4,8,1,5]","[[-0.3,0.2],[0.3,0.2]]","[[0.125,-0.2],[-0.125,-0.2]]",-0.174041298,-0.17453294,1,0,0,1.6508,o2_image,722.4239,1,722.9292,722.9293,724.7493,0,0,0,0,1,,,,,,,,,,,,,,,,,,,,,,,,,,,,,,,,,,,,,,,,,,,,,,,,,,
,,63b6bfc861dd62d55125a428,42,male,2024-04-24_12h32.44.469,stockport_simplified,2022.2.4,Linux x86_64,4.285628573,661e456ee6de07e70aa9ef7b,6628df8aee7521f2090bf142,,,,,,,,,,,,,,,,,,,,,,,,,,,,,,,,,,,,,,,,,,,,,,,,,,,,,,,,1,29,89,26,1,N,M,D,o2_image,stimuli/out2.png,stimuli/out1.png,stimuli/correct_out2.png,,,,,,,,,,,,,,,,,,,,,,,,,,,,,,,,,,,,,,
,,63b6bfc861dd62d55125a428,42,male,2024-04-24_12h32.44.469,stockport_simplified,2022.2.4,Linux x86_64,4.285628573,661e456ee6de07e70aa9ef7b,6628df8aee7521f2090bf142,,,,,,,,,,,,,,,,,,,,,,,,,,,,,,,,,,724.7497,728.4434,"[7,3,6,2,4,8,1,5]","[[-0.3,0.2],[0.3,0.2]]","[[0.125,-0.2],[-0.125,-0.2]]",0.149459194,-0.183382498,1,0,0,2.9552,o1_image,728.4446,0,728.7848,728.7849,730.6108,0,0,0,0,1,,,,,,,,,,,,,,,,,,,,,,,,,,,,,,,,,,,,,,,,,,,,,,,,,,
,,63b6bfc861dd62d55125a428,42,male,2024-04-24_12h32.44.469,stockport_simplified,2022.2.4,Linux x86_64,4.285628573,661e456ee6de07e70aa9ef7b,6628df8aee7521f2090bf142,,,,,,,,,,,,,,,,,,,,,,,,,,,,,,,,,,,,,,,,,,,,,,,,,,,,,,,,1,30,90,13,1,B,X,N,o2_image,stimuli/out2.png,stimuli/out1.png,stimuli/correct_out2.png,,,,,,,,,,,,,,,,,,,,,,,,,,,,,,,,,,,,,,
,,63b6bfc861dd62d55125a428,42,male,2024-04-24_12h32.44.469,stockport_simplified,2022.2.4,Linux x86_64,4.285628573,661e456ee6de07e70aa9ef7b,6628df8aee7521f2090bf142,,,,,,,,,,,,,,,,,,,,,,,,,,,,,,,,,,730.6112,732.6668,"[7,3,6,2,4,8,1,5]","[[-0.3,0.2],[0.3,0.2]]","[[0.125,-0.2],[-0.125,-0.2]]",-0.093411996,-0.180432645,1,0,0,1.5131,o2_image,732.6673,0,732.9636,732.9636,735.0222,0,0,0,0,1,,,,,,,,,,,,,,,,,,,,,,,,,,,,,,,,,,,,,,,,,,,,,,,,,,
,,63b6bfc861dd62d55125a428,42,male,2024-04-24_12h32.44.469,stockport_simplified,2022.2.4,Linux x86_64,4.285628573,661e456ee6de07e70aa9ef7b,6628df8aee7521f2090bf142,,,,,,,,,,,,,,,,,,,,,,,,,,,,,,,,,,,,,,,,,,,,,,,,,,,,,,,,1,31,91,53,1,N,M,C,o1_image,stimuli/out1.png,stimuli/correct_out1.png,stimuli/out2.png,,,,,,,,,,,,,,,,,,,,,,,,,,,,,,,,,,,,,,
,,63b6bfc861dd62d55125a428,42,male,2024-04-24_12h32.44.469,stockport_simplified,2022.2.4,Linux x86_64,4.285628573,661e456ee6de07e70aa9ef7b,6628df8aee7521f2090bf142,,,,,,,,,,,,,,,,,,,,,,,,,,,,,,,,,,735.0226,736.7794,"[7,3,6,2,4,8,1,5]","[[0.3,0.2],[-0.3,0.2]]","[[0.125,-0.2],[-0.125,-0.2]]",-0.110127827,-0.176499508,1,0,0,1.2255,o2_image,736.7802,1,737.0901,737.0902,739.1415,0,0,0,0,1,,,,,,,,,,,,,,,,,,,,,,,,,,,,,,,,,,,,,,,,,,,,,,,,,,
,,63b6bfc861dd62d55125a428,42,male,2024-04-24_12h32.44.469,stockport_simplified,2022.2.4,Linux x86_64,4.285628573,661e456ee6de07e70aa9ef7b,6628df8aee7521f2090bf142,,,,,,,,,,,,,,,,,,,,,,,,,,,,,,,,,,,,,,,,,,,,,,,,,,,,,,,,1,32,92,56,1,N,M,D,o2_image,stimuli/out2.png,stimuli/out1.png,stimuli/correct_out2.png,,,,,,,,,,,,,,,,,,,,,,,,,,,,,,,,,,,,,,
,,63b6bfc861dd62d55125a428,42,male,2024-04-24_12h32.44.469,stockport_simplified,2022.2.4,Linux x86_64,4.285628573,661e456ee6de07e70aa9ef7b,6628df8aee7521f2090bf142,,,,,,,,,,,,,,,,,,,,,,,,,,,,,,,,,,739.1418,742.3146,"[7,3,6,2,4,8,1,5]","[[0.3,0.2],[-0.3,0.2]]","[[0.125,-0.2],[-0.125,-0.2]]",0.134709931,-0.187315634,1,0,0,2.4458,o1_image,742.3152,0,742.6267,742.6267,744.4225,0,0,0,0,1,,,,,,,,,,,,,,,,,,,,,,,,,,,,,,,,,,,,,,,,,,,,,,,,,,
,,63b6bfc861dd62d55125a428,42,male,2024-04-24_12h32.44.469,stockport_simplified,2022.2.4,Linux x86_64,4.285628573,661e456ee6de07e70aa9ef7b,6628df8aee7521f2090bf142,,,,,,,,,,,,,,,,,,,,,,,,,,,,,,,,,,,,,,,,,,,,,,,,,,,,,,,,1,33,93,42,1,B,X,N,o2_image,stimuli/out2.png,stimuli/out1.png,stimuli/correct_out2.png,,,,,,,,,,,,,,,,,,,,,,,,,,,,,,,,,,,,,,
,,63b6bfc861dd62d55125a428,42,male,2024-04-24_12h32.44.469,stockport_simplified,2022.2.4,Linux x86_64,4.285628573,661e456ee6de07e70aa9ef7b,6628df8aee7521f2090bf142,,,,,,,,,,,,,,,,,,,,,,,,,,,,,,,,,,744.423,747.9396,"[7,3,6,2,4,8,1,5]","[[-0.3,0.2],[0.3,0.2]]","[[-0.125,-0.2],[0.125,-0.2]]",-0.110127827,-0.18633235,1,0,0,3.0005,o1_image,747.9403,1,748.238,748.238,750.2687,0,0,0,0,1,,,,,,,,,,,,,,,,,,,,,,,,,,,,,,,,,,,,,,,,,,,,,,,,,,
,,63b6bfc861dd62d55125a428,42,male,2024-04-24_12h32.44.469,stockport_simplified,2022.2.4,Linux x86_64,4.285628573,661e456ee6de07e70aa9ef7b,6628df8aee7521f2090bf142,,,,,,,,,,,,,,,,,,,,,,,,,,,,,,,,,,,,,,,,,,,,,,,,,,,,,,,,1,34,94,5,1,A,Y,N,o1_image,stimuli/out1.png,stimuli/correct_out1.png,stimuli/out2.png,,,,,,,,,,,,,,,,,,,,,,,,,,,,,,,,,,,,,,
,,63b6bfc861dd62d55125a428,42,male,2024-04-24_12h32.44.469,stockport_simplified,2022.2.4,Linux x86_64,4.285628573,661e456ee6de07e70aa9ef7b,6628df8aee7521f2090bf142,,,,,,,,,,,,,,,,,,,,,,,,,,,,,,,,,,750.2691,752.6132,"[7,3,6,2,4,8,1,5]","[[-0.3,0.2],[0.3,0.2]]","[[-0.125,-0.2],[0.125,-0.2]]",0.139626352,-0.187315634,1,0,0,1.8229,o2_image,752.6137,0,752.9285,752.9285,755.0085,0,0,0,0,1,,,,,,,,,,,,,,,,,,,,,,,,,,,,,,,,,,,,,,,,,,,,,,,,,,
,,63b6bfc861dd62d55125a428,42,male,2024-04-24_12h32.44.469,stockport_simplified,2022.2.4,Linux x86_64,4.285628573,661e456ee6de07e70aa9ef7b,6628df8aee7521f2090bf142,,,,,,,,,,,,,,,,,,,,,,,,,,,,,,,,,,,,,,,,,,,,,,,,,,,,,,,,1,35,95,39,1,A,Y,N,o1_image,stimuli/out1.png,stimuli/correct_out1.png,stimuli/out2.png,,,,,,,,,,,,,,,,,,,,,,,,,,,,,,,,,,,,,,
,,63b6bfc861dd62d55125a428,42,male,2024-04-24_12h32.44.469,stockport_simplified,2022.2.4,Linux x86_64,4.285628573,661e456ee6de07e70aa9ef7b,6628df8aee7521f2090bf142,,,,,,,,,,,,,,,,,,,,,,,,,,,,,,,,,,755.0089,758.1678,"[7,3,6,2,4,8,1,5]","[[0.3,0.2],[-0.3,0.2]]","[[0.125,-0.2],[-0.125,-0.2]]",-0.092428712,-0.171583088,1,0,0,2.4123,o2_image,758.1688,1,758.4887,758.4887,760.3188,0,0,0,0,1,,,,,,,,,,,,,,,,,,,,,,,,,,,,,,,,,,,,,,,,,,,,,,,,,,
,,63b6bfc861dd62d55125a428,42,male,2024-04-24_12h32.44.469,stockport_simplified,2022.2.4,Linux x86_64,4.285628573,661e456ee6de07e70aa9ef7b,6628df8aee7521f2090bf142,,,,,,,,,,,,,,,,,,,,,,,,,,,,,,,,,,,,,,,,,,,,,,,,,,,,,,,,1,36,96,18,1,B,Y,N,o2_image,stimuli/out2.png,stimuli/out1.png,stimuli/correct_out2.png,,,,,,,,,,,,,,,,,,,,,,,,,,,,,,,,,,,,,,
,,63b6bfc861dd62d55125a428,42,male,2024-04-24_12h32.44.469,stockport_simplified,2022.2.4,Linux x86_64,4.285628573,661e456ee6de07e70aa9ef7b,6628df8aee7521f2090bf142,,,,,,,,,,,,,,,,,,,,,,,,,,,,,,,,,,760.3192,763.0245,"[7,3,6,2,4,8,1,5]","[[0.3,0.2],[-0.3,0.2]]","[[0.125,-0.2],[-0.125,-0.2]]",-0.092428712,-0.171583088,1,0,0,2.1559,o2_image,763.0249,1,763.3103,763.3103,765.1261,0,0,0,0,1,,,,,,,,,,,,,,,,,,,,,,,,,,,,,,,,,,,,,,,,,,,,,,,,,,
,,63b6bfc861dd62d55125a428,42,male,2024-04-24_12h32.44.469,stockport_simplified,2022.2.4,Linux x86_64,4.285628573,661e456ee6de07e70aa9ef7b,6628df8aee7521f2090bf142,,,,,,,,,,,,,,,,,,,,,,,,,,,,,,,,,,,,,,,,,,,,,,,,,,,,,,,,1,37,97,46,1,B,Y,N,o2_image,stimuli/out2.png,stimuli/out1.png,stimuli/correct_out2.png,,,,,,,,,,,,,,,,,,,,,,,,,,,,,,,,,,,,,,
,,63b6bfc861dd62d55125a428,42,male,2024-04-24_12h32.44.469,stockport_simplified,2022.2.4,Linux x86_64,4.285628573,661e456ee6de07e70aa9ef7b,6628df8aee7521f2090bf142,,,,,,,,,,,,,,,,,,,,,,,,,,,,,,,,,,765.1266,766.869,"[7,3,6,2,4,8,1,5]","[[0.3,0.2],[-0.3,0.2]]","[[-0.125,-0.2],[0.125,-0.2]]",-0.108161259,-0.176499508,1,0,0,1.2133,o1_image,766.8699,0,767.1609,767.1609,769.0104,0,0,0,0,1,,,,,,,,,,,,,,,,,,,,,,,,,,,,,,,,,,,,,,,,,,,,,,,,,,
,,63b6bfc861dd62d55125a428,42,male,2024-04-24_12h32.44.469,stockport_simplified,2022.2.4,Linux x86_64,4.285628573,661e456ee6de07e70aa9ef7b,6628df8aee7521f2090bf142,,,,,,,,,,,,,,,,,,,,,,,,,,,,,,,,,,,,,,,,,,,,,,,,,,,,,,,,1,38,98,10,1,B,X,N,o2_image,stimuli/out2.png,stimuli/out1.png,stimuli/correct_out2.png,,,,,,,,,,,,,,,,,,,,,,,,,,,,,,,,,,,,,,
,,63b6bfc861dd62d55125a428,42,male,2024-04-24_12h32.44.469,stockport_simplified,2022.2.4,Linux x86_64,4.285628573,661e456ee6de07e70aa9ef7b,6628df8aee7521f2090bf142,,,,,,,,,,,,,,,,,,,,,,,,,,,,,,,,,,769.0107,771.3502,"[7,3,6,2,4,8,1,5]","[[-0.3,0.2],[0.3,0.2]]","[[0.125,-0.2],[-0.125,-0.2]]",0.176007866,-0.200098328,1,0,0,1.8286,o1_image,771.352,1,771.6448,771.6448,773.4239,0,0,0,0,1,,,,,,,,,,,,,,,,,,,,,,,,,,,,,,,,,,,,,,,,,,,,,,,,,,
,,63b6bfc861dd62d55125a428,42,male,2024-04-24_12h32.44.469,stockport_simplified,2022.2.4,Linux x86_64,4.285628573,661e456ee6de07e70aa9ef7b,6628df8aee7521f2090bf142,,,,,,,,,,,,,,,,,,,,,,,,,,,,,,,,,,,,,,,,,,,,,,,,,,,,,,,,1,39,99,8,1,A,Y,N,o1_image,stimuli/out1.png,stimuli/correct_out1.png,stimuli/out2.png,,,,,,,,,,,,,,,,,,,,,,,,,,,,,,,,,,,,,,
,,63b6bfc861dd62d55125a428,42,male,2024-04-24_12h32.44.469,stockport_simplified,2022.2.4,Linux x86_64,4.285628573,661e456ee6de07e70aa9ef7b,6628df8aee7521f2090bf142,,,,,,,,,,,,,,,,,,,,,,,,,,,,,,,,,,773.4244,775.4594,"[7,3,6,2,4,8,1,5]","[[-0.3,0.2],[0.3,0.2]]","[[-0.125,-0.2],[0.125,-0.2]]",0.158308751,-0.181415929,1,0,0,1.4809,o2_image,775.4604,0,775.8057,775.8057,777.7146,0,0,0,0,1,,,,,,,,,,,,,,,,,,,,,,,,,,,,,,,,,,,,,,,,,,,,,,,,,,
,,63b6bfc861dd62d55125a428,42,male,2024-04-24_12h32.44.469,stockport_simplified,2022.2.4,Linux x86_64,4.285628573,661e456ee6de07e70aa9ef7b,6628df8aee7521f2090bf142,,,,,,,,,,,,,,,,,,,,,,,,,,,,,,,,,,,,,,,,,,,,,,,,,,,,,,,,1,40,100,52,1,N,M,C,o1_image,stimuli/out1.png,stimuli/correct_out1.png,stimuli/out2.png,,,,,,,,,,,,,,,,,,,,,,,,,,,,,,,,,,,,,,
,,63b6bfc861dd62d55125a428,42,male,2024-04-24_12h32.44.469,stockport_simplified,2022.2.4,Linux x86_64,4.285628573,661e456ee6de07e70aa9ef7b,6628df8aee7521f2090bf142,,,,,,,,,,,,,,,,,,,,,,,,,,,,,,,,,,777.7151,780.0339,"[7,3,6,2,4,8,1,5]","[[-0.3,0.2],[0.3,0.2]]","[[0.125,-0.2],[-0.125,-0.2]]",-0.086529007,-0.17453294,1,0,0,1.8152,o2_image,780.0346,0,780.3141,780.3142,782.1267,0,0,0,0,1,,,,,,,,,,,,,,,,,,,,,,,,,,,,,,,,,,,,,,,,,,,,,,,,,,
,,63b6bfc861dd62d55125a428,42,male,2024-04-24_12h32.44.469,stockport_simplified,2022.2.4,Linux x86_64,4.285628573,661e456ee6de07e70aa9ef7b,6628df8aee7521f2090bf142,,,,,,,,,,,,,,,,,,,,,,,,,,,,,,,,,,,,,,,,,,,,,,,,,,,,,,,,1,41,101,22,1,N,M,C,o1_image,stimuli/out1.png,stimuli/correct_out1.png,stimuli/out2.png,,,,,,,,,,,,,,,,,,,,,,,,,,,,,,,,,,,,,,
,,63b6bfc861dd62d55125a428,42,male,2024-04-24_12h32.44.469,stockport_simplified,2022.2.4,Linux x86_64,4.285628573,661e456ee6de07e70aa9ef7b,6628df8aee7521f2090bf142,,,,,,,,,,,,,,,,,,,,,,,,,,,,,,,,,,782.1275,786.7757,"[7,3,6,2,4,8,1,5]","[[0.3,0.2],[-0.3,0.2]]","[[0.125,-0.2],[-0.125,-0.2]]",-0.121927237,-0.189282203,1,0,0,4.1458,o2_image,786.787,0,787.1153,787.1153,788.9422,0,0,0,0,1,,,,,,,,,,,,,,,,,,,,,,,,,,,,,,,,,,,,,,,,,,,,,,,,,,
,,63b6bfc861dd62d55125a428,42,male,2024-04-24_12h32.44.469,stockport_simplified,2022.2.4,Linux x86_64,4.285628573,661e456ee6de07e70aa9ef7b,6628df8aee7521f2090bf142,,,,,,,,,,,,,,,,,,,,,,,,,,,,,,,,,,,,,,,,,,,,,,,,,,,,,,,,1,42,102,2,1,A,X,N,o1_image,stimuli/out1.png,stimuli/correct_out1.png,stimuli/out2.png,,,,,,,,,,,,,,,,,,,,,,,,,,,,,,,,,,,,,,
,,63b6bfc861dd62d55125a428,42,male,2024-04-24_12h32.44.469,stockport_simplified,2022.2.4,Linux x86_64,4.285628573,661e456ee6de07e70aa9ef7b,6628df8aee7521f2090bf142,,,,,,,,,,,,,,,,,,,,,,,,,,,,,,,,,,788.9424,791.3228,"[7,3,6,2,4,8,1,5]","[[-0.3,0.2],[0.3,0.2]]","[[-0.125,-0.2],[0.125,-0.2]]",0.134709931,-0.175516224,1,0,0,1.6189,o2_image,791.3232,0,791.6227,791.6227,793.6383,0,0,0,0,1,,,,,,,,,,,,,,,,,,,,,,,,,,,,,,,,,,,,,,,,,,,,,,,,,,
,,63b6bfc861dd62d55125a428,42,male,2024-04-24_12h32.44.469,stockport_simplified,2022.2.4,Linux x86_64,4.285628573,661e456ee6de07e70aa9ef7b,6628df8aee7521f2090bf142,,,,,,,,,,,,,,,,,,,,,,,,,,,,,,,,,,,,,,,,,,,,,,,,,,,,,,,,1,43,103,21,1,N,M,C,o1_image,stimuli/out1.png,stimuli/correct_out1.png,stimuli/out2.png,,,,,,,,,,,,,,,,,,,,,,,,,,,,,,,,,,,,,,
,,63b6bfc861dd62d55125a428,42,male,2024-04-24_12h32.44.469,stockport_simplified,2022.2.4,Linux x86_64,4.285628573,661e456ee6de07e70aa9ef7b,6628df8aee7521f2090bf142,,,,,,,,,,,,,,,,,,,,,,,,,,,,,,,,,,793.6388,797.5119,"[7,3,6,2,4,8,1,5]","[[-0.3,0.2],[0.3,0.2]]","[[-0.125,-0.2],[0.125,-0.2]]",0.134709931,-0.175516224,1,0,0,3.1316,o2_image,797.5223,0,797.9532,797.9532,800.0315,0,0,0,0,1,,,,,,,,,,,,,,,,,,,,,,,,,,,,,,,,,,,,,,,,,,,,,,,,,,
,,63b6bfc861dd62d55125a428,42,male,2024-04-24_12h32.44.469,stockport_simplified,2022.2.4,Linux x86_64,4.285628573,661e456ee6de07e70aa9ef7b,6628df8aee7521f2090bf142,,,,,,,,,,,,,,,,,,,,,,,,,,,,,,,,,,,,,,,,,,,,,,,,,,,,,,,,1,44,104,37,1,A,Y,N,o1_image,stimuli/out1.png,stimuli/correct_out1.png,stimuli/out2.png,,,,,,,,,,,,,,,,,,,,,,,,,,,,,,,,,,,,,,
,,63b6bfc861dd62d55125a428,42,male,2024-04-24_12h32.44.469,stockport_simplified,2022.2.4,Linux x86_64,4.285628573,661e456ee6de07e70aa9ef7b,6628df8aee7521f2090bf142,,,,,,,,,,,,,,,,,,,,,,,,,,,,,,,,,,800.0319,803.1308,"[7,3,6,2,4,8,1,5]","[[-0.3,0.2],[0.3,0.2]]","[[0.125,-0.2],[-0.125,-0.2]]",-0.142576205,-0.163716814,1,0,0,2.5629,o2_image,803.1317,0,803.4663,803.4663,805.517,0,0,0,0,1,,,,,,,,,,,,,,,,,,,,,,,,,,,,,,,,,,,,,,,,,,,,,,,,,,
,,63b6bfc861dd62d55125a428,42,male,2024-04-24_12h32.44.469,stockport_simplified,2022.2.4,Linux x86_64,4.285628573,661e456ee6de07e70aa9ef7b,6628df8aee7521f2090bf142,,,,,,,,,,,,,,,,,,,,,,,,,,,,,,,,,,,,,,,,,,,,,,,,,,,,,,,,1,45,105,54,1,N,M,C,o1_image,stimuli/out1.png,stimuli/correct_out1.png,stimuli/out2.png,,,,,,,,,,,,,,,,,,,,,,,,,,,,,,,,,,,,,,
,,63b6bfc861dd62d55125a428,42,male,2024-04-24_12h32.44.469,stockport_simplified,2022.2.4,Linux x86_64,4.285628573,661e456ee6de07e70aa9ef7b,6628df8aee7521f2090bf142,,,,,,,,,,,,,,,,,,,,,,,,,,,,,,,,,,805.5177,807.2198,"[7,3,6,2,4,8,1,5]","[[0.3,0.2],[-0.3,0.2]]","[[0.125,-0.2],[-0.125,-0.2]]",0.1366765,-0.166666667,1,0,0,1.1762,o1_image,807.2205,1,807.5237,807.5237,809.5693,0,0,0,0,1,,,,,,,,,,,,,,,,,,,,,,,,,,,,,,,,,,,,,,,,,,,,,,,,,,
,,63b6bfc861dd62d55125a428,42,male,2024-04-24_12h32.44.469,stockport_simplified,2022.2.4,Linux x86_64,4.285628573,661e456ee6de07e70aa9ef7b,6628df8aee7521f2090bf142,,,,,,,,,,,,,,,,,,,,,,,,,,,,,,,,,,,,,,,,,,,,,,,,,,,,,,,,1,46,106,23,1,N,M,C,o1_image,stimuli/out1.png,stimuli/correct_out1.png,stimuli/out2.png,,,,,,,,,,,,,,,,,,,,,,,,,,,,,,,,,,,,,,
,,63b6bfc861dd62d55125a428,42,male,2024-04-24_12h32.44.469,stockport_simplified,2022.2.4,Linux x86_64,4.285628573,661e456ee6de07e70aa9ef7b,6628df8aee7521f2090bf142,,,,,,,,,,,,,,,,,,,,,,,,,,,,,,,,,,809.5698,811.5406,"[7,3,6,2,4,8,1,5]","[[0.3,0.2],[-0.3,0.2]]","[[-0.125,-0.2],[0.125,-0.2]]",0.1366765,-0.166666667,1,0,0,1.4613,o2_image,811.541,0,811.8629,811.8629,813.6927,0,0,0,0,1,,,,,,,,,,,,,,,,,,,,,,,,,,,,,,,,,,,,,,,,,,,,,,,,,,
,,63b6bfc861dd62d55125a428,42,male,2024-04-24_12h32.44.469,stockport_simplified,2022.2.4,Linux x86_64,4.285628573,661e456ee6de07e70aa9ef7b,6628df8aee7521f2090bf142,,,,,,,,,,,,,,,,,,,,,,,,,,,,,,,,,,,,,,,,,,,,,,,,,,,,,,,,1,47,107,3,1,A,X,N,o1_image,stimuli/out1.png,stimuli/correct_out1.png,stimuli/out2.png,,,,,,,,,,,,,,,,,,,,,,,,,,,,,,,,,,,,,,
,,63b6bfc861dd62d55125a428,42,male,2024-04-24_12h32.44.469,stockport_simplified,2022.2.4,Linux x86_64,4.285628573,661e456ee6de07e70aa9ef7b,6628df8aee7521f2090bf142,,,,,,,,,,,,,,,,,,,,,,,,,,,,,,,,,,813.6933,815.7592,"[7,3,6,2,4,8,1,5]","[[-0.3,0.2],[0.3,0.2]]","[[-0.125,-0.2],[0.125,-0.2]]",-0.124877089,-0.161750246,1,0,0,1.5636,o1_image,815.7595,1,816.0484,816.0485,818.1386,0,0,0,0,1,,,,,,,,,,,,,,,,,,,,,,,,,,,,,,,,,,,,,,,,,,,,,,,,,,
,,63b6bfc861dd62d55125a428,42,male,2024-04-24_12h32.44.469,stockport_simplified,2022.2.4,Linux x86_64,4.285628573,661e456ee6de07e70aa9ef7b,6628df8aee7521f2090bf142,,,,,,,,,,,,,,,,,,,,,,,,,,,,,,,,,,,,,,,,,,,,,,,,,,,,,,,,1,48,108,30,1,A,X,N,o1_image,stimuli/out1.png,stimuli/correct_out1.png,stimuli/out2.png,,,,,,,,,,,,,,,,,,,,,,,,,,,,,,,,,,,,,,
,,63b6bfc861dd62d55125a428,42,male,2024-04-24_12h32.44.469,stockport_simplified,2022.2.4,Linux x86_64,4.285628573,661e456ee6de07e70aa9ef7b,6628df8aee7521f2090bf142,,,,,,,,,,,,,,,,,,,,,,,,,,,,,,,,,,818.1391,821.0364,"[7,3,6,2,4,8,1,5]","[[0.3,0.2],[-0.3,0.2]]","[[-0.125,-0.2],[0.125,-0.2]]",-0.10619469,-0.201081613,1,0,0,2.386,o1_image,821.0374,0,821.3566,821.3567,823.2086,0,0,0,0,1,,,,,,,,,,,,,,,,,,,,,,,,,,,,,,,,,,,,,,,,,,,,,,,,,,
,,63b6bfc861dd62d55125a428,42,male,2024-04-24_12h32.44.469,stockport_simplified,2022.2.4,Linux x86_64,4.285628573,661e456ee6de07e70aa9ef7b,6628df8aee7521f2090bf142,,,,,,,,,,,,,,,,,,,,,,,,,,,,,,,,,,,,,,,,,,,,,,,,,,,,,,,,1,49,109,25,1,N,M,D,o2_image,stimuli/out2.png,stimuli/out1.png,stimuli/correct_out2.png,,,,,,,,,,,,,,,,,,,,,,,,,,,,,,,,,,,,,,
,,63b6bfc861dd62d55125a428,42,male,2024-04-24_12h32.44.469,stockport_simplified,2022.2.4,Linux x86_64,4.285628573,661e456ee6de07e70aa9ef7b,6628df8aee7521f2090bf142,,,,,,,,,,,,,,,,,,,,,,,,,,,,,,,,,,823.2088,827.9421,"[7,3,6,2,4,8,1,5]","[[0.3,0.2],[-0.3,0.2]]","[[-0.125,-0.2],[0.125,-0.2]]",0.114060964,-0.181415929,1,0,0,4.2319,o2_image,827.9425,1,828.2574,828.2574,830.1743,0,0,0,0,1,,,,,,,,,,,,,,,,,,,,,,,,,,,,,,,,,,,,,,,,,,,,,,,,,,
,,63b6bfc861dd62d55125a428,42,male,2024-04-24_12h32.44.469,stockport_simplified,2022.2.4,Linux x86_64,4.285628573,661e456ee6de07e70aa9ef7b,6628df8aee7521f2090bf142,,,,,,,,,,,,,,,,,,,,,,,,,,,,,,,,,,,,,,,,,,,,,,,,,,,,,,,,1,50,110,41,1,B,X,N,o2_image,stimuli/out2.png,stimuli/out1.png,stimuli/correct_out2.png,,,,,,,,,,,,,,,,,,,,,,,,,,,,,,,,,,,,,,
,,63b6bfc861dd62d55125a428,42,male,2024-04-24_12h32.44.469,stockport_simplified,2022.2.4,Linux x86_64,4.285628573,661e456ee6de07e70aa9ef7b,6628df8aee7521f2090bf142,,,,,,,,,,,,,,,,,,,,,,,,,,,,,,,,,,830.1745,831.8964,"[7,3,6,2,4,8,1,5]","[[0.3,0.2],[-0.3,0.2]]","[[-0.125,-0.2],[0.125,-0.2]]",0.130776794,-0.170599803,1,0,0,1.1945,o2_image,831.8971,0,832.1854,832.1854,834.0138,0,0,0,0,1,,,,,,,,,,,,,,,,,,,,,,,,,,,,,,,,,,,,,,,,,,,,,,,,,,
,,63b6bfc861dd62d55125a428,42,male,2024-04-24_12h32.44.469,stockport_simplified,2022.2.4,Linux x86_64,4.285628573,661e456ee6de07e70aa9ef7b,6628df8aee7521f2090bf142,,,,,,,,,,,,,,,,,,,,,,,,,,,,,,,,,,,,,,,,,,,,,,,,,,,,,,,,1,51,111,1,1,A,X,N,o1_image,stimuli/out1.png,stimuli/correct_out1.png,stimuli/out2.png,,,,,,,,,,,,,,,,,,,,,,,,,,,,,,,,,,,,,,
,,63b6bfc861dd62d55125a428,42,male,2024-04-24_12h32.44.469,stockport_simplified,2022.2.4,Linux x86_64,4.285628573,661e456ee6de07e70aa9ef7b,6628df8aee7521f2090bf142,,,,,,,,,,,,,,,,,,,,,,,,,,,,,,,,,,834.0139,839.6474,"[7,3,6,2,4,8,1,5]","[[0.3,0.2],[-0.3,0.2]]","[[-0.125,-0.2],[0.125,-0.2]]",0.119960669,-0.18633235,1,0,0,5.1169,o2_image,839.6566,1,840.0087,840.0087,841.9895,0,0,0,0,1,,,,,,,,,,,,,,,,,,,,,,,,,,,,,,,,,,,,,,,,,,,,,,,,,,
,,63b6bfc861dd62d55125a428,42,male,2024-04-24_12h32.44.469,stockport_simplified,2022.2.4,Linux x86_64,4.285628573,661e456ee6de07e70aa9ef7b,6628df8aee7521f2090bf142,,,,,,,,,,,,,,,,,,,,,,,,,,,,,,,,,,,,,,,,,,,,,,,,,,,,,,,,1,52,112,49,1,B,Y,N,o2_image,stimuli/out2.png,stimuli/out1.png,stimuli/correct_out2.png,,,,,,,,,,,,,,,,,,,,,,,,,,,,,,,,,,,,,,
,,63b6bfc861dd62d55125a428,42,male,2024-04-24_12h32.44.469,stockport_simplified,2022.2.4,Linux x86_64,4.285628573,661e456ee6de07e70aa9ef7b,6628df8aee7521f2090bf142,,,,,,,,,,,,,,,,,,,,,,,,,,,,,,,,,,841.9904,843.9556,"[7,3,6,2,4,8,1,5]","[[0.3,0.2],[-0.3,0.2]]","[[-0.125,-0.2],[0.125,-0.2]]",0.111111111,-0.17453294,1,0,0,1.3908,o2_image,843.9563,0,844.5721,844.5721,846.3749,0,0,0,0,1,,,,,,,,,,,,,,,,,,,,,,,,,,,,,,,,,,,,,,,,,,,,,,,,,,
,,63b6bfc861dd62d55125a428,42,male,2024-04-24_12h32.44.469,stockport_simplified,2022.2.4,Linux x86_64,4.285628573,661e456ee6de07e70aa9ef7b,6628df8aee7521f2090bf142,,,,,,,,,,,,,,,,,,,,,,,,,,,,,,,,,,,,,,,,,,,,,,,,,,,,,,,,1,53,113,6,1,A,Y,N,o1_image,stimuli/out1.png,stimuli/correct_out1.png,stimuli/out2.png,,,,,,,,,,,,,,,,,,,,,,,,,,,,,,,,,,,,,,
,,63b6bfc861dd62d55125a428,42,male,2024-04-24_12h32.44.469,stockport_simplified,2022.2.4,Linux x86_64,4.285628573,661e456ee6de07e70aa9ef7b,6628df8aee7521f2090bf142,,,,,,,,,,,,,,,,,,,,,,,,,,,,,,,,,,846.3753,848.7162,"[7,3,6,2,4,8,1,5]","[[0.3,0.2],[-0.3,0.2]]","[[0.125,-0.2],[-0.125,-0.2]]",0.119960669,-0.184365782,1,0,0,1.8211,o1_image,848.7166,1,849.0177,849.0177,851.0229,0,0,0,0,1,,,,,,,,,,,,,,,,,,,,,,,,,,,,,,,,,,,,,,,,,,,,,,,,,,
,,63b6bfc861dd62d55125a428,42,male,2024-04-24_12h32.44.469,stockport_simplified,2022.2.4,Linux x86_64,4.285628573,661e456ee6de07e70aa9ef7b,6628df8aee7521f2090bf142,,,,,,,,,,,,,,,,,,,,,,,,,,,,,,,,,,,,,,,,,,,,,,,,,,,,,,,,1,54,114,38,1,A,Y,N,o1_image,stimuli/out1.png,stimuli/correct_out1.png,stimuli/out2.png,,,,,,,,,,,,,,,,,,,,,,,,,,,,,,,,,,,,,,
,,63b6bfc861dd62d55125a428,42,male,2024-04-24_12h32.44.469,stockport_simplified,2022.2.4,Linux x86_64,4.285628573,661e456ee6de07e70aa9ef7b,6628df8aee7521f2090bf142,,,,,,,,,,,,,,,,,,,,,,,,,,,,,,,,,,851.0233,852.6329,"[7,3,6,2,4,8,1,5]","[[-0.3,0.2],[0.3,0.2]]","[[0.125,-0.2],[-0.125,-0.2]]",0.119960669,-0.184365782,1,0,0,0.858,o1_image,852.6347,0,852.942,852.942,854.734,0,0,0,0,1,,,,,,,,,,,,,,,,,,,,,,,,,,,,,,,,,,,,,,,,,,,,,,,,,,
,,63b6bfc861dd62d55125a428,42,male,2024-04-24_12h32.44.469,stockport_simplified,2022.2.4,Linux x86_64,4.285628573,661e456ee6de07e70aa9ef7b,6628df8aee7521f2090bf142,,,,,,,,,,,,,,,,,,,,,,,,,,,,,,,,,,,,,,,,,,,,,,,,,,,,,,,,1,55,115,17,1,B,Y,N,o2_image,stimuli/out2.png,stimuli/out1.png,stimuli/correct_out2.png,,,,,,,,,,,,,,,,,,,,,,,,,,,,,,,,,,,,,,
,,63b6bfc861dd62d55125a428,42,male,2024-04-24_12h32.44.469,stockport_simplified,2022.2.4,Linux x86_64,4.285628573,661e456ee6de07e70aa9ef7b,6628df8aee7521f2090bf142,,,,,,,,,,,,,,,,,,,,,,,,,,,,,,,,,,854.7345,857.967,"[7,3,6,2,4,8,1,5]","[[0.3,0.2],[-0.3,0.2]]","[[-0.125,-0.2],[0.125,-0.2]]",-0.121927237,-0.181415929,1,0,0,2.7275,o1_image,857.9678,0,858.2547,858.2547,860.3009,0,0,0,0,1,,,,,,,,,,,,,,,,,,,,,,,,,,,,,,,,,,,,,,,,,,,,,,,,,,
,,63b6bfc861dd62d55125a428,42,male,2024-04-24_12h32.44.469,stockport_simplified,2022.2.4,Linux x86_64,4.285628573,661e456ee6de07e70aa9ef7b,6628df8aee7521f2090bf142,,,,,,,,,,,,,,,,,,,,,,,,,,,,,,,,,,,,,,,,,,,,,,,,,,,,,,,,1,56,116,48,1,B,Y,N,o2_image,stimuli/out2.png,stimuli/out1.png,stimuli/correct_out2.png,,,,,,,,,,,,,,,,,,,,,,,,,,,,,,,,,,,,,,
,,63b6bfc861dd62d55125a428,42,male,2024-04-24_12h32.44.469,stockport_simplified,2022.2.4,Linux x86_64,4.285628573,661e456ee6de07e70aa9ef7b,6628df8aee7521f2090bf142,,,,,,,,,,,,,,,,,,,,,,,,,,,,,,,,,,860.3013,862.3387,"[7,3,6,2,4,8,1,5]","[[0.3,0.2],[-0.3,0.2]]","[[0.125,-0.2],[-0.125,-0.2]]",0.097345133,-0.160766962,1,0,0,1.5157,o1_image,862.3392,0,862.6467,862.6467,864.4567,0,0,0,0,1,,,,,,,,,,,,,,,,,,,,,,,,,,,,,,,,,,,,,,,,,,,,,,,,,,
,,63b6bfc861dd62d55125a428,42,male,2024-04-24_12h32.44.469,stockport_simplified,2022.2.4,Linux x86_64,4.285628573,661e456ee6de07e70aa9ef7b,6628df8aee7521f2090bf142,,,,,,,,,,,,,,,,,,,,,,,,,,,,,,,,,,,,,,,,,,,,,,,,,,,,,,,,1,57,117,12,1,B,X,N,o2_image,stimuli/out2.png,stimuli/out1.png,stimuli/correct_out2.png,,,,,,,,,,,,,,,,,,,,,,,,,,,,,,,,,,,,,,
,,63b6bfc861dd62d55125a428,42,male,2024-04-24_12h32.44.469,stockport_simplified,2022.2.4,Linux x86_64,4.285628573,661e456ee6de07e70aa9ef7b,6628df8aee7521f2090bf142,,,,,,,,,,,,,,,,,,,,,,,,,,,,,,,,,,864.457,867.7468,"[7,3,6,2,4,8,1,5]","[[-0.3,0.2],[0.3,0.2]]","[[-0.125,-0.2],[0.125,-0.2]]",-0.126843658,-0.183382498,1,0,0,2.7599,o1_image,867.7472,0,868.0329,868.0329,870.0115,0,0,0,0,1,,,,,,,,,,,,,,,,,,,,,,,,,,,,,,,,,,,,,,,,,,,,,,,,,,
,,63b6bfc861dd62d55125a428,42,male,2024-04-24_12h32.44.469,stockport_simplified,2022.2.4,Linux x86_64,4.285628573,661e456ee6de07e70aa9ef7b,6628df8aee7521f2090bf142,,,,,,,,,,,,,,,,,,,,,,,,,,,,,,,,,,,,,,,,,,,,,,,,,,,,,,,,1,58,118,40,1,B,X,N,o2_image,stimuli/out2.png,stimuli/out1.png,stimuli/correct_out2.png,,,,,,,,,,,,,,,,,,,,,,,,,,,,,,,,,,,,,,
,,63b6bfc861dd62d55125a428,42,male,2024-04-24_12h32.44.469,stockport_simplified,2022.2.4,Linux x86_64,4.285628573,661e456ee6de07e70aa9ef7b,6628df8aee7521f2090bf142,,,,,,,,,,,,,,,,,,,,,,,,,,,,,,,,,,870.0119,872.9554,"[7,3,6,2,4,8,1,5]","[[-0.3,0.2],[0.3,0.2]]","[[-0.125,-0.2],[0.125,-0.2]]",0.098328417,-0.182399213,1,0,0,2.2104,o2_image,872.9564,1,873.2664,873.2665,875.3175,0,0,0,0,1,,,,,,,,,,,,,,,,,,,,,,,,,,,,,,,,,,,,,,,,,,,,,,,,,,
,,63b6bfc861dd62d55125a428,42,male,2024-04-24_12h32.44.469,stockport_simplified,2022.2.4,Linux x86_64,4.285628573,661e456ee6de07e70aa9ef7b,6628df8aee7521f2090bf142,,,,,,,,,,,,,,,,,,,,,,,,,,,,,,,,,,,,,,,,,,,,,,,,,,,,,,,,1,59,119,47,1,B,Y,N,o2_image,stimuli/out2.png,stimuli/out1.png,stimuli/correct_out2.png,,,,,,,,,,,,,,,,,,,,,,,,,,,,,,,,,,,,,,
,,63b6bfc861dd62d55125a428,42,male,2024-04-24_12h32.44.469,stockport_simplified,2022.2.4,Linux x86_64,4.285628573,661e456ee6de07e70aa9ef7b,6628df8aee7521f2090bf142,,,,,,,,,,,,,,,,,,,,,,,,,,,,,,,,,,875.3314,878.4914,"[7,3,6,2,4,8,1,5]","[[-0.3,0.2],[0.3,0.2]]","[[0.125,-0.2],[-0.125,-0.2]]",-0.158308751,-0.193215339,1,0,0,2.6494,o2_image,878.5006,1,878.7835,878.7835,880.8521,,,,,,,,,,,,,,,,,,0,0,0,0,1,,,,,,,,,,,,,,,,,,,,,,,,,,,,,,,,,
,,63b6bfc861dd62d55125a428,42,male,2024-04-24_12h32.44.469,stockport_simplified,2022.2.4,Linux x86_64,4.285628573,661e456ee6de07e70aa9ef7b,6628df8aee7521f2090bf142,,,,,,,,,,,,,,,,,,,,,,,,,,,,,,,,,,,,,,,,,,,,,,,,,,,,,,,,,,,,,B,Y,N,o2_image,stimuli/out2.png,stimuli/out1.png,stimuli/correct_out2.png,,,,,,0,0,0,39,1,,,,,,,,,,,,,,,,,,,,,,,,,,,,
,,63b6bfc861dd62d55125a428,42,male,2024-04-24_12h32.44.469,stockport_simplified,2022.2.4,Linux x86_64,4.285628573,661e456ee6de07e70aa9ef7b,6628df8aee7521f2090bf142,,,,,,,,,,,,,,,,,,,,,,,,,,,,,,,,,,880.8528,885.7006,"[7,3,6,2,4,8,1,5]","[[0.3,0.2],[-0.3,0.2]]","[[-0.125,-0.2],[0.125,-0.2]]",0.126843658,-0.185349066,1,0,0,4.1247,o2_image,885.7098,0,886.0021,886.0022,888.0621,,,,,,,,,,,,,,,,,,0,0,0,0,1,,,,,,,,,,,,,,,,,,,,,,,,,,,,,,,,,
,,63b6bfc861dd62d55125a428,42,male,2024-04-24_12h32.44.469,stockport_simplified,2022.2.4,Linux x86_64,4.285628573,661e456ee6de07e70aa9ef7b,6628df8aee7521f2090bf142,,,,,,,,,,,,,,,,,,,,,,,,,,,,,,,,,,,,,,,,,,,,,,,,,,,,,,,,,,,,,N,M,C,o1_image,stimuli/out1.png,stimuli/correct_out1.png,stimuli/out2.png,,,,,,0,1,1,49,1,,,,,,,,,,,,,,,,,,,,,,,,,,,,
