counterbalance_2.started,counterbalance_2.stopped,participant,age,gender,date,expName,psychopyVersion,OS,frameRate,STUDY_ID,SESSION_ID,information_2.started,information_2.stopped,information_loop.thisRepN,information_loop.thisTrialN,information_loop.thisN,information_loop.thisIndex,information_loop.ran,information,consent_2.started,consent_2.stopped,slider_1.response,slider_2.response,slider_3.response,slider_4.response,slider_5.response,slider_6.response,instructions.started,instructions.stopped,task1_instr.thisRepN,task1_instr.thisTrialN,task1_instr.thisN,task1_instr.thisIndex,task1_instr.ran,task1,comprehension1_2.started,comprehension1_2.stopped,comp1_mouse.x,comp1_mouse.y,comp1_mouse.leftButton,comp1_mouse.midButton,comp1_mouse.rightButton,comp1_mouse.time,comp1_mouse.clicked_name,cue_o__trial_2.started,cue_o__trial_2.stopped,order,cue_order,out_order,cue_o_mouse.x,cue_o_mouse.y,cue_o_mouse.leftButton,cue_o_mouse.midButton,cue_o_mouse.rightButton,cue_o_mouse.time,cue_o_mouse.clicked_name,cue_selection_2.started,correct_answer,cue_selection_2.stopped,feedback_2.started,feedback_2.stopped,feedback_loop.thisRepN,feedback_loop.thisTrialN,feedback_loop.thisN,feedback_loop.thisIndex,feedback_loop.ran,stage1_trials.thisRepN,stage1_trials.thisTrialN,stage1_trials.thisN,stage1_trials.thisIndex,stage1_trials.ran,cue1,cue2,cue3,outcome,correct_out,o1_feedback,o2_feedback,stage2_feedback_loop.thisRepN,stage2_feedback_loop.thisTrialN,stage2_feedback_loop.thisN,stage2_feedback_loop.thisIndex,stage2_feedback_loop.ran,stage2_trials.thisRepN,stage2_trials.thisTrialN,stage2_trials.thisN,stage2_trials.thisIndex,stage2_trials.ran,stage3_feedback_loop.thisRepN,stage3_feedback_loop.thisTrialN,stage3_feedback_loop.thisN,stage3_feedback_loop.thisIndex,stage3_feedback_loop.ran,stage3_trials.thisRepN,stage3_trials.thisTrialN,stage3_trials.thisN,stage3_trials.thisIndex,stage3_trials.ran,debrief_2.started,debrief_2.stopped,debrief_loop.thisRepN,debrief_loop.thisTrialN,debrief_loop.thisN,debrief_loop.thisIndex,debrief_loop.ran,debrief_img,compr1_completed.thisRepN,compr1_completed.thisTrialN,compr1_completed.thisN,compr1_completed.thisIndex,compr1_completed.ran,consent_loop.thisRepN,consent_loop.thisTrialN,consent_loop.thisN,consent_loop.thisIndex,consent_loop.ran
0,0,64871d208781227e5188a1b5,25,male,2024-04-19_17h37.23.362,stockport_simplified,2022.2.4,Win32,59.95203837,661e456ee6de07e70aa9ef7b,66229d9a0b961b173878925f,,,,,,,,,,,,,,,,,,,,,,,,,,,,,,,,,,,,,,,,,,,,,,,,,,,,,,,,,,,,,,,,,,,,,,,,,,,,,,,,,,,,,,,,,,,,,,,,,,,,,,,,,
,,64871d208781227e5188a1b5,25,male,2024-04-19_17h37.23.362,stockport_simplified,2022.2.4,Win32,59.95203837,661e456ee6de07e70aa9ef7b,66229d9a0b961b173878925f,0.016,17.846,0,0,0,0,1,instructions/info1.png,,,,,,,,,,,,,,,,,,,,,,,,,,,,,,,,,,,,,,,,,,,,,,,,,,,,,,,,,,,,,,,,,,,,,,,,,,,,,,,,,,,,,,,,,,,,,,,,,
,,64871d208781227e5188a1b5,25,male,2024-04-19_17h37.23.362,stockport_simplified,2022.2.4,Win32,59.95203837,661e456ee6de07e70aa9ef7b,66229d9a0b961b173878925f,17.847,111.46,0,1,1,1,1,instructions/info2.png,,,,,,,,,,,,,,,,,,,,,,,,,,,,,,,,,,,,,,,,,,,,,,,,,,,,,,,,,,,,,,,,,,,,,,,,,,,,,,,,,,,,,,,,,,,,,,,,,
,,64871d208781227e5188a1b5,25,male,2024-04-19_17h37.23.362,stockport_simplified,2022.2.4,Win32,59.95203837,661e456ee6de07e70aa9ef7b,66229d9a0b961b173878925f,111.461,117.097,0,2,2,2,1,instructions/info3.png,,,,,,,,,,,,,,,,,,,,,,,,,,,,,,,,,,,,,,,,,,,,,,,,,,,,,,,,,,,,,,,,,,,,,,,,,,,,,,,,,,,,,,,,,,,,,,,,,
,,64871d208781227e5188a1b5,25,male,2024-04-19_17h37.23.362,stockport_simplified,2022.2.4,Win32,59.95203837,661e456ee6de07e70aa9ef7b,66229d9a0b961b173878925f,,,,,,,,,117.098,151.182,1,1,1,1,1,1,,,,,,,,,,,,,,,,,,,,,,,,,,,,,,,,,,,,,,,,,,,,,,,,,,,,,,,,,,,,,,,,,,,,,,,,,,,,,,,,,,,,,,,,,
,,64871d208781227e5188a1b5,25,male,2024-04-19_17h37.23.362,stockport_simplified,2022.2.4,Win32,59.95203837,661e456ee6de07e70aa9ef7b,66229d9a0b961b173878925f,,,,,,,,,,,,,,,,,151.191,186.635,0,0,0,0,1,instructions/task1_1.png,,,,,,,,,,,,,,,,,,,,,,,,,,,,,,,,,,,,,,,,,,,,,,,,,,,,,,,,,,,,,,,,,,,,,,,,,,,,,,,,,
,,64871d208781227e5188a1b5,25,male,2024-04-19_17h37.23.362,stockport_simplified,2022.2.4,Win32,59.95203837,661e456ee6de07e70aa9ef7b,66229d9a0b961b173878925f,,,,,,,,,,,,,,,,,186.636,2739.38,0,1,1,1,1,instructions/task1_2.png,,,,,,,,,,,,,,,,,,,,,,,,,,,,,,,,,,,,,,,,,,,,,,,,,,,,,,,,,,,,,,,,,,,,,,,,,,,,,,,,,
,,64871d208781227e5188a1b5,25,male,2024-04-19_17h37.23.362,stockport_simplified,2022.2.4,Win32,59.95203837,661e456ee6de07e70aa9ef7b,66229d9a0b961b173878925f,,,,,,,,,,,,,,,,,2739.383,2758.601,0,2,2,2,1,instructions/task1_3.png,,,,,,,,,,,,,,,,,,,,,,,,,,,,,,,,,,,,,,,,,,,,,,,,,,,,,,,,,,,,,,,,,,,,,,,,,,,,,,,,,
,,64871d208781227e5188a1b5,25,male,2024-04-19_17h37.23.362,stockport_simplified,2022.2.4,Win32,59.95203837,661e456ee6de07e70aa9ef7b,66229d9a0b961b173878925f,,,,,,,,,,,,,,,,,,,,,,,,,2758.602,2782.307,0.120819849,-0.326321467,1,0,0,23.705,comp1_resp1,2782.328,2787.863,"[8,7,4,3,2,1,5,6]","[[-0.3,0.2],[0.3,0.2]]","[[-0.125,-0.2],[0.125,-0.2]]",0.142394822,-0.18824164,1,0,0,5.02,o2_image,2787.864,0,2788.363,2788.363,2790.366,0,0,0,0,1,,,,,,,,,,,,,,,,,,,,,,,,,,,,,,,,,,,,,,,,,,,,,,,,,,
,,64871d208781227e5188a1b5,25,male,2024-04-19_17h37.23.362,stockport_simplified,2022.2.4,Win32,59.95203837,661e456ee6de07e70aa9ef7b,66229d9a0b961b173878925f,,,,,,,,,,,,,,,,,,,,,,,,,,,,,,,,,,,,,,,,,,,,,,,,,,,,,,,,0,0,0,37,1,A,Y,N,o1_image,stimuli/out1.png,stimuli/correct_out1.png,stimuli/out2.png,,,,,,,,,,,,,,,,,,,,,,,,,,,,,,,,,,,,,,
,,64871d208781227e5188a1b5,25,male,2024-04-19_17h37.23.362,stockport_simplified,2022.2.4,Win32,59.95203837,661e456ee6de07e70aa9ef7b,66229d9a0b961b173878925f,,,,,,,,,,,,,,,,,,,,,,,,,,,,,,,,,,2790.368,2792.3,"[8,7,4,3,2,1,5,6]","[[0.3,0.2],[-0.3,0.2]]","[[-0.125,-0.2],[0.125,-0.2]]",0.104638619,-0.167745415,1,0,0,1.416,o2_image,2792.303,1,2792.801,2792.801,2794.803,0,0,0,0,1,,,,,,,,,,,,,,,,,,,,,,,,,,,,,,,,,,,,,,,,,,,,,,,,,,
,,64871d208781227e5188a1b5,25,male,2024-04-19_17h37.23.362,stockport_simplified,2022.2.4,Win32,59.95203837,661e456ee6de07e70aa9ef7b,66229d9a0b961b173878925f,,,,,,,,,,,,,,,,,,,,,,,,,,,,,,,,,,,,,,,,,,,,,,,,,,,,,,,,0,1,1,49,1,B,Y,N,o2_image,stimuli/out2.png,stimuli/out1.png,stimuli/correct_out2.png,,,,,,,,,,,,,,,,,,,,,,,,,,,,,,,,,,,,,,
,,64871d208781227e5188a1b5,25,male,2024-04-19_17h37.23.362,stockport_simplified,2022.2.4,Win32,59.95203837,661e456ee6de07e70aa9ef7b,66229d9a0b961b173878925f,,,,,,,,,,,,,,,,,,,,,,,,,,,,,,,,,,2794.803,2798.423,"[8,7,4,3,2,1,5,6]","[[0.3,0.2],[-0.3,0.2]]","[[-0.125,-0.2],[0.125,-0.2]]",-0.118662352,-0.182847896,1,0,0,3.119,o1_image,2798.425,1,2798.923,2798.924,2800.926,0,0,0,0,1,,,,,,,,,,,,,,,,,,,,,,,,,,,,,,,,,,,,,,,,,,,,,,,,,,
,,64871d208781227e5188a1b5,25,male,2024-04-19_17h37.23.362,stockport_simplified,2022.2.4,Win32,59.95203837,661e456ee6de07e70aa9ef7b,66229d9a0b961b173878925f,,,,,,,,,,,,,,,,,,,,,,,,,,,,,,,,,,,,,,,,,,,,,,,,,,,,,,,,0,2,2,20,1,N,M,C,o1_image,stimuli/out1.png,stimuli/correct_out1.png,stimuli/out2.png,,,,,,,,,,,,,,,,,,,,,,,,,,,,,,,,,,,,,,
,,64871d208781227e5188a1b5,25,male,2024-04-19_17h37.23.362,stockport_simplified,2022.2.4,Win32,59.95203837,661e456ee6de07e70aa9ef7b,66229d9a0b961b173878925f,,,,,,,,,,,,,,,,,,,,,,,,,,,,,,,,,,2800.927,2802.627,"[8,7,4,3,2,1,5,6]","[[-0.3,0.2],[0.3,0.2]]","[[-0.125,-0.2],[0.125,-0.2]]",0.145631068,-0.200107875,1,0,0,1.184,o2_image,2802.629,1,2803.128,2803.128,2805.129,0,0,0,0,1,,,,,,,,,,,,,,,,,,,,,,,,,,,,,,,,,,,,,,,,,,,,,,,,,,
,,64871d208781227e5188a1b5,25,male,2024-04-19_17h37.23.362,stockport_simplified,2022.2.4,Win32,59.95203837,661e456ee6de07e70aa9ef7b,66229d9a0b961b173878925f,,,,,,,,,,,,,,,,,,,,,,,,,,,,,,,,,,,,,,,,,,,,,,,,,,,,,,,,0,3,3,27,1,N,M,D,o2_image,stimuli/out2.png,stimuli/out1.png,stimuli/correct_out2.png,,,,,,,,,,,,,,,,,,,,,,,,,,,,,,,,,,,,,,
,,64871d208781227e5188a1b5,25,male,2024-04-19_17h37.23.362,stockport_simplified,2022.2.4,Win32,59.95203837,661e456ee6de07e70aa9ef7b,66229d9a0b961b173878925f,,,,,,,,,,,,,,,,,,,,,,,,,,,,,,,,,,2805.13,2808.216,"[8,7,4,3,2,1,5,6]","[[0.3,0.2],[-0.3,0.2]]","[[0.125,-0.2],[-0.125,-0.2]]",-0.100323625,-0.224919094,1,0,0,2.585,o2_image,2808.218,0,2808.718,2808.718,2810.718,0,0,0,0,1,,,,,,,,,,,,,,,,,,,,,,,,,,,,,,,,,,,,,,,,,,,,,,,,,,
,,64871d208781227e5188a1b5,25,male,2024-04-19_17h37.23.362,stockport_simplified,2022.2.4,Win32,59.95203837,661e456ee6de07e70aa9ef7b,66229d9a0b961b173878925f,,,,,,,,,,,,,,,,,,,,,,,,,,,,,,,,,,,,,,,,,,,,,,,,,,,,,,,,0,4,4,36,1,A,Y,N,o1_image,stimuli/out1.png,stimuli/correct_out1.png,stimuli/out2.png,,,,,,,,,,,,,,,,,,,,,,,,,,,,,,,,,,,,,,
,,64871d208781227e5188a1b5,25,male,2024-04-19_17h37.23.362,stockport_simplified,2022.2.4,Win32,59.95203837,661e456ee6de07e70aa9ef7b,66229d9a0b961b173878925f,,,,,,,,,,,,,,,,,,,,,,,,,,,,,,,,,,2810.72,2812.787,"[8,7,4,3,2,1,5,6]","[[0.3,0.2],[-0.3,0.2]]","[[-0.125,-0.2],[0.125,-0.2]]",-0.087378641,-0.15587918,1,0,0,1.55,o1_image,2812.788,1,2813.289,2813.289,2815.29,0,0,0,0,1,,,,,,,,,,,,,,,,,,,,,,,,,,,,,,,,,,,,,,,,,,,,,,,,,,
,,64871d208781227e5188a1b5,25,male,2024-04-19_17h37.23.362,stockport_simplified,2022.2.4,Win32,59.95203837,661e456ee6de07e70aa9ef7b,66229d9a0b961b173878925f,,,,,,,,,,,,,,,,,,,,,,,,,,,,,,,,,,,,,,,,,,,,,,,,,,,,,,,,0,5,5,39,1,A,Y,N,o1_image,stimuli/out1.png,stimuli/correct_out1.png,stimuli/out2.png,,,,,,,,,,,,,,,,,,,,,,,,,,,,,,,,,,,,,,
,,64871d208781227e5188a1b5,25,male,2024-04-19_17h37.23.362,stockport_simplified,2022.2.4,Win32,59.95203837,661e456ee6de07e70aa9ef7b,66229d9a0b961b173878925f,,,,,,,,,,,,,,,,,,,,,,,,,,,,,,,,,,2815.291,2818.194,"[8,7,4,3,2,1,5,6]","[[-0.3,0.2],[0.3,0.2]]","[[-0.125,-0.2],[0.125,-0.2]]",0.201725998,-0.187162891,1,0,0,2.386,o2_image,2818.195,1,2818.693,2818.693,2820.696,0,0,0,0,1,,,,,,,,,,,,,,,,,,,,,,,,,,,,,,,,,,,,,,,,,,,,,,,,,,
,,64871d208781227e5188a1b5,25,male,2024-04-19_17h37.23.362,stockport_simplified,2022.2.4,Win32,59.95203837,661e456ee6de07e70aa9ef7b,66229d9a0b961b173878925f,,,,,,,,,,,,,,,,,,,,,,,,,,,,,,,,,,,,,,,,,,,,,,,,,,,,,,,,0,6,6,55,1,N,M,D,o2_image,stimuli/out2.png,stimuli/out1.png,stimuli/correct_out2.png,,,,,,,,,,,,,,,,,,,,,,,,,,,,,,,,,,,,,,
,,64871d208781227e5188a1b5,25,male,2024-04-19_17h37.23.362,stockport_simplified,2022.2.4,Win32,59.95203837,661e456ee6de07e70aa9ef7b,66229d9a0b961b173878925f,,,,,,,,,,,,,,,,,,,,,,,,,,,,,,,,,,2820.697,2823.417,"[8,7,4,3,2,1,5,6]","[[-0.3,0.2],[0.3,0.2]]","[[0.125,-0.2],[-0.125,-0.2]]",0.1596548,-0.197950378,1,0,0,2.203,o1_image,2823.42,1,2823.915,2823.915,2825.918,0,0,0,0,1,,,,,,,,,,,,,,,,,,,,,,,,,,,,,,,,,,,,,,,,,,,,,,,,,,
,,64871d208781227e5188a1b5,25,male,2024-04-19_17h37.23.362,stockport_simplified,2022.2.4,Win32,59.95203837,661e456ee6de07e70aa9ef7b,66229d9a0b961b173878925f,,,,,,,,,,,,,,,,,,,,,,,,,,,,,,,,,,,,,,,,,,,,,,,,,,,,,,,,0,7,7,9,1,A,Y,N,o1_image,stimuli/out1.png,stimuli/correct_out1.png,stimuli/out2.png,,,,,,,,,,,,,,,,,,,,,,,,,,,,,,,,,,,,,,
,,64871d208781227e5188a1b5,25,male,2024-04-19_17h37.23.362,stockport_simplified,2022.2.4,Win32,59.95203837,661e456ee6de07e70aa9ef7b,66229d9a0b961b173878925f,,,,,,,,,,,,,,,,,,,,,,,,,,,,,,,,,,2825.918,2827.753,"[8,7,4,3,2,1,5,6]","[[0.3,0.2],[-0.3,0.2]]","[[0.125,-0.2],[-0.125,-0.2]]",0.080906149,-0.204422869,1,0,0,1.334,o1_image,2827.754,0,2828.253,2828.253,2830.256,0,0,0,0,1,,,,,,,,,,,,,,,,,,,,,,,,,,,,,,,,,,,,,,,,,,,,,,,,,,
,,64871d208781227e5188a1b5,25,male,2024-04-19_17h37.23.362,stockport_simplified,2022.2.4,Win32,59.95203837,661e456ee6de07e70aa9ef7b,66229d9a0b961b173878925f,,,,,,,,,,,,,,,,,,,,,,,,,,,,,,,,,,,,,,,,,,,,,,,,,,,,,,,,0,8,8,17,1,B,Y,N,o2_image,stimuli/out2.png,stimuli/out1.png,stimuli/correct_out2.png,,,,,,,,,,,,,,,,,,,,,,,,,,,,,,,,,,,,,,
,,64871d208781227e5188a1b5,25,male,2024-04-19_17h37.23.362,stockport_simplified,2022.2.4,Win32,59.95203837,661e456ee6de07e70aa9ef7b,66229d9a0b961b173878925f,,,,,,,,,,,,,,,,,,,,,,,,,,,,,,,,,,2830.256,2832.041,"[8,7,4,3,2,1,5,6]","[[0.3,0.2],[-0.3,0.2]]","[[0.125,-0.2],[-0.125,-0.2]]",0.100323625,-0.201186624,1,0,0,1.285,o1_image,2832.042,0,2832.541,2832.541,2834.543,0,0,0,0,1,,,,,,,,,,,,,,,,,,,,,,,,,,,,,,,,,,,,,,,,,,,,,,,,,,
,,64871d208781227e5188a1b5,25,male,2024-04-19_17h37.23.362,stockport_simplified,2022.2.4,Win32,59.95203837,661e456ee6de07e70aa9ef7b,66229d9a0b961b173878925f,,,,,,,,,,,,,,,,,,,,,,,,,,,,,,,,,,,,,,,,,,,,,,,,,,,,,,,,0,9,9,15,1,B,Y,N,o2_image,stimuli/out2.png,stimuli/out1.png,stimuli/correct_out2.png,,,,,,,,,,,,,,,,,,,,,,,,,,,,,,,,,,,,,,
,,64871d208781227e5188a1b5,25,male,2024-04-19_17h37.23.362,stockport_simplified,2022.2.4,Win32,59.95203837,661e456ee6de07e70aa9ef7b,66229d9a0b961b173878925f,,,,,,,,,,,,,,,,,,,,,,,,,,,,,,,,,,2834.544,2836.344,"[8,7,4,3,2,1,5,6]","[[-0.3,0.2],[0.3,0.2]]","[[-0.125,-0.2],[0.125,-0.2]]",-0.097087379,-0.177454153,1,0,0,1.299,o1_image,2836.346,1,2836.845,2836.845,2838.848,0,0,0,0,1,,,,,,,,,,,,,,,,,,,,,,,,,,,,,,,,,,,,,,,,,,,,,,,,,,
,,64871d208781227e5188a1b5,25,male,2024-04-19_17h37.23.362,stockport_simplified,2022.2.4,Win32,59.95203837,661e456ee6de07e70aa9ef7b,66229d9a0b961b173878925f,,,,,,,,,,,,,,,,,,,,,,,,,,,,,,,,,,,,,,,,,,,,,,,,,,,,,,,,0,10,10,54,1,N,M,C,o1_image,stimuli/out1.png,stimuli/correct_out1.png,stimuli/out2.png,,,,,,,,,,,,,,,,,,,,,,,,,,,,,,,,,,,,,,
,,64871d208781227e5188a1b5,25,male,2024-04-19_17h37.23.362,stockport_simplified,2022.2.4,Win32,59.95203837,661e456ee6de07e70aa9ef7b,66229d9a0b961b173878925f,,,,,,,,,,,,,,,,,,,,,,,,,,,,,,,,,,2838.849,2840.065,"[8,7,4,3,2,1,5,6]","[[0.3,0.2],[-0.3,0.2]]","[[0.125,-0.2],[-0.125,-0.2]]",-0.141316073,-0.202265372,1,0,0,0.701,o2_image,2840.066,0,2840.566,2840.566,2842.567,0,0,0,0,1,,,,,,,,,,,,,,,,,,,,,,,,,,,,,,,,,,,,,,,,,,,,,,,,,,
,,64871d208781227e5188a1b5,25,male,2024-04-19_17h37.23.362,stockport_simplified,2022.2.4,Win32,59.95203837,661e456ee6de07e70aa9ef7b,66229d9a0b961b173878925f,,,,,,,,,,,,,,,,,,,,,,,,,,,,,,,,,,,,,,,,,,,,,,,,,,,,,,,,0,11,11,50,1,N,M,C,o1_image,stimuli/out1.png,stimuli/correct_out1.png,stimuli/out2.png,,,,,,,,,,,,,,,,,,,,,,,,,,,,,,,,,,,,,,
,,64871d208781227e5188a1b5,25,male,2024-04-19_17h37.23.362,stockport_simplified,2022.2.4,Win32,59.95203837,661e456ee6de07e70aa9ef7b,66229d9a0b961b173878925f,,,,,,,,,,,,,,,,,,,,,,,,,,,,,,,,,,2842.569,2844.236,"[8,7,4,3,2,1,5,6]","[[-0.3,0.2],[0.3,0.2]]","[[0.125,-0.2],[-0.125,-0.2]]",-0.083063646,-0.17961165,1,0,0,1.15,o2_image,2844.238,1,2844.737,2844.737,2846.738,0,0,0,0,1,,,,,,,,,,,,,,,,,,,,,,,,,,,,,,,,,,,,,,,,,,,,,,,,,,
,,64871d208781227e5188a1b5,25,male,2024-04-19_17h37.23.362,stockport_simplified,2022.2.4,Win32,59.95203837,661e456ee6de07e70aa9ef7b,66229d9a0b961b173878925f,,,,,,,,,,,,,,,,,,,,,,,,,,,,,,,,,,,,,,,,,,,,,,,,,,,,,,,,0,12,12,28,1,N,M,D,o2_image,stimuli/out2.png,stimuli/out1.png,stimuli/correct_out2.png,,,,,,,,,,,,,,,,,,,,,,,,,,,,,,,,,,,,,,
,,64871d208781227e5188a1b5,25,male,2024-04-19_17h37.23.362,stockport_simplified,2022.2.4,Win32,59.95203837,661e456ee6de07e70aa9ef7b,66229d9a0b961b173878925f,,,,,,,,,,,,,,,,,,,,,,,,,,,,,,,,,,2846.739,2848.843,"[8,7,4,3,2,1,5,6]","[[0.3,0.2],[-0.3,0.2]]","[[-0.125,-0.2],[0.125,-0.2]]",-0.127292341,-0.187162891,1,0,0,1.601,o1_image,2848.843,0,2849.341,2849.341,2851.343,0,0,0,0,1,,,,,,,,,,,,,,,,,,,,,,,,,,,,,,,,,,,,,,,,,,,,,,,,,,
,,64871d208781227e5188a1b5,25,male,2024-04-19_17h37.23.362,stockport_simplified,2022.2.4,Win32,59.95203837,661e456ee6de07e70aa9ef7b,66229d9a0b961b173878925f,,,,,,,,,,,,,,,,,,,,,,,,,,,,,,,,,,,,,,,,,,,,,,,,,,,,,,,,0,13,13,42,1,B,X,N,o2_image,stimuli/out2.png,stimuli/out1.png,stimuli/correct_out2.png,,,,,,,,,,,,,,,,,,,,,,,,,,,,,,,,,,,,,,
,,64871d208781227e5188a1b5,25,male,2024-04-19_17h37.23.362,stockport_simplified,2022.2.4,Win32,59.95203837,661e456ee6de07e70aa9ef7b,66229d9a0b961b173878925f,,,,,,,,,,,,,,,,,,,,,,,,,,,,,,,,,,2851.344,2853.378,"[8,7,4,3,2,1,5,6]","[[0.3,0.2],[-0.3,0.2]]","[[0.125,-0.2],[-0.125,-0.2]]",-0.117583603,-0.183926645,1,0,0,1.533,o2_image,2853.379,0,2853.879,2853.879,2855.881,0,0,0,0,1,,,,,,,,,,,,,,,,,,,,,,,,,,,,,,,,,,,,,,,,,,,,,,,,,,
,,64871d208781227e5188a1b5,25,male,2024-04-19_17h37.23.362,stockport_simplified,2022.2.4,Win32,59.95203837,661e456ee6de07e70aa9ef7b,66229d9a0b961b173878925f,,,,,,,,,,,,,,,,,,,,,,,,,,,,,,,,,,,,,,,,,,,,,,,,,,,,,,,,0,14,14,30,1,A,X,N,o1_image,stimuli/out1.png,stimuli/correct_out1.png,stimuli/out2.png,,,,,,,,,,,,,,,,,,,,,,,,,,,,,,,,,,,,,,
,,64871d208781227e5188a1b5,25,male,2024-04-19_17h37.23.362,stockport_simplified,2022.2.4,Win32,59.95203837,661e456ee6de07e70aa9ef7b,66229d9a0b961b173878925f,,,,,,,,,,,,,,,,,,,,,,,,,,,,,,,,,,2855.881,2859.036,"[8,7,4,3,2,1,5,6]","[[-0.3,0.2],[0.3,0.2]]","[[-0.125,-0.2],[0.125,-0.2]]",-0.105717368,-0.204422869,1,0,0,2.652,o1_image,2859.038,1,2859.535,2859.535,2861.536,0,0,0,0,1,,,,,,,,,,,,,,,,,,,,,,,,,,,,,,,,,,,,,,,,,,,,,,,,,,
,,64871d208781227e5188a1b5,25,male,2024-04-19_17h37.23.362,stockport_simplified,2022.2.4,Win32,59.95203837,661e456ee6de07e70aa9ef7b,66229d9a0b961b173878925f,,,,,,,,,,,,,,,,,,,,,,,,,,,,,,,,,,,,,,,,,,,,,,,,,,,,,,,,0,15,15,34,1,A,X,N,o1_image,stimuli/out1.png,stimuli/correct_out1.png,stimuli/out2.png,,,,,,,,,,,,,,,,,,,,,,,,,,,,,,,,,,,,,,
,,64871d208781227e5188a1b5,25,male,2024-04-19_17h37.23.362,stockport_simplified,2022.2.4,Win32,59.95203837,661e456ee6de07e70aa9ef7b,66229d9a0b961b173878925f,,,,,,,,,,,,,,,,,,,,,,,,,,,,,,,,,,2861.538,2863.623,"[8,7,4,3,2,1,5,6]","[[-0.3,0.2],[0.3,0.2]]","[[-0.125,-0.2],[0.125,-0.2]]",-0.108953614,-0.178532902,1,0,0,1.568,o1_image,2863.624,0,2864.123,2864.123,2866.125,0,0,0,0,1,,,,,,,,,,,,,,,,,,,,,,,,,,,,,,,,,,,,,,,,,,,,,,,,,,
,,64871d208781227e5188a1b5,25,male,2024-04-19_17h37.23.362,stockport_simplified,2022.2.4,Win32,59.95203837,661e456ee6de07e70aa9ef7b,66229d9a0b961b173878925f,,,,,,,,,,,,,,,,,,,,,,,,,,,,,,,,,,,,,,,,,,,,,,,,,,,,,,,,0,16,16,16,1,B,Y,N,o2_image,stimuli/out2.png,stimuli/out1.png,stimuli/correct_out2.png,,,,,,,,,,,,,,,,,,,,,,,,,,,,,,,,,,,,,,
,,64871d208781227e5188a1b5,25,male,2024-04-19_17h37.23.362,stockport_simplified,2022.2.4,Win32,59.95203837,661e456ee6de07e70aa9ef7b,66229d9a0b961b173878925f,,,,,,,,,,,,,,,,,,,,,,,,,,,,,,,,,,2866.126,2868.127,"[8,7,4,3,2,1,5,6]","[[-0.3,0.2],[0.3,0.2]]","[[0.125,-0.2],[-0.125,-0.2]]",-0.156418554,-0.204422869,1,0,0,1.484,o2_image,2868.129,0,2868.627,2868.627,2870.63,0,0,0,0,1,,,,,,,,,,,,,,,,,,,,,,,,,,,,,,,,,,,,,,,,,,,,,,,,,,
,,64871d208781227e5188a1b5,25,male,2024-04-19_17h37.23.362,stockport_simplified,2022.2.4,Win32,59.95203837,661e456ee6de07e70aa9ef7b,66229d9a0b961b173878925f,,,,,,,,,,,,,,,,,,,,,,,,,,,,,,,,,,,,,,,,,,,,,,,,,,,,,,,,0,17,17,31,1,A,X,N,o1_image,stimuli/out1.png,stimuli/correct_out1.png,stimuli/out2.png,,,,,,,,,,,,,,,,,,,,,,,,,,,,,,,,,,,,,,
,,64871d208781227e5188a1b5,25,male,2024-04-19_17h37.23.362,stockport_simplified,2022.2.4,Win32,59.95203837,661e456ee6de07e70aa9ef7b,66229d9a0b961b173878925f,,,,,,,,,,,,,,,,,,,,,,,,,,,,,,,,,,2870.631,2873.032,"[8,7,4,3,2,1,5,6]","[[0.3,0.2],[-0.3,0.2]]","[[0.125,-0.2],[-0.125,-0.2]]",-0.107874865,-0.186084142,1,0,0,1.885,o2_image,2873.033,0,2873.533,2873.533,2875.534,0,0,0,0,1,,,,,,,,,,,,,,,,,,,,,,,,,,,,,,,,,,,,,,,,,,,,,,,,,,
,,64871d208781227e5188a1b5,25,male,2024-04-19_17h37.23.362,stockport_simplified,2022.2.4,Win32,59.95203837,661e456ee6de07e70aa9ef7b,66229d9a0b961b173878925f,,,,,,,,,,,,,,,,,,,,,,,,,,,,,,,,,,,,,,,,,,,,,,,,,,,,,,,,0,18,18,3,1,A,X,N,o1_image,stimuli/out1.png,stimuli/correct_out1.png,stimuli/out2.png,,,,,,,,,,,,,,,,,,,,,,,,,,,,,,,,,,,,,,
,,64871d208781227e5188a1b5,25,male,2024-04-19_17h37.23.362,stockport_simplified,2022.2.4,Win32,59.95203837,661e456ee6de07e70aa9ef7b,66229d9a0b961b173878925f,,,,,,,,,,,,,,,,,,,,,,,,,,,,,,,,,,2875.535,2877.937,"[8,7,4,3,2,1,5,6]","[[-0.3,0.2],[0.3,0.2]]","[[0.125,-0.2],[-0.125,-0.2]]",-0.114347357,-0.185005394,1,0,0,1.902,o2_image,2877.938,0,2878.437,2878.437,2880.439,0,0,0,0,1,,,,,,,,,,,,,,,,,,,,,,,,,,,,,,,,,,,,,,,,,,,,,,,,,,
,,64871d208781227e5188a1b5,25,male,2024-04-19_17h37.23.362,stockport_simplified,2022.2.4,Win32,59.95203837,661e456ee6de07e70aa9ef7b,66229d9a0b961b173878925f,,,,,,,,,,,,,,,,,,,,,,,,,,,,,,,,,,,,,,,,,,,,,,,,,,,,,,,,0,19,19,8,1,A,Y,N,o1_image,stimuli/out1.png,stimuli/correct_out1.png,stimuli/out2.png,,,,,,,,,,,,,,,,,,,,,,,,,,,,,,,,,,,,,,
,,64871d208781227e5188a1b5,25,male,2024-04-19_17h37.23.362,stockport_simplified,2022.2.4,Win32,59.95203837,661e456ee6de07e70aa9ef7b,66229d9a0b961b173878925f,,,,,,,,,,,,,,,,,,,,,,,,,,,,,,,,,,2880.44,2882.191,"[8,7,4,3,2,1,5,6]","[[0.3,0.2],[-0.3,0.2]]","[[-0.125,-0.2],[0.125,-0.2]]",0.11218986,-0.170981661,1,0,0,1.251,o2_image,2882.192,1,2882.691,2882.691,2884.694,0,0,0,0,1,,,,,,,,,,,,,,,,,,,,,,,,,,,,,,,,,,,,,,,,,,,,,,,,,,
,,64871d208781227e5188a1b5,25,male,2024-04-19_17h37.23.362,stockport_simplified,2022.2.4,Win32,59.95203837,661e456ee6de07e70aa9ef7b,66229d9a0b961b173878925f,,,,,,,,,,,,,,,,,,,,,,,,,,,,,,,,,,,,,,,,,,,,,,,,,,,,,,,,0,20,20,57,1,N,M,D,o2_image,stimuli/out2.png,stimuli/out1.png,stimuli/correct_out2.png,,,,,,,,,,,,,,,,,,,,,,,,,,,,,,,,,,,,,,
,,64871d208781227e5188a1b5,25,male,2024-04-19_17h37.23.362,stockport_simplified,2022.2.4,Win32,59.95203837,661e456ee6de07e70aa9ef7b,66229d9a0b961b173878925f,,,,,,,,,,,,,,,,,,,,,,,,,,,,,,,,,,2884.694,2887.646,"[8,7,4,3,2,1,5,6]","[[0.3,0.2],[-0.3,0.2]]","[[0.125,-0.2],[-0.125,-0.2]]",0.104638619,-0.167745415,1,0,0,2.435,o1_image,2887.647,1,2888.147,2888.147,2890.149,0,0,0,0,1,,,,,,,,,,,,,,,,,,,,,,,,,,,,,,,,,,,,,,,,,,,,,,,,,,
,,64871d208781227e5188a1b5,25,male,2024-04-19_17h37.23.362,stockport_simplified,2022.2.4,Win32,59.95203837,661e456ee6de07e70aa9ef7b,66229d9a0b961b173878925f,,,,,,,,,,,,,,,,,,,,,,,,,,,,,,,,,,,,,,,,,,,,,,,,,,,,,,,,0,21,21,5,1,A,Y,N,o1_image,stimuli/out1.png,stimuli/correct_out1.png,stimuli/out2.png,,,,,,,,,,,,,,,,,,,,,,,,,,,,,,,,,,,,,,
,,64871d208781227e5188a1b5,25,male,2024-04-19_17h37.23.362,stockport_simplified,2022.2.4,Win32,59.95203837,661e456ee6de07e70aa9ef7b,66229d9a0b961b173878925f,,,,,,,,,,,,,,,,,,,,,,,,,,,,,,,,,,2890.149,2892.419,"[8,7,4,3,2,1,5,6]","[[0.3,0.2],[-0.3,0.2]]","[[0.125,-0.2],[-0.125,-0.2]]",0.11218986,-0.189320388,1,0,0,1.767,o1_image,2892.422,0,2892.918,2892.918,2894.921,0,0,0,0,1,,,,,,,,,,,,,,,,,,,,,,,,,,,,,,,,,,,,,,,,,,,,,,,,,,
,,64871d208781227e5188a1b5,25,male,2024-04-19_17h37.23.362,stockport_simplified,2022.2.4,Win32,59.95203837,661e456ee6de07e70aa9ef7b,66229d9a0b961b173878925f,,,,,,,,,,,,,,,,,,,,,,,,,,,,,,,,,,,,,,,,,,,,,,,,,,,,,,,,0,22,22,19,1,B,Y,N,o2_image,stimuli/out2.png,stimuli/out1.png,stimuli/correct_out2.png,,,,,,,,,,,,,,,,,,,,,,,,,,,,,,,,,,,,,,
,,64871d208781227e5188a1b5,25,male,2024-04-19_17h37.23.362,stockport_simplified,2022.2.4,Win32,59.95203837,661e456ee6de07e70aa9ef7b,66229d9a0b961b173878925f,,,,,,,,,,,,,,,,,,,,,,,,,,,,,,,,,,2894.922,2897.024,"[8,7,4,3,2,1,5,6]","[[-0.3,0.2],[0.3,0.2]]","[[0.125,-0.2],[-0.125,-0.2]]",-0.124056095,-0.18824164,1,0,0,1.586,o2_image,2897.028,1,2897.523,2897.523,2899.525,0,0,0,0,1,,,,,,,,,,,,,,,,,,,,,,,,,,,,,,,,,,,,,,,,,,,,,,,,,,
,,64871d208781227e5188a1b5,25,male,2024-04-19_17h37.23.362,stockport_simplified,2022.2.4,Win32,59.95203837,661e456ee6de07e70aa9ef7b,66229d9a0b961b173878925f,,,,,,,,,,,,,,,,,,,,,,,,,,,,,,,,,,,,,,,,,,,,,,,,,,,,,,,,0,23,23,47,1,B,Y,N,o2_image,stimuli/out2.png,stimuli/out1.png,stimuli/correct_out2.png,,,,,,,,,,,,,,,,,,,,,,,,,,,,,,,,,,,,,,
,,64871d208781227e5188a1b5,25,male,2024-04-19_17h37.23.362,stockport_simplified,2022.2.4,Win32,59.95203837,661e456ee6de07e70aa9ef7b,66229d9a0b961b173878925f,,,,,,,,,,,,,,,,,,,,,,,,,,,,,,,,,,2899.526,2900.977,"[8,7,4,3,2,1,5,6]","[[0.3,0.2],[-0.3,0.2]]","[[0.125,-0.2],[-0.125,-0.2]]",-0.107874865,-0.178532902,1,0,0,0.933,o2_image,2900.978,0,2901.477,2901.477,2903.479,0,0,0,0,1,,,,,,,,,,,,,,,,,,,,,,,,,,,,,,,,,,,,,,,,,,,,,,,,,,
,,64871d208781227e5188a1b5,25,male,2024-04-19_17h37.23.362,stockport_simplified,2022.2.4,Win32,59.95203837,661e456ee6de07e70aa9ef7b,66229d9a0b961b173878925f,,,,,,,,,,,,,,,,,,,,,,,,,,,,,,,,,,,,,,,,,,,,,,,,,,,,,,,,0,24,24,33,1,A,X,N,o1_image,stimuli/out1.png,stimuli/correct_out1.png,stimuli/out2.png,,,,,,,,,,,,,,,,,,,,,,,,,,,,,,,,,,,,,,
,,64871d208781227e5188a1b5,25,male,2024-04-19_17h37.23.362,stockport_simplified,2022.2.4,Win32,59.95203837,661e456ee6de07e70aa9ef7b,66229d9a0b961b173878925f,,,,,,,,,,,,,,,,,,,,,,,,,,,,,,,,,,2903.481,2905.648,"[8,7,4,3,2,1,5,6]","[[0.3,0.2],[-0.3,0.2]]","[[0.125,-0.2],[-0.125,-0.2]]",0.103559871,-0.191477886,1,0,0,1.651,o1_image,2905.65,0,2906.148,2906.148,2908.151,0,0,0,0,1,,,,,,,,,,,,,,,,,,,,,,,,,,,,,,,,,,,,,,,,,,,,,,,,,,
,,64871d208781227e5188a1b5,25,male,2024-04-19_17h37.23.362,stockport_simplified,2022.2.4,Win32,59.95203837,661e456ee6de07e70aa9ef7b,66229d9a0b961b173878925f,,,,,,,,,,,,,,,,,,,,,,,,,,,,,,,,,,,,,,,,,,,,,,,,,,,,,,,,0,25,25,43,1,B,X,N,o2_image,stimuli/out2.png,stimuli/out1.png,stimuli/correct_out2.png,,,,,,,,,,,,,,,,,,,,,,,,,,,,,,,,,,,,,,
,,64871d208781227e5188a1b5,25,male,2024-04-19_17h37.23.362,stockport_simplified,2022.2.4,Win32,59.95203837,661e456ee6de07e70aa9ef7b,66229d9a0b961b173878925f,,,,,,,,,,,,,,,,,,,,,,,,,,,,,,,,,,2908.151,2909.57,"[8,7,4,3,2,1,5,6]","[[0.3,0.2],[-0.3,0.2]]","[[0.125,-0.2],[-0.125,-0.2]]",-0.117583603,-0.197950378,1,0,0,0.917,o2_image,2909.57,1,2910.069,2910.069,2912.071,0,0,0,0,1,,,,,,,,,,,,,,,,,,,,,,,,,,,,,,,,,,,,,,,,,,,,,,,,,,
,,64871d208781227e5188a1b5,25,male,2024-04-19_17h37.23.362,stockport_simplified,2022.2.4,Win32,59.95203837,661e456ee6de07e70aa9ef7b,66229d9a0b961b173878925f,,,,,,,,,,,,,,,,,,,,,,,,,,,,,,,,,,,,,,,,,,,,,,,,,,,,,,,,0,26,26,58,1,N,M,D,o2_image,stimuli/out2.png,stimuli/out1.png,stimuli/correct_out2.png,,,,,,,,,,,,,,,,,,,,,,,,,,,,,,,,,,,,,,
,,64871d208781227e5188a1b5,25,male,2024-04-19_17h37.23.362,stockport_simplified,2022.2.4,Win32,59.95203837,661e456ee6de07e70aa9ef7b,66229d9a0b961b173878925f,,,,,,,,,,,,,,,,,,,,,,,,,,,,,,,,,,2912.072,2913.739,"[8,7,4,3,2,1,5,6]","[[0.3,0.2],[-0.3,0.2]]","[[-0.125,-0.2],[0.125,-0.2]]",0.0798274,-0.183926645,1,0,0,1.167,o2_image,2913.741,1,2914.24,2914.24,2916.243,0,0,0,0,1,,,,,,,,,,,,,,,,,,,,,,,,,,,,,,,,,,,,,,,,,,,,,,,,,,
,,64871d208781227e5188a1b5,25,male,2024-04-19_17h37.23.362,stockport_simplified,2022.2.4,Win32,59.95203837,661e456ee6de07e70aa9ef7b,66229d9a0b961b173878925f,,,,,,,,,,,,,,,,,,,,,,,,,,,,,,,,,,,,,,,,,,,,,,,,,,,,,,,,0,27,27,25,1,N,M,D,o2_image,stimuli/out2.png,stimuli/out1.png,stimuli/correct_out2.png,,,,,,,,,,,,,,,,,,,,,,,,,,,,,,,,,,,,,,
,,64871d208781227e5188a1b5,25,male,2024-04-19_17h37.23.362,stockport_simplified,2022.2.4,Win32,59.95203837,661e456ee6de07e70aa9ef7b,66229d9a0b961b173878925f,,,,,,,,,,,,,,,,,,,,,,,,,,,,,,,,,,2916.244,2919.645,"[8,7,4,3,2,1,5,6]","[[-0.3,0.2],[0.3,0.2]]","[[-0.125,-0.2],[0.125,-0.2]]",-0.139158576,-0.149406688,1,0,0,2.885,o1_image,2919.647,0,2920.147,2920.147,2922.149,0,0,0,0,1,,,,,,,,,,,,,,,,,,,,,,,,,,,,,,,,,,,,,,,,,,,,,,,,,,
,,64871d208781227e5188a1b5,25,male,2024-04-19_17h37.23.362,stockport_simplified,2022.2.4,Win32,59.95203837,661e456ee6de07e70aa9ef7b,66229d9a0b961b173878925f,,,,,,,,,,,,,,,,,,,,,,,,,,,,,,,,,,,,,,,,,,,,,,,,,,,,,,,,0,28,28,18,1,B,Y,N,o2_image,stimuli/out2.png,stimuli/out1.png,stimuli/correct_out2.png,,,,,,,,,,,,,,,,,,,,,,,,,,,,,,,,,,,,,,
,,64871d208781227e5188a1b5,25,male,2024-04-19_17h37.23.362,stockport_simplified,2022.2.4,Win32,59.95203837,661e456ee6de07e70aa9ef7b,66229d9a0b961b173878925f,,,,,,,,,,,,,,,,,,,,,,,,,,,,,,,,,,2922.149,2924.485,"[8,7,4,3,2,1,5,6]","[[-0.3,0.2],[0.3,0.2]]","[[-0.125,-0.2],[0.125,-0.2]]",-0.100323625,-0.200107875,1,0,0,1.82,o1_image,2924.489,1,2924.984,2924.984,2926.986,0,0,0,0,1,,,,,,,,,,,,,,,,,,,,,,,,,,,,,,,,,,,,,,,,,,,,,,,,,,
,,64871d208781227e5188a1b5,25,male,2024-04-19_17h37.23.362,stockport_simplified,2022.2.4,Win32,59.95203837,661e456ee6de07e70aa9ef7b,66229d9a0b961b173878925f,,,,,,,,,,,,,,,,,,,,,,,,,,,,,,,,,,,,,,,,,,,,,,,,,,,,,,,,0,29,29,7,1,A,Y,N,o1_image,stimuli/out1.png,stimuli/correct_out1.png,stimuli/out2.png,,,,,,,,,,,,,,,,,,,,,,,,,,,,,,,,,,,,,,
,,64871d208781227e5188a1b5,25,male,2024-04-19_17h37.23.362,stockport_simplified,2022.2.4,Win32,59.95203837,661e456ee6de07e70aa9ef7b,66229d9a0b961b173878925f,,,,,,,,,,,,,,,,,,,,,,,,,,,,,,,,,,2926.987,2929.372,"[8,7,4,3,2,1,5,6]","[[-0.3,0.2],[0.3,0.2]]","[[0.125,-0.2],[-0.125,-0.2]]",0.1197411,-0.174217907,1,0,0,1.884,o1_image,2929.373,0,2929.873,2929.873,2931.874,0,0,0,0,1,,,,,,,,,,,,,,,,,,,,,,,,,,,,,,,,,,,,,,,,,,,,,,,,,,
,,64871d208781227e5188a1b5,25,male,2024-04-19_17h37.23.362,stockport_simplified,2022.2.4,Win32,59.95203837,661e456ee6de07e70aa9ef7b,66229d9a0b961b173878925f,,,,,,,,,,,,,,,,,,,,,,,,,,,,,,,,,,,,,,,,,,,,,,,,,,,,,,,,0,30,30,40,1,B,X,N,o2_image,stimuli/out2.png,stimuli/out1.png,stimuli/correct_out2.png,,,,,,,,,,,,,,,,,,,,,,,,,,,,,,,,,,,,,,
,,64871d208781227e5188a1b5,25,male,2024-04-19_17h37.23.362,stockport_simplified,2022.2.4,Win32,59.95203837,661e456ee6de07e70aa9ef7b,66229d9a0b961b173878925f,,,,,,,,,,,,,,,,,,,,,,,,,,,,,,,,,,2931.875,2933.877,"[8,7,4,3,2,1,5,6]","[[0.3,0.2],[-0.3,0.2]]","[[0.125,-0.2],[-0.125,-0.2]]",-0.0798274,-0.200107875,1,0,0,1.501,o2_image,2933.878,0,2934.377,2934.377,2936.379,0,0,0,0,1,,,,,,,,,,,,,,,,,,,,,,,,,,,,,,,,,,,,,,,,,,,,,,,,,,
,,64871d208781227e5188a1b5,25,male,2024-04-19_17h37.23.362,stockport_simplified,2022.2.4,Win32,59.95203837,661e456ee6de07e70aa9ef7b,66229d9a0b961b173878925f,,,,,,,,,,,,,,,,,,,,,,,,,,,,,,,,,,,,,,,,,,,,,,,,,,,,,,,,0,31,31,53,1,N,M,C,o1_image,stimuli/out1.png,stimuli/correct_out1.png,stimuli/out2.png,,,,,,,,,,,,,,,,,,,,,,,,,,,,,,,,,,,,,,
,,64871d208781227e5188a1b5,25,male,2024-04-19_17h37.23.362,stockport_simplified,2022.2.4,Win32,59.95203837,661e456ee6de07e70aa9ef7b,66229d9a0b961b173878925f,,,,,,,,,,,,,,,,,,,,,,,,,,,,,,,,,,2936.38,2938.399,"[8,7,4,3,2,1,5,6]","[[-0.3,0.2],[0.3,0.2]]","[[-0.125,-0.2],[0.125,-0.2]]",-0.102481122,-0.180690399,1,0,0,1.518,o1_image,2938.401,1,2938.898,2938.898,2940.9,0,0,0,0,1,,,,,,,,,,,,,,,,,,,,,,,,,,,,,,,,,,,,,,,,,,,,,,,,,,
,,64871d208781227e5188a1b5,25,male,2024-04-19_17h37.23.362,stockport_simplified,2022.2.4,Win32,59.95203837,661e456ee6de07e70aa9ef7b,66229d9a0b961b173878925f,,,,,,,,,,,,,,,,,,,,,,,,,,,,,,,,,,,,,,,,,,,,,,,,,,,,,,,,0,32,32,32,1,A,X,N,o1_image,stimuli/out1.png,stimuli/correct_out1.png,stimuli/out2.png,,,,,,,,,,,,,,,,,,,,,,,,,,,,,,,,,,,,,,
,,64871d208781227e5188a1b5,25,male,2024-04-19_17h37.23.362,stockport_simplified,2022.2.4,Win32,59.95203837,661e456ee6de07e70aa9ef7b,66229d9a0b961b173878925f,,,,,,,,,,,,,,,,,,,,,,,,,,,,,,,,,,2940.901,2942.152,"[8,7,4,3,2,1,5,6]","[[-0.3,0.2],[0.3,0.2]]","[[-0.125,-0.2],[0.125,-0.2]]",-0.114347357,-0.152642934,1,0,0,0.75,o1_image,2942.152,1,2942.652,2942.652,2944.654,0,0,0,0,1,,,,,,,,,,,,,,,,,,,,,,,,,,,,,,,,,,,,,,,,,,,,,,,,,,
,,64871d208781227e5188a1b5,25,male,2024-04-19_17h37.23.362,stockport_simplified,2022.2.4,Win32,59.95203837,661e456ee6de07e70aa9ef7b,66229d9a0b961b173878925f,,,,,,,,,,,,,,,,,,,,,,,,,,,,,,,,,,,,,,,,,,,,,,,,,,,,,,,,0,33,33,0,1,A,X,N,o1_image,stimuli/out1.png,stimuli/correct_out1.png,stimuli/out2.png,,,,,,,,,,,,,,,,,,,,,,,,,,,,,,,,,,,,,,
,,64871d208781227e5188a1b5,25,male,2024-04-19_17h37.23.362,stockport_simplified,2022.2.4,Win32,59.95203837,661e456ee6de07e70aa9ef7b,66229d9a0b961b173878925f,,,,,,,,,,,,,,,,,,,,,,,,,,,,,,,,,,2944.654,2947.791,"[8,7,4,3,2,1,5,6]","[[0.3,0.2],[-0.3,0.2]]","[[0.125,-0.2],[-0.125,-0.2]]",0.111111111,-0.199029126,1,0,0,2.636,o1_image,2947.791,0,2948.292,2948.292,2950.293,0,0,0,0,1,,,,,,,,,,,,,,,,,,,,,,,,,,,,,,,,,,,,,,,,,,,,,,,,,,
,,64871d208781227e5188a1b5,25,male,2024-04-19_17h37.23.362,stockport_simplified,2022.2.4,Win32,59.95203837,661e456ee6de07e70aa9ef7b,66229d9a0b961b173878925f,,,,,,,,,,,,,,,,,,,,,,,,,,,,,,,,,,,,,,,,,,,,,,,,,,,,,,,,0,34,34,13,1,B,X,N,o2_image,stimuli/out2.png,stimuli/out1.png,stimuli/correct_out2.png,,,,,,,,,,,,,,,,,,,,,,,,,,,,,,,,,,,,,,
,,64871d208781227e5188a1b5,25,male,2024-04-19_17h37.23.362,stockport_simplified,2022.2.4,Win32,59.95203837,661e456ee6de07e70aa9ef7b,66229d9a0b961b173878925f,,,,,,,,,,,,,,,,,,,,,,,,,,,,,,,,,,2950.294,2952.412,"[8,7,4,3,2,1,5,6]","[[-0.3,0.2],[0.3,0.2]]","[[0.125,-0.2],[-0.125,-0.2]]",0.09600863,-0.182847896,1,0,0,1.601,o1_image,2952.413,1,2952.912,2952.912,2954.914,0,0,0,0,1,,,,,,,,,,,,,,,,,,,,,,,,,,,,,,,,,,,,,,,,,,,,,,,,,,
,,64871d208781227e5188a1b5,25,male,2024-04-19_17h37.23.362,stockport_simplified,2022.2.4,Win32,59.95203837,661e456ee6de07e70aa9ef7b,66229d9a0b961b173878925f,,,,,,,,,,,,,,,,,,,,,,,,,,,,,,,,,,,,,,,,,,,,,,,,,,,,,,,,0,35,35,2,1,A,X,N,o1_image,stimuli/out1.png,stimuli/correct_out1.png,stimuli/out2.png,,,,,,,,,,,,,,,,,,,,,,,,,,,,,,,,,,,,,,
,,64871d208781227e5188a1b5,25,male,2024-04-19_17h37.23.362,stockport_simplified,2022.2.4,Win32,59.95203837,661e456ee6de07e70aa9ef7b,66229d9a0b961b173878925f,,,,,,,,,,,,,,,,,,,,,,,,,,,,,,,,,,2954.915,2956.816,"[8,7,4,3,2,1,5,6]","[[0.3,0.2],[-0.3,0.2]]","[[-0.125,-0.2],[0.125,-0.2]]",0.16828479,-0.182847896,1,0,0,1.4,o2_image,2956.818,1,2957.317,2957.317,2959.32,0,0,0,0,1,,,,,,,,,,,,,,,,,,,,,,,,,,,,,,,,,,,,,,,,,,,,,,,,,,
,,64871d208781227e5188a1b5,25,male,2024-04-19_17h37.23.362,stockport_simplified,2022.2.4,Win32,59.95203837,661e456ee6de07e70aa9ef7b,66229d9a0b961b173878925f,,,,,,,,,,,,,,,,,,,,,,,,,,,,,,,,,,,,,,,,,,,,,,,,,,,,,,,,0,36,36,29,1,N,M,D,o2_image,stimuli/out2.png,stimuli/out1.png,stimuli/correct_out2.png,,,,,,,,,,,,,,,,,,,,,,,,,,,,,,,,,,,,,,
,,64871d208781227e5188a1b5,25,male,2024-04-19_17h37.23.362,stockport_simplified,2022.2.4,Win32,59.95203837,661e456ee6de07e70aa9ef7b,66229d9a0b961b173878925f,,,,,,,,,,,,,,,,,,,,,,,,,,,,,,,,,,2959.322,2961.455,"[8,7,4,3,2,1,5,6]","[[0.3,0.2],[-0.3,0.2]]","[[0.125,-0.2],[-0.125,-0.2]]",-0.081984898,-0.193635383,1,0,0,1.615,o2_image,2961.457,0,2961.955,2961.955,2963.958,0,0,0,0,1,,,,,,,,,,,,,,,,,,,,,,,,,,,,,,,,,,,,,,,,,,,,,,,,,,
,,64871d208781227e5188a1b5,25,male,2024-04-19_17h37.23.362,stockport_simplified,2022.2.4,Win32,59.95203837,661e456ee6de07e70aa9ef7b,66229d9a0b961b173878925f,,,,,,,,,,,,,,,,,,,,,,,,,,,,,,,,,,,,,,,,,,,,,,,,,,,,,,,,0,37,37,23,1,N,M,C,o1_image,stimuli/out1.png,stimuli/correct_out1.png,stimuli/out2.png,,,,,,,,,,,,,,,,,,,,,,,,,,,,,,,,,,,,,,
,,64871d208781227e5188a1b5,25,male,2024-04-19_17h37.23.362,stockport_simplified,2022.2.4,Win32,59.95203837,661e456ee6de07e70aa9ef7b,66229d9a0b961b173878925f,,,,,,,,,,,,,,,,,,,,,,,,,,,,,,,,,,2963.959,2965.758,"[8,7,4,3,2,1,5,6]","[[-0.3,0.2],[0.3,0.2]]","[[-0.125,-0.2],[0.125,-0.2]]",-0.102481122,-0.183926645,1,0,0,1.282,o1_image,2965.76,0,2966.259,2966.259,2968.261,0,0,0,0,1,,,,,,,,,,,,,,,,,,,,,,,,,,,,,,,,,,,,,,,,,,,,,,,,,,
,,64871d208781227e5188a1b5,25,male,2024-04-19_17h37.23.362,stockport_simplified,2022.2.4,Win32,59.95203837,661e456ee6de07e70aa9ef7b,66229d9a0b961b173878925f,,,,,,,,,,,,,,,,,,,,,,,,,,,,,,,,,,,,,,,,,,,,,,,,,,,,,,,,0,38,38,10,1,B,X,N,o2_image,stimuli/out2.png,stimuli/out1.png,stimuli/correct_out2.png,,,,,,,,,,,,,,,,,,,,,,,,,,,,,,,,,,,,,,
,,64871d208781227e5188a1b5,25,male,2024-04-19_17h37.23.362,stockport_simplified,2022.2.4,Win32,59.95203837,661e456ee6de07e70aa9ef7b,66229d9a0b961b173878925f,,,,,,,,,,,,,,,,,,,,,,,,,,,,,,,,,,2968.262,2969.981,"[8,7,4,3,2,1,5,6]","[[0.3,0.2],[-0.3,0.2]]","[[0.125,-0.2],[-0.125,-0.2]]",-0.115426106,-0.169902913,1,0,0,1.217,o2_image,2969.982,1,2970.48,2970.48,2972.482,0,0,0,0,1,,,,,,,,,,,,,,,,,,,,,,,,,,,,,,,,,,,,,,,,,,,,,,,,,,
,,64871d208781227e5188a1b5,25,male,2024-04-19_17h37.23.362,stockport_simplified,2022.2.4,Win32,59.95203837,661e456ee6de07e70aa9ef7b,66229d9a0b961b173878925f,,,,,,,,,,,,,,,,,,,,,,,,,,,,,,,,,,,,,,,,,,,,,,,,,,,,,,,,0,39,39,59,1,N,M,D,o2_image,stimuli/out2.png,stimuli/out1.png,stimuli/correct_out2.png,,,,,,,,,,,,,,,,,,,,,,,,,,,,,,,,,,,,,,
,,64871d208781227e5188a1b5,25,male,2024-04-19_17h37.23.362,stockport_simplified,2022.2.4,Win32,59.95203837,661e456ee6de07e70aa9ef7b,66229d9a0b961b173878925f,,,,,,,,,,,,,,,,,,,,,,,,,,,,,,,,,,2972.482,2974.584,"[8,7,4,3,2,1,5,6]","[[-0.3,0.2],[0.3,0.2]]","[[-0.125,-0.2],[0.125,-0.2]]",-0.090614887,-0.164509169,1,0,0,1.6,o1_image,2974.585,1,2975.085,2975.085,2977.149,0,0,0,0,1,,,,,,,,,,,,,,,,,,,,,,,,,,,,,,,,,,,,,,,,,,,,,,,,,,
,,64871d208781227e5188a1b5,25,male,2024-04-19_17h37.23.362,stockport_simplified,2022.2.4,Win32,59.95203837,661e456ee6de07e70aa9ef7b,66229d9a0b961b173878925f,,,,,,,,,,,,,,,,,,,,,,,,,,,,,,,,,,,,,,,,,,,,,,,,,,,,,,,,0,40,40,22,1,N,M,C,o1_image,stimuli/out1.png,stimuli/correct_out1.png,stimuli/out2.png,,,,,,,,,,,,,,,,,,,,,,,,,,,,,,,,,,,,,,
,,64871d208781227e5188a1b5,25,male,2024-04-19_17h37.23.362,stockport_simplified,2022.2.4,Win32,59.95203837,661e456ee6de07e70aa9ef7b,66229d9a0b961b173878925f,,,,,,,,,,,,,,,,,,,,,,,,,,,,,,,,,,2977.15,2981.224,"[8,7,4,3,2,1,5,6]","[[-0.3,0.2],[0.3,0.2]]","[[-0.125,-0.2],[0.125,-0.2]]",-0.100323625,-0.161272923,1,0,0,3.289,o1_image,2981.225,1,2981.725,2981.725,2983.726,0,0,0,0,1,,,,,,,,,,,,,,,,,,,,,,,,,,,,,,,,,,,,,,,,,,,,,,,,,,
,,64871d208781227e5188a1b5,25,male,2024-04-19_17h37.23.362,stockport_simplified,2022.2.4,Win32,59.95203837,661e456ee6de07e70aa9ef7b,66229d9a0b961b173878925f,,,,,,,,,,,,,,,,,,,,,,,,,,,,,,,,,,,,,,,,,,,,,,,,,,,,,,,,0,41,41,6,1,A,Y,N,o1_image,stimuli/out1.png,stimuli/correct_out1.png,stimuli/out2.png,,,,,,,,,,,,,,,,,,,,,,,,,,,,,,,,,,,,,,
,,64871d208781227e5188a1b5,25,male,2024-04-19_17h37.23.362,stockport_simplified,2022.2.4,Win32,59.95203837,661e456ee6de07e70aa9ef7b,66229d9a0b961b173878925f,,,,,,,,,,,,,,,,,,,,,,,,,,,,,,,,,,2983.727,2985.211,"[8,7,4,3,2,1,5,6]","[[-0.3,0.2],[0.3,0.2]]","[[-0.125,-0.2],[0.125,-0.2]]",-0.106796117,-0.154800431,1,0,0,0.983,o1_image,2985.213,0,2985.712,2985.712,2987.714,0,0,0,0,1,,,,,,,,,,,,,,,,,,,,,,,,,,,,,,,,,,,,,,,,,,,,,,,,,,
,,64871d208781227e5188a1b5,25,male,2024-04-19_17h37.23.362,stockport_simplified,2022.2.4,Win32,59.95203837,661e456ee6de07e70aa9ef7b,66229d9a0b961b173878925f,,,,,,,,,,,,,,,,,,,,,,,,,,,,,,,,,,,,,,,,,,,,,,,,,,,,,,,,0,42,42,12,1,B,X,N,o2_image,stimuli/out2.png,stimuli/out1.png,stimuli/correct_out2.png,,,,,,,,,,,,,,,,,,,,,,,,,,,,,,,,,,,,,,
,,64871d208781227e5188a1b5,25,male,2024-04-19_17h37.23.362,stockport_simplified,2022.2.4,Win32,59.95203837,661e456ee6de07e70aa9ef7b,66229d9a0b961b173878925f,,,,,,,,,,,,,,,,,,,,,,,,,,,,,,,,,,2987.716,2988.917,"[8,7,4,3,2,1,5,6]","[[-0.3,0.2],[0.3,0.2]]","[[0.125,-0.2],[-0.125,-0.2]]",-0.084142395,-0.182847896,1,0,0,0.685,o2_image,2988.918,1,2989.416,2989.417,2991.417,0,0,0,0,1,,,,,,,,,,,,,,,,,,,,,,,,,,,,,,,,,,,,,,,,,,,,,,,,,,
,,64871d208781227e5188a1b5,25,male,2024-04-19_17h37.23.362,stockport_simplified,2022.2.4,Win32,59.95203837,661e456ee6de07e70aa9ef7b,66229d9a0b961b173878925f,,,,,,,,,,,,,,,,,,,,,,,,,,,,,,,,,,,,,,,,,,,,,,,,,,,,,,,,0,43,43,46,1,B,Y,N,o2_image,stimuli/out2.png,stimuli/out1.png,stimuli/correct_out2.png,,,,,,,,,,,,,,,,,,,,,,,,,,,,,,,,,,,,,,
,,64871d208781227e5188a1b5,25,male,2024-04-19_17h37.23.362,stockport_simplified,2022.2.4,Win32,59.95203837,661e456ee6de07e70aa9ef7b,66229d9a0b961b173878925f,,,,,,,,,,,,,,,,,,,,,,,,,,,,,,,,,,2991.418,2991.952,"[8,7,4,3,2,1,5,6]","[[0.3,0.2],[-0.3,0.2]]","[[-0.125,-0.2],[0.125,-0.2]]",-0.127292341,-0.165587918,1,0,0,0.032,o1_image,2991.956,0,2992.453,2992.453,2994.454,0,0,0,0,1,,,,,,,,,,,,,,,,,,,,,,,,,,,,,,,,,,,,,,,,,,,,,,,,,,
,,64871d208781227e5188a1b5,25,male,2024-04-19_17h37.23.362,stockport_simplified,2022.2.4,Win32,59.95203837,661e456ee6de07e70aa9ef7b,66229d9a0b961b173878925f,,,,,,,,,,,,,,,,,,,,,,,,,,,,,,,,,,,,,,,,,,,,,,,,,,,,,,,,0,44,44,11,1,B,X,N,o2_image,stimuli/out2.png,stimuli/out1.png,stimuli/correct_out2.png,,,,,,,,,,,,,,,,,,,,,,,,,,,,,,,,,,,,,,
,,64871d208781227e5188a1b5,25,male,2024-04-19_17h37.23.362,stockport_simplified,2022.2.4,Win32,59.95203837,661e456ee6de07e70aa9ef7b,66229d9a0b961b173878925f,,,,,,,,,,,,,,,,,,,,,,,,,,,,,,,,,,2994.455,2995.856,"[8,7,4,3,2,1,5,6]","[[0.3,0.2],[-0.3,0.2]]","[[0.125,-0.2],[-0.125,-0.2]]",-0.081984898,-0.187162891,1,0,0,0.9,o2_image,2995.859,1,2996.356,2996.356,2998.358,0,0,0,0,1,,,,,,,,,,,,,,,,,,,,,,,,,,,,,,,,,,,,,,,,,,,,,,,,,,
,,64871d208781227e5188a1b5,25,male,2024-04-19_17h37.23.362,stockport_simplified,2022.2.4,Win32,59.95203837,661e456ee6de07e70aa9ef7b,66229d9a0b961b173878925f,,,,,,,,,,,,,,,,,,,,,,,,,,,,,,,,,,,,,,,,,,,,,,,,,,,,,,,,0,45,45,26,1,N,M,D,o2_image,stimuli/out2.png,stimuli/out1.png,stimuli/correct_out2.png,,,,,,,,,,,,,,,,,,,,,,,,,,,,,,,,,,,,,,
,,64871d208781227e5188a1b5,25,male,2024-04-19_17h37.23.362,stockport_simplified,2022.2.4,Win32,59.95203837,661e456ee6de07e70aa9ef7b,66229d9a0b961b173878925f,,,,,,,,,,,,,,,,,,,,,,,,,,,,,,,,,,2998.359,3000.193,"[8,7,4,3,2,1,5,6]","[[-0.3,0.2],[0.3,0.2]]","[[0.125,-0.2],[-0.125,-0.2]]",0.116504854,-0.194714132,1,0,0,1.332,o1_image,3000.195,1,3000.694,3000.694,3002.696,0,0,0,0,1,,,,,,,,,,,,,,,,,,,,,,,,,,,,,,,,,,,,,,,,,,,,,,,,,,
,,64871d208781227e5188a1b5,25,male,2024-04-19_17h37.23.362,stockport_simplified,2022.2.4,Win32,59.95203837,661e456ee6de07e70aa9ef7b,66229d9a0b961b173878925f,,,,,,,,,,,,,,,,,,,,,,,,,,,,,,,,,,,,,,,,,,,,,,,,,,,,,,,,0,46,46,1,1,A,X,N,o1_image,stimuli/out1.png,stimuli/correct_out1.png,stimuli/out2.png,,,,,,,,,,,,,,,,,,,,,,,,,,,,,,,,,,,,,,
,,64871d208781227e5188a1b5,25,male,2024-04-19_17h37.23.362,stockport_simplified,2022.2.4,Win32,59.95203837,661e456ee6de07e70aa9ef7b,66229d9a0b961b173878925f,,,,,,,,,,,,,,,,,,,,,,,,,,,,,,,,,,3002.697,3005.033,"[8,7,4,3,2,1,5,6]","[[0.3,0.2],[-0.3,0.2]]","[[0.125,-0.2],[-0.125,-0.2]]",0.059331176,-0.176375405,1,0,0,1.836,o1_image,3005.035,1,3005.533,3005.533,3007.534,0,0,0,0,1,,,,,,,,,,,,,,,,,,,,,,,,,,,,,,,,,,,,,,,,,,,,,,,,,,
,,64871d208781227e5188a1b5,25,male,2024-04-19_17h37.23.362,stockport_simplified,2022.2.4,Win32,59.95203837,661e456ee6de07e70aa9ef7b,66229d9a0b961b173878925f,,,,,,,,,,,,,,,,,,,,,,,,,,,,,,,,,,,,,,,,,,,,,,,,,,,,,,,,0,47,47,24,1,N,M,C,o1_image,stimuli/out1.png,stimuli/correct_out1.png,stimuli/out2.png,,,,,,,,,,,,,,,,,,,,,,,,,,,,,,,,,,,,,,
,,64871d208781227e5188a1b5,25,male,2024-04-19_17h37.23.362,stockport_simplified,2022.2.4,Win32,59.95203837,661e456ee6de07e70aa9ef7b,66229d9a0b961b173878925f,,,,,,,,,,,,,,,,,,,,,,,,,,,,,,,,,,3007.535,3009.67,"[8,7,4,3,2,1,5,6]","[[-0.3,0.2],[0.3,0.2]]","[[0.125,-0.2],[-0.125,-0.2]]",-0.130528587,-0.190399137,1,0,0,1.633,o2_image,3009.672,0,3010.17,3010.17,3012.174,0,0,0,0,1,,,,,,,,,,,,,,,,,,,,,,,,,,,,,,,,,,,,,,,,,,,,,,,,,,
,,64871d208781227e5188a1b5,25,male,2024-04-19_17h37.23.362,stockport_simplified,2022.2.4,Win32,59.95203837,661e456ee6de07e70aa9ef7b,66229d9a0b961b173878925f,,,,,,,,,,,,,,,,,,,,,,,,,,,,,,,,,,,,,,,,,,,,,,,,,,,,,,,,0,48,48,4,1,A,X,N,o1_image,stimuli/out1.png,stimuli/correct_out1.png,stimuli/out2.png,,,,,,,,,,,,,,,,,,,,,,,,,,,,,,,,,,,,,,
,,64871d208781227e5188a1b5,25,male,2024-04-19_17h37.23.362,stockport_simplified,2022.2.4,Win32,59.95203837,661e456ee6de07e70aa9ef7b,66229d9a0b961b173878925f,,,,,,,,,,,,,,,,,,,,,,,,,,,,,,,,,,3012.174,3013.707,"[8,7,4,3,2,1,5,6]","[[0.3,0.2],[-0.3,0.2]]","[[-0.125,-0.2],[0.125,-0.2]]",0.131607335,-0.218446602,1,0,0,1.017,o2_image,3013.708,1,3014.208,3014.208,3016.21,0,0,0,0,1,,,,,,,,,,,,,,,,,,,,,,,,,,,,,,,,,,,,,,,,,,,,,,,,,,
,,64871d208781227e5188a1b5,25,male,2024-04-19_17h37.23.362,stockport_simplified,2022.2.4,Win32,59.95203837,661e456ee6de07e70aa9ef7b,66229d9a0b961b173878925f,,,,,,,,,,,,,,,,,,,,,,,,,,,,,,,,,,,,,,,,,,,,,,,,,,,,,,,,0,49,49,56,1,N,M,D,o2_image,stimuli/out2.png,stimuli/out1.png,stimuli/correct_out2.png,,,,,,,,,,,,,,,,,,,,,,,,,,,,,,,,,,,,,,
,,64871d208781227e5188a1b5,25,male,2024-04-19_17h37.23.362,stockport_simplified,2022.2.4,Win32,59.95203837,661e456ee6de07e70aa9ef7b,66229d9a0b961b173878925f,,,,,,,,,,,,,,,,,,,,,,,,,,,,,,,,,,3016.21,3018.196,"[8,7,4,3,2,1,5,6]","[[-0.3,0.2],[0.3,0.2]]","[[0.125,-0.2],[-0.125,-0.2]]",0.165048544,-0.185005394,1,0,0,1.485,o1_image,3018.197,1,3018.695,3018.695,3020.698,0,0,0,0,1,,,,,,,,,,,,,,,,,,,,,,,,,,,,,,,,,,,,,,,,,,,,,,,,,,
,,64871d208781227e5188a1b5,25,male,2024-04-19_17h37.23.362,stockport_simplified,2022.2.4,Win32,59.95203837,661e456ee6de07e70aa9ef7b,66229d9a0b961b173878925f,,,,,,,,,,,,,,,,,,,,,,,,,,,,,,,,,,,,,,,,,,,,,,,,,,,,,,,,0,50,50,35,1,A,Y,N,o1_image,stimuli/out1.png,stimuli/correct_out1.png,stimuli/out2.png,,,,,,,,,,,,,,,,,,,,,,,,,,,,,,,,,,,,,,
,,64871d208781227e5188a1b5,25,male,2024-04-19_17h37.23.362,stockport_simplified,2022.2.4,Win32,59.95203837,661e456ee6de07e70aa9ef7b,66229d9a0b961b173878925f,,,,,,,,,,,,,,,,,,,,,,,,,,,,,,,,,,3020.699,3023.216,"[8,7,4,3,2,1,5,6]","[[-0.3,0.2],[0.3,0.2]]","[[-0.125,-0.2],[0.125,-0.2]]",0.120819849,-0.187162891,1,0,0,2,o2_image,3023.218,1,3023.717,3023.717,3025.721,0,0,0,0,1,,,,,,,,,,,,,,,,,,,,,,,,,,,,,,,,,,,,,,,,,,,,,,,,,,
,,64871d208781227e5188a1b5,25,male,2024-04-19_17h37.23.362,stockport_simplified,2022.2.4,Win32,59.95203837,661e456ee6de07e70aa9ef7b,66229d9a0b961b173878925f,,,,,,,,,,,,,,,,,,,,,,,,,,,,,,,,,,,,,,,,,,,,,,,,,,,,,,,,0,51,51,48,1,B,Y,N,o2_image,stimuli/out2.png,stimuli/out1.png,stimuli/correct_out2.png,,,,,,,,,,,,,,,,,,,,,,,,,,,,,,,,,,,,,,
,,64871d208781227e5188a1b5,25,male,2024-04-19_17h37.23.362,stockport_simplified,2022.2.4,Win32,59.95203837,661e456ee6de07e70aa9ef7b,66229d9a0b961b173878925f,,,,,,,,,,,,,,,,,,,,,,,,,,,,,,,,,,3025.722,3028.772,"[8,7,4,3,2,1,5,6]","[[-0.3,0.2],[0.3,0.2]]","[[0.125,-0.2],[-0.125,-0.2]]",0.107874865,-0.186084142,1,0,0,2.533,o1_image,3028.775,1,3029.273,3029.273,3031.275,0,0,0,0,1,,,,,,,,,,,,,,,,,,,,,,,,,,,,,,,,,,,,,,,,,,,,,,,,,,
,,64871d208781227e5188a1b5,25,male,2024-04-19_17h37.23.362,stockport_simplified,2022.2.4,Win32,59.95203837,661e456ee6de07e70aa9ef7b,66229d9a0b961b173878925f,,,,,,,,,,,,,,,,,,,,,,,,,,,,,,,,,,,,,,,,,,,,,,,,,,,,,,,,0,52,52,52,1,N,M,C,o1_image,stimuli/out1.png,stimuli/correct_out1.png,stimuli/out2.png,,,,,,,,,,,,,,,,,,,,,,,,,,,,,,,,,,,,,,
,,64871d208781227e5188a1b5,25,male,2024-04-19_17h37.23.362,stockport_simplified,2022.2.4,Win32,59.95203837,661e456ee6de07e70aa9ef7b,66229d9a0b961b173878925f,,,,,,,,,,,,,,,,,,,,,,,,,,,,,,,,,,3031.276,3032.56,"[8,7,4,3,2,1,5,6]","[[0.3,0.2],[-0.3,0.2]]","[[0.125,-0.2],[-0.125,-0.2]]",0.106796117,-0.187162891,1,0,0,0.768,o1_image,3032.561,1,3033.06,3033.06,3035.062,0,0,0,0,1,,,,,,,,,,,,,,,,,,,,,,,,,,,,,,,,,,,,,,,,,,,,,,,,,,
,,64871d208781227e5188a1b5,25,male,2024-04-19_17h37.23.362,stockport_simplified,2022.2.4,Win32,59.95203837,661e456ee6de07e70aa9ef7b,66229d9a0b961b173878925f,,,,,,,,,,,,,,,,,,,,,,,,,,,,,,,,,,,,,,,,,,,,,,,,,,,,,,,,0,53,53,51,1,N,M,C,o1_image,stimuli/out1.png,stimuli/correct_out1.png,stimuli/out2.png,,,,,,,,,,,,,,,,,,,,,,,,,,,,,,,,,,,,,,
,,64871d208781227e5188a1b5,25,male,2024-04-19_17h37.23.362,stockport_simplified,2022.2.4,Win32,59.95203837,661e456ee6de07e70aa9ef7b,66229d9a0b961b173878925f,,,,,,,,,,,,,,,,,,,,,,,,,,,,,,,,,,3035.063,3038.315,"[8,7,4,3,2,1,5,6]","[[0.3,0.2],[-0.3,0.2]]","[[0.125,-0.2],[-0.125,-0.2]]",-0.110032362,-0.149406688,1,0,0,2.735,o2_image,3038.317,1,3038.816,3038.816,3040.818,0,0,0,0,1,,,,,,,,,,,,,,,,,,,,,,,,,,,,,,,,,,,,,,,,,,,,,,,,,,
,,64871d208781227e5188a1b5,25,male,2024-04-19_17h37.23.362,stockport_simplified,2022.2.4,Win32,59.95203837,661e456ee6de07e70aa9ef7b,66229d9a0b961b173878925f,,,,,,,,,,,,,,,,,,,,,,,,,,,,,,,,,,,,,,,,,,,,,,,,,,,,,,,,0,54,54,44,1,B,X,N,o2_image,stimuli/out2.png,stimuli/out1.png,stimuli/correct_out2.png,,,,,,,,,,,,,,,,,,,,,,,,,,,,,,,,,,,,,,
,,64871d208781227e5188a1b5,25,male,2024-04-19_17h37.23.362,stockport_simplified,2022.2.4,Win32,59.95203837,661e456ee6de07e70aa9ef7b,66229d9a0b961b173878925f,,,,,,,,,,,,,,,,,,,,,,,,,,,,,,,,,,3040.819,3042.637,"[8,7,4,3,2,1,5,6]","[[-0.3,0.2],[0.3,0.2]]","[[0.125,-0.2],[-0.125,-0.2]]",0.066882416,-0.151564186,1,0,0,1.301,o1_image,3042.639,1,3043.137,3043.137,3045.139,0,0,0,0,1,,,,,,,,,,,,,,,,,,,,,,,,,,,,,,,,,,,,,,,,,,,,,,,,,,
,,64871d208781227e5188a1b5,25,male,2024-04-19_17h37.23.362,stockport_simplified,2022.2.4,Win32,59.95203837,661e456ee6de07e70aa9ef7b,66229d9a0b961b173878925f,,,,,,,,,,,,,,,,,,,,,,,,,,,,,,,,,,,,,,,,,,,,,,,,,,,,,,,,0,55,55,21,1,N,M,C,o1_image,stimuli/out1.png,stimuli/correct_out1.png,stimuli/out2.png,,,,,,,,,,,,,,,,,,,,,,,,,,,,,,,,,,,,,,
,,64871d208781227e5188a1b5,25,male,2024-04-19_17h37.23.362,stockport_simplified,2022.2.4,Win32,59.95203837,661e456ee6de07e70aa9ef7b,66229d9a0b961b173878925f,,,,,,,,,,,,,,,,,,,,,,,,,,,,,,,,,,3045.139,3048.042,"[8,7,4,3,2,1,5,6]","[[0.3,0.2],[-0.3,0.2]]","[[-0.125,-0.2],[0.125,-0.2]]",-0.12837109,-0.162351672,1,0,0,2.401,o1_image,3048.043,1,3048.543,3048.543,3050.544,0,0,0,0,1,,,,,,,,,,,,,,,,,,,,,,,,,,,,,,,,,,,,,,,,,,,,,,,,,,
,,64871d208781227e5188a1b5,25,male,2024-04-19_17h37.23.362,stockport_simplified,2022.2.4,Win32,59.95203837,661e456ee6de07e70aa9ef7b,66229d9a0b961b173878925f,,,,,,,,,,,,,,,,,,,,,,,,,,,,,,,,,,,,,,,,,,,,,,,,,,,,,,,,0,56,56,38,1,A,Y,N,o1_image,stimuli/out1.png,stimuli/correct_out1.png,stimuli/out2.png,,,,,,,,,,,,,,,,,,,,,,,,,,,,,,,,,,,,,,
,,64871d208781227e5188a1b5,25,male,2024-04-19_17h37.23.362,stockport_simplified,2022.2.4,Win32,59.95203837,661e456ee6de07e70aa9ef7b,66229d9a0b961b173878925f,,,,,,,,,,,,,,,,,,,,,,,,,,,,,,,,,,3050.545,3053.815,"[8,7,4,3,2,1,5,6]","[[0.3,0.2],[-0.3,0.2]]","[[-0.125,-0.2],[0.125,-0.2]]",0.0798274,-0.201186624,1,0,0,2.769,o2_image,3053.816,1,3054.315,3054.315,3056.317,0,0,0,0,1,,,,,,,,,,,,,,,,,,,,,,,,,,,,,,,,,,,,,,,,,,,,,,,,,,
,,64871d208781227e5188a1b5,25,male,2024-04-19_17h37.23.362,stockport_simplified,2022.2.4,Win32,59.95203837,661e456ee6de07e70aa9ef7b,66229d9a0b961b173878925f,,,,,,,,,,,,,,,,,,,,,,,,,,,,,,,,,,,,,,,,,,,,,,,,,,,,,,,,0,57,57,41,1,B,X,N,o2_image,stimuli/out2.png,stimuli/out1.png,stimuli/correct_out2.png,,,,,,,,,,,,,,,,,,,,,,,,,,,,,,,,,,,,,,
,,64871d208781227e5188a1b5,25,male,2024-04-19_17h37.23.362,stockport_simplified,2022.2.4,Win32,59.95203837,661e456ee6de07e70aa9ef7b,66229d9a0b961b173878925f,,,,,,,,,,,,,,,,,,,,,,,,,,,,,,,,,,3056.318,3058.486,"[8,7,4,3,2,1,5,6]","[[-0.3,0.2],[0.3,0.2]]","[[0.125,-0.2],[-0.125,-0.2]]",-0.077669903,-0.140776699,1,0,0,1.651,o2_image,3058.489,1,3058.986,3058.986,3060.989,0,0,0,0,1,,,,,,,,,,,,,,,,,,,,,,,,,,,,,,,,,,,,,,,,,,,,,,,,,,
,,64871d208781227e5188a1b5,25,male,2024-04-19_17h37.23.362,stockport_simplified,2022.2.4,Win32,59.95203837,661e456ee6de07e70aa9ef7b,66229d9a0b961b173878925f,,,,,,,,,,,,,,,,,,,,,,,,,,,,,,,,,,,,,,,,,,,,,,,,,,,,,,,,0,58,58,14,1,B,X,N,o2_image,stimuli/out2.png,stimuli/out1.png,stimuli/correct_out2.png,,,,,,,,,,,,,,,,,,,,,,,,,,,,,,,,,,,,,,
,,64871d208781227e5188a1b5,25,male,2024-04-19_17h37.23.362,stockport_simplified,2022.2.4,Win32,59.95203837,661e456ee6de07e70aa9ef7b,66229d9a0b961b173878925f,,,,,,,,,,,,,,,,,,,,,,,,,,,,,,,,,,3060.989,3064.759,"[8,7,4,3,2,1,5,6]","[[0.3,0.2],[-0.3,0.2]]","[[0.125,-0.2],[-0.125,-0.2]]",0.145631068,-0.183926645,1,0,0,3.269,o1_image,3064.76,0,3065.259,3065.259,3067.262,0,0,0,0,1,,,,,,,,,,,,,,,,,,,,,,,,,,,,,,,,,,,,,,,,,,,,,,,,,,
,,64871d208781227e5188a1b5,25,male,2024-04-19_17h37.23.362,stockport_simplified,2022.2.4,Win32,59.95203837,661e456ee6de07e70aa9ef7b,66229d9a0b961b173878925f,,,,,,,,,,,,,,,,,,,,,,,,,,,,,,,,,,,,,,,,,,,,,,,,,,,,,,,,0,59,59,45,1,B,Y,N,o2_image,stimuli/out2.png,stimuli/out1.png,stimuli/correct_out2.png,,,,,,,,,,,,,,,,,,,,,,,,,,,,,,,,,,,,,,
,,64871d208781227e5188a1b5,25,male,2024-04-19_17h37.23.362,stockport_simplified,2022.2.4,Win32,59.95203837,661e456ee6de07e70aa9ef7b,66229d9a0b961b173878925f,,,,,,,,,,,,,,,,,,,,,,,,,,,,,,,,,,3067.263,3070.465,"[8,7,4,3,2,1,5,6]","[[0.3,0.2],[-0.3,0.2]]","[[-0.125,-0.2],[0.125,-0.2]]",-0.071197411,-0.196871629,1,0,0,2.685,o1_image,3070.466,1,3070.965,3070.965,3072.967,0,0,0,0,1,,,,,,,,,,,,,,,,,,,,,,,,,,,,,,,,,,,,,,,,,,,,,,,,,,
,,64871d208781227e5188a1b5,25,male,2024-04-19_17h37.23.362,stockport_simplified,2022.2.4,Win32,59.95203837,661e456ee6de07e70aa9ef7b,66229d9a0b961b173878925f,,,,,,,,,,,,,,,,,,,,,,,,,,,,,,,,,,,,,,,,,,,,,,,,,,,,,,,,1,0,60,8,1,A,Y,N,o1_image,stimuli/out1.png,stimuli/correct_out1.png,stimuli/out2.png,,,,,,,,,,,,,,,,,,,,,,,,,,,,,,,,,,,,,,
,,64871d208781227e5188a1b5,25,male,2024-04-19_17h37.23.362,stockport_simplified,2022.2.4,Win32,59.95203837,661e456ee6de07e70aa9ef7b,66229d9a0b961b173878925f,,,,,,,,,,,,,,,,,,,,,,,,,,,,,,,,,,3072.968,3074.402,"[8,7,4,3,2,1,5,6]","[[-0.3,0.2],[0.3,0.2]]","[[0.125,-0.2],[-0.125,-0.2]]",-0.084142395,-0.181769148,1,0,0,0.933,o2_image,3074.403,1,3074.903,3074.903,3076.904,0,0,0,0,1,,,,,,,,,,,,,,,,,,,,,,,,,,,,,,,,,,,,,,,,,,,,,,,,,,
,,64871d208781227e5188a1b5,25,male,2024-04-19_17h37.23.362,stockport_simplified,2022.2.4,Win32,59.95203837,661e456ee6de07e70aa9ef7b,66229d9a0b961b173878925f,,,,,,,,,,,,,,,,,,,,,,,,,,,,,,,,,,,,,,,,,,,,,,,,,,,,,,,,1,1,61,57,1,N,M,D,o2_image,stimuli/out2.png,stimuli/out1.png,stimuli/correct_out2.png,,,,,,,,,,,,,,,,,,,,,,,,,,,,,,,,,,,,,,
,,64871d208781227e5188a1b5,25,male,2024-04-19_17h37.23.362,stockport_simplified,2022.2.4,Win32,59.95203837,661e456ee6de07e70aa9ef7b,66229d9a0b961b173878925f,,,,,,,,,,,,,,,,,,,,,,,,,,,,,,,,,,3076.905,3079.775,"[8,7,4,3,2,1,5,6]","[[-0.3,0.2],[0.3,0.2]]","[[-0.125,-0.2],[0.125,-0.2]]",-0.137001079,-0.186084142,1,0,0,2.368,o1_image,3079.776,0,3080.274,3080.274,3082.277,0,0,0,0,1,,,,,,,,,,,,,,,,,,,,,,,,,,,,,,,,,,,,,,,,,,,,,,,,,,
,,64871d208781227e5188a1b5,25,male,2024-04-19_17h37.23.362,stockport_simplified,2022.2.4,Win32,59.95203837,661e456ee6de07e70aa9ef7b,66229d9a0b961b173878925f,,,,,,,,,,,,,,,,,,,,,,,,,,,,,,,,,,,,,,,,,,,,,,,,,,,,,,,,1,2,62,18,1,B,Y,N,o2_image,stimuli/out2.png,stimuli/out1.png,stimuli/correct_out2.png,,,,,,,,,,,,,,,,,,,,,,,,,,,,,,,,,,,,,,
,,64871d208781227e5188a1b5,25,male,2024-04-19_17h37.23.362,stockport_simplified,2022.2.4,Win32,59.95203837,661e456ee6de07e70aa9ef7b,66229d9a0b961b173878925f,,,,,,,,,,,,,,,,,,,,,,,,,,,,,,,,,,3082.278,3083.695,"[8,7,4,3,2,1,5,6]","[[-0.3,0.2],[0.3,0.2]]","[[0.125,-0.2],[-0.125,-0.2]]",-0.177993528,-0.191477886,1,0,0,0.899,o2_image,3083.696,1,3084.197,3084.197,3086.197,0,0,0,0,1,,,,,,,,,,,,,,,,,,,,,,,,,,,,,,,,,,,,,,,,,,,,,,,,,,
,,64871d208781227e5188a1b5,25,male,2024-04-19_17h37.23.362,stockport_simplified,2022.2.4,Win32,59.95203837,661e456ee6de07e70aa9ef7b,66229d9a0b961b173878925f,,,,,,,,,,,,,,,,,,,,,,,,,,,,,,,,,,,,,,,,,,,,,,,,,,,,,,,,1,3,63,27,1,N,M,D,o2_image,stimuli/out2.png,stimuli/out1.png,stimuli/correct_out2.png,,,,,,,,,,,,,,,,,,,,,,,,,,,,,,,,,,,,,,
,,64871d208781227e5188a1b5,25,male,2024-04-19_17h37.23.362,stockport_simplified,2022.2.4,Win32,59.95203837,661e456ee6de07e70aa9ef7b,66229d9a0b961b173878925f,,,,,,,,,,,,,,,,,,,,,,,,,,,,,,,,,,3086.197,3087.382,"[8,7,4,3,2,1,5,6]","[[-0.3,0.2],[0.3,0.2]]","[[0.125,-0.2],[-0.125,-0.2]]",-0.084142395,-0.176375405,1,0,0,0.684,o2_image,3087.383,1,3087.882,3087.882,3089.885,0,0,0,0,1,,,,,,,,,,,,,,,,,,,,,,,,,,,,,,,,,,,,,,,,,,,,,,,,,,
,,64871d208781227e5188a1b5,25,male,2024-04-19_17h37.23.362,stockport_simplified,2022.2.4,Win32,59.95203837,661e456ee6de07e70aa9ef7b,66229d9a0b961b173878925f,,,,,,,,,,,,,,,,,,,,,,,,,,,,,,,,,,,,,,,,,,,,,,,,,,,,,,,,1,4,64,26,1,N,M,D,o2_image,stimuli/out2.png,stimuli/out1.png,stimuli/correct_out2.png,,,,,,,,,,,,,,,,,,,,,,,,,,,,,,,,,,,,,,
,,64871d208781227e5188a1b5,25,male,2024-04-19_17h37.23.362,stockport_simplified,2022.2.4,Win32,59.95203837,661e456ee6de07e70aa9ef7b,66229d9a0b961b173878925f,,,,,,,,,,,,,,,,,,,,,,,,,,,,,,,,,,3089.885,3093.356,"[8,7,4,3,2,1,5,6]","[[0.3,0.2],[-0.3,0.2]]","[[0.125,-0.2],[-0.125,-0.2]]",-0.101402373,-0.18824164,1,0,0,2.969,o2_image,3093.358,1,3093.855,3093.855,3095.857,0,0,0,0,1,,,,,,,,,,,,,,,,,,,,,,,,,,,,,,,,,,,,,,,,,,,,,,,,,,
,,64871d208781227e5188a1b5,25,male,2024-04-19_17h37.23.362,stockport_simplified,2022.2.4,Win32,59.95203837,661e456ee6de07e70aa9ef7b,66229d9a0b961b173878925f,,,,,,,,,,,,,,,,,,,,,,,,,,,,,,,,,,,,,,,,,,,,,,,,,,,,,,,,1,5,65,49,1,B,Y,N,o2_image,stimuli/out2.png,stimuli/out1.png,stimuli/correct_out2.png,,,,,,,,,,,,,,,,,,,,,,,,,,,,,,,,,,,,,,
,,64871d208781227e5188a1b5,25,male,2024-04-19_17h37.23.362,stockport_simplified,2022.2.4,Win32,59.95203837,661e456ee6de07e70aa9ef7b,66229d9a0b961b173878925f,,,,,,,,,,,,,,,,,,,,,,,,,,,,,,,,,,3095.858,3097.926,"[8,7,4,3,2,1,5,6]","[[-0.3,0.2],[0.3,0.2]]","[[0.125,-0.2],[-0.125,-0.2]]",0.067961165,-0.182847896,1,0,0,1.565,o1_image,3097.927,1,3098.426,3098.426,3100.428,0,0,0,0,1,,,,,,,,,,,,,,,,,,,,,,,,,,,,,,,,,,,,,,,,,,,,,,,,,,
,,64871d208781227e5188a1b5,25,male,2024-04-19_17h37.23.362,stockport_simplified,2022.2.4,Win32,59.95203837,661e456ee6de07e70aa9ef7b,66229d9a0b961b173878925f,,,,,,,,,,,,,,,,,,,,,,,,,,,,,,,,,,,,,,,,,,,,,,,,,,,,,,,,1,6,66,3,1,A,X,N,o1_image,stimuli/out1.png,stimuli/correct_out1.png,stimuli/out2.png,,,,,,,,,,,,,,,,,,,,,,,,,,,,,,,,,,,,,,
,,64871d208781227e5188a1b5,25,male,2024-04-19_17h37.23.362,stockport_simplified,2022.2.4,Win32,59.95203837,661e456ee6de07e70aa9ef7b,66229d9a0b961b173878925f,,,,,,,,,,,,,,,,,,,,,,,,,,,,,,,,,,3100.429,3102.981,"[8,7,4,3,2,1,5,6]","[[0.3,0.2],[-0.3,0.2]]","[[-0.125,-0.2],[0.125,-0.2]]",0.091693635,-0.190399137,1,0,0,2.035,o2_image,3102.982,1,3103.481,3103.481,3105.483,0,0,0,0,1,,,,,,,,,,,,,,,,,,,,,,,,,,,,,,,,,,,,,,,,,,,,,,,,,,
,,64871d208781227e5188a1b5,25,male,2024-04-19_17h37.23.362,stockport_simplified,2022.2.4,Win32,59.95203837,661e456ee6de07e70aa9ef7b,66229d9a0b961b173878925f,,,,,,,,,,,,,,,,,,,,,,,,,,,,,,,,,,,,,,,,,,,,,,,,,,,,,,,,1,7,67,42,1,B,X,N,o2_image,stimuli/out2.png,stimuli/out1.png,stimuli/correct_out2.png,,,,,,,,,,,,,,,,,,,,,,,,,,,,,,,,,,,,,,
,,64871d208781227e5188a1b5,25,male,2024-04-19_17h37.23.362,stockport_simplified,2022.2.4,Win32,59.95203837,661e456ee6de07e70aa9ef7b,66229d9a0b961b173878925f,,,,,,,,,,,,,,,,,,,,,,,,,,,,,,,,,,3105.484,3107.669,"[8,7,4,3,2,1,5,6]","[[-0.3,0.2],[0.3,0.2]]","[[-0.125,-0.2],[0.125,-0.2]]",-0.108953614,-0.192556634,1,0,0,1.667,o1_image,3107.67,1,3108.17,3108.17,3110.172,0,0,0,0,1,,,,,,,,,,,,,,,,,,,,,,,,,,,,,,,,,,,,,,,,,,,,,,,,,,
,,64871d208781227e5188a1b5,25,male,2024-04-19_17h37.23.362,stockport_simplified,2022.2.4,Win32,59.95203837,661e456ee6de07e70aa9ef7b,66229d9a0b961b173878925f,,,,,,,,,,,,,,,,,,,,,,,,,,,,,,,,,,,,,,,,,,,,,,,,,,,,,,,,1,8,68,52,1,N,M,C,o1_image,stimuli/out1.png,stimuli/correct_out1.png,stimuli/out2.png,,,,,,,,,,,,,,,,,,,,,,,,,,,,,,,,,,,,,,
,,64871d208781227e5188a1b5,25,male,2024-04-19_17h37.23.362,stockport_simplified,2022.2.4,Win32,59.95203837,661e456ee6de07e70aa9ef7b,66229d9a0b961b173878925f,,,,,,,,,,,,,,,,,,,,,,,,,,,,,,,,,,3110.173,3113.725,"[8,7,4,3,2,1,5,6]","[[0.3,0.2],[-0.3,0.2]]","[[0.125,-0.2],[-0.125,-0.2]]",-0.131607335,-0.190399137,1,0,0,3.036,o2_image,3113.726,1,3114.225,3114.225,3116.228,0,0,0,0,1,,,,,,,,,,,,,,,,,,,,,,,,,,,,,,,,,,,,,,,,,,,,,,,,,,
,,64871d208781227e5188a1b5,25,male,2024-04-19_17h37.23.362,stockport_simplified,2022.2.4,Win32,59.95203837,661e456ee6de07e70aa9ef7b,66229d9a0b961b173878925f,,,,,,,,,,,,,,,,,,,,,,,,,,,,,,,,,,,,,,,,,,,,,,,,,,,,,,,,1,9,69,11,1,B,X,N,o2_image,stimuli/out2.png,stimuli/out1.png,stimuli/correct_out2.png,,,,,,,,,,,,,,,,,,,,,,,,,,,,,,,,,,,,,,
,,64871d208781227e5188a1b5,25,male,2024-04-19_17h37.23.362,stockport_simplified,2022.2.4,Win32,59.95203837,661e456ee6de07e70aa9ef7b,66229d9a0b961b173878925f,,,,,,,,,,,,,,,,,,,,,,,,,,,,,,,,,,3116.228,3120.349,"[8,7,4,3,2,1,5,6]","[[-0.3,0.2],[0.3,0.2]]","[[0.125,-0.2],[-0.125,-0.2]]",0.044228695,-0.197950378,1,0,0,2.985,o1_image,3120.35,1,3120.848,3120.848,3122.851,0,0,0,0,1,,,,,,,,,,,,,,,,,,,,,,,,,,,,,,,,,,,,,,,,,,,,,,,,,,
,,64871d208781227e5188a1b5,25,male,2024-04-19_17h37.23.362,stockport_simplified,2022.2.4,Win32,59.95203837,661e456ee6de07e70aa9ef7b,66229d9a0b961b173878925f,,,,,,,,,,,,,,,,,,,,,,,,,,,,,,,,,,,,,,,,,,,,,,,,,,,,,,,,1,10,70,7,1,A,Y,N,o1_image,stimuli/out1.png,stimuli/correct_out1.png,stimuli/out2.png,,,,,,,,,,,,,,,,,,,,,,,,,,,,,,,,,,,,,,
,,64871d208781227e5188a1b5,25,male,2024-04-19_17h37.23.362,stockport_simplified,2022.2.4,Win32,59.95203837,661e456ee6de07e70aa9ef7b,66229d9a0b961b173878925f,,,,,,,,,,,,,,,,,,,,,,,,,,,,,,,,,,3122.852,3124.186,"[8,7,4,3,2,1,5,6]","[[-0.3,0.2],[0.3,0.2]]","[[-0.125,-0.2],[0.125,-0.2]]",-0.180151025,-0.159115426,1,0,0,0.816,o1_image,3124.187,0,3124.687,3124.687,3126.689,0,0,0,0,1,,,,,,,,,,,,,,,,,,,,,,,,,,,,,,,,,,,,,,,,,,,,,,,,,,
,,64871d208781227e5188a1b5,25,male,2024-04-19_17h37.23.362,stockport_simplified,2022.2.4,Win32,59.95203837,661e456ee6de07e70aa9ef7b,66229d9a0b961b173878925f,,,,,,,,,,,,,,,,,,,,,,,,,,,,,,,,,,,,,,,,,,,,,,,,,,,,,,,,1,11,71,28,1,N,M,D,o2_image,stimuli/out2.png,stimuli/out1.png,stimuli/correct_out2.png,,,,,,,,,,,,,,,,,,,,,,,,,,,,,,,,,,,,,,
,,64871d208781227e5188a1b5,25,male,2024-04-19_17h37.23.362,stockport_simplified,2022.2.4,Win32,59.95203837,661e456ee6de07e70aa9ef7b,66229d9a0b961b173878925f,,,,,,,,,,,,,,,,,,,,,,,,,,,,,,,,,,3126.691,3129.291,"[8,7,4,3,2,1,5,6]","[[0.3,0.2],[-0.3,0.2]]","[[0.125,-0.2],[-0.125,-0.2]]",0.094929881,-0.182847896,1,0,0,2.082,o1_image,3129.293,0,3129.791,3129.791,3131.794,0,0,0,0,1,,,,,,,,,,,,,,,,,,,,,,,,,,,,,,,,,,,,,,,,,,,,,,,,,,
,,64871d208781227e5188a1b5,25,male,2024-04-19_17h37.23.362,stockport_simplified,2022.2.4,Win32,59.95203837,661e456ee6de07e70aa9ef7b,66229d9a0b961b173878925f,,,,,,,,,,,,,,,,,,,,,,,,,,,,,,,,,,,,,,,,,,,,,,,,,,,,,,,,1,12,72,12,1,B,X,N,o2_image,stimuli/out2.png,stimuli/out1.png,stimuli/correct_out2.png,,,,,,,,,,,,,,,,,,,,,,,,,,,,,,,,,,,,,,
,,64871d208781227e5188a1b5,25,male,2024-04-19_17h37.23.362,stockport_simplified,2022.2.4,Win32,59.95203837,661e456ee6de07e70aa9ef7b,66229d9a0b961b173878925f,,,,,,,,,,,,,,,,,,,,,,,,,,,,,,,,,,3131.794,3133.914,"[8,7,4,3,2,1,5,6]","[[-0.3,0.2],[0.3,0.2]]","[[0.125,-0.2],[-0.125,-0.2]]",0.087378641,-0.176375405,1,0,0,1.619,o1_image,3133.915,1,3134.412,3134.412,3136.414,0,0,0,0,1,,,,,,,,,,,,,,,,,,,,,,,,,,,,,,,,,,,,,,,,,,,,,,,,,,
,,64871d208781227e5188a1b5,25,male,2024-04-19_17h37.23.362,stockport_simplified,2022.2.4,Win32,59.95203837,661e456ee6de07e70aa9ef7b,66229d9a0b961b173878925f,,,,,,,,,,,,,,,,,,,,,,,,,,,,,,,,,,,,,,,,,,,,,,,,,,,,,,,,1,13,73,24,1,N,M,C,o1_image,stimuli/out1.png,stimuli/correct_out1.png,stimuli/out2.png,,,,,,,,,,,,,,,,,,,,,,,,,,,,,,,,,,,,,,
,,64871d208781227e5188a1b5,25,male,2024-04-19_17h37.23.362,stockport_simplified,2022.2.4,Win32,59.95203837,661e456ee6de07e70aa9ef7b,66229d9a0b961b173878925f,,,,,,,,,,,,,,,,,,,,,,,,,,,,,,,,,,3136.415,3138.233,"[8,7,4,3,2,1,5,6]","[[-0.3,0.2],[0.3,0.2]]","[[0.125,-0.2],[-0.125,-0.2]]",0.07227616,-0.229234088,1,0,0,1.317,o1_image,3138.234,0,3138.733,3138.733,3141.089,0,0,0,0,1,,,,,,,,,,,,,,,,,,,,,,,,,,,,,,,,,,,,,,,,,,,,,,,,,,
,,64871d208781227e5188a1b5,25,male,2024-04-19_17h37.23.362,stockport_simplified,2022.2.4,Win32,59.95203837,661e456ee6de07e70aa9ef7b,66229d9a0b961b173878925f,,,,,,,,,,,,,,,,,,,,,,,,,,,,,,,,,,,,,,,,,,,,,,,,,,,,,,,,1,14,74,48,1,B,Y,N,o2_image,stimuli/out2.png,stimuli/out1.png,stimuli/correct_out2.png,,,,,,,,,,,,,,,,,,,,,,,,,,,,,,,,,,,,,,
,,64871d208781227e5188a1b5,25,male,2024-04-19_17h37.23.362,stockport_simplified,2022.2.4,Win32,59.95203837,661e456ee6de07e70aa9ef7b,66229d9a0b961b173878925f,,,,,,,,,,,,,,,,,,,,,,,,,,,,,,,,,,3141.091,3142.437,"[8,7,4,3,2,1,5,6]","[[-0.3,0.2],[0.3,0.2]]","[[0.125,-0.2],[-0.125,-0.2]]",-0.124056095,-0.14832794,1,0,0,0.833,o2_image,3142.438,1,3142.938,3142.938,3144.941,0,0,0,0,1,,,,,,,,,,,,,,,,,,,,,,,,,,,,,,,,,,,,,,,,,,,,,,,,,,
,,64871d208781227e5188a1b5,25,male,2024-04-19_17h37.23.362,stockport_simplified,2022.2.4,Win32,59.95203837,661e456ee6de07e70aa9ef7b,66229d9a0b961b173878925f,,,,,,,,,,,,,,,,,,,,,,,,,,,,,,,,,,,,,,,,,,,,,,,,,,,,,,,,1,15,75,59,1,N,M,D,o2_image,stimuli/out2.png,stimuli/out1.png,stimuli/correct_out2.png,,,,,,,,,,,,,,,,,,,,,,,,,,,,,,,,,,,,,,
,,64871d208781227e5188a1b5,25,male,2024-04-19_17h37.23.362,stockport_simplified,2022.2.4,Win32,59.95203837,661e456ee6de07e70aa9ef7b,66229d9a0b961b173878925f,,,,,,,,,,,,,,,,,,,,,,,,,,,,,,,,,,3144.942,3146.958,"[8,7,4,3,2,1,5,6]","[[-0.3,0.2],[0.3,0.2]]","[[0.125,-0.2],[-0.125,-0.2]]",0.097087379,-0.173139159,1,0,0,1.5,o1_image,3146.959,0,3147.458,3147.458,3149.461,0,0,0,0,1,,,,,,,,,,,,,,,,,,,,,,,,,,,,,,,,,,,,,,,,,,,,,,,,,,
,,64871d208781227e5188a1b5,25,male,2024-04-19_17h37.23.362,stockport_simplified,2022.2.4,Win32,59.95203837,661e456ee6de07e70aa9ef7b,66229d9a0b961b173878925f,,,,,,,,,,,,,,,,,,,,,,,,,,,,,,,,,,,,,,,,,,,,,,,,,,,,,,,,1,16,76,46,1,B,Y,N,o2_image,stimuli/out2.png,stimuli/out1.png,stimuli/correct_out2.png,,,,,,,,,,,,,,,,,,,,,,,,,,,,,,,,,,,,,,
,,64871d208781227e5188a1b5,25,male,2024-04-19_17h37.23.362,stockport_simplified,2022.2.4,Win32,59.95203837,661e456ee6de07e70aa9ef7b,66229d9a0b961b173878925f,,,,,,,,,,,,,,,,,,,,,,,,,,,,,,,,,,3149.462,3151.296,"[8,7,4,3,2,1,5,6]","[[-0.3,0.2],[0.3,0.2]]","[[0.125,-0.2],[-0.125,-0.2]]",0.098166127,-0.176375405,1,0,0,1.317,o1_image,3151.298,1,3151.797,3151.797,3153.798,0,0,0,0,1,,,,,,,,,,,,,,,,,,,,,,,,,,,,,,,,,,,,,,,,,,,,,,,,,,
,,64871d208781227e5188a1b5,25,male,2024-04-19_17h37.23.362,stockport_simplified,2022.2.4,Win32,59.95203837,661e456ee6de07e70aa9ef7b,66229d9a0b961b173878925f,,,,,,,,,,,,,,,,,,,,,,,,,,,,,,,,,,,,,,,,,,,,,,,,,,,,,,,,1,17,77,23,1,N,M,C,o1_image,stimuli/out1.png,stimuli/correct_out1.png,stimuli/out2.png,,,,,,,,,,,,,,,,,,,,,,,,,,,,,,,,,,,,,,
,,64871d208781227e5188a1b5,25,male,2024-04-19_17h37.23.362,stockport_simplified,2022.2.4,Win32,59.95203837,661e456ee6de07e70aa9ef7b,66229d9a0b961b173878925f,,,,,,,,,,,,,,,,,,,,,,,,,,,,,,,,,,3153.799,3157.887,"[8,7,4,3,2,1,5,6]","[[0.3,0.2],[-0.3,0.2]]","[[-0.125,-0.2],[0.125,-0.2]]",-0.081984898,-0.175296656,1,0,0,3.586,o1_image,3157.889,1,3158.388,3158.388,3160.389,0,0,0,0,1,,,,,,,,,,,,,,,,,,,,,,,,,,,,,,,,,,,,,,,,,,,,,,,,,,
,,64871d208781227e5188a1b5,25,male,2024-04-19_17h37.23.362,stockport_simplified,2022.2.4,Win32,59.95203837,661e456ee6de07e70aa9ef7b,66229d9a0b961b173878925f,,,,,,,,,,,,,,,,,,,,,,,,,,,,,,,,,,,,,,,,,,,,,,,,,,,,,,,,1,18,78,6,1,A,Y,N,o1_image,stimuli/out1.png,stimuli/correct_out1.png,stimuli/out2.png,,,,,,,,,,,,,,,,,,,,,,,,,,,,,,,,,,,,,,
,,64871d208781227e5188a1b5,25,male,2024-04-19_17h37.23.362,stockport_simplified,2022.2.4,Win32,59.95203837,661e456ee6de07e70aa9ef7b,66229d9a0b961b173878925f,,,,,,,,,,,,,,,,,,,,,,,,,,,,,,,,,,3160.391,3162.374,"[8,7,4,3,2,1,5,6]","[[-0.3,0.2],[0.3,0.2]]","[[0.125,-0.2],[-0.125,-0.2]]",0.148867314,-0.131067961,1,0,0,1.467,o1_image,3162.377,1,3162.875,3162.875,3164.877,0,0,0,0,1,,,,,,,,,,,,,,,,,,,,,,,,,,,,,,,,,,,,,,,,,,,,,,,,,,
,,64871d208781227e5188a1b5,25,male,2024-04-19_17h37.23.362,stockport_simplified,2022.2.4,Win32,59.95203837,661e456ee6de07e70aa9ef7b,66229d9a0b961b173878925f,,,,,,,,,,,,,,,,,,,,,,,,,,,,,,,,,,,,,,,,,,,,,,,,,,,,,,,,1,19,79,21,1,N,M,C,o1_image,stimuli/out1.png,stimuli/correct_out1.png,stimuli/out2.png,,,,,,,,,,,,,,,,,,,,,,,,,,,,,,,,,,,,,,
,,64871d208781227e5188a1b5,25,male,2024-04-19_17h37.23.362,stockport_simplified,2022.2.4,Win32,59.95203837,661e456ee6de07e70aa9ef7b,66229d9a0b961b173878925f,,,,,,,,,,,,,,,,,,,,,,,,,,,,,,,,,,3164.878,3166.261,"[8,7,4,3,2,1,5,6]","[[0.3,0.2],[-0.3,0.2]]","[[-0.125,-0.2],[0.125,-0.2]]",0.182308522,-0.202265372,1,0,0,0.865,o2_image,3166.262,1,3166.761,3166.761,3168.764,0,0,0,0,1,,,,,,,,,,,,,,,,,,,,,,,,,,,,,,,,,,,,,,,,,,,,,,,,,,
,,64871d208781227e5188a1b5,25,male,2024-04-19_17h37.23.362,stockport_simplified,2022.2.4,Win32,59.95203837,661e456ee6de07e70aa9ef7b,66229d9a0b961b173878925f,,,,,,,,,,,,,,,,,,,,,,,,,,,,,,,,,,,,,,,,,,,,,,,,,,,,,,,,1,20,80,56,1,N,M,D,o2_image,stimuli/out2.png,stimuli/out1.png,stimuli/correct_out2.png,,,,,,,,,,,,,,,,,,,,,,,,,,,,,,,,,,,,,,
,,64871d208781227e5188a1b5,25,male,2024-04-19_17h37.23.362,stockport_simplified,2022.2.4,Win32,59.95203837,661e456ee6de07e70aa9ef7b,66229d9a0b961b173878925f,,,,,,,,,,,,,,,,,,,,,,,,,,,,,,,,,,3168.764,3171.834,"[8,7,4,3,2,1,5,6]","[[0.3,0.2],[-0.3,0.2]]","[[-0.125,-0.2],[0.125,-0.2]]",0.139158576,-0.191477886,1,0,0,2.568,o2_image,3171.835,1,3172.335,3172.335,3174.337,0,0,0,0,1,,,,,,,,,,,,,,,,,,,,,,,,,,,,,,,,,,,,,,,,,,,,,,,,,,
,,64871d208781227e5188a1b5,25,male,2024-04-19_17h37.23.362,stockport_simplified,2022.2.4,Win32,59.95203837,661e456ee6de07e70aa9ef7b,66229d9a0b961b173878925f,,,,,,,,,,,,,,,,,,,,,,,,,,,,,,,,,,,,,,,,,,,,,,,,,,,,,,,,1,21,81,15,1,B,Y,N,o2_image,stimuli/out2.png,stimuli/out1.png,stimuli/correct_out2.png,,,,,,,,,,,,,,,,,,,,,,,,,,,,,,,,,,,,,,
,,64871d208781227e5188a1b5,25,male,2024-04-19_17h37.23.362,stockport_simplified,2022.2.4,Win32,59.95203837,661e456ee6de07e70aa9ef7b,66229d9a0b961b173878925f,,,,,,,,,,,,,,,,,,,,,,,,,,,,,,,,,,3174.337,3178.14,"[8,7,4,3,2,1,5,6]","[[-0.3,0.2],[0.3,0.2]]","[[0.125,-0.2],[-0.125,-0.2]]",-0.098166127,-0.176375405,1,0,0,3.303,o2_image,3178.141,1,3178.641,3178.641,3180.642,0,0,0,0,1,,,,,,,,,,,,,,,,,,,,,,,,,,,,,,,,,,,,,,,,,,,,,,,,,,
,,64871d208781227e5188a1b5,25,male,2024-04-19_17h37.23.362,stockport_simplified,2022.2.4,Win32,59.95203837,661e456ee6de07e70aa9ef7b,66229d9a0b961b173878925f,,,,,,,,,,,,,,,,,,,,,,,,,,,,,,,,,,,,,,,,,,,,,,,,,,,,,,,,1,22,82,16,1,B,Y,N,o2_image,stimuli/out2.png,stimuli/out1.png,stimuli/correct_out2.png,,,,,,,,,,,,,,,,,,,,,,,,,,,,,,,,,,,,,,
,,64871d208781227e5188a1b5,25,male,2024-04-19_17h37.23.362,stockport_simplified,2022.2.4,Win32,59.95203837,661e456ee6de07e70aa9ef7b,66229d9a0b961b173878925f,,,,,,,,,,,,,,,,,,,,,,,,,,,,,,,,,,3180.643,3183.996,"[8,7,4,3,2,1,5,6]","[[0.3,0.2],[-0.3,0.2]]","[[-0.125,-0.2],[0.125,-0.2]]",-0.116504854,-0.146170442,1,0,0,2.853,o1_image,3183.998,1,3184.496,3184.496,3186.498,0,0,0,0,1,,,,,,,,,,,,,,,,,,,,,,,,,,,,,,,,,,,,,,,,,,,,,,,,,,
,,64871d208781227e5188a1b5,25,male,2024-04-19_17h37.23.362,stockport_simplified,2022.2.4,Win32,59.95203837,661e456ee6de07e70aa9ef7b,66229d9a0b961b173878925f,,,,,,,,,,,,,,,,,,,,,,,,,,,,,,,,,,,,,,,,,,,,,,,,,,,,,,,,1,23,83,37,1,A,Y,N,o1_image,stimuli/out1.png,stimuli/correct_out1.png,stimuli/out2.png,,,,,,,,,,,,,,,,,,,,,,,,,,,,,,,,,,,,,,
,,64871d208781227e5188a1b5,25,male,2024-04-19_17h37.23.362,stockport_simplified,2022.2.4,Win32,59.95203837,661e456ee6de07e70aa9ef7b,66229d9a0b961b173878925f,,,,,,,,,,,,,,,,,,,,,,,,,,,,,,,,,,3186.499,3188.551,"[8,7,4,3,2,1,5,6]","[[0.3,0.2],[-0.3,0.2]]","[[0.125,-0.2],[-0.125,-0.2]]",0.209277238,-0.17961165,1,0,0,1.183,o1_image,3188.552,1,3189.051,3189.051,3191.053,0,0,0,0,1,,,,,,,,,,,,,,,,,,,,,,,,,,,,,,,,,,,,,,,,,,,,,,,,,,
,,64871d208781227e5188a1b5,25,male,2024-04-19_17h37.23.362,stockport_simplified,2022.2.4,Win32,59.95203837,661e456ee6de07e70aa9ef7b,66229d9a0b961b173878925f,,,,,,,,,,,,,,,,,,,,,,,,,,,,,,,,,,,,,,,,,,,,,,,,,,,,,,,,1,24,84,22,1,N,M,C,o1_image,stimuli/out1.png,stimuli/correct_out1.png,stimuli/out2.png,,,,,,,,,,,,,,,,,,,,,,,,,,,,,,,,,,,,,,
,,64871d208781227e5188a1b5,25,male,2024-04-19_17h37.23.362,stockport_simplified,2022.2.4,Win32,59.95203837,661e456ee6de07e70aa9ef7b,66229d9a0b961b173878925f,,,,,,,,,,,,,,,,,,,,,,,,,,,,,,,,,,3191.054,3193.74,"[8,7,4,3,2,1,5,6]","[[0.3,0.2],[-0.3,0.2]]","[[0.125,-0.2],[-0.125,-0.2]]",0.149946063,-0.153721683,1,0,0,2.185,o1_image,3193.743,1,3194.241,3194.241,3196.242,0,0,0,0,1,,,,,,,,,,,,,,,,,,,,,,,,,,,,,,,,,,,,,,,,,,,,,,,,,,
,,64871d208781227e5188a1b5,25,male,2024-04-19_17h37.23.362,stockport_simplified,2022.2.4,Win32,59.95203837,661e456ee6de07e70aa9ef7b,66229d9a0b961b173878925f,,,,,,,,,,,,,,,,,,,,,,,,,,,,,,,,,,,,,,,,,,,,,,,,,,,,,,,,1,25,85,4,1,A,X,N,o1_image,stimuli/out1.png,stimuli/correct_out1.png,stimuli/out2.png,,,,,,,,,,,,,,,,,,,,,,,,,,,,,,,,,,,,,,
,,64871d208781227e5188a1b5,25,male,2024-04-19_17h37.23.362,stockport_simplified,2022.2.4,Win32,59.95203837,661e456ee6de07e70aa9ef7b,66229d9a0b961b173878925f,,,,,,,,,,,,,,,,,,,,,,,,,,,,,,,,,,3196.242,3197.893,"[8,7,4,3,2,1,5,6]","[[-0.3,0.2],[0.3,0.2]]","[[0.125,-0.2],[-0.125,-0.2]]",0.09600863,-0.176375405,1,0,0,1.149,o1_image,3197.895,1,3198.394,3198.394,3200.396,0,0,0,0,1,,,,,,,,,,,,,,,,,,,,,,,,,,,,,,,,,,,,,,,,,,,,,,,,,,
,,64871d208781227e5188a1b5,25,male,2024-04-19_17h37.23.362,stockport_simplified,2022.2.4,Win32,59.95203837,661e456ee6de07e70aa9ef7b,66229d9a0b961b173878925f,,,,,,,,,,,,,,,,,,,,,,,,,,,,,,,,,,,,,,,,,,,,,,,,,,,,,,,,1,26,86,54,1,N,M,C,o1_image,stimuli/out1.png,stimuli/correct_out1.png,stimuli/out2.png,,,,,,,,,,,,,,,,,,,,,,,,,,,,,,,,,,,,,,
,,64871d208781227e5188a1b5,25,male,2024-04-19_17h37.23.362,stockport_simplified,2022.2.4,Win32,59.95203837,661e456ee6de07e70aa9ef7b,66229d9a0b961b173878925f,,,,,,,,,,,,,,,,,,,,,,,,,,,,,,,,,,3200.396,3206.569,"[8,7,4,3,2,1,5,6]","[[-0.3,0.2],[0.3,0.2]]","[[-0.125,-0.2],[0.125,-0.2]]",0.089536138,-0.169902913,1,0,0,5.672,o2_image,3206.571,1,3207.069,3207.069,3209.073,0,0,0,0,1,,,,,,,,,,,,,,,,,,,,,,,,,,,,,,,,,,,,,,,,,,,,,,,,,,
,,64871d208781227e5188a1b5,25,male,2024-04-19_17h37.23.362,stockport_simplified,2022.2.4,Win32,59.95203837,661e456ee6de07e70aa9ef7b,66229d9a0b961b173878925f,,,,,,,,,,,,,,,,,,,,,,,,,,,,,,,,,,,,,,,,,,,,,,,,,,,,,,,,1,27,87,41,1,B,X,N,o2_image,stimuli/out2.png,stimuli/out1.png,stimuli/correct_out2.png,,,,,,,,,,,,,,,,,,,,,,,,,,,,,,,,,,,,,,
,,64871d208781227e5188a1b5,25,male,2024-04-19_17h37.23.362,stockport_simplified,2022.2.4,Win32,59.95203837,661e456ee6de07e70aa9ef7b,66229d9a0b961b173878925f,,,,,,,,,,,,,,,,,,,,,,,,,,,,,,,,,,3209.074,3214.544,"[8,7,4,3,2,1,5,6]","[[-0.3,0.2],[0.3,0.2]]","[[-0.125,-0.2],[0.125,-0.2]]",0.106796117,-0.183926645,1,0,0,4.954,o2_image,3214.545,0,3215.044,3215.044,3217.046,0,0,0,0,1,,,,,,,,,,,,,,,,,,,,,,,,,,,,,,,,,,,,,,,,,,,,,,,,,,
,,64871d208781227e5188a1b5,25,male,2024-04-19_17h37.23.362,stockport_simplified,2022.2.4,Win32,59.95203837,661e456ee6de07e70aa9ef7b,66229d9a0b961b173878925f,,,,,,,,,,,,,,,,,,,,,,,,,,,,,,,,,,,,,,,,,,,,,,,,,,,,,,,,1,28,88,39,1,A,Y,N,o1_image,stimuli/out1.png,stimuli/correct_out1.png,stimuli/out2.png,,,,,,,,,,,,,,,,,,,,,,,,,,,,,,,,,,,,,,
,,64871d208781227e5188a1b5,25,male,2024-04-19_17h37.23.362,stockport_simplified,2022.2.4,Win32,59.95203837,661e456ee6de07e70aa9ef7b,66229d9a0b961b173878925f,,,,,,,,,,,,,,,,,,,,,,,,,,,,,,,,,,3217.047,3219.299,"[8,7,4,3,2,1,5,6]","[[0.3,0.2],[-0.3,0.2]]","[[0.125,-0.2],[-0.125,-0.2]]",-0.077669903,-0.180690399,1,0,0,1.735,o2_image,3219.3,1,3219.799,3219.799,3221.801,0,0,0,0,1,,,,,,,,,,,,,,,,,,,,,,,,,,,,,,,,,,,,,,,,,,,,,,,,,,
,,64871d208781227e5188a1b5,25,male,2024-04-19_17h37.23.362,stockport_simplified,2022.2.4,Win32,59.95203837,661e456ee6de07e70aa9ef7b,66229d9a0b961b173878925f,,,,,,,,,,,,,,,,,,,,,,,,,,,,,,,,,,,,,,,,,,,,,,,,,,,,,,,,1,29,89,47,1,B,Y,N,o2_image,stimuli/out2.png,stimuli/out1.png,stimuli/correct_out2.png,,,,,,,,,,,,,,,,,,,,,,,,,,,,,,,,,,,,,,
,,64871d208781227e5188a1b5,25,male,2024-04-19_17h37.23.362,stockport_simplified,2022.2.4,Win32,59.95203837,661e456ee6de07e70aa9ef7b,66229d9a0b961b173878925f,,,,,,,,,,,,,,,,,,,,,,,,,,,,,,,,,,3221.801,3224.12,"[8,7,4,3,2,1,5,6]","[[0.3,0.2],[-0.3,0.2]]","[[0.125,-0.2],[-0.125,-0.2]]",-0.125134844,-0.162351672,1,0,0,1.818,o2_image,3224.121,0,3224.62,3224.62,3226.622,0,0,0,0,1,,,,,,,,,,,,,,,,,,,,,,,,,,,,,,,,,,,,,,,,,,,,,,,,,,
,,64871d208781227e5188a1b5,25,male,2024-04-19_17h37.23.362,stockport_simplified,2022.2.4,Win32,59.95203837,661e456ee6de07e70aa9ef7b,66229d9a0b961b173878925f,,,,,,,,,,,,,,,,,,,,,,,,,,,,,,,,,,,,,,,,,,,,,,,,,,,,,,,,1,30,90,33,1,A,X,N,o1_image,stimuli/out1.png,stimuli/correct_out1.png,stimuli/out2.png,,,,,,,,,,,,,,,,,,,,,,,,,,,,,,,,,,,,,,
,,64871d208781227e5188a1b5,25,male,2024-04-19_17h37.23.362,stockport_simplified,2022.2.4,Win32,59.95203837,661e456ee6de07e70aa9ef7b,66229d9a0b961b173878925f,,,,,,,,,,,,,,,,,,,,,,,,,,,,,,,,,,3226.623,3229.893,"[8,7,4,3,2,1,5,6]","[[-0.3,0.2],[0.3,0.2]]","[[-0.125,-0.2],[0.125,-0.2]]",-0.107874865,-0.190399137,1,0,0,2.767,o1_image,3229.896,0,3230.393,3230.393,3232.395,0,0,0,0,1,,,,,,,,,,,,,,,,,,,,,,,,,,,,,,,,,,,,,,,,,,,,,,,,,,
,,64871d208781227e5188a1b5,25,male,2024-04-19_17h37.23.362,stockport_simplified,2022.2.4,Win32,59.95203837,661e456ee6de07e70aa9ef7b,66229d9a0b961b173878925f,,,,,,,,,,,,,,,,,,,,,,,,,,,,,,,,,,,,,,,,,,,,,,,,,,,,,,,,1,31,91,43,1,B,X,N,o2_image,stimuli/out2.png,stimuli/out1.png,stimuli/correct_out2.png,,,,,,,,,,,,,,,,,,,,,,,,,,,,,,,,,,,,,,
,,64871d208781227e5188a1b5,25,male,2024-04-19_17h37.23.362,stockport_simplified,2022.2.4,Win32,59.95203837,661e456ee6de07e70aa9ef7b,66229d9a0b961b173878925f,,,,,,,,,,,,,,,,,,,,,,,,,,,,,,,,,,3232.396,3236.299,"[8,7,4,3,2,1,5,6]","[[0.3,0.2],[-0.3,0.2]]","[[0.125,-0.2],[-0.125,-0.2]]",-0.09600863,-0.175296656,1,0,0,3.386,o2_image,3236.301,0,3236.799,3236.799,3239.018,0,0,0,0,1,,,,,,,,,,,,,,,,,,,,,,,,,,,,,,,,,,,,,,,,,,,,,,,,,,
,,64871d208781227e5188a1b5,25,male,2024-04-19_17h37.23.362,stockport_simplified,2022.2.4,Win32,59.95203837,661e456ee6de07e70aa9ef7b,66229d9a0b961b173878925f,,,,,,,,,,,,,,,,,,,,,,,,,,,,,,,,,,,,,,,,,,,,,,,,,,,,,,,,1,32,92,35,1,A,Y,N,o1_image,stimuli/out1.png,stimuli/correct_out1.png,stimuli/out2.png,,,,,,,,,,,,,,,,,,,,,,,,,,,,,,,,,,,,,,
,,64871d208781227e5188a1b5,25,male,2024-04-19_17h37.23.362,stockport_simplified,2022.2.4,Win32,59.95203837,661e456ee6de07e70aa9ef7b,66229d9a0b961b173878925f,,,,,,,,,,,,,,,,,,,,,,,,,,,,,,,,,,3239.018,3241.888,"[8,7,4,3,2,1,5,6]","[[-0.3,0.2],[0.3,0.2]]","[[0.125,-0.2],[-0.125,-0.2]]",-0.129449838,-0.177454153,1,0,0,2.367,o2_image,3241.889,0,3242.388,3242.388,3244.39,0,0,0,0,1,,,,,,,,,,,,,,,,,,,,,,,,,,,,,,,,,,,,,,,,,,,,,,,,,,
,,64871d208781227e5188a1b5,25,male,2024-04-19_17h37.23.362,stockport_simplified,2022.2.4,Win32,59.95203837,661e456ee6de07e70aa9ef7b,66229d9a0b961b173878925f,,,,,,,,,,,,,,,,,,,,,,,,,,,,,,,,,,,,,,,,,,,,,,,,,,,,,,,,1,33,93,30,1,A,X,N,o1_image,stimuli/out1.png,stimuli/correct_out1.png,stimuli/out2.png,,,,,,,,,,,,,,,,,,,,,,,,,,,,,,,,,,,,,,
,,64871d208781227e5188a1b5,25,male,2024-04-19_17h37.23.362,stockport_simplified,2022.2.4,Win32,59.95203837,661e456ee6de07e70aa9ef7b,66229d9a0b961b173878925f,,,,,,,,,,,,,,,,,,,,,,,,,,,,,,,,,,3244.391,3248.345,"[8,7,4,3,2,1,5,6]","[[0.3,0.2],[-0.3,0.2]]","[[-0.125,-0.2],[0.125,-0.2]]",0.114347357,-0.18824164,1,0,0,3.452,o2_image,3248.346,0,3248.844,3248.844,3250.847,0,0,0,0,1,,,,,,,,,,,,,,,,,,,,,,,,,,,,,,,,,,,,,,,,,,,,,,,,,,
,,64871d208781227e5188a1b5,25,male,2024-04-19_17h37.23.362,stockport_simplified,2022.2.4,Win32,59.95203837,661e456ee6de07e70aa9ef7b,66229d9a0b961b173878925f,,,,,,,,,,,,,,,,,,,,,,,,,,,,,,,,,,,,,,,,,,,,,,,,,,,,,,,,1,34,94,36,1,A,Y,N,o1_image,stimuli/out1.png,stimuli/correct_out1.png,stimuli/out2.png,,,,,,,,,,,,,,,,,,,,,,,,,,,,,,,,,,,,,,
,,64871d208781227e5188a1b5,25,male,2024-04-19_17h37.23.362,stockport_simplified,2022.2.4,Win32,59.95203837,661e456ee6de07e70aa9ef7b,66229d9a0b961b173878925f,,,,,,,,,,,,,,,,,,,,,,,,,,,,,,,,,,3250.848,3252.467,"[8,7,4,3,2,1,5,6]","[[0.3,0.2],[-0.3,0.2]]","[[0.125,-0.2],[-0.125,-0.2]]",-0.13592233,-0.220604099,1,0,0,1.102,o2_image,3252.469,1,3252.965,3252.965,3254.967,0,0,0,0,1,,,,,,,,,,,,,,,,,,,,,,,,,,,,,,,,,,,,,,,,,,,,,,,,,,
,,64871d208781227e5188a1b5,25,male,2024-04-19_17h37.23.362,stockport_simplified,2022.2.4,Win32,59.95203837,661e456ee6de07e70aa9ef7b,66229d9a0b961b173878925f,,,,,,,,,,,,,,,,,,,,,,,,,,,,,,,,,,,,,,,,,,,,,,,,,,,,,,,,1,35,95,29,1,N,M,D,o2_image,stimuli/out2.png,stimuli/out1.png,stimuli/correct_out2.png,,,,,,,,,,,,,,,,,,,,,,,,,,,,,,,,,,,,,,
,,64871d208781227e5188a1b5,25,male,2024-04-19_17h37.23.362,stockport_simplified,2022.2.4,Win32,59.95203837,661e456ee6de07e70aa9ef7b,66229d9a0b961b173878925f,,,,,,,,,,,,,,,,,,,,,,,,,,,,,,,,,,3254.969,3259.322,"[8,7,4,3,2,1,5,6]","[[0.3,0.2],[-0.3,0.2]]","[[0.125,-0.2],[-0.125,-0.2]]",-0.055016181,-0.187162891,1,0,0,3.837,o2_image,3259.324,1,3259.822,3259.822,3261.826,0,0,0,0,1,,,,,,,,,,,,,,,,,,,,,,,,,,,,,,,,,,,,,,,,,,,,,,,,,,
,,64871d208781227e5188a1b5,25,male,2024-04-19_17h37.23.362,stockport_simplified,2022.2.4,Win32,59.95203837,661e456ee6de07e70aa9ef7b,66229d9a0b961b173878925f,,,,,,,,,,,,,,,,,,,,,,,,,,,,,,,,,,,,,,,,,,,,,,,,,,,,,,,,1,36,96,19,1,B,Y,N,o2_image,stimuli/out2.png,stimuli/out1.png,stimuli/correct_out2.png,,,,,,,,,,,,,,,,,,,,,,,,,,,,,,,,,,,,,,
,,64871d208781227e5188a1b5,25,male,2024-04-19_17h37.23.362,stockport_simplified,2022.2.4,Win32,59.95203837,661e456ee6de07e70aa9ef7b,66229d9a0b961b173878925f,,,,,,,,,,,,,,,,,,,,,,,,,,,,,,,,,,3261.827,3263.644,"[8,7,4,3,2,1,5,6]","[[-0.3,0.2],[0.3,0.2]]","[[0.125,-0.2],[-0.125,-0.2]]",0.122977346,-0.194714132,1,0,0,1.298,o1_image,3263.646,1,3264.143,3264.143,3266.146,0,0,0,0,1,,,,,,,,,,,,,,,,,,,,,,,,,,,,,,,,,,,,,,,,,,,,,,,,,,
,,64871d208781227e5188a1b5,25,male,2024-04-19_17h37.23.362,stockport_simplified,2022.2.4,Win32,59.95203837,661e456ee6de07e70aa9ef7b,66229d9a0b961b173878925f,,,,,,,,,,,,,,,,,,,,,,,,,,,,,,,,,,,,,,,,,,,,,,,,,,,,,,,,1,37,97,50,1,N,M,C,o1_image,stimuli/out1.png,stimuli/correct_out1.png,stimuli/out2.png,,,,,,,,,,,,,,,,,,,,,,,,,,,,,,,,,,,,,,
,,64871d208781227e5188a1b5,25,male,2024-04-19_17h37.23.362,stockport_simplified,2022.2.4,Win32,59.95203837,661e456ee6de07e70aa9ef7b,66229d9a0b961b173878925f,,,,,,,,,,,,,,,,,,,,,,,,,,,,,,,,,,3266.147,3267.997,"[8,7,4,3,2,1,5,6]","[[-0.3,0.2],[0.3,0.2]]","[[0.125,-0.2],[-0.125,-0.2]]",-0.057173679,-0.204422869,1,0,0,1.333,o2_image,3267.998,1,3268.498,3268.498,3270.5,0,0,0,0,1,,,,,,,,,,,,,,,,,,,,,,,,,,,,,,,,,,,,,,,,,,,,,,,,,,
,,64871d208781227e5188a1b5,25,male,2024-04-19_17h37.23.362,stockport_simplified,2022.2.4,Win32,59.95203837,661e456ee6de07e70aa9ef7b,66229d9a0b961b173878925f,,,,,,,,,,,,,,,,,,,,,,,,,,,,,,,,,,,,,,,,,,,,,,,,,,,,,,,,1,38,98,45,1,B,Y,N,o2_image,stimuli/out2.png,stimuli/out1.png,stimuli/correct_out2.png,,,,,,,,,,,,,,,,,,,,,,,,,,,,,,,,,,,,,,
,,64871d208781227e5188a1b5,25,male,2024-04-19_17h37.23.362,stockport_simplified,2022.2.4,Win32,59.95203837,661e456ee6de07e70aa9ef7b,66229d9a0b961b173878925f,,,,,,,,,,,,,,,,,,,,,,,,,,,,,,,,,,3270.501,3274.438,"[8,7,4,3,2,1,5,6]","[[0.3,0.2],[-0.3,0.2]]","[[0.125,-0.2],[-0.125,-0.2]]",-0.111111111,-0.153721683,1,0,0,3.437,o2_image,3274.439,1,3274.938,3274.938,3276.94,0,0,0,0,1,,,,,,,,,,,,,,,,,,,,,,,,,,,,,,,,,,,,,,,,,,,,,,,,,,
,,64871d208781227e5188a1b5,25,male,2024-04-19_17h37.23.362,stockport_simplified,2022.2.4,Win32,59.95203837,661e456ee6de07e70aa9ef7b,66229d9a0b961b173878925f,,,,,,,,,,,,,,,,,,,,,,,,,,,,,,,,,,,,,,,,,,,,,,,,,,,,,,,,1,39,99,13,1,B,X,N,o2_image,stimuli/out2.png,stimuli/out1.png,stimuli/correct_out2.png,,,,,,,,,,,,,,,,,,,,,,,,,,,,,,,,,,,,,,
,,64871d208781227e5188a1b5,25,male,2024-04-19_17h37.23.362,stockport_simplified,2022.2.4,Win32,59.95203837,661e456ee6de07e70aa9ef7b,66229d9a0b961b173878925f,,,,,,,,,,,,,,,,,,,,,,,,,,,,,,,,,,3276.942,3278.608,"[8,7,4,3,2,1,5,6]","[[0.3,0.2],[-0.3,0.2]]","[[-0.125,-0.2],[0.125,-0.2]]",-0.140237325,-0.134304207,1,0,0,1.15,o1_image,3278.61,1,3279.109,3279.109,3281.111,0,0,0,0,1,,,,,,,,,,,,,,,,,,,,,,,,,,,,,,,,,,,,,,,,,,,,,,,,,,
,,64871d208781227e5188a1b5,25,male,2024-04-19_17h37.23.362,stockport_simplified,2022.2.4,Win32,59.95203837,661e456ee6de07e70aa9ef7b,66229d9a0b961b173878925f,,,,,,,,,,,,,,,,,,,,,,,,,,,,,,,,,,,,,,,,,,,,,,,,,,,,,,,,1,40,100,2,1,A,X,N,o1_image,stimuli/out1.png,stimuli/correct_out1.png,stimuli/out2.png,,,,,,,,,,,,,,,,,,,,,,,,,,,,,,,,,,,,,,
,,64871d208781227e5188a1b5,25,male,2024-04-19_17h37.23.362,stockport_simplified,2022.2.4,Win32,59.95203837,661e456ee6de07e70aa9ef7b,66229d9a0b961b173878925f,,,,,,,,,,,,,,,,,,,,,,,,,,,,,,,,,,3281.111,3285.599,"[8,7,4,3,2,1,5,6]","[[0.3,0.2],[-0.3,0.2]]","[[-0.125,-0.2],[0.125,-0.2]]",0.113268608,-0.201186624,1,0,0,3.987,o2_image,3285.6,0,3286.099,3286.099,3288.101,0,0,0,0,1,,,,,,,,,,,,,,,,,,,,,,,,,,,,,,,,,,,,,,,,,,,,,,,,,,
,,64871d208781227e5188a1b5,25,male,2024-04-19_17h37.23.362,stockport_simplified,2022.2.4,Win32,59.95203837,661e456ee6de07e70aa9ef7b,66229d9a0b961b173878925f,,,,,,,,,,,,,,,,,,,,,,,,,,,,,,,,,,,,,,,,,,,,,,,,,,,,,,,,1,41,101,31,1,A,X,N,o1_image,stimuli/out1.png,stimuli/correct_out1.png,stimuli/out2.png,,,,,,,,,,,,,,,,,,,,,,,,,,,,,,,,,,,,,,
,,64871d208781227e5188a1b5,25,male,2024-04-19_17h37.23.362,stockport_simplified,2022.2.4,Win32,59.95203837,661e456ee6de07e70aa9ef7b,66229d9a0b961b173878925f,,,,,,,,,,,,,,,,,,,,,,,,,,,,,,,,,,3288.102,3289.687,"[8,7,4,3,2,1,5,6]","[[-0.3,0.2],[0.3,0.2]]","[[0.125,-0.2],[-0.125,-0.2]]",-0.084142395,-0.22815534,1,0,0,1.067,o2_image,3289.688,1,3290.188,3290.188,3292.189,0,0,0,0,1,,,,,,,,,,,,,,,,,,,,,,,,,,,,,,,,,,,,,,,,,,,,,,,,,,
,,64871d208781227e5188a1b5,25,male,2024-04-19_17h37.23.362,stockport_simplified,2022.2.4,Win32,59.95203837,661e456ee6de07e70aa9ef7b,66229d9a0b961b173878925f,,,,,,,,,,,,,,,,,,,,,,,,,,,,,,,,,,,,,,,,,,,,,,,,,,,,,,,,1,42,102,58,1,N,M,D,o2_image,stimuli/out2.png,stimuli/out1.png,stimuli/correct_out2.png,,,,,,,,,,,,,,,,,,,,,,,,,,,,,,,,,,,,,,
,,64871d208781227e5188a1b5,25,male,2024-04-19_17h37.23.362,stockport_simplified,2022.2.4,Win32,59.95203837,661e456ee6de07e70aa9ef7b,66229d9a0b961b173878925f,,,,,,,,,,,,,,,,,,,,,,,,,,,,,,,,,,3292.191,3295.109,"[8,7,4,3,2,1,5,6]","[[-0.3,0.2],[0.3,0.2]]","[[0.125,-0.2],[-0.125,-0.2]]",0.185544768,-0.175296656,1,0,0,2.402,o1_image,3295.111,0,3295.609,3295.609,3297.611,0,0,0,0,1,,,,,,,,,,,,,,,,,,,,,,,,,,,,,,,,,,,,,,,,,,,,,,,,,,
,,64871d208781227e5188a1b5,25,male,2024-04-19_17h37.23.362,stockport_simplified,2022.2.4,Win32,59.95203837,661e456ee6de07e70aa9ef7b,66229d9a0b961b173878925f,,,,,,,,,,,,,,,,,,,,,,,,,,,,,,,,,,,,,,,,,,,,,,,,,,,,,,,,1,43,103,44,1,B,X,N,o2_image,stimuli/out2.png,stimuli/out1.png,stimuli/correct_out2.png,,,,,,,,,,,,,,,,,,,,,,,,,,,,,,,,,,,,,,
,,64871d208781227e5188a1b5,25,male,2024-04-19_17h37.23.362,stockport_simplified,2022.2.4,Win32,59.95203837,661e456ee6de07e70aa9ef7b,66229d9a0b961b173878925f,,,,,,,,,,,,,,,,,,,,,,,,,,,,,,,,,,3297.612,3299.629,"[8,7,4,3,2,1,5,6]","[[-0.3,0.2],[0.3,0.2]]","[[-0.125,-0.2],[0.125,-0.2]]",-0.074433657,-0.160194175,1,0,0,1.5,o1_image,3299.63,1,3300.13,3300.13,3302.132,0,0,0,0,1,,,,,,,,,,,,,,,,,,,,,,,,,,,,,,,,,,,,,,,,,,,,,,,,,,
,,64871d208781227e5188a1b5,25,male,2024-04-19_17h37.23.362,stockport_simplified,2022.2.4,Win32,59.95203837,661e456ee6de07e70aa9ef7b,66229d9a0b961b173878925f,,,,,,,,,,,,,,,,,,,,,,,,,,,,,,,,,,,,,,,,,,,,,,,,,,,,,,,,1,44,104,34,1,A,X,N,o1_image,stimuli/out1.png,stimuli/correct_out1.png,stimuli/out2.png,,,,,,,,,,,,,,,,,,,,,,,,,,,,,,,,,,,,,,
,,64871d208781227e5188a1b5,25,male,2024-04-19_17h37.23.362,stockport_simplified,2022.2.4,Win32,59.95203837,661e456ee6de07e70aa9ef7b,66229d9a0b961b173878925f,,,,,,,,,,,,,,,,,,,,,,,,,,,,,,,,,,3302.133,3304.367,"[8,7,4,3,2,1,5,6]","[[-0.3,0.2],[0.3,0.2]]","[[0.125,-0.2],[-0.125,-0.2]]",-0.13592233,-0.203344121,1,0,0,1.734,o2_image,3304.369,1,3304.868,3304.868,3307.297,0,0,0,0,1,,,,,,,,,,,,,,,,,,,,,,,,,,,,,,,,,,,,,,,,,,,,,,,,,,
,,64871d208781227e5188a1b5,25,male,2024-04-19_17h37.23.362,stockport_simplified,2022.2.4,Win32,59.95203837,661e456ee6de07e70aa9ef7b,66229d9a0b961b173878925f,,,,,,,,,,,,,,,,,,,,,,,,,,,,,,,,,,,,,,,,,,,,,,,,,,,,,,,,1,45,105,40,1,B,X,N,o2_image,stimuli/out2.png,stimuli/out1.png,stimuli/correct_out2.png,,,,,,,,,,,,,,,,,,,,,,,,,,,,,,,,,,,,,,
,,64871d208781227e5188a1b5,25,male,2024-04-19_17h37.23.362,stockport_simplified,2022.2.4,Win32,59.95203837,661e456ee6de07e70aa9ef7b,66229d9a0b961b173878925f,,,,,,,,,,,,,,,,,,,,,,,,,,,,,,,,,,3307.299,3310.541,"[8,7,4,3,2,1,5,6]","[[0.3,0.2],[-0.3,0.2]]","[[0.125,-0.2],[-0.125,-0.2]]",-0.116504854,-0.208737864,1,0,0,2.735,o2_image,3310.542,1,3311.041,3311.041,3313.044,0,0,0,0,1,,,,,,,,,,,,,,,,,,,,,,,,,,,,,,,,,,,,,,,,,,,,,,,,,,
,,64871d208781227e5188a1b5,25,male,2024-04-19_17h37.23.362,stockport_simplified,2022.2.4,Win32,59.95203837,661e456ee6de07e70aa9ef7b,66229d9a0b961b173878925f,,,,,,,,,,,,,,,,,,,,,,,,,,,,,,,,,,,,,,,,,,,,,,,,,,,,,,,,1,46,106,17,1,B,Y,N,o2_image,stimuli/out2.png,stimuli/out1.png,stimuli/correct_out2.png,,,,,,,,,,,,,,,,,,,,,,,,,,,,,,,,,,,,,,
,,64871d208781227e5188a1b5,25,male,2024-04-19_17h37.23.362,stockport_simplified,2022.2.4,Win32,59.95203837,661e456ee6de07e70aa9ef7b,66229d9a0b961b173878925f,,,,,,,,,,,,,,,,,,,,,,,,,,,,,,,,,,3313.044,3315.046,"[8,7,4,3,2,1,5,6]","[[0.3,0.2],[-0.3,0.2]]","[[-0.125,-0.2],[0.125,-0.2]]",-0.104638619,-0.173139159,1,0,0,1.501,o1_image,3315.047,1,3315.545,3315.545,3318.399,0,0,0,0,1,,,,,,,,,,,,,,,,,,,,,,,,,,,,,,,,,,,,,,,,,,,,,,,,,,
,,64871d208781227e5188a1b5,25,male,2024-04-19_17h37.23.362,stockport_simplified,2022.2.4,Win32,59.95203837,661e456ee6de07e70aa9ef7b,66229d9a0b961b173878925f,,,,,,,,,,,,,,,,,,,,,,,,,,,,,,,,,,,,,,,,,,,,,,,,,,,,,,,,1,47,107,20,1,N,M,C,o1_image,stimuli/out1.png,stimuli/correct_out1.png,stimuli/out2.png,,,,,,,,,,,,,,,,,,,,,,,,,,,,,,,,,,,,,,
,,64871d208781227e5188a1b5,25,male,2024-04-19_17h37.23.362,stockport_simplified,2022.2.4,Win32,59.95203837,661e456ee6de07e70aa9ef7b,66229d9a0b961b173878925f,,,,,,,,,,,,,,,,,,,,,,,,,,,,,,,,,,3318.399,3320,"[8,7,4,3,2,1,5,6]","[[-0.3,0.2],[0.3,0.2]]","[[0.125,-0.2],[-0.125,-0.2]]",-0.102481122,-0.204422869,1,0,0,1.1,o2_image,3320.001,1,3320.5,3320.5,3322.504,0,0,0,0,1,,,,,,,,,,,,,,,,,,,,,,,,,,,,,,,,,,,,,,,,,,,,,,,,,,
,,64871d208781227e5188a1b5,25,male,2024-04-19_17h37.23.362,stockport_simplified,2022.2.4,Win32,59.95203837,661e456ee6de07e70aa9ef7b,66229d9a0b961b173878925f,,,,,,,,,,,,,,,,,,,,,,,,,,,,,,,,,,,,,,,,,,,,,,,,,,,,,,,,1,48,108,25,1,N,M,D,o2_image,stimuli/out2.png,stimuli/out1.png,stimuli/correct_out2.png,,,,,,,,,,,,,,,,,,,,,,,,,,,,,,,,,,,,,,
,,64871d208781227e5188a1b5,25,male,2024-04-19_17h37.23.362,stockport_simplified,2022.2.4,Win32,59.95203837,661e456ee6de07e70aa9ef7b,66229d9a0b961b173878925f,,,,,,,,,,,,,,,,,,,,,,,,,,,,,,,,,,3322.505,3325.173,"[8,7,4,3,2,1,5,6]","[[0.3,0.2],[-0.3,0.2]]","[[0.125,-0.2],[-0.125,-0.2]]",0.125134844,-0.207659115,1,0,0,2.151,o1_image,3325.175,1,3325.673,3325.673,3327.674,0,0,0,0,1,,,,,,,,,,,,,,,,,,,,,,,,,,,,,,,,,,,,,,,,,,,,,,,,,,
,,64871d208781227e5188a1b5,25,male,2024-04-19_17h37.23.362,stockport_simplified,2022.2.4,Win32,59.95203837,661e456ee6de07e70aa9ef7b,66229d9a0b961b173878925f,,,,,,,,,,,,,,,,,,,,,,,,,,,,,,,,,,,,,,,,,,,,,,,,,,,,,,,,1,49,109,38,1,A,Y,N,o1_image,stimuli/out1.png,stimuli/correct_out1.png,stimuli/out2.png,,,,,,,,,,,,,,,,,,,,,,,,,,,,,,,,,,,,,,
,,64871d208781227e5188a1b5,25,male,2024-04-19_17h37.23.362,stockport_simplified,2022.2.4,Win32,59.95203837,661e456ee6de07e70aa9ef7b,66229d9a0b961b173878925f,,,,,,,,,,,,,,,,,,,,,,,,,,,,,,,,,,3327.675,3331.378,"[8,7,4,3,2,1,5,6]","[[0.3,0.2],[-0.3,0.2]]","[[0.125,-0.2],[-0.125,-0.2]]",-0.104638619,-0.186084142,1,0,0,3.202,o2_image,3331.379,0,3331.879,3331.879,3333.881,0,0,0,0,1,,,,,,,,,,,,,,,,,,,,,,,,,,,,,,,,,,,,,,,,,,,,,,,,,,
,,64871d208781227e5188a1b5,25,male,2024-04-19_17h37.23.362,stockport_simplified,2022.2.4,Win32,59.95203837,661e456ee6de07e70aa9ef7b,66229d9a0b961b173878925f,,,,,,,,,,,,,,,,,,,,,,,,,,,,,,,,,,,,,,,,,,,,,,,,,,,,,,,,1,50,110,5,1,A,Y,N,o1_image,stimuli/out1.png,stimuli/correct_out1.png,stimuli/out2.png,,,,,,,,,,,,,,,,,,,,,,,,,,,,,,,,,,,,,,
,,64871d208781227e5188a1b5,25,male,2024-04-19_17h37.23.362,stockport_simplified,2022.2.4,Win32,59.95203837,661e456ee6de07e70aa9ef7b,66229d9a0b961b173878925f,,,,,,,,,,,,,,,,,,,,,,,,,,,,,,,,,,3333.882,3335.666,"[8,7,4,3,2,1,5,6]","[[-0.3,0.2],[0.3,0.2]]","[[0.125,-0.2],[-0.125,-0.2]]",0.105717368,-0.167745415,1,0,0,1.265,o1_image,3335.667,1,3336.167,3336.167,3338.169,0,0,0,0,1,,,,,,,,,,,,,,,,,,,,,,,,,,,,,,,,,,,,,,,,,,,,,,,,,,
,,64871d208781227e5188a1b5,25,male,2024-04-19_17h37.23.362,stockport_simplified,2022.2.4,Win32,59.95203837,661e456ee6de07e70aa9ef7b,66229d9a0b961b173878925f,,,,,,,,,,,,,,,,,,,,,,,,,,,,,,,,,,,,,,,,,,,,,,,,,,,,,,,,1,51,111,51,1,N,M,C,o1_image,stimuli/out1.png,stimuli/correct_out1.png,stimuli/out2.png,,,,,,,,,,,,,,,,,,,,,,,,,,,,,,,,,,,,,,
,,64871d208781227e5188a1b5,25,male,2024-04-19_17h37.23.362,stockport_simplified,2022.2.4,Win32,59.95203837,661e456ee6de07e70aa9ef7b,66229d9a0b961b173878925f,,,,,,,,,,,,,,,,,,,,,,,,,,,,,,,,,,3338.17,3339.904,"[8,7,4,3,2,1,5,6]","[[-0.3,0.2],[0.3,0.2]]","[[0.125,-0.2],[-0.125,-0.2]]",0.093851133,-0.15587918,1,0,0,1.233,o1_image,3339.905,1,3340.404,3340.404,3342.406,0,0,0,0,1,,,,,,,,,,,,,,,,,,,,,,,,,,,,,,,,,,,,,,,,,,,,,,,,,,
,,64871d208781227e5188a1b5,25,male,2024-04-19_17h37.23.362,stockport_simplified,2022.2.4,Win32,59.95203837,661e456ee6de07e70aa9ef7b,66229d9a0b961b173878925f,,,,,,,,,,,,,,,,,,,,,,,,,,,,,,,,,,,,,,,,,,,,,,,,,,,,,,,,1,52,112,53,1,N,M,C,o1_image,stimuli/out1.png,stimuli/correct_out1.png,stimuli/out2.png,,,,,,,,,,,,,,,,,,,,,,,,,,,,,,,,,,,,,,
,,64871d208781227e5188a1b5,25,male,2024-04-19_17h37.23.362,stockport_simplified,2022.2.4,Win32,59.95203837,661e456ee6de07e70aa9ef7b,66229d9a0b961b173878925f,,,,,,,,,,,,,,,,,,,,,,,,,,,,,,,,,,3342.407,3345.543,"[8,7,4,3,2,1,5,6]","[[-0.3,0.2],[0.3,0.2]]","[[0.125,-0.2],[-0.125,-0.2]]",0.099244876,-0.164509169,1,0,0,2.619,o1_image,3345.544,0,3346.043,3346.043,3348.045,0,0,0,0,1,,,,,,,,,,,,,,,,,,,,,,,,,,,,,,,,,,,,,,,,,,,,,,,,,,
,,64871d208781227e5188a1b5,25,male,2024-04-19_17h37.23.362,stockport_simplified,2022.2.4,Win32,59.95203837,661e456ee6de07e70aa9ef7b,66229d9a0b961b173878925f,,,,,,,,,,,,,,,,,,,,,,,,,,,,,,,,,,,,,,,,,,,,,,,,,,,,,,,,1,53,113,10,1,B,X,N,o2_image,stimuli/out2.png,stimuli/out1.png,stimuli/correct_out2.png,,,,,,,,,,,,,,,,,,,,,,,,,,,,,,,,,,,,,,
,,64871d208781227e5188a1b5,25,male,2024-04-19_17h37.23.362,stockport_simplified,2022.2.4,Win32,59.95203837,661e456ee6de07e70aa9ef7b,66229d9a0b961b173878925f,,,,,,,,,,,,,,,,,,,,,,,,,,,,,,,,,,3348.046,3350.698,"[8,7,4,3,2,1,5,6]","[[0.3,0.2],[-0.3,0.2]]","[[-0.125,-0.2],[0.125,-0.2]]",-0.114347357,-0.182847896,1,0,0,2.136,o1_image,3350.699,1,3351.198,3351.198,3353.201,0,0,0,0,1,,,,,,,,,,,,,,,,,,,,,,,,,,,,,,,,,,,,,,,,,,,,,,,,,,
,,64871d208781227e5188a1b5,25,male,2024-04-19_17h37.23.362,stockport_simplified,2022.2.4,Win32,59.95203837,661e456ee6de07e70aa9ef7b,66229d9a0b961b173878925f,,,,,,,,,,,,,,,,,,,,,,,,,,,,,,,,,,,,,,,,,,,,,,,,,,,,,,,,1,54,114,32,1,A,X,N,o1_image,stimuli/out1.png,stimuli/correct_out1.png,stimuli/out2.png,,,,,,,,,,,,,,,,,,,,,,,,,,,,,,,,,,,,,,
,,64871d208781227e5188a1b5,25,male,2024-04-19_17h37.23.362,stockport_simplified,2022.2.4,Win32,59.95203837,661e456ee6de07e70aa9ef7b,66229d9a0b961b173878925f,,,,,,,,,,,,,,,,,,,,,,,,,,,,,,,,,,3353.201,3355.787,"[8,7,4,3,2,1,5,6]","[[0.3,0.2],[-0.3,0.2]]","[[0.125,-0.2],[-0.125,-0.2]]",-0.09600863,-0.196871629,1,0,0,2.067,o2_image,3355.788,1,3356.287,3356.287,3358.29,0,0,0,0,1,,,,,,,,,,,,,,,,,,,,,,,,,,,,,,,,,,,,,,,,,,,,,,,,,,
,,64871d208781227e5188a1b5,25,male,2024-04-19_17h37.23.362,stockport_simplified,2022.2.4,Win32,59.95203837,661e456ee6de07e70aa9ef7b,66229d9a0b961b173878925f,,,,,,,,,,,,,,,,,,,,,,,,,,,,,,,,,,,,,,,,,,,,,,,,,,,,,,,,1,55,115,14,1,B,X,N,o2_image,stimuli/out2.png,stimuli/out1.png,stimuli/correct_out2.png,,,,,,,,,,,,,,,,,,,,,,,,,,,,,,,,,,,,,,
,,64871d208781227e5188a1b5,25,male,2024-04-19_17h37.23.362,stockport_simplified,2022.2.4,Win32,59.95203837,661e456ee6de07e70aa9ef7b,66229d9a0b961b173878925f,,,,,,,,,,,,,,,,,,,,,,,,,,,,,,,,,,3358.292,3359.892,"[8,7,4,3,2,1,5,6]","[[-0.3,0.2],[0.3,0.2]]","[[-0.125,-0.2],[0.125,-0.2]]",0.102481122,-0.219525351,1,0,0,1.084,o2_image,3359.895,1,3360.391,3360.391,3362.393,0,0,0,0,1,,,,,,,,,,,,,,,,,,,,,,,,,,,,,,,,,,,,,,,,,,,,,,,,,,
,,64871d208781227e5188a1b5,25,male,2024-04-19_17h37.23.362,stockport_simplified,2022.2.4,Win32,59.95203837,661e456ee6de07e70aa9ef7b,66229d9a0b961b173878925f,,,,,,,,,,,,,,,,,,,,,,,,,,,,,,,,,,,,,,,,,,,,,,,,,,,,,,,,1,56,116,55,1,N,M,D,o2_image,stimuli/out2.png,stimuli/out1.png,stimuli/correct_out2.png,,,,,,,,,,,,,,,,,,,,,,,,,,,,,,,,,,,,,,
,,64871d208781227e5188a1b5,25,male,2024-04-19_17h37.23.362,stockport_simplified,2022.2.4,Win32,59.95203837,661e456ee6de07e70aa9ef7b,66229d9a0b961b173878925f,,,,,,,,,,,,,,,,,,,,,,,,,,,,,,,,,,3362.393,3364.762,"[8,7,4,3,2,1,5,6]","[[0.3,0.2],[-0.3,0.2]]","[[-0.125,-0.2],[0.125,-0.2]]",-0.11218986,-0.169902913,1,0,0,1.866,o1_image,3364.763,1,3365.262,3365.262,3367.265,0,0,0,0,1,,,,,,,,,,,,,,,,,,,,,,,,,,,,,,,,,,,,,,,,,,,,,,,,,,
,,64871d208781227e5188a1b5,25,male,2024-04-19_17h37.23.362,stockport_simplified,2022.2.4,Win32,59.95203837,661e456ee6de07e70aa9ef7b,66229d9a0b961b173878925f,,,,,,,,,,,,,,,,,,,,,,,,,,,,,,,,,,,,,,,,,,,,,,,,,,,,,,,,1,57,117,1,1,A,X,N,o1_image,stimuli/out1.png,stimuli/correct_out1.png,stimuli/out2.png,,,,,,,,,,,,,,,,,,,,,,,,,,,,,,,,,,,,,,
,,64871d208781227e5188a1b5,25,male,2024-04-19_17h37.23.362,stockport_simplified,2022.2.4,Win32,59.95203837,661e456ee6de07e70aa9ef7b,66229d9a0b961b173878925f,,,,,,,,,,,,,,,,,,,,,,,,,,,,,,,,,,3367.266,3369.652,"[8,7,4,3,2,1,5,6]","[[0.3,0.2],[-0.3,0.2]]","[[-0.125,-0.2],[0.125,-0.2]]",0.086299892,-0.170981661,1,0,0,1.87,o2_image,3369.653,0,3370.15,3370.15,3372.154,0,0,0,0,1,,,,,,,,,,,,,,,,,,,,,,,,,,,,,,,,,,,,,,,,,,,,,,,,,,
,,64871d208781227e5188a1b5,25,male,2024-04-19_17h37.23.362,stockport_simplified,2022.2.4,Win32,59.95203837,661e456ee6de07e70aa9ef7b,66229d9a0b961b173878925f,,,,,,,,,,,,,,,,,,,,,,,,,,,,,,,,,,,,,,,,,,,,,,,,,,,,,,,,1,58,118,9,1,A,Y,N,o1_image,stimuli/out1.png,stimuli/correct_out1.png,stimuli/out2.png,,,,,,,,,,,,,,,,,,,,,,,,,,,,,,,,,,,,,,
,,64871d208781227e5188a1b5,25,male,2024-04-19_17h37.23.362,stockport_simplified,2022.2.4,Win32,59.95203837,661e456ee6de07e70aa9ef7b,66229d9a0b961b173878925f,,,,,,,,,,,,,,,,,,,,,,,,,,,,,,,,,,3372.154,3374.055,"[8,7,4,3,2,1,5,6]","[[0.3,0.2],[-0.3,0.2]]","[[-0.125,-0.2],[0.125,-0.2]]",0.106796117,-0.218446602,1,0,0,1.385,o2_image,3374.055,0,3374.555,3374.555,3376.558,0,0,0,0,1,,,,,,,,,,,,,,,,,,,,,,,,,,,,,,,,,,,,,,,,,,,,,,,,,,
,,64871d208781227e5188a1b5,25,male,2024-04-19_17h37.23.362,stockport_simplified,2022.2.4,Win32,59.95203837,661e456ee6de07e70aa9ef7b,66229d9a0b961b173878925f,,,,,,,,,,,,,,,,,,,,,,,,,,,,,,,,,,,,,,,,,,,,,,,,,,,,,,,,1,59,119,0,1,A,X,N,o1_image,stimuli/out1.png,stimuli/correct_out1.png,stimuli/out2.png,,,,,,,,,,,,,,,,,,,,,,,,,,,,,,,,,,,,,,
,,64871d208781227e5188a1b5,25,male,2024-04-19_17h37.23.362,stockport_simplified,2022.2.4,Win32,59.95203837,661e456ee6de07e70aa9ef7b,66229d9a0b961b173878925f,,,,,,,,,,,,,,,,,,,,,,,,,,,,,,,,,,3376.572,3378.526,"[8,7,4,3,2,1,5,6]","[[0.3,0.2],[-0.3,0.2]]","[[-0.125,-0.2],[0.125,-0.2]]",-0.097087379,-0.142934196,1,0,0,1.451,o1_image,3378.528,1,3379.027,3379.027,3381.028,,,,,,,,,,,,,,,,,,0,0,0,0,1,,,,,,,,,,,,,,,,,,,,,,,,,,,,,,,,,
,,64871d208781227e5188a1b5,25,male,2024-04-19_17h37.23.362,stockport_simplified,2022.2.4,Win32,59.95203837,661e456ee6de07e70aa9ef7b,66229d9a0b961b173878925f,,,,,,,,,,,,,,,,,,,,,,,,,,,,,,,,,,,,,,,,,,,,,,,,,,,,,,,,,,,,,B,X,N,o1_image,stimuli/out1.png,stimuli/correct_out1.png,stimuli/out2.png,,,,,,0,0,0,27,1,,,,,,,,,,,,,,,,,,,,,,,,,,,,
,,64871d208781227e5188a1b5,25,male,2024-04-19_17h37.23.362,stockport_simplified,2022.2.4,Win32,59.95203837,661e456ee6de07e70aa9ef7b,66229d9a0b961b173878925f,,,,,,,,,,,,,,,,,,,,,,,,,,,,,,,,,,3381.029,3383.948,"[8,7,4,3,2,1,5,6]","[[-0.3,0.2],[0.3,0.2]]","[[0.125,-0.2],[-0.125,-0.2]]",-0.113268608,-0.17206041,1,0,0,2.418,o2_image,3383.949,0,3384.448,3384.448,3386.451,,,,,,,,,,,,,,,,,,0,0,0,0,1,,,,,,,,,,,,,,,,,,,,,,,,,,,,,,,,,
,,64871d208781227e5188a1b5,25,male,2024-04-19_17h37.23.362,stockport_simplified,2022.2.4,Win32,59.95203837,661e456ee6de07e70aa9ef7b,66229d9a0b961b173878925f,,,,,,,,,,,,,,,,,,,,,,,,,,,,,,,,,,,,,,,,,,,,,,,,,,,,,,,,,,,,,A,Y,N,o1_image,stimuli/out1.png,stimuli/correct_out1.png,stimuli/out2.png,,,,,,0,1,1,15,1,,,,,,,,,,,,,,,,,,,,,,,,,,,,
,,64871d208781227e5188a1b5,25,male,2024-04-19_17h37.23.362,stockport_simplified,2022.2.4,Win32,59.95203837,661e456ee6de07e70aa9ef7b,66229d9a0b961b173878925f,,,,,,,,,,,,,,,,,,,,,,,,,,,,,,,,,,3386.451,3388.571,"[8,7,4,3,2,1,5,6]","[[0.3,0.2],[-0.3,0.2]]","[[-0.125,-0.2],[0.125,-0.2]]",-0.040992449,-0.151564186,1,0,0,1.183,o1_image,3388.572,0,3389.07,3389.07,3391.072,,,,,,,,,,,,,,,,,,0,0,0,0,1,,,,,,,,,,,,,,,,,,,,,,,,,,,,,,,,,
,,64871d208781227e5188a1b5,25,male,2024-04-19_17h37.23.362,stockport_simplified,2022.2.4,Win32,59.95203837,661e456ee6de07e70aa9ef7b,66229d9a0b961b173878925f,,,,,,,,,,,,,,,,,,,,,,,,,,,,,,,,,,,,,,,,,,,,,,,,,,,,,,,,,,,,,A,X,N,o2_image,stimuli/out2.png,stimuli/out1.png,stimuli/correct_out2.png,,,,,,0,2,2,5,1,,,,,,,,,,,,,,,,,,,,,,,,,,,,
,,64871d208781227e5188a1b5,25,male,2024-04-19_17h37.23.362,stockport_simplified,2022.2.4,Win32,59.95203837,661e456ee6de07e70aa9ef7b,66229d9a0b961b173878925f,,,,,,,,,,,,,,,,,,,,,,,,,,,,,,,,,,3391.073,3392.759,"[8,7,4,3,2,1,5,6]","[[-0.3,0.2],[0.3,0.2]]","[[0.125,-0.2],[-0.125,-0.2]]",0.085221143,-0.134304207,1,0,0,1.182,o1_image,3392.761,1,3393.258,3393.258,3395.26,,,,,,,,,,,,,,,,,,0,0,0,0,1,,,,,,,,,,,,,,,,,,,,,,,,,,,,,,,,,
,,64871d208781227e5188a1b5,25,male,2024-04-19_17h37.23.362,stockport_simplified,2022.2.4,Win32,59.95203837,661e456ee6de07e70aa9ef7b,66229d9a0b961b173878925f,,,,,,,,,,,,,,,,,,,,,,,,,,,,,,,,,,,,,,,,,,,,,,,,,,,,,,,,,,,,,A,Y,N,o1_image,stimuli/out1.png,stimuli/correct_out1.png,stimuli/out2.png,,,,,,0,3,3,13,1,,,,,,,,,,,,,,,,,,,,,,,,,,,,
,,64871d208781227e5188a1b5,25,male,2024-04-19_17h37.23.362,stockport_simplified,2022.2.4,Win32,59.95203837,661e456ee6de07e70aa9ef7b,66229d9a0b961b173878925f,,,,,,,,,,,,,,,,,,,,,,,,,,,,,,,,,,3395.261,3397.662,"[8,7,4,3,2,1,5,6]","[[0.3,0.2],[-0.3,0.2]]","[[0.125,-0.2],[-0.125,-0.2]]",0.105717368,-0.19579288,1,0,0,1.883,o1_image,3397.663,1,3398.162,3398.162,3400.166,,,,,,,,,,,,,,,,,,0,0,0,0,1,,,,,,,,,,,,,,,,,,,,,,,,,,,,,,,,,
