counterbalance_2.started,counterbalance_2.stopped,participant,age,gender,date,expName,psychopyVersion,OS,frameRate,STUDY_ID,SESSION_ID,information_2.started,information_2.stopped,information_loop.thisRepN,information_loop.thisTrialN,information_loop.thisN,information_loop.thisIndex,information_loop.ran,information,consent_2.started,consent_2.stopped,slider_1.response,slider_2.response,slider_3.response,slider_4.response,slider_5.response,slider_6.response,instructions.started,instructions.stopped,task1_instr.thisRepN,task1_instr.thisTrialN,task1_instr.thisN,task1_instr.thisIndex,task1_instr.ran,task1,comprehension1_2.started,comprehension1_2.stopped,comp1_mouse.x,comp1_mouse.y,comp1_mouse.leftButton,comp1_mouse.midButton,comp1_mouse.rightButton,comp1_mouse.time,comp1_mouse.clicked_name,cue_o__trial_2.started,cue_o__trial_2.stopped,order,cue_order,out_order,cue_o_mouse.x,cue_o_mouse.y,cue_o_mouse.leftButton,cue_o_mouse.midButton,cue_o_mouse.rightButton,cue_o_mouse.time,cue_o_mouse.clicked_name,cue_selection_2.started,correct_answer,cue_selection_2.stopped,feedback_2.started,feedback_2.stopped,feedback_loop.thisRepN,feedback_loop.thisTrialN,feedback_loop.thisN,feedback_loop.thisIndex,feedback_loop.ran,stage1_trials.thisRepN,stage1_trials.thisTrialN,stage1_trials.thisN,stage1_trials.thisIndex,stage1_trials.ran,cue1,cue2,cue3,outcome,correct_out,o1_feedback,o2_feedback,stage2_feedback_loop.thisRepN,stage2_feedback_loop.thisTrialN,stage2_feedback_loop.thisN,stage2_feedback_loop.thisIndex,stage2_feedback_loop.ran,stage2_trials.thisRepN,stage2_trials.thisTrialN,stage2_trials.thisN,stage2_trials.thisIndex,stage2_trials.ran,stage3_feedback_loop.thisRepN,stage3_feedback_loop.thisTrialN,stage3_feedback_loop.thisN,stage3_feedback_loop.thisIndex,stage3_feedback_loop.ran,stage3_trials.thisRepN,stage3_trials.thisTrialN,stage3_trials.thisN,stage3_trials.thisIndex,stage3_trials.ran,debrief_2.started,debrief_2.stopped,debrief_loop.thisRepN,debrief_loop.thisTrialN,debrief_loop.thisN,debrief_loop.thisIndex,debrief_loop.ran,debrief_img,compr1_completed.thisRepN,compr1_completed.thisTrialN,compr1_completed.thisN,compr1_completed.thisIndex,compr1_completed.ran,consent_loop.thisRepN,consent_loop.thisTrialN,consent_loop.thisN,consent_loop.thisIndex,consent_loop.ran
0.0005,0.001,5f6f25a7fb739547ff9d6206,23,male,2024-04-24_12h31.49.392,stockport_simplified,2022.2.4,Win32,60.24096386,661e456ee6de07e70aa9ef7b,6628df820c3dc83b15b19c33,,,,,,,,,,,,,,,,,,,,,,,,,,,,,,,,,,,,,,,,,,,,,,,,,,,,,,,,,,,,,,,,,,,,,,,,,,,,,,,,,,,,,,,,,,,,,,,,,,,,,,,,,
,,5f6f25a7fb739547ff9d6206,23,male,2024-04-24_12h31.49.392,stockport_simplified,2022.2.4,Win32,60.24096386,661e456ee6de07e70aa9ef7b,6628df820c3dc83b15b19c33,0.0447,20.9262,0,0,0,0,1,instructions/info1.png,,,,,,,,,,,,,,,,,,,,,,,,,,,,,,,,,,,,,,,,,,,,,,,,,,,,,,,,,,,,,,,,,,,,,,,,,,,,,,,,,,,,,,,,,,,,,,,,,
,,5f6f25a7fb739547ff9d6206,23,male,2024-04-24_12h31.49.392,stockport_simplified,2022.2.4,Win32,60.24096386,661e456ee6de07e70aa9ef7b,6628df820c3dc83b15b19c33,20.9265,37.3195,0,1,1,1,1,instructions/info2.png,,,,,,,,,,,,,,,,,,,,,,,,,,,,,,,,,,,,,,,,,,,,,,,,,,,,,,,,,,,,,,,,,,,,,,,,,,,,,,,,,,,,,,,,,,,,,,,,,
,,5f6f25a7fb739547ff9d6206,23,male,2024-04-24_12h31.49.392,stockport_simplified,2022.2.4,Win32,60.24096386,661e456ee6de07e70aa9ef7b,6628df820c3dc83b15b19c33,37.3197,43.1344,0,2,2,2,1,instructions/info3.png,,,,,,,,,,,,,,,,,,,,,,,,,,,,,,,,,,,,,,,,,,,,,,,,,,,,,,,,,,,,,,,,,,,,,,,,,,,,,,,,,,,,,,,,,,,,,,,,,
,,5f6f25a7fb739547ff9d6206,23,male,2024-04-24_12h31.49.392,stockport_simplified,2022.2.4,Win32,60.24096386,661e456ee6de07e70aa9ef7b,6628df820c3dc83b15b19c33,,,,,,,,,43.1351,66.2098,1,1,1,1,1,1,,,,,,,,,,,,,,,,,,,,,,,,,,,,,,,,,,,,,,,,,,,,,,,,,,,,,,,,,,,,,,,,,,,,,,,,,,,,,,,,,,,,,,,,,
,,5f6f25a7fb739547ff9d6206,23,male,2024-04-24_12h31.49.392,stockport_simplified,2022.2.4,Win32,60.24096386,661e456ee6de07e70aa9ef7b,6628df820c3dc83b15b19c33,,,,,,,,,,,,,,,,,66.2162,97.6993,0,0,0,0,1,instructions/task1_1.png,,,,,,,,,,,,,,,,,,,,,,,,,,,,,,,,,,,,,,,,,,,,,,,,,,,,,,,,,,,,,,,,,,,,,,,,,,,,,,,,,
,,5f6f25a7fb739547ff9d6206,23,male,2024-04-24_12h31.49.392,stockport_simplified,2022.2.4,Win32,60.24096386,661e456ee6de07e70aa9ef7b,6628df820c3dc83b15b19c33,,,,,,,,,,,,,,,,,97.7074,115.2599,0,1,1,1,1,instructions/task1_2.png,,,,,,,,,,,,,,,,,,,,,,,,,,,,,,,,,,,,,,,,,,,,,,,,,,,,,,,,,,,,,,,,,,,,,,,,,,,,,,,,,
,,5f6f25a7fb739547ff9d6206,23,male,2024-04-24_12h31.49.392,stockport_simplified,2022.2.4,Win32,60.24096386,661e456ee6de07e70aa9ef7b,6628df820c3dc83b15b19c33,,,,,,,,,,,,,,,,,115.2669,146.2993,0,2,2,2,1,instructions/task1_3.png,,,,,,,,,,,,,,,,,,,,,,,,,,,,,,,,,,,,,,,,,,,,,,,,,,,,,,,,,,,,,,,,,,,,,,,,,,,,,,,,,
,,5f6f25a7fb739547ff9d6206,23,male,2024-04-24_12h31.49.392,stockport_simplified,2022.2.4,Win32,60.24096386,661e456ee6de07e70aa9ef7b,6628df820c3dc83b15b19c33,,,,,,,,,,,,,,,,,,,,,,,,,146.2997,177.3225,0.046296296,-0.324074074,1,0,0,31.0223,comp1_resp1,177.3383,185.3532,"[2,5,3,6,7,4,1,8]","[[-0.3,0.2],[0.3,0.2]]","[[-0.125,-0.2],[0.125,-0.2]]",-0.135185171,-0.192592621,1,0,0,7.5141,o1_image,185.3609,1,185.8526,185.8527,187.8518,0,0,0,0,1,,,,,,,,,,,,,,,,,,,,,,,,,,,,,,,,,,,,,,,,,,,,,,,,,,
,,5f6f25a7fb739547ff9d6206,23,male,2024-04-24_12h31.49.392,stockport_simplified,2022.2.4,Win32,60.24096386,661e456ee6de07e70aa9ef7b,6628df820c3dc83b15b19c33,,,,,,,,,,,,,,,,,,,,,,,,,,,,,,,,,,,,,,,,,,,,,,,,,,,,,,,,0,0,0,34,1,A,X,N,o1_image,stimuli/out1.png,stimuli/correct_out1.png,stimuli/out2.png,,,,,,,,,,,,,,,,,,,,,,,,,,,,,,,,,,,,,,
,,5f6f25a7fb739547ff9d6206,23,male,2024-04-24_12h31.49.392,stockport_simplified,2022.2.4,Win32,60.24096386,661e456ee6de07e70aa9ef7b,6628df820c3dc83b15b19c33,,,,,,,,,,,,,,,,,,,,,,,,,,,,,,,,,,187.852,194.0499,"[2,5,3,6,7,4,1,8]","[[0.3,0.2],[-0.3,0.2]]","[[0.125,-0.2],[-0.125,-0.2]]",-0.097222222,-0.178703732,1,0,0,5.6813,o2_image,194.0562,0,194.5499,194.55,196.5491,0,0,0,0,1,,,,,,,,,,,,,,,,,,,,,,,,,,,,,,,,,,,,,,,,,,,,,,,,,,
,,5f6f25a7fb739547ff9d6206,23,male,2024-04-24_12h31.49.392,stockport_simplified,2022.2.4,Win32,60.24096386,661e456ee6de07e70aa9ef7b,6628df820c3dc83b15b19c33,,,,,,,,,,,,,,,,,,,,,,,,,,,,,,,,,,,,,,,,,,,,,,,,,,,,,,,,0,1,1,22,1,N,M,C,o1_image,stimuli/out1.png,stimuli/correct_out1.png,stimuli/out2.png,,,,,,,,,,,,,,,,,,,,,,,,,,,,,,,,,,,,,,
,,5f6f25a7fb739547ff9d6206,23,male,2024-04-24_12h31.49.392,stockport_simplified,2022.2.4,Win32,60.24096386,661e456ee6de07e70aa9ef7b,6628df820c3dc83b15b19c33,,,,,,,,,,,,,,,,,,,,,,,,,,,,,,,,,,196.5499,198.4352,"[2,5,3,6,7,4,1,8]","[[0.3,0.2],[-0.3,0.2]]","[[-0.125,-0.2],[0.125,-0.2]]",-0.124074088,-0.18240745,1,0,0,1.3831,o1_image,198.4355,1,198.935,198.935,200.9341,0,0,0,0,1,,,,,,,,,,,,,,,,,,,,,,,,,,,,,,,,,,,,,,,,,,,,,,,,,,
,,5f6f25a7fb739547ff9d6206,23,male,2024-04-24_12h31.49.392,stockport_simplified,2022.2.4,Win32,60.24096386,661e456ee6de07e70aa9ef7b,6628df820c3dc83b15b19c33,,,,,,,,,,,,,,,,,,,,,,,,,,,,,,,,,,,,,,,,,,,,,,,,,,,,,,,,0,2,2,24,1,N,M,C,o1_image,stimuli/out1.png,stimuli/correct_out1.png,stimuli/out2.png,,,,,,,,,,,,,,,,,,,,,,,,,,,,,,,,,,,,,,
,,5f6f25a7fb739547ff9d6206,23,male,2024-04-24_12h31.49.392,stockport_simplified,2022.2.4,Win32,60.24096386,661e456ee6de07e70aa9ef7b,6628df820c3dc83b15b19c33,,,,,,,,,,,,,,,,,,,,,,,,,,,,,,,,,,200.9343,204.1129,"[2,5,3,6,7,4,1,8]","[[-0.3,0.2],[0.3,0.2]]","[[0.125,-0.2],[-0.125,-0.2]]",-0.119444459,-0.192592621,1,0,0,2.6646,o2_image,204.1194,1,204.613,204.613,206.6121,0,0,0,0,1,,,,,,,,,,,,,,,,,,,,,,,,,,,,,,,,,,,,,,,,,,,,,,,,,,
,,5f6f25a7fb739547ff9d6206,23,male,2024-04-24_12h31.49.392,stockport_simplified,2022.2.4,Win32,60.24096386,661e456ee6de07e70aa9ef7b,6628df820c3dc83b15b19c33,,,,,,,,,,,,,,,,,,,,,,,,,,,,,,,,,,,,,,,,,,,,,,,,,,,,,,,,0,3,3,16,1,B,Y,N,o2_image,stimuli/out2.png,stimuli/out1.png,stimuli/correct_out2.png,,,,,,,,,,,,,,,,,,,,,,,,,,,,,,,,,,,,,,
,,5f6f25a7fb739547ff9d6206,23,male,2024-04-24_12h31.49.392,stockport_simplified,2022.2.4,Win32,60.24096386,661e456ee6de07e70aa9ef7b,6628df820c3dc83b15b19c33,,,,,,,,,,,,,,,,,,,,,,,,,,,,,,,,,,206.6123,209.228,"[2,5,3,6,7,4,1,8]","[[0.3,0.2],[-0.3,0.2]]","[[0.125,-0.2],[-0.125,-0.2]]",-0.137036995,-0.178703732,1,0,0,2.0991,o2_image,209.2283,0,209.7279,209.728,211.727,0,0,0,0,1,,,,,,,,,,,,,,,,,,,,,,,,,,,,,,,,,,,,,,,,,,,,,,,,,,
,,5f6f25a7fb739547ff9d6206,23,male,2024-04-24_12h31.49.392,stockport_simplified,2022.2.4,Win32,60.24096386,661e456ee6de07e70aa9ef7b,6628df820c3dc83b15b19c33,,,,,,,,,,,,,,,,,,,,,,,,,,,,,,,,,,,,,,,,,,,,,,,,,,,,,,,,0,4,4,3,1,A,X,N,o1_image,stimuli/out1.png,stimuli/correct_out1.png,stimuli/out2.png,,,,,,,,,,,,,,,,,,,,,,,,,,,,,,,,,,,,,,
,,5f6f25a7fb739547ff9d6206,23,male,2024-04-24_12h31.49.392,stockport_simplified,2022.2.4,Win32,60.24096386,661e456ee6de07e70aa9ef7b,6628df820c3dc83b15b19c33,,,,,,,,,,,,,,,,,,,,,,,,,,,,,,,,,,211.7272,217.8261,"[2,5,3,6,7,4,1,8]","[[-0.3,0.2],[0.3,0.2]]","[[0.125,-0.2],[-0.125,-0.2]]",-0.128703718,-0.179629644,1,0,0,5.5817,o2_image,217.8571,1,218.3592,218.3593,220.3573,0,0,0,0,1,,,,,,,,,,,,,,,,,,,,,,,,,,,,,,,,,,,,,,,,,,,,,,,,,,
,,5f6f25a7fb739547ff9d6206,23,male,2024-04-24_12h31.49.392,stockport_simplified,2022.2.4,Win32,60.24096386,661e456ee6de07e70aa9ef7b,6628df820c3dc83b15b19c33,,,,,,,,,,,,,,,,,,,,,,,,,,,,,,,,,,,,,,,,,,,,,,,,,,,,,,,,0,5,5,15,1,B,Y,N,o2_image,stimuli/out2.png,stimuli/out1.png,stimuli/correct_out2.png,,,,,,,,,,,,,,,,,,,,,,,,,,,,,,,,,,,,,,
,,5f6f25a7fb739547ff9d6206,23,male,2024-04-24_12h31.49.392,stockport_simplified,2022.2.4,Win32,60.24096386,661e456ee6de07e70aa9ef7b,6628df820c3dc83b15b19c33,,,,,,,,,,,,,,,,,,,,,,,,,,,,,,,,,,220.3575,224.5228,"[2,5,3,6,7,4,1,8]","[[-0.3,0.2],[0.3,0.2]]","[[-0.125,-0.2],[0.125,-0.2]]",-0.121296282,-0.176851838,1,0,0,3.6484,o1_image,224.5291,1,225.0226,225.0226,227.0218,0,0,0,0,1,,,,,,,,,,,,,,,,,,,,,,,,,,,,,,,,,,,,,,,,,,,,,,,,,,
,,5f6f25a7fb739547ff9d6206,23,male,2024-04-24_12h31.49.392,stockport_simplified,2022.2.4,Win32,60.24096386,661e456ee6de07e70aa9ef7b,6628df820c3dc83b15b19c33,,,,,,,,,,,,,,,,,,,,,,,,,,,,,,,,,,,,,,,,,,,,,,,,,,,,,,,,0,6,6,53,1,N,M,C,o1_image,stimuli/out1.png,stimuli/correct_out1.png,stimuli/out2.png,,,,,,,,,,,,,,,,,,,,,,,,,,,,,,,,,,,,,,
,,5f6f25a7fb739547ff9d6206,23,male,2024-04-24_12h31.49.392,stockport_simplified,2022.2.4,Win32,60.24096386,661e456ee6de07e70aa9ef7b,6628df820c3dc83b15b19c33,,,,,,,,,,,,,,,,,,,,,,,,,,,,,,,,,,227.0219,228.538,"[2,5,3,6,7,4,1,8]","[[0.3,0.2],[-0.3,0.2]]","[[-0.125,-0.2],[0.125,-0.2]]",-0.14907406,-0.185185185,1,0,0,0.9992,o1_image,228.5384,1,229.0378,229.0378,231.0372,0,0,0,0,1,,,,,,,,,,,,,,,,,,,,,,,,,,,,,,,,,,,,,,,,,,,,,,,,,,
,,5f6f25a7fb739547ff9d6206,23,male,2024-04-24_12h31.49.392,stockport_simplified,2022.2.4,Win32,60.24096386,661e456ee6de07e70aa9ef7b,6628df820c3dc83b15b19c33,,,,,,,,,,,,,,,,,,,,,,,,,,,,,,,,,,,,,,,,,,,,,,,,,,,,,,,,0,7,7,50,1,N,M,C,o1_image,stimuli/out1.png,stimuli/correct_out1.png,stimuli/out2.png,,,,,,,,,,,,,,,,,,,,,,,,,,,,,,,,,,,,,,
,,5f6f25a7fb739547ff9d6206,23,male,2024-04-24_12h31.49.392,stockport_simplified,2022.2.4,Win32,60.24096386,661e456ee6de07e70aa9ef7b,6628df820c3dc83b15b19c33,,,,,,,,,,,,,,,,,,,,,,,,,,,,,,,,,,231.0374,233.503,"[2,5,3,6,7,4,1,8]","[[-0.3,0.2],[0.3,0.2]]","[[0.125,-0.2],[-0.125,-0.2]]",-0.131481453,-0.164814843,1,0,0,1.949,o2_image,233.5093,1,234.0028,234.0028,236.0021,0,0,0,0,1,,,,,,,,,,,,,,,,,,,,,,,,,,,,,,,,,,,,,,,,,,,,,,,,,,
,,5f6f25a7fb739547ff9d6206,23,male,2024-04-24_12h31.49.392,stockport_simplified,2022.2.4,Win32,60.24096386,661e456ee6de07e70aa9ef7b,6628df820c3dc83b15b19c33,,,,,,,,,,,,,,,,,,,,,,,,,,,,,,,,,,,,,,,,,,,,,,,,,,,,,,,,0,8,8,10,1,B,X,N,o2_image,stimuli/out2.png,stimuli/out1.png,stimuli/correct_out2.png,,,,,,,,,,,,,,,,,,,,,,,,,,,,,,,,,,,,,,
,,5f6f25a7fb739547ff9d6206,23,male,2024-04-24_12h31.49.392,stockport_simplified,2022.2.4,Win32,60.24096386,661e456ee6de07e70aa9ef7b,6628df820c3dc83b15b19c33,,,,,,,,,,,,,,,,,,,,,,,,,,,,,,,,,,236.0022,238.568,"[2,5,3,6,7,4,1,8]","[[-0.3,0.2],[0.3,0.2]]","[[-0.125,-0.2],[0.125,-0.2]]",-0.126851824,-0.181481467,1,0,0,2.0491,o1_image,238.5683,1,239.0679,239.0679,241.0672,0,0,0,0,1,,,,,,,,,,,,,,,,,,,,,,,,,,,,,,,,,,,,,,,,,,,,,,,,,,
,,5f6f25a7fb739547ff9d6206,23,male,2024-04-24_12h31.49.392,stockport_simplified,2022.2.4,Win32,60.24096386,661e456ee6de07e70aa9ef7b,6628df820c3dc83b15b19c33,,,,,,,,,,,,,,,,,,,,,,,,,,,,,,,,,,,,,,,,,,,,,,,,,,,,,,,,0,9,9,20,1,N,M,C,o1_image,stimuli/out1.png,stimuli/correct_out1.png,stimuli/out2.png,,,,,,,,,,,,,,,,,,,,,,,,,,,,,,,,,,,,,,
,,5f6f25a7fb739547ff9d6206,23,male,2024-04-24_12h31.49.392,stockport_simplified,2022.2.4,Win32,60.24096386,661e456ee6de07e70aa9ef7b,6628df820c3dc83b15b19c33,,,,,,,,,,,,,,,,,,,,,,,,,,,,,,,,,,241.0675,245.0989,"[2,5,3,6,7,4,1,8]","[[0.3,0.2],[-0.3,0.2]]","[[0.125,-0.2],[-0.125,-0.2]]",0.147222236,-0.200925968,1,0,0,3.5149,o1_image,245.1056,0,245.5989,245.5989,247.5981,0,0,0,0,1,,,,,,,,,,,,,,,,,,,,,,,,,,,,,,,,,,,,,,,,,,,,,,,,,,
,,5f6f25a7fb739547ff9d6206,23,male,2024-04-24_12h31.49.392,stockport_simplified,2022.2.4,Win32,60.24096386,661e456ee6de07e70aa9ef7b,6628df820c3dc83b15b19c33,,,,,,,,,,,,,,,,,,,,,,,,,,,,,,,,,,,,,,,,,,,,,,,,,,,,,,,,0,10,10,11,1,B,X,N,o2_image,stimuli/out2.png,stimuli/out1.png,stimuli/correct_out2.png,,,,,,,,,,,,,,,,,,,,,,,,,,,,,,,,,,,,,,
,,5f6f25a7fb739547ff9d6206,23,male,2024-04-24_12h31.49.392,stockport_simplified,2022.2.4,Win32,60.24096386,661e456ee6de07e70aa9ef7b,6628df820c3dc83b15b19c33,,,,,,,,,,,,,,,,,,,,,,,,,,,,,,,,,,247.5983,251.2472,"[2,5,3,6,7,4,1,8]","[[-0.3,0.2],[0.3,0.2]]","[[0.125,-0.2],[-0.125,-0.2]]",-0.123148106,-0.17777782,1,0,0,3.1322,o2_image,251.2475,0,251.7469,251.7469,253.7463,0,0,0,0,1,,,,,,,,,,,,,,,,,,,,,,,,,,,,,,,,,,,,,,,,,,,,,,,,,,
,,5f6f25a7fb739547ff9d6206,23,male,2024-04-24_12h31.49.392,stockport_simplified,2022.2.4,Win32,60.24096386,661e456ee6de07e70aa9ef7b,6628df820c3dc83b15b19c33,,,,,,,,,,,,,,,,,,,,,,,,,,,,,,,,,,,,,,,,,,,,,,,,,,,,,,,,0,11,11,6,1,A,Y,N,o1_image,stimuli/out1.png,stimuli/correct_out1.png,stimuli/out2.png,,,,,,,,,,,,,,,,,,,,,,,,,,,,,,,,,,,,,,
,,5f6f25a7fb739547ff9d6206,23,male,2024-04-24_12h31.49.392,stockport_simplified,2022.2.4,Win32,60.24096386,661e456ee6de07e70aa9ef7b,6628df820c3dc83b15b19c33,,,,,,,,,,,,,,,,,,,,,,,,,,,,,,,,,,253.7464,257.4117,"[2,5,3,6,7,4,1,8]","[[0.3,0.2],[-0.3,0.2]]","[[0.125,-0.2],[-0.125,-0.2]]",0.124074088,-0.169444473,1,0,0,3.1487,o1_image,257.418,1,257.9115,257.9115,259.9109,0,0,0,0,1,,,,,,,,,,,,,,,,,,,,,,,,,,,,,,,,,,,,,,,,,,,,,,,,,,
,,5f6f25a7fb739547ff9d6206,23,male,2024-04-24_12h31.49.392,stockport_simplified,2022.2.4,Win32,60.24096386,661e456ee6de07e70aa9ef7b,6628df820c3dc83b15b19c33,,,,,,,,,,,,,,,,,,,,,,,,,,,,,,,,,,,,,,,,,,,,,,,,,,,,,,,,0,12,12,35,1,A,Y,N,o1_image,stimuli/out1.png,stimuli/correct_out1.png,stimuli/out2.png,,,,,,,,,,,,,,,,,,,,,,,,,,,,,,,,,,,,,,
,,5f6f25a7fb739547ff9d6206,23,male,2024-04-24_12h31.49.392,stockport_simplified,2022.2.4,Win32,60.24096386,661e456ee6de07e70aa9ef7b,6628df820c3dc83b15b19c33,,,,,,,,,,,,,,,,,,,,,,,,,,,,,,,,,,259.9111,265.542,"[2,5,3,6,7,4,1,8]","[[0.3,0.2],[-0.3,0.2]]","[[-0.125,-0.2],[0.125,-0.2]]",0.125925912,-0.150000042,1,0,0,5.1142,o2_image,265.5486,1,266.0424,266.0424,268.0416,0,0,0,0,1,,,,,,,,,,,,,,,,,,,,,,,,,,,,,,,,,,,,,,,,,,,,,,,,,,
,,5f6f25a7fb739547ff9d6206,23,male,2024-04-24_12h31.49.392,stockport_simplified,2022.2.4,Win32,60.24096386,661e456ee6de07e70aa9ef7b,6628df820c3dc83b15b19c33,,,,,,,,,,,,,,,,,,,,,,,,,,,,,,,,,,,,,,,,,,,,,,,,,,,,,,,,0,13,13,28,1,N,M,D,o2_image,stimuli/out2.png,stimuli/out1.png,stimuli/correct_out2.png,,,,,,,,,,,,,,,,,,,,,,,,,,,,,,,,,,,,,,
,,5f6f25a7fb739547ff9d6206,23,male,2024-04-24_12h31.49.392,stockport_simplified,2022.2.4,Win32,60.24096386,661e456ee6de07e70aa9ef7b,6628df820c3dc83b15b19c33,,,,,,,,,,,,,,,,,,,,,,,,,,,,,,,,,,268.0421,270.791,"[2,5,3,6,7,4,1,8]","[[0.3,0.2],[-0.3,0.2]]","[[0.125,-0.2],[-0.125,-0.2]]",-0.108333305,-0.18240745,1,0,0,2.2293,o2_image,270.7919,1,271.2937,271.2938,273.2898,0,0,0,0,1,,,,,,,,,,,,,,,,,,,,,,,,,,,,,,,,,,,,,,,,,,,,,,,,,,
,,5f6f25a7fb739547ff9d6206,23,male,2024-04-24_12h31.49.392,stockport_simplified,2022.2.4,Win32,60.24096386,661e456ee6de07e70aa9ef7b,6628df820c3dc83b15b19c33,,,,,,,,,,,,,,,,,,,,,,,,,,,,,,,,,,,,,,,,,,,,,,,,,,,,,,,,0,14,14,45,1,B,Y,N,o2_image,stimuli/out2.png,stimuli/out1.png,stimuli/correct_out2.png,,,,,,,,,,,,,,,,,,,,,,,,,,,,,,,,,,,,,,
,,5f6f25a7fb739547ff9d6206,23,male,2024-04-24_12h31.49.392,stockport_simplified,2022.2.4,Win32,60.24096386,661e456ee6de07e70aa9ef7b,6628df820c3dc83b15b19c33,,,,,,,,,,,,,,,,,,,,,,,,,,,,,,,,,,273.2904,276.9053,"[2,5,3,6,7,4,1,8]","[[-0.3,0.2],[0.3,0.2]]","[[-0.125,-0.2],[0.125,-0.2]]",0.124074088,-0.175000014,1,0,0,3.0982,o2_image,276.9118,1,277.4053,277.4054,279.4078,0,0,0,0,1,,,,,,,,,,,,,,,,,,,,,,,,,,,,,,,,,,,,,,,,,,,,,,,,,,
,,5f6f25a7fb739547ff9d6206,23,male,2024-04-24_12h31.49.392,stockport_simplified,2022.2.4,Win32,60.24096386,661e456ee6de07e70aa9ef7b,6628df820c3dc83b15b19c33,,,,,,,,,,,,,,,,,,,,,,,,,,,,,,,,,,,,,,,,,,,,,,,,,,,,,,,,0,15,15,12,1,B,X,N,o2_image,stimuli/out2.png,stimuli/out1.png,stimuli/correct_out2.png,,,,,,,,,,,,,,,,,,,,,,,,,,,,,,,,,,,,,,
,,5f6f25a7fb739547ff9d6206,23,male,2024-04-24_12h31.49.392,stockport_simplified,2022.2.4,Win32,60.24096386,661e456ee6de07e70aa9ef7b,6628df820c3dc83b15b19c33,,,,,,,,,,,,,,,,,,,,,,,,,,,,,,,,,,279.408,283.3532,"[2,5,3,6,7,4,1,8]","[[-0.3,0.2],[0.3,0.2]]","[[-0.125,-0.2],[0.125,-0.2]]",0.113888917,-0.18240745,1,0,0,3.4311,o2_image,283.3596,0,283.8532,283.8532,285.8523,0,0,0,0,1,,,,,,,,,,,,,,,,,,,,,,,,,,,,,,,,,,,,,,,,,,,,,,,,,,
,,5f6f25a7fb739547ff9d6206,23,male,2024-04-24_12h31.49.392,stockport_simplified,2022.2.4,Win32,60.24096386,661e456ee6de07e70aa9ef7b,6628df820c3dc83b15b19c33,,,,,,,,,,,,,,,,,,,,,,,,,,,,,,,,,,,,,,,,,,,,,,,,,,,,,,,,0,16,16,2,1,A,X,N,o1_image,stimuli/out1.png,stimuli/correct_out1.png,stimuli/out2.png,,,,,,,,,,,,,,,,,,,,,,,,,,,,,,,,,,,,,,
,,5f6f25a7fb739547ff9d6206,23,male,2024-04-24_12h31.49.392,stockport_simplified,2022.2.4,Win32,60.24096386,661e456ee6de07e70aa9ef7b,6628df820c3dc83b15b19c33,,,,,,,,,,,,,,,,,,,,,,,,,,,,,,,,,,285.8528,290.3028,"[2,5,3,6,7,4,1,8]","[[0.3,0.2],[-0.3,0.2]]","[[0.125,-0.2],[-0.125,-0.2]]",-0.128703718,-0.186111097,1,0,0,3.9335,o2_image,290.3088,1,290.8012,290.8013,292.8002,0,0,0,0,1,,,,,,,,,,,,,,,,,,,,,,,,,,,,,,,,,,,,,,,,,,,,,,,,,,
,,5f6f25a7fb739547ff9d6206,23,male,2024-04-24_12h31.49.392,stockport_simplified,2022.2.4,Win32,60.24096386,661e456ee6de07e70aa9ef7b,6628df820c3dc83b15b19c33,,,,,,,,,,,,,,,,,,,,,,,,,,,,,,,,,,,,,,,,,,,,,,,,,,,,,,,,0,17,17,19,1,B,Y,N,o2_image,stimuli/out2.png,stimuli/out1.png,stimuli/correct_out2.png,,,,,,,,,,,,,,,,,,,,,,,,,,,,,,,,,,,,,,
,,5f6f25a7fb739547ff9d6206,23,male,2024-04-24_12h31.49.392,stockport_simplified,2022.2.4,Win32,60.24096386,661e456ee6de07e70aa9ef7b,6628df820c3dc83b15b19c33,,,,,,,,,,,,,,,,,,,,,,,,,,,,,,,,,,292.8008,296.4187,"[2,5,3,6,7,4,1,8]","[[0.3,0.2],[-0.3,0.2]]","[[-0.125,-0.2],[0.125,-0.2]]",0.152777778,-0.181481467,1,0,0,3.1018,o2_image,296.4247,1,296.9187,296.9187,298.9147,0,0,0,0,1,,,,,,,,,,,,,,,,,,,,,,,,,,,,,,,,,,,,,,,,,,,,,,,,,,
,,5f6f25a7fb739547ff9d6206,23,male,2024-04-24_12h31.49.392,stockport_simplified,2022.2.4,Win32,60.24096386,661e456ee6de07e70aa9ef7b,6628df820c3dc83b15b19c33,,,,,,,,,,,,,,,,,,,,,,,,,,,,,,,,,,,,,,,,,,,,,,,,,,,,,,,,0,18,18,14,1,B,X,N,o2_image,stimuli/out2.png,stimuli/out1.png,stimuli/correct_out2.png,,,,,,,,,,,,,,,,,,,,,,,,,,,,,,,,,,,,,,
,,5f6f25a7fb739547ff9d6206,23,male,2024-04-24_12h31.49.392,stockport_simplified,2022.2.4,Win32,60.24096386,661e456ee6de07e70aa9ef7b,6628df820c3dc83b15b19c33,,,,,,,,,,,,,,,,,,,,,,,,,,,,,,,,,,298.9153,302.6302,"[2,5,3,6,7,4,1,8]","[[0.3,0.2],[-0.3,0.2]]","[[0.125,-0.2],[-0.125,-0.2]]",0.147222236,-0.171296296,1,0,0,3.1983,o1_image,302.6368,1,303.1302,303.1303,305.1292,0,0,0,0,1,,,,,,,,,,,,,,,,,,,,,,,,,,,,,,,,,,,,,,,,,,,,,,,,,,
,,5f6f25a7fb739547ff9d6206,23,male,2024-04-24_12h31.49.392,stockport_simplified,2022.2.4,Win32,60.24096386,661e456ee6de07e70aa9ef7b,6628df820c3dc83b15b19c33,,,,,,,,,,,,,,,,,,,,,,,,,,,,,,,,,,,,,,,,,,,,,,,,,,,,,,,,0,19,19,7,1,A,Y,N,o1_image,stimuli/out1.png,stimuli/correct_out1.png,stimuli/out2.png,,,,,,,,,,,,,,,,,,,,,,,,,,,,,,,,,,,,,,
,,5f6f25a7fb739547ff9d6206,23,male,2024-04-24_12h31.49.392,stockport_simplified,2022.2.4,Win32,60.24096386,661e456ee6de07e70aa9ef7b,6628df820c3dc83b15b19c33,,,,,,,,,,,,,,,,,,,,,,,,,,,,,,,,,,305.1298,307.3451,"[2,5,3,6,7,4,1,8]","[[-0.3,0.2],[0.3,0.2]]","[[-0.125,-0.2],[0.125,-0.2]]",-0.150925884,-0.167592578,1,0,0,1.6962,o1_image,307.346,1,307.845,307.8451,309.8441,0,0,0,0,1,,,,,,,,,,,,,,,,,,,,,,,,,,,,,,,,,,,,,,,,,,,,,,,,,,
,,5f6f25a7fb739547ff9d6206,23,male,2024-04-24_12h31.49.392,stockport_simplified,2022.2.4,Win32,60.24096386,661e456ee6de07e70aa9ef7b,6628df820c3dc83b15b19c33,,,,,,,,,,,,,,,,,,,,,,,,,,,,,,,,,,,,,,,,,,,,,,,,,,,,,,,,0,20,20,32,1,A,X,N,o1_image,stimuli/out1.png,stimuli/correct_out1.png,stimuli/out2.png,,,,,,,,,,,,,,,,,,,,,,,,,,,,,,,,,,,,,,
,,5f6f25a7fb739547ff9d6206,23,male,2024-04-24_12h31.49.392,stockport_simplified,2022.2.4,Win32,60.24096386,661e456ee6de07e70aa9ef7b,6628df820c3dc83b15b19c33,,,,,,,,,,,,,,,,,,,,,,,,,,,,,,,,,,309.8447,313.1597,"[2,5,3,6,7,4,1,8]","[[0.3,0.2],[-0.3,0.2]]","[[0.125,-0.2],[-0.125,-0.2]]",-0.157407407,-0.202777792,1,0,0,2.7981,o2_image,313.1611,1,313.66,313.6602,315.6604,0,0,0,0,1,,,,,,,,,,,,,,,,,,,,,,,,,,,,,,,,,,,,,,,,,,,,,,,,,,
,,5f6f25a7fb739547ff9d6206,23,male,2024-04-24_12h31.49.392,stockport_simplified,2022.2.4,Win32,60.24096386,661e456ee6de07e70aa9ef7b,6628df820c3dc83b15b19c33,,,,,,,,,,,,,,,,,,,,,,,,,,,,,,,,,,,,,,,,,,,,,,,,,,,,,,,,0,21,21,18,1,B,Y,N,o2_image,stimuli/out2.png,stimuli/out1.png,stimuli/correct_out2.png,,,,,,,,,,,,,,,,,,,,,,,,,,,,,,,,,,,,,,
,,5f6f25a7fb739547ff9d6206,23,male,2024-04-24_12h31.49.392,stockport_simplified,2022.2.4,Win32,60.24096386,661e456ee6de07e70aa9ef7b,6628df820c3dc83b15b19c33,,,,,,,,,,,,,,,,,,,,,,,,,,,,,,,,,,315.6615,319.1416,"[2,5,3,6,7,4,1,8]","[[-0.3,0.2],[0.3,0.2]]","[[-0.125,-0.2],[0.125,-0.2]]",-0.090740698,-0.198148162,1,0,0,2.9642,o1_image,319.1424,1,319.6441,319.6441,321.6436,0,0,0,0,1,,,,,,,,,,,,,,,,,,,,,,,,,,,,,,,,,,,,,,,,,,,,,,,,,,
,,5f6f25a7fb739547ff9d6206,23,male,2024-04-24_12h31.49.392,stockport_simplified,2022.2.4,Win32,60.24096386,661e456ee6de07e70aa9ef7b,6628df820c3dc83b15b19c33,,,,,,,,,,,,,,,,,,,,,,,,,,,,,,,,,,,,,,,,,,,,,,,,,,,,,,,,0,22,22,30,1,A,X,N,o1_image,stimuli/out1.png,stimuli/correct_out1.png,stimuli/out2.png,,,,,,,,,,,,,,,,,,,,,,,,,,,,,,,,,,,,,,
,,5f6f25a7fb739547ff9d6206,23,male,2024-04-24_12h31.49.392,stockport_simplified,2022.2.4,Win32,60.24096386,661e456ee6de07e70aa9ef7b,6628df820c3dc83b15b19c33,,,,,,,,,,,,,,,,,,,,,,,,,,,,,,,,,,321.6439,324.5429,"[2,5,3,6,7,4,1,8]","[[0.3,0.2],[-0.3,0.2]]","[[-0.125,-0.2],[0.125,-0.2]]",0.10555557,-0.169444473,1,0,0,2.3845,o2_image,324.5435,1,325.0388,325.0388,327.0381,0,0,0,0,1,,,,,,,,,,,,,,,,,,,,,,,,,,,,,,,,,,,,,,,,,,,,,,,,,,
,,5f6f25a7fb739547ff9d6206,23,male,2024-04-24_12h31.49.392,stockport_simplified,2022.2.4,Win32,60.24096386,661e456ee6de07e70aa9ef7b,6628df820c3dc83b15b19c33,,,,,,,,,,,,,,,,,,,,,,,,,,,,,,,,,,,,,,,,,,,,,,,,,,,,,,,,0,23,23,55,1,N,M,D,o2_image,stimuli/out2.png,stimuli/out1.png,stimuli/correct_out2.png,,,,,,,,,,,,,,,,,,,,,,,,,,,,,,,,,,,,,,
,,5f6f25a7fb739547ff9d6206,23,male,2024-04-24_12h31.49.392,stockport_simplified,2022.2.4,Win32,60.24096386,661e456ee6de07e70aa9ef7b,6628df820c3dc83b15b19c33,,,,,,,,,,,,,,,,,,,,,,,,,,,,,,,,,,327.0383,329.7707,"[2,5,3,6,7,4,1,8]","[[0.3,0.2],[-0.3,0.2]]","[[-0.125,-0.2],[0.125,-0.2]]",-0.174074032,-0.187037079,1,0,0,2.2157,o1_image,329.7772,1,330.2703,330.2704,332.2698,0,0,0,0,1,,,,,,,,,,,,,,,,,,,,,,,,,,,,,,,,,,,,,,,,,,,,,,,,,,
,,5f6f25a7fb739547ff9d6206,23,male,2024-04-24_12h31.49.392,stockport_simplified,2022.2.4,Win32,60.24096386,661e456ee6de07e70aa9ef7b,6628df820c3dc83b15b19c33,,,,,,,,,,,,,,,,,,,,,,,,,,,,,,,,,,,,,,,,,,,,,,,,,,,,,,,,0,24,24,8,1,A,Y,N,o1_image,stimuli/out1.png,stimuli/correct_out1.png,stimuli/out2.png,,,,,,,,,,,,,,,,,,,,,,,,,,,,,,,,,,,,,,
,,5f6f25a7fb739547ff9d6206,23,male,2024-04-24_12h31.49.392,stockport_simplified,2022.2.4,Win32,60.24096386,661e456ee6de07e70aa9ef7b,6628df820c3dc83b15b19c33,,,,,,,,,,,,,,,,,,,,,,,,,,,,,,,,,,332.2703,335.9351,"[2,5,3,6,7,4,1,8]","[[-0.3,0.2],[0.3,0.2]]","[[0.125,-0.2],[-0.125,-0.2]]",0.087037051,-0.161111125,1,0,0,3.1488,o1_image,335.9414,1,336.435,336.435,338.4344,0,0,0,0,1,,,,,,,,,,,,,,,,,,,,,,,,,,,,,,,,,,,,,,,,,,,,,,,,,,
,,5f6f25a7fb739547ff9d6206,23,male,2024-04-24_12h31.49.392,stockport_simplified,2022.2.4,Win32,60.24096386,661e456ee6de07e70aa9ef7b,6628df820c3dc83b15b19c33,,,,,,,,,,,,,,,,,,,,,,,,,,,,,,,,,,,,,,,,,,,,,,,,,,,,,,,,0,25,25,31,1,A,X,N,o1_image,stimuli/out1.png,stimuli/correct_out1.png,stimuli/out2.png,,,,,,,,,,,,,,,,,,,,,,,,,,,,,,,,,,,,,,
,,5f6f25a7fb739547ff9d6206,23,male,2024-04-24_12h31.49.392,stockport_simplified,2022.2.4,Win32,60.24096386,661e456ee6de07e70aa9ef7b,6628df820c3dc83b15b19c33,,,,,,,,,,,,,,,,,,,,,,,,,,,,,,,,,,338.4345,341.0335,"[2,5,3,6,7,4,1,8]","[[-0.3,0.2],[0.3,0.2]]","[[-0.125,-0.2],[0.125,-0.2]]",0.147222236,-0.185185185,1,0,0,2.0825,o2_image,341.0338,1,341.5332,341.5332,343.5327,0,0,0,0,1,,,,,,,,,,,,,,,,,,,,,,,,,,,,,,,,,,,,,,,,,,,,,,,,,,
,,5f6f25a7fb739547ff9d6206,23,male,2024-04-24_12h31.49.392,stockport_simplified,2022.2.4,Win32,60.24096386,661e456ee6de07e70aa9ef7b,6628df820c3dc83b15b19c33,,,,,,,,,,,,,,,,,,,,,,,,,,,,,,,,,,,,,,,,,,,,,,,,,,,,,,,,0,26,26,41,1,B,X,N,o2_image,stimuli/out2.png,stimuli/out1.png,stimuli/correct_out2.png,,,,,,,,,,,,,,,,,,,,,,,,,,,,,,,,,,,,,,
,,5f6f25a7fb739547ff9d6206,23,male,2024-04-24_12h31.49.392,stockport_simplified,2022.2.4,Win32,60.24096386,661e456ee6de07e70aa9ef7b,6628df820c3dc83b15b19c33,,,,,,,,,,,,,,,,,,,,,,,,,,,,,,,,,,343.533,345.865,"[2,5,3,6,7,4,1,8]","[[0.3,0.2],[-0.3,0.2]]","[[-0.125,-0.2],[0.125,-0.2]]",0.10555557,-0.190740727,1,0,0,1.8158,o2_image,345.8713,1,346.3648,346.3649,348.3641,0,0,0,0,1,,,,,,,,,,,,,,,,,,,,,,,,,,,,,,,,,,,,,,,,,,,,,,,,,,
,,5f6f25a7fb739547ff9d6206,23,male,2024-04-24_12h31.49.392,stockport_simplified,2022.2.4,Win32,60.24096386,661e456ee6de07e70aa9ef7b,6628df820c3dc83b15b19c33,,,,,,,,,,,,,,,,,,,,,,,,,,,,,,,,,,,,,,,,,,,,,,,,,,,,,,,,0,27,27,42,1,B,X,N,o2_image,stimuli/out2.png,stimuli/out1.png,stimuli/correct_out2.png,,,,,,,,,,,,,,,,,,,,,,,,,,,,,,,,,,,,,,
,,5f6f25a7fb739547ff9d6206,23,male,2024-04-24_12h31.49.392,stockport_simplified,2022.2.4,Win32,60.24096386,661e456ee6de07e70aa9ef7b,6628df820c3dc83b15b19c33,,,,,,,,,,,,,,,,,,,,,,,,,,,,,,,,,,348.3643,350.53,"[2,5,3,6,7,4,1,8]","[[-0.3,0.2],[0.3,0.2]]","[[-0.125,-0.2],[0.125,-0.2]]",-0.164814772,-0.165740755,1,0,0,1.649,o1_image,350.5303,1,351.0299,351.0299,353.0294,0,0,0,0,1,,,,,,,,,,,,,,,,,,,,,,,,,,,,,,,,,,,,,,,,,,,,,,,,,,
,,5f6f25a7fb739547ff9d6206,23,male,2024-04-24_12h31.49.392,stockport_simplified,2022.2.4,Win32,60.24096386,661e456ee6de07e70aa9ef7b,6628df820c3dc83b15b19c33,,,,,,,,,,,,,,,,,,,,,,,,,,,,,,,,,,,,,,,,,,,,,,,,,,,,,,,,0,28,28,4,1,A,X,N,o1_image,stimuli/out1.png,stimuli/correct_out1.png,stimuli/out2.png,,,,,,,,,,,,,,,,,,,,,,,,,,,,,,,,,,,,,,
,,5f6f25a7fb739547ff9d6206,23,male,2024-04-24_12h31.49.392,stockport_simplified,2022.2.4,Win32,60.24096386,661e456ee6de07e70aa9ef7b,6628df820c3dc83b15b19c33,,,,,,,,,,,,,,,,,,,,,,,,,,,,,,,,,,353.0296,354.6788,"[2,5,3,6,7,4,1,8]","[[0.3,0.2],[-0.3,0.2]]","[[0.125,-0.2],[-0.125,-0.2]]",0.126851894,-0.188888903,1,0,0,1.1327,o1_image,354.6793,1,355.1788,355.1788,357.1781,0,0,0,0,1,,,,,,,,,,,,,,,,,,,,,,,,,,,,,,,,,,,,,,,,,,,,,,,,,,
,,5f6f25a7fb739547ff9d6206,23,male,2024-04-24_12h31.49.392,stockport_simplified,2022.2.4,Win32,60.24096386,661e456ee6de07e70aa9ef7b,6628df820c3dc83b15b19c33,,,,,,,,,,,,,,,,,,,,,,,,,,,,,,,,,,,,,,,,,,,,,,,,,,,,,,,,0,29,29,9,1,A,Y,N,o1_image,stimuli/out1.png,stimuli/correct_out1.png,stimuli/out2.png,,,,,,,,,,,,,,,,,,,,,,,,,,,,,,,,,,,,,,
,,5f6f25a7fb739547ff9d6206,23,male,2024-04-24_12h31.49.392,stockport_simplified,2022.2.4,Win32,60.24096386,661e456ee6de07e70aa9ef7b,6628df820c3dc83b15b19c33,,,,,,,,,,,,,,,,,,,,,,,,,,,,,,,,,,357.1783,358.7941,"[2,5,3,6,7,4,1,8]","[[-0.3,0.2],[0.3,0.2]]","[[0.125,-0.2],[-0.125,-0.2]]",0.154629672,-0.148148148,1,0,0,1.0994,o1_image,358.7945,1,359.294,359.294,361.2931,0,0,0,0,1,,,,,,,,,,,,,,,,,,,,,,,,,,,,,,,,,,,,,,,,,,,,,,,,,,
,,5f6f25a7fb739547ff9d6206,23,male,2024-04-24_12h31.49.392,stockport_simplified,2022.2.4,Win32,60.24096386,661e456ee6de07e70aa9ef7b,6628df820c3dc83b15b19c33,,,,,,,,,,,,,,,,,,,,,,,,,,,,,,,,,,,,,,,,,,,,,,,,,,,,,,,,0,30,30,39,1,A,Y,N,o1_image,stimuli/out1.png,stimuli/correct_out1.png,stimuli/out2.png,,,,,,,,,,,,,,,,,,,,,,,,,,,,,,,,,,,,,,
,,5f6f25a7fb739547ff9d6206,23,male,2024-04-24_12h31.49.392,stockport_simplified,2022.2.4,Win32,60.24096386,661e456ee6de07e70aa9ef7b,6628df820c3dc83b15b19c33,,,,,,,,,,,,,,,,,,,,,,,,,,,,,,,,,,361.2933,362.8592,"[2,5,3,6,7,4,1,8]","[[-0.3,0.2],[0.3,0.2]]","[[0.125,-0.2],[-0.125,-0.2]]",0.10092594,-0.199074074,1,0,0,1.0491,o1_image,362.8596,1,363.3592,363.3592,365.3584,0,0,0,0,1,,,,,,,,,,,,,,,,,,,,,,,,,,,,,,,,,,,,,,,,,,,,,,,,,,
,,5f6f25a7fb739547ff9d6206,23,male,2024-04-24_12h31.49.392,stockport_simplified,2022.2.4,Win32,60.24096386,661e456ee6de07e70aa9ef7b,6628df820c3dc83b15b19c33,,,,,,,,,,,,,,,,,,,,,,,,,,,,,,,,,,,,,,,,,,,,,,,,,,,,,,,,0,31,31,33,1,A,X,N,o1_image,stimuli/out1.png,stimuli/correct_out1.png,stimuli/out2.png,,,,,,,,,,,,,,,,,,,,,,,,,,,,,,,,,,,,,,
,,5f6f25a7fb739547ff9d6206,23,male,2024-04-24_12h31.49.392,stockport_simplified,2022.2.4,Win32,60.24096386,661e456ee6de07e70aa9ef7b,6628df820c3dc83b15b19c33,,,,,,,,,,,,,,,,,,,,,,,,,,,,,,,,,,365.3587,366.6746,"[2,5,3,6,7,4,1,8]","[[-0.3,0.2],[0.3,0.2]]","[[0.125,-0.2],[-0.125,-0.2]]",0.119444459,-0.133333347,1,0,0,0.7995,o1_image,366.6749,1,367.1744,367.1745,369.1739,0,0,0,0,1,,,,,,,,,,,,,,,,,,,,,,,,,,,,,,,,,,,,,,,,,,,,,,,,,,
,,5f6f25a7fb739547ff9d6206,23,male,2024-04-24_12h31.49.392,stockport_simplified,2022.2.4,Win32,60.24096386,661e456ee6de07e70aa9ef7b,6628df820c3dc83b15b19c33,,,,,,,,,,,,,,,,,,,,,,,,,,,,,,,,,,,,,,,,,,,,,,,,,,,,,,,,0,32,32,5,1,A,Y,N,o1_image,stimuli/out1.png,stimuli/correct_out1.png,stimuli/out2.png,,,,,,,,,,,,,,,,,,,,,,,,,,,,,,,,,,,,,,
,,5f6f25a7fb739547ff9d6206,23,male,2024-04-24_12h31.49.392,stockport_simplified,2022.2.4,Win32,60.24096386,661e456ee6de07e70aa9ef7b,6628df820c3dc83b15b19c33,,,,,,,,,,,,,,,,,,,,,,,,,,,,,,,,,,369.1742,371.0733,"[2,5,3,6,7,4,1,8]","[[0.3,0.2],[-0.3,0.2]]","[[-0.125,-0.2],[0.125,-0.2]]",-0.133333347,-0.179629644,1,0,0,1.3827,o1_image,371.0737,1,371.573,371.573,373.5722,0,0,0,0,1,,,,,,,,,,,,,,,,,,,,,,,,,,,,,,,,,,,,,,,,,,,,,,,,,,
,,5f6f25a7fb739547ff9d6206,23,male,2024-04-24_12h31.49.392,stockport_simplified,2022.2.4,Win32,60.24096386,661e456ee6de07e70aa9ef7b,6628df820c3dc83b15b19c33,,,,,,,,,,,,,,,,,,,,,,,,,,,,,,,,,,,,,,,,,,,,,,,,,,,,,,,,0,33,33,1,1,A,X,N,o1_image,stimuli/out1.png,stimuli/correct_out1.png,stimuli/out2.png,,,,,,,,,,,,,,,,,,,,,,,,,,,,,,,,,,,,,,
,,5f6f25a7fb739547ff9d6206,23,male,2024-04-24_12h31.49.392,stockport_simplified,2022.2.4,Win32,60.24096386,661e456ee6de07e70aa9ef7b,6628df820c3dc83b15b19c33,,,,,,,,,,,,,,,,,,,,,,,,,,,,,,,,,,373.5724,375.2052,"[2,5,3,6,7,4,1,8]","[[0.3,0.2],[-0.3,0.2]]","[[-0.125,-0.2],[0.125,-0.2]]",0.14444443,-0.180555556,1,0,0,1.1161,o2_image,375.2058,0,375.7051,375.7051,377.7043,0,0,0,0,1,,,,,,,,,,,,,,,,,,,,,,,,,,,,,,,,,,,,,,,,,,,,,,,,,,
,,5f6f25a7fb739547ff9d6206,23,male,2024-04-24_12h31.49.392,stockport_simplified,2022.2.4,Win32,60.24096386,661e456ee6de07e70aa9ef7b,6628df820c3dc83b15b19c33,,,,,,,,,,,,,,,,,,,,,,,,,,,,,,,,,,,,,,,,,,,,,,,,,,,,,,,,0,34,34,51,1,N,M,C,o1_image,stimuli/out1.png,stimuli/correct_out1.png,stimuli/out2.png,,,,,,,,,,,,,,,,,,,,,,,,,,,,,,,,,,,,,,
,,5f6f25a7fb739547ff9d6206,23,male,2024-04-24_12h31.49.392,stockport_simplified,2022.2.4,Win32,60.24096386,661e456ee6de07e70aa9ef7b,6628df820c3dc83b15b19c33,,,,,,,,,,,,,,,,,,,,,,,,,,,,,,,,,,377.7045,379.6537,"[2,5,3,6,7,4,1,8]","[[0.3,0.2],[-0.3,0.2]]","[[-0.125,-0.2],[0.125,-0.2]]",0.119444459,-0.158333319,1,0,0,1.4328,o2_image,379.654,1,380.1535,380.1536,382.1529,0,0,0,0,1,,,,,,,,,,,,,,,,,,,,,,,,,,,,,,,,,,,,,,,,,,,,,,,,,,
,,5f6f25a7fb739547ff9d6206,23,male,2024-04-24_12h31.49.392,stockport_simplified,2022.2.4,Win32,60.24096386,661e456ee6de07e70aa9ef7b,6628df820c3dc83b15b19c33,,,,,,,,,,,,,,,,,,,,,,,,,,,,,,,,,,,,,,,,,,,,,,,,,,,,,,,,0,35,35,26,1,N,M,D,o2_image,stimuli/out2.png,stimuli/out1.png,stimuli/correct_out2.png,,,,,,,,,,,,,,,,,,,,,,,,,,,,,,,,,,,,,,
,,5f6f25a7fb739547ff9d6206,23,male,2024-04-24_12h31.49.392,stockport_simplified,2022.2.4,Win32,60.24096386,661e456ee6de07e70aa9ef7b,6628df820c3dc83b15b19c33,,,,,,,,,,,,,,,,,,,,,,,,,,,,,,,,,,382.1531,383.6524,"[2,5,3,6,7,4,1,8]","[[-0.3,0.2],[0.3,0.2]]","[[0.125,-0.2],[-0.125,-0.2]]",-0.134259259,-0.190740727,1,0,0,0.9827,o2_image,383.6527,1,384.1522,384.1522,386.1515,0,0,0,0,1,,,,,,,,,,,,,,,,,,,,,,,,,,,,,,,,,,,,,,,,,,,,,,,,,,
,,5f6f25a7fb739547ff9d6206,23,male,2024-04-24_12h31.49.392,stockport_simplified,2022.2.4,Win32,60.24096386,661e456ee6de07e70aa9ef7b,6628df820c3dc83b15b19c33,,,,,,,,,,,,,,,,,,,,,,,,,,,,,,,,,,,,,,,,,,,,,,,,,,,,,,,,0,36,36,56,1,N,M,D,o2_image,stimuli/out2.png,stimuli/out1.png,stimuli/correct_out2.png,,,,,,,,,,,,,,,,,,,,,,,,,,,,,,,,,,,,,,
,,5f6f25a7fb739547ff9d6206,23,male,2024-04-24_12h31.49.392,stockport_simplified,2022.2.4,Win32,60.24096386,661e456ee6de07e70aa9ef7b,6628df820c3dc83b15b19c33,,,,,,,,,,,,,,,,,,,,,,,,,,,,,,,,,,386.1517,387.5176,"[2,5,3,6,7,4,1,8]","[[-0.3,0.2],[0.3,0.2]]","[[0.125,-0.2],[-0.125,-0.2]]",-0.131481453,-0.15370369,1,0,0,0.8497,o2_image,387.5179,1,388.0177,388.0178,390.0167,0,0,0,0,1,,,,,,,,,,,,,,,,,,,,,,,,,,,,,,,,,,,,,,,,,,,,,,,,,,
,,5f6f25a7fb739547ff9d6206,23,male,2024-04-24_12h31.49.392,stockport_simplified,2022.2.4,Win32,60.24096386,661e456ee6de07e70aa9ef7b,6628df820c3dc83b15b19c33,,,,,,,,,,,,,,,,,,,,,,,,,,,,,,,,,,,,,,,,,,,,,,,,,,,,,,,,0,37,37,25,1,N,M,D,o2_image,stimuli/out2.png,stimuli/out1.png,stimuli/correct_out2.png,,,,,,,,,,,,,,,,,,,,,,,,,,,,,,,,,,,,,,
,,5f6f25a7fb739547ff9d6206,23,male,2024-04-24_12h31.49.392,stockport_simplified,2022.2.4,Win32,60.24096386,661e456ee6de07e70aa9ef7b,6628df820c3dc83b15b19c33,,,,,,,,,,,,,,,,,,,,,,,,,,,,,,,,,,390.017,393.149,"[2,5,3,6,7,4,1,8]","[[-0.3,0.2],[0.3,0.2]]","[[0.125,-0.2],[-0.125,-0.2]]",-0.106481481,-0.168518561,1,0,0,2.6153,o2_image,393.1493,1,393.649,393.649,395.6482,0,0,0,0,1,,,,,,,,,,,,,,,,,,,,,,,,,,,,,,,,,,,,,,,,,,,,,,,,,,
,,5f6f25a7fb739547ff9d6206,23,male,2024-04-24_12h31.49.392,stockport_simplified,2022.2.4,Win32,60.24096386,661e456ee6de07e70aa9ef7b,6628df820c3dc83b15b19c33,,,,,,,,,,,,,,,,,,,,,,,,,,,,,,,,,,,,,,,,,,,,,,,,,,,,,,,,0,38,38,46,1,B,Y,N,o2_image,stimuli/out2.png,stimuli/out1.png,stimuli/correct_out2.png,,,,,,,,,,,,,,,,,,,,,,,,,,,,,,,,,,,,,,
,,5f6f25a7fb739547ff9d6206,23,male,2024-04-24_12h31.49.392,stockport_simplified,2022.2.4,Win32,60.24096386,661e456ee6de07e70aa9ef7b,6628df820c3dc83b15b19c33,,,,,,,,,,,,,,,,,,,,,,,,,,,,,,,,,,395.6484,396.9645,"[2,5,3,6,7,4,1,8]","[[-0.3,0.2],[0.3,0.2]]","[[0.125,-0.2],[-0.125,-0.2]]",-0.094444416,-0.140740783,1,0,0,0.7998,o2_image,396.9647,1,397.4642,397.4642,399.4638,0,0,0,0,1,,,,,,,,,,,,,,,,,,,,,,,,,,,,,,,,,,,,,,,,,,,,,,,,,,
,,5f6f25a7fb739547ff9d6206,23,male,2024-04-24_12h31.49.392,stockport_simplified,2022.2.4,Win32,60.24096386,661e456ee6de07e70aa9ef7b,6628df820c3dc83b15b19c33,,,,,,,,,,,,,,,,,,,,,,,,,,,,,,,,,,,,,,,,,,,,,,,,,,,,,,,,0,39,39,47,1,B,Y,N,o2_image,stimuli/out2.png,stimuli/out1.png,stimuli/correct_out2.png,,,,,,,,,,,,,,,,,,,,,,,,,,,,,,,,,,,,,,
,,5f6f25a7fb739547ff9d6206,23,male,2024-04-24_12h31.49.392,stockport_simplified,2022.2.4,Win32,60.24096386,661e456ee6de07e70aa9ef7b,6628df820c3dc83b15b19c33,,,,,,,,,,,,,,,,,,,,,,,,,,,,,,,,,,399.4639,401.6127,"[2,5,3,6,7,4,1,8]","[[-0.3,0.2],[0.3,0.2]]","[[0.125,-0.2],[-0.125,-0.2]]",-0.112037023,-0.165740755,1,0,0,1.6322,o2_image,401.6131,1,402.1128,402.1128,404.112,0,0,0,0,1,,,,,,,,,,,,,,,,,,,,,,,,,,,,,,,,,,,,,,,,,,,,,,,,,,
,,5f6f25a7fb739547ff9d6206,23,male,2024-04-24_12h31.49.392,stockport_simplified,2022.2.4,Win32,60.24096386,661e456ee6de07e70aa9ef7b,6628df820c3dc83b15b19c33,,,,,,,,,,,,,,,,,,,,,,,,,,,,,,,,,,,,,,,,,,,,,,,,,,,,,,,,0,40,40,59,1,N,M,D,o2_image,stimuli/out2.png,stimuli/out1.png,stimuli/correct_out2.png,,,,,,,,,,,,,,,,,,,,,,,,,,,,,,,,,,,,,,
,,5f6f25a7fb739547ff9d6206,23,male,2024-04-24_12h31.49.392,stockport_simplified,2022.2.4,Win32,60.24096386,661e456ee6de07e70aa9ef7b,6628df820c3dc83b15b19c33,,,,,,,,,,,,,,,,,,,,,,,,,,,,,,,,,,404.1122,406.3279,"[2,5,3,6,7,4,1,8]","[[0.3,0.2],[-0.3,0.2]]","[[0.125,-0.2],[-0.125,-0.2]]",-0.138888889,-0.198148162,1,0,0,1.6991,o2_image,406.3282,1,406.8278,406.8278,408.8272,0,0,0,0,1,,,,,,,,,,,,,,,,,,,,,,,,,,,,,,,,,,,,,,,,,,,,,,,,,,
,,5f6f25a7fb739547ff9d6206,23,male,2024-04-24_12h31.49.392,stockport_simplified,2022.2.4,Win32,60.24096386,661e456ee6de07e70aa9ef7b,6628df820c3dc83b15b19c33,,,,,,,,,,,,,,,,,,,,,,,,,,,,,,,,,,,,,,,,,,,,,,,,,,,,,,,,0,41,41,13,1,B,X,N,o2_image,stimuli/out2.png,stimuli/out1.png,stimuli/correct_out2.png,,,,,,,,,,,,,,,,,,,,,,,,,,,,,,,,,,,,,,
,,5f6f25a7fb739547ff9d6206,23,male,2024-04-24_12h31.49.392,stockport_simplified,2022.2.4,Win32,60.24096386,661e456ee6de07e70aa9ef7b,6628df820c3dc83b15b19c33,,,,,,,,,,,,,,,,,,,,,,,,,,,,,,,,,,408.8274,412.7257,"[2,5,3,6,7,4,1,8]","[[0.3,0.2],[-0.3,0.2]]","[[0.125,-0.2],[-0.125,-0.2]]",-0.107407393,-0.14907406,1,0,0,3.3818,o2_image,412.732,1,413.2256,413.2256,415.2249,0,0,0,0,1,,,,,,,,,,,,,,,,,,,,,,,,,,,,,,,,,,,,,,,,,,,,,,,,,,
,,5f6f25a7fb739547ff9d6206,23,male,2024-04-24_12h31.49.392,stockport_simplified,2022.2.4,Win32,60.24096386,661e456ee6de07e70aa9ef7b,6628df820c3dc83b15b19c33,,,,,,,,,,,,,,,,,,,,,,,,,,,,,,,,,,,,,,,,,,,,,,,,,,,,,,,,0,42,42,58,1,N,M,D,o2_image,stimuli/out2.png,stimuli/out1.png,stimuli/correct_out2.png,,,,,,,,,,,,,,,,,,,,,,,,,,,,,,,,,,,,,,
,,5f6f25a7fb739547ff9d6206,23,male,2024-04-24_12h31.49.392,stockport_simplified,2022.2.4,Win32,60.24096386,661e456ee6de07e70aa9ef7b,6628df820c3dc83b15b19c33,,,,,,,,,,,,,,,,,,,,,,,,,,,,,,,,,,415.225,416.7743,"[2,5,3,6,7,4,1,8]","[[0.3,0.2],[-0.3,0.2]]","[[0.125,-0.2],[-0.125,-0.2]]",0.142592607,-0.175000014,1,0,0,1.0328,o1_image,416.7749,1,417.2744,417.2744,419.2735,0,0,0,0,1,,,,,,,,,,,,,,,,,,,,,,,,,,,,,,,,,,,,,,,,,,,,,,,,,,
,,5f6f25a7fb739547ff9d6206,23,male,2024-04-24_12h31.49.392,stockport_simplified,2022.2.4,Win32,60.24096386,661e456ee6de07e70aa9ef7b,6628df820c3dc83b15b19c33,,,,,,,,,,,,,,,,,,,,,,,,,,,,,,,,,,,,,,,,,,,,,,,,,,,,,,,,0,43,43,23,1,N,M,C,o1_image,stimuli/out1.png,stimuli/correct_out1.png,stimuli/out2.png,,,,,,,,,,,,,,,,,,,,,,,,,,,,,,,,,,,,,,
,,5f6f25a7fb739547ff9d6206,23,male,2024-04-24_12h31.49.392,stockport_simplified,2022.2.4,Win32,60.24096386,661e456ee6de07e70aa9ef7b,6628df820c3dc83b15b19c33,,,,,,,,,,,,,,,,,,,,,,,,,,,,,,,,,,419.2737,421.7393,"[2,5,3,6,7,4,1,8]","[[0.3,0.2],[-0.3,0.2]]","[[-0.125,-0.2],[0.125,-0.2]]",0.08148151,-0.142592607,1,0,0,1.9487,o2_image,421.7461,1,422.2393,422.2393,424.2385,0,0,0,0,1,,,,,,,,,,,,,,,,,,,,,,,,,,,,,,,,,,,,,,,,,,,,,,,,,,
,,5f6f25a7fb739547ff9d6206,23,male,2024-04-24_12h31.49.392,stockport_simplified,2022.2.4,Win32,60.24096386,661e456ee6de07e70aa9ef7b,6628df820c3dc83b15b19c33,,,,,,,,,,,,,,,,,,,,,,,,,,,,,,,,,,,,,,,,,,,,,,,,,,,,,,,,0,44,44,49,1,B,Y,N,o2_image,stimuli/out2.png,stimuli/out1.png,stimuli/correct_out2.png,,,,,,,,,,,,,,,,,,,,,,,,,,,,,,,,,,,,,,
,,5f6f25a7fb739547ff9d6206,23,male,2024-04-24_12h31.49.392,stockport_simplified,2022.2.4,Win32,60.24096386,661e456ee6de07e70aa9ef7b,6628df820c3dc83b15b19c33,,,,,,,,,,,,,,,,,,,,,,,,,,,,,,,,,,424.2387,426.0212,"[2,5,3,6,7,4,1,8]","[[0.3,0.2],[-0.3,0.2]]","[[-0.125,-0.2],[0.125,-0.2]]",-0.097222222,-0.133333347,1,0,0,1.2659,o1_image,426.0216,1,426.5212,426.5212,428.5205,0,0,0,0,1,,,,,,,,,,,,,,,,,,,,,,,,,,,,,,,,,,,,,,,,,,,,,,,,,,
,,5f6f25a7fb739547ff9d6206,23,male,2024-04-24_12h31.49.392,stockport_simplified,2022.2.4,Win32,60.24096386,661e456ee6de07e70aa9ef7b,6628df820c3dc83b15b19c33,,,,,,,,,,,,,,,,,,,,,,,,,,,,,,,,,,,,,,,,,,,,,,,,,,,,,,,,0,45,45,0,1,A,X,N,o1_image,stimuli/out1.png,stimuli/correct_out1.png,stimuli/out2.png,,,,,,,,,,,,,,,,,,,,,,,,,,,,,,,,,,,,,,
,,5f6f25a7fb739547ff9d6206,23,male,2024-04-24_12h31.49.392,stockport_simplified,2022.2.4,Win32,60.24096386,661e456ee6de07e70aa9ef7b,6628df820c3dc83b15b19c33,,,,,,,,,,,,,,,,,,,,,,,,,,,,,,,,,,428.5207,430.4365,"[2,5,3,6,7,4,1,8]","[[-0.3,0.2],[0.3,0.2]]","[[-0.125,-0.2],[0.125,-0.2]]",0.150000042,-0.155555584,1,0,0,1.3995,o2_image,430.4368,1,430.9364,430.9365,432.9357,0,0,0,0,1,,,,,,,,,,,,,,,,,,,,,,,,,,,,,,,,,,,,,,,,,,,,,,,,,,
,,5f6f25a7fb739547ff9d6206,23,male,2024-04-24_12h31.49.392,stockport_simplified,2022.2.4,Win32,60.24096386,661e456ee6de07e70aa9ef7b,6628df820c3dc83b15b19c33,,,,,,,,,,,,,,,,,,,,,,,,,,,,,,,,,,,,,,,,,,,,,,,,,,,,,,,,0,46,46,43,1,B,X,N,o2_image,stimuli/out2.png,stimuli/out1.png,stimuli/correct_out2.png,,,,,,,,,,,,,,,,,,,,,,,,,,,,,,,,,,,,,,
,,5f6f25a7fb739547ff9d6206,23,male,2024-04-24_12h31.49.392,stockport_simplified,2022.2.4,Win32,60.24096386,661e456ee6de07e70aa9ef7b,6628df820c3dc83b15b19c33,,,,,,,,,,,,,,,,,,,,,,,,,,,,,,,,,,432.9359,434.6684,"[2,5,3,6,7,4,1,8]","[[0.3,0.2],[-0.3,0.2]]","[[0.125,-0.2],[-0.125,-0.2]]",0.111111111,-0.133333347,1,0,0,1.2161,o1_image,434.6687,1,435.1683,435.1683,437.1676,0,0,0,0,1,,,,,,,,,,,,,,,,,,,,,,,,,,,,,,,,,,,,,,,,,,,,,,,,,,
,,5f6f25a7fb739547ff9d6206,23,male,2024-04-24_12h31.49.392,stockport_simplified,2022.2.4,Win32,60.24096386,661e456ee6de07e70aa9ef7b,6628df820c3dc83b15b19c33,,,,,,,,,,,,,,,,,,,,,,,,,,,,,,,,,,,,,,,,,,,,,,,,,,,,,,,,0,47,47,38,1,A,Y,N,o1_image,stimuli/out1.png,stimuli/correct_out1.png,stimuli/out2.png,,,,,,,,,,,,,,,,,,,,,,,,,,,,,,,,,,,,,,
,,5f6f25a7fb739547ff9d6206,23,male,2024-04-24_12h31.49.392,stockport_simplified,2022.2.4,Win32,60.24096386,661e456ee6de07e70aa9ef7b,6628df820c3dc83b15b19c33,,,,,,,,,,,,,,,,,,,,,,,,,,,,,,,,,,437.1678,439.1842,"[2,5,3,6,7,4,1,8]","[[-0.3,0.2],[0.3,0.2]]","[[-0.125,-0.2],[0.125,-0.2]]",0.112037023,-0.154629672,1,0,0,1.4997,o2_image,439.1854,1,439.6746,439.6746,441.6664,0,0,0,0,1,,,,,,,,,,,,,,,,,,,,,,,,,,,,,,,,,,,,,,,,,,,,,,,,,,
,,5f6f25a7fb739547ff9d6206,23,male,2024-04-24_12h31.49.392,stockport_simplified,2022.2.4,Win32,60.24096386,661e456ee6de07e70aa9ef7b,6628df820c3dc83b15b19c33,,,,,,,,,,,,,,,,,,,,,,,,,,,,,,,,,,,,,,,,,,,,,,,,,,,,,,,,0,48,48,29,1,N,M,D,o2_image,stimuli/out2.png,stimuli/out1.png,stimuli/correct_out2.png,,,,,,,,,,,,,,,,,,,,,,,,,,,,,,,,,,,,,,
,,5f6f25a7fb739547ff9d6206,23,male,2024-04-24_12h31.49.392,stockport_simplified,2022.2.4,Win32,60.24096386,661e456ee6de07e70aa9ef7b,6628df820c3dc83b15b19c33,,,,,,,,,,,,,,,,,,,,,,,,,,,,,,,,,,441.6669,443.4159,"[2,5,3,6,7,4,1,8]","[[-0.3,0.2],[0.3,0.2]]","[[0.125,-0.2],[-0.125,-0.2]]",-0.12962963,-0.132407436,1,0,0,1.2468,o2_image,443.4165,1,443.916,443.916,445.9154,0,0,0,0,1,,,,,,,,,,,,,,,,,,,,,,,,,,,,,,,,,,,,,,,,,,,,,,,,,,
,,5f6f25a7fb739547ff9d6206,23,male,2024-04-24_12h31.49.392,stockport_simplified,2022.2.4,Win32,60.24096386,661e456ee6de07e70aa9ef7b,6628df820c3dc83b15b19c33,,,,,,,,,,,,,,,,,,,,,,,,,,,,,,,,,,,,,,,,,,,,,,,,,,,,,,,,0,49,49,40,1,B,X,N,o2_image,stimuli/out2.png,stimuli/out1.png,stimuli/correct_out2.png,,,,,,,,,,,,,,,,,,,,,,,,,,,,,,,,,,,,,,
,,5f6f25a7fb739547ff9d6206,23,male,2024-04-24_12h31.49.392,stockport_simplified,2022.2.4,Win32,60.24096386,661e456ee6de07e70aa9ef7b,6628df820c3dc83b15b19c33,,,,,,,,,,,,,,,,,,,,,,,,,,,,,,,,,,445.9157,447.8476,"[2,5,3,6,7,4,1,8]","[[0.3,0.2],[-0.3,0.2]]","[[-0.125,-0.2],[0.125,-0.2]]",-0.162962949,-0.12037037,1,0,0,1.4158,o1_image,447.8483,1,448.3507,448.3508,450.347,0,0,0,0,1,,,,,,,,,,,,,,,,,,,,,,,,,,,,,,,,,,,,,,,,,,,,,,,,,,
,,5f6f25a7fb739547ff9d6206,23,male,2024-04-24_12h31.49.392,stockport_simplified,2022.2.4,Win32,60.24096386,661e456ee6de07e70aa9ef7b,6628df820c3dc83b15b19c33,,,,,,,,,,,,,,,,,,,,,,,,,,,,,,,,,,,,,,,,,,,,,,,,,,,,,,,,0,50,50,37,1,A,Y,N,o1_image,stimuli/out1.png,stimuli/correct_out1.png,stimuli/out2.png,,,,,,,,,,,,,,,,,,,,,,,,,,,,,,,,,,,,,,
,,5f6f25a7fb739547ff9d6206,23,male,2024-04-24_12h31.49.392,stockport_simplified,2022.2.4,Win32,60.24096386,661e456ee6de07e70aa9ef7b,6628df820c3dc83b15b19c33,,,,,,,,,,,,,,,,,,,,,,,,,,,,,,,,,,450.3476,452.3796,"[2,5,3,6,7,4,1,8]","[[0.3,0.2],[-0.3,0.2]]","[[-0.125,-0.2],[0.125,-0.2]]",-0.118518476,-0.142592607,1,0,0,1.5155,o1_image,452.3804,1,452.8796,452.8797,454.8785,0,0,0,0,1,,,,,,,,,,,,,,,,,,,,,,,,,,,,,,,,,,,,,,,,,,,,,,,,,,
,,5f6f25a7fb739547ff9d6206,23,male,2024-04-24_12h31.49.392,stockport_simplified,2022.2.4,Win32,60.24096386,661e456ee6de07e70aa9ef7b,6628df820c3dc83b15b19c33,,,,,,,,,,,,,,,,,,,,,,,,,,,,,,,,,,,,,,,,,,,,,,,,,,,,,,,,0,51,51,21,1,N,M,C,o1_image,stimuli/out1.png,stimuli/correct_out1.png,stimuli/out2.png,,,,,,,,,,,,,,,,,,,,,,,,,,,,,,,,,,,,,,
,,5f6f25a7fb739547ff9d6206,23,male,2024-04-24_12h31.49.392,stockport_simplified,2022.2.4,Win32,60.24096386,661e456ee6de07e70aa9ef7b,6628df820c3dc83b15b19c33,,,,,,,,,,,,,,,,,,,,,,,,,,,,,,,,,,454.8791,456.7779,"[2,5,3,6,7,4,1,8]","[[-0.3,0.2],[0.3,0.2]]","[[-0.125,-0.2],[0.125,-0.2]]",-0.122222194,-0.172222208,1,0,0,1.3819,o1_image,456.7787,1,457.281,457.281,459.2768,0,0,0,0,1,,,,,,,,,,,,,,,,,,,,,,,,,,,,,,,,,,,,,,,,,,,,,,,,,,
,,5f6f25a7fb739547ff9d6206,23,male,2024-04-24_12h31.49.392,stockport_simplified,2022.2.4,Win32,60.24096386,661e456ee6de07e70aa9ef7b,6628df820c3dc83b15b19c33,,,,,,,,,,,,,,,,,,,,,,,,,,,,,,,,,,,,,,,,,,,,,,,,,,,,,,,,0,52,52,36,1,A,Y,N,o1_image,stimuli/out1.png,stimuli/correct_out1.png,stimuli/out2.png,,,,,,,,,,,,,,,,,,,,,,,,,,,,,,,,,,,,,,
,,5f6f25a7fb739547ff9d6206,23,male,2024-04-24_12h31.49.392,stockport_simplified,2022.2.4,Win32,60.24096386,661e456ee6de07e70aa9ef7b,6628df820c3dc83b15b19c33,,,,,,,,,,,,,,,,,,,,,,,,,,,,,,,,,,459.2773,461.9761,"[2,5,3,6,7,4,1,8]","[[0.3,0.2],[-0.3,0.2]]","[[-0.125,-0.2],[0.125,-0.2]]",0.101851852,-0.162037037,1,0,0,2.182,o2_image,461.9827,1,462.4794,462.4794,464.4754,0,0,0,0,1,,,,,,,,,,,,,,,,,,,,,,,,,,,,,,,,,,,,,,,,,,,,,,,,,,
,,5f6f25a7fb739547ff9d6206,23,male,2024-04-24_12h31.49.392,stockport_simplified,2022.2.4,Win32,60.24096386,661e456ee6de07e70aa9ef7b,6628df820c3dc83b15b19c33,,,,,,,,,,,,,,,,,,,,,,,,,,,,,,,,,,,,,,,,,,,,,,,,,,,,,,,,0,53,53,48,1,B,Y,N,o2_image,stimuli/out2.png,stimuli/out1.png,stimuli/correct_out2.png,,,,,,,,,,,,,,,,,,,,,,,,,,,,,,,,,,,,,,
,,5f6f25a7fb739547ff9d6206,23,male,2024-04-24_12h31.49.392,stockport_simplified,2022.2.4,Win32,60.24096386,661e456ee6de07e70aa9ef7b,6628df820c3dc83b15b19c33,,,,,,,,,,,,,,,,,,,,,,,,,,,,,,,,,,464.4759,467.6742,"[2,5,3,6,7,4,1,8]","[[-0.3,0.2],[0.3,0.2]]","[[-0.125,-0.2],[0.125,-0.2]]",0.12962963,-0.155555584,1,0,0,2.6816,o2_image,467.6751,1,468.1743,468.1744,470.1733,0,0,0,0,1,,,,,,,,,,,,,,,,,,,,,,,,,,,,,,,,,,,,,,,,,,,,,,,,,,
,,5f6f25a7fb739547ff9d6206,23,male,2024-04-24_12h31.49.392,stockport_simplified,2022.2.4,Win32,60.24096386,661e456ee6de07e70aa9ef7b,6628df820c3dc83b15b19c33,,,,,,,,,,,,,,,,,,,,,,,,,,,,,,,,,,,,,,,,,,,,,,,,,,,,,,,,0,54,54,27,1,N,M,D,o2_image,stimuli/out2.png,stimuli/out1.png,stimuli/correct_out2.png,,,,,,,,,,,,,,,,,,,,,,,,,,,,,,,,,,,,,,
,,5f6f25a7fb739547ff9d6206,23,male,2024-04-24_12h31.49.392,stockport_simplified,2022.2.4,Win32,60.24096386,661e456ee6de07e70aa9ef7b,6628df820c3dc83b15b19c33,,,,,,,,,,,,,,,,,,,,,,,,,,,,,,,,,,470.1739,471.7393,"[2,5,3,6,7,4,1,8]","[[0.3,0.2],[-0.3,0.2]]","[[-0.125,-0.2],[0.125,-0.2]]",-0.157407407,-0.175000014,1,0,0,1.0488,o1_image,471.7402,1,472.2426,472.2426,474.2389,0,0,0,0,1,,,,,,,,,,,,,,,,,,,,,,,,,,,,,,,,,,,,,,,,,,,,,,,,,,
,,5f6f25a7fb739547ff9d6206,23,male,2024-04-24_12h31.49.392,stockport_simplified,2022.2.4,Win32,60.24096386,661e456ee6de07e70aa9ef7b,6628df820c3dc83b15b19c33,,,,,,,,,,,,,,,,,,,,,,,,,,,,,,,,,,,,,,,,,,,,,,,,,,,,,,,,0,55,55,54,1,N,M,C,o1_image,stimuli/out1.png,stimuli/correct_out1.png,stimuli/out2.png,,,,,,,,,,,,,,,,,,,,,,,,,,,,,,,,,,,,,,
,,5f6f25a7fb739547ff9d6206,23,male,2024-04-24_12h31.49.392,stockport_simplified,2022.2.4,Win32,60.24096386,661e456ee6de07e70aa9ef7b,6628df820c3dc83b15b19c33,,,,,,,,,,,,,,,,,,,,,,,,,,,,,,,,,,474.2394,476.1881,"[2,5,3,6,7,4,1,8]","[[-0.3,0.2],[0.3,0.2]]","[[-0.125,-0.2],[0.125,-0.2]]",0.088888875,-0.138888889,1,0,0,1.4321,o2_image,476.1891,1,476.6911,476.6911,478.6871,0,0,0,0,1,,,,,,,,,,,,,,,,,,,,,,,,,,,,,,,,,,,,,,,,,,,,,,,,,,
,,5f6f25a7fb739547ff9d6206,23,male,2024-04-24_12h31.49.392,stockport_simplified,2022.2.4,Win32,60.24096386,661e456ee6de07e70aa9ef7b,6628df820c3dc83b15b19c33,,,,,,,,,,,,,,,,,,,,,,,,,,,,,,,,,,,,,,,,,,,,,,,,,,,,,,,,0,56,56,17,1,B,Y,N,o2_image,stimuli/out2.png,stimuli/out1.png,stimuli/correct_out2.png,,,,,,,,,,,,,,,,,,,,,,,,,,,,,,,,,,,,,,
,,5f6f25a7fb739547ff9d6206,23,male,2024-04-24_12h31.49.392,stockport_simplified,2022.2.4,Win32,60.24096386,661e456ee6de07e70aa9ef7b,6628df820c3dc83b15b19c33,,,,,,,,,,,,,,,,,,,,,,,,,,,,,,,,,,478.6877,480.5697,"[2,5,3,6,7,4,1,8]","[[0.3,0.2],[-0.3,0.2]]","[[-0.125,-0.2],[0.125,-0.2]]",-0.12037037,-0.12037037,1,0,0,1.3654,o1_image,480.5706,1,481.0701,481.0701,483.0685,0,0,0,0,1,,,,,,,,,,,,,,,,,,,,,,,,,,,,,,,,,,,,,,,,,,,,,,,,,,
,,5f6f25a7fb739547ff9d6206,23,male,2024-04-24_12h31.49.392,stockport_simplified,2022.2.4,Win32,60.24096386,661e456ee6de07e70aa9ef7b,6628df820c3dc83b15b19c33,,,,,,,,,,,,,,,,,,,,,,,,,,,,,,,,,,,,,,,,,,,,,,,,,,,,,,,,0,57,57,52,1,N,M,C,o1_image,stimuli/out1.png,stimuli/correct_out1.png,stimuli/out2.png,,,,,,,,,,,,,,,,,,,,,,,,,,,,,,,,,,,,,,
,,5f6f25a7fb739547ff9d6206,23,male,2024-04-24_12h31.49.392,stockport_simplified,2022.2.4,Win32,60.24096386,661e456ee6de07e70aa9ef7b,6628df820c3dc83b15b19c33,,,,,,,,,,,,,,,,,,,,,,,,,,,,,,,,,,483.0687,485.0681,"[2,5,3,6,7,4,1,8]","[[0.3,0.2],[-0.3,0.2]]","[[-0.125,-0.2],[0.125,-0.2]]",0.084259245,-0.116666653,1,0,0,1.4827,o2_image,485.0683,1,485.5679,485.568,487.5672,0,0,0,0,1,,,,,,,,,,,,,,,,,,,,,,,,,,,,,,,,,,,,,,,,,,,,,,,,,,
,,5f6f25a7fb739547ff9d6206,23,male,2024-04-24_12h31.49.392,stockport_simplified,2022.2.4,Win32,60.24096386,661e456ee6de07e70aa9ef7b,6628df820c3dc83b15b19c33,,,,,,,,,,,,,,,,,,,,,,,,,,,,,,,,,,,,,,,,,,,,,,,,,,,,,,,,0,58,58,44,1,B,X,N,o2_image,stimuli/out2.png,stimuli/out1.png,stimuli/correct_out2.png,,,,,,,,,,,,,,,,,,,,,,,,,,,,,,,,,,,,,,
,,5f6f25a7fb739547ff9d6206,23,male,2024-04-24_12h31.49.392,stockport_simplified,2022.2.4,Win32,60.24096386,661e456ee6de07e70aa9ef7b,6628df820c3dc83b15b19c33,,,,,,,,,,,,,,,,,,,,,,,,,,,,,,,,,,487.5673,489.6664,"[2,5,3,6,7,4,1,8]","[[-0.3,0.2],[0.3,0.2]]","[[0.125,-0.2],[-0.125,-0.2]]",-0.112037023,-0.152777778,1,0,0,1.5826,o2_image,489.6667,1,490.1664,490.1664,492.1656,0,0,0,0,1,,,,,,,,,,,,,,,,,,,,,,,,,,,,,,,,,,,,,,,,,,,,,,,,,,
,,5f6f25a7fb739547ff9d6206,23,male,2024-04-24_12h31.49.392,stockport_simplified,2022.2.4,Win32,60.24096386,661e456ee6de07e70aa9ef7b,6628df820c3dc83b15b19c33,,,,,,,,,,,,,,,,,,,,,,,,,,,,,,,,,,,,,,,,,,,,,,,,,,,,,,,,0,59,59,57,1,N,M,D,o2_image,stimuli/out2.png,stimuli/out1.png,stimuli/correct_out2.png,,,,,,,,,,,,,,,,,,,,,,,,,,,,,,,,,,,,,,
,,5f6f25a7fb739547ff9d6206,23,male,2024-04-24_12h31.49.392,stockport_simplified,2022.2.4,Win32,60.24096386,661e456ee6de07e70aa9ef7b,6628df820c3dc83b15b19c33,,,,,,,,,,,,,,,,,,,,,,,,,,,,,,,,,,492.1659,494.0317,"[2,5,3,6,7,4,1,8]","[[0.3,0.2],[-0.3,0.2]]","[[-0.125,-0.2],[0.125,-0.2]]",-0.147222236,-0.112963005,1,0,0,1.3493,o1_image,494.0321,1,494.5316,494.5316,496.5307,0,0,0,0,1,,,,,,,,,,,,,,,,,,,,,,,,,,,,,,,,,,,,,,,,,,,,,,,,,,
,,5f6f25a7fb739547ff9d6206,23,male,2024-04-24_12h31.49.392,stockport_simplified,2022.2.4,Win32,60.24096386,661e456ee6de07e70aa9ef7b,6628df820c3dc83b15b19c33,,,,,,,,,,,,,,,,,,,,,,,,,,,,,,,,,,,,,,,,,,,,,,,,,,,,,,,,1,0,60,35,1,A,Y,N,o1_image,stimuli/out1.png,stimuli/correct_out1.png,stimuli/out2.png,,,,,,,,,,,,,,,,,,,,,,,,,,,,,,,,,,,,,,
,,5f6f25a7fb739547ff9d6206,23,male,2024-04-24_12h31.49.392,stockport_simplified,2022.2.4,Win32,60.24096386,661e456ee6de07e70aa9ef7b,6628df820c3dc83b15b19c33,,,,,,,,,,,,,,,,,,,,,,,,,,,,,,,,,,496.5309,498.3135,"[2,5,3,6,7,4,1,8]","[[-0.3,0.2],[0.3,0.2]]","[[0.125,-0.2],[-0.125,-0.2]]",0.099074116,-0.138888889,1,0,0,1.2659,o1_image,498.3138,1,498.8134,498.8134,500.8125,0,0,0,0,1,,,,,,,,,,,,,,,,,,,,,,,,,,,,,,,,,,,,,,,,,,,,,,,,,,
,,5f6f25a7fb739547ff9d6206,23,male,2024-04-24_12h31.49.392,stockport_simplified,2022.2.4,Win32,60.24096386,661e456ee6de07e70aa9ef7b,6628df820c3dc83b15b19c33,,,,,,,,,,,,,,,,,,,,,,,,,,,,,,,,,,,,,,,,,,,,,,,,,,,,,,,,1,1,61,20,1,N,M,C,o1_image,stimuli/out1.png,stimuli/correct_out1.png,stimuli/out2.png,,,,,,,,,,,,,,,,,,,,,,,,,,,,,,,,,,,,,,
,,5f6f25a7fb739547ff9d6206,23,male,2024-04-24_12h31.49.392,stockport_simplified,2022.2.4,Win32,60.24096386,661e456ee6de07e70aa9ef7b,6628df820c3dc83b15b19c33,,,,,,,,,,,,,,,,,,,,,,,,,,,,,,,,,,500.8128,502.3287,"[2,5,3,6,7,4,1,8]","[[0.3,0.2],[-0.3,0.2]]","[[-0.125,-0.2],[0.125,-0.2]]",-0.115740741,-0.159259302,1,0,0,0.9995,o1_image,502.329,1,502.8286,502.8286,504.8281,0,0,0,0,1,,,,,,,,,,,,,,,,,,,,,,,,,,,,,,,,,,,,,,,,,,,,,,,,,,
,,5f6f25a7fb739547ff9d6206,23,male,2024-04-24_12h31.49.392,stockport_simplified,2022.2.4,Win32,60.24096386,661e456ee6de07e70aa9ef7b,6628df820c3dc83b15b19c33,,,,,,,,,,,,,,,,,,,,,,,,,,,,,,,,,,,,,,,,,,,,,,,,,,,,,,,,1,2,62,23,1,N,M,C,o1_image,stimuli/out1.png,stimuli/correct_out1.png,stimuli/out2.png,,,,,,,,,,,,,,,,,,,,,,,,,,,,,,,,,,,,,,
,,5f6f25a7fb739547ff9d6206,23,male,2024-04-24_12h31.49.392,stockport_simplified,2022.2.4,Win32,60.24096386,661e456ee6de07e70aa9ef7b,6628df820c3dc83b15b19c33,,,,,,,,,,,,,,,,,,,,,,,,,,,,,,,,,,504.8283,506.5275,"[2,5,3,6,7,4,1,8]","[[-0.3,0.2],[0.3,0.2]]","[[-0.125,-0.2],[0.125,-0.2]]",0.101851852,-0.122222265,1,0,0,1.1828,o2_image,506.5278,1,507.0271,507.0271,509.0266,0,0,0,0,1,,,,,,,,,,,,,,,,,,,,,,,,,,,,,,,,,,,,,,,,,,,,,,,,,,
,,5f6f25a7fb739547ff9d6206,23,male,2024-04-24_12h31.49.392,stockport_simplified,2022.2.4,Win32,60.24096386,661e456ee6de07e70aa9ef7b,6628df820c3dc83b15b19c33,,,,,,,,,,,,,,,,,,,,,,,,,,,,,,,,,,,,,,,,,,,,,,,,,,,,,,,,1,3,63,44,1,B,X,N,o2_image,stimuli/out2.png,stimuli/out1.png,stimuli/correct_out2.png,,,,,,,,,,,,,,,,,,,,,,,,,,,,,,,,,,,,,,
,,5f6f25a7fb739547ff9d6206,23,male,2024-04-24_12h31.49.392,stockport_simplified,2022.2.4,Win32,60.24096386,661e456ee6de07e70aa9ef7b,6628df820c3dc83b15b19c33,,,,,,,,,,,,,,,,,,,,,,,,,,,,,,,,,,509.0268,510.7592,"[2,5,3,6,7,4,1,8]","[[-0.3,0.2],[0.3,0.2]]","[[0.125,-0.2],[-0.125,-0.2]]",-0.10092594,-0.161111125,1,0,0,1.216,o2_image,510.7596,1,511.2593,511.2593,513.2585,0,0,0,0,1,,,,,,,,,,,,,,,,,,,,,,,,,,,,,,,,,,,,,,,,,,,,,,,,,,
,,5f6f25a7fb739547ff9d6206,23,male,2024-04-24_12h31.49.392,stockport_simplified,2022.2.4,Win32,60.24096386,661e456ee6de07e70aa9ef7b,6628df820c3dc83b15b19c33,,,,,,,,,,,,,,,,,,,,,,,,,,,,,,,,,,,,,,,,,,,,,,,,,,,,,,,,1,4,64,10,1,B,X,N,o2_image,stimuli/out2.png,stimuli/out1.png,stimuli/correct_out2.png,,,,,,,,,,,,,,,,,,,,,,,,,,,,,,,,,,,,,,
,,5f6f25a7fb739547ff9d6206,23,male,2024-04-24_12h31.49.392,stockport_simplified,2022.2.4,Win32,60.24096386,661e456ee6de07e70aa9ef7b,6628df820c3dc83b15b19c33,,,,,,,,,,,,,,,,,,,,,,,,,,,,,,,,,,513.2587,515.1079,"[2,5,3,6,7,4,1,8]","[[0.3,0.2],[-0.3,0.2]]","[[-0.125,-0.2],[0.125,-0.2]]",-0.101851852,-0.138888889,1,0,0,1.3328,o1_image,515.1082,1,515.6074,515.6074,517.6067,0,0,0,0,1,,,,,,,,,,,,,,,,,,,,,,,,,,,,,,,,,,,,,,,,,,,,,,,,,,
,,5f6f25a7fb739547ff9d6206,23,male,2024-04-24_12h31.49.392,stockport_simplified,2022.2.4,Win32,60.24096386,661e456ee6de07e70aa9ef7b,6628df820c3dc83b15b19c33,,,,,,,,,,,,,,,,,,,,,,,,,,,,,,,,,,,,,,,,,,,,,,,,,,,,,,,,1,5,65,24,1,N,M,C,o1_image,stimuli/out1.png,stimuli/correct_out1.png,stimuli/out2.png,,,,,,,,,,,,,,,,,,,,,,,,,,,,,,,,,,,,,,
,,5f6f25a7fb739547ff9d6206,23,male,2024-04-24_12h31.49.392,stockport_simplified,2022.2.4,Win32,60.24096386,661e456ee6de07e70aa9ef7b,6628df820c3dc83b15b19c33,,,,,,,,,,,,,,,,,,,,,,,,,,,,,,,,,,517.6069,519.2563,"[2,5,3,6,7,4,1,8]","[[-0.3,0.2],[0.3,0.2]]","[[-0.125,-0.2],[0.125,-0.2]]",-0.135185171,-0.135185171,1,0,0,1.1326,o1_image,519.2566,1,519.7563,519.7563,521.7555,0,0,0,0,1,,,,,,,,,,,,,,,,,,,,,,,,,,,,,,,,,,,,,,,,,,,,,,,,,,
,,5f6f25a7fb739547ff9d6206,23,male,2024-04-24_12h31.49.392,stockport_simplified,2022.2.4,Win32,60.24096386,661e456ee6de07e70aa9ef7b,6628df820c3dc83b15b19c33,,,,,,,,,,,,,,,,,,,,,,,,,,,,,,,,,,,,,,,,,,,,,,,,,,,,,,,,1,6,66,36,1,A,Y,N,o1_image,stimuli/out1.png,stimuli/correct_out1.png,stimuli/out2.png,,,,,,,,,,,,,,,,,,,,,,,,,,,,,,,,,,,,,,
,,5f6f25a7fb739547ff9d6206,23,male,2024-04-24_12h31.49.392,stockport_simplified,2022.2.4,Win32,60.24096386,661e456ee6de07e70aa9ef7b,6628df820c3dc83b15b19c33,,,,,,,,,,,,,,,,,,,,,,,,,,,,,,,,,,521.7557,523.7214,"[2,5,3,6,7,4,1,8]","[[0.3,0.2],[-0.3,0.2]]","[[0.125,-0.2],[-0.125,-0.2]]",-0.151851866,-0.163888931,1,0,0,1.4491,o2_image,523.7218,1,524.2215,524.2215,526.2207,0,0,0,0,1,,,,,,,,,,,,,,,,,,,,,,,,,,,,,,,,,,,,,,,,,,,,,,,,,,
,,5f6f25a7fb739547ff9d6206,23,male,2024-04-24_12h31.49.392,stockport_simplified,2022.2.4,Win32,60.24096386,661e456ee6de07e70aa9ef7b,6628df820c3dc83b15b19c33,,,,,,,,,,,,,,,,,,,,,,,,,,,,,,,,,,,,,,,,,,,,,,,,,,,,,,,,1,7,67,43,1,B,X,N,o2_image,stimuli/out2.png,stimuli/out1.png,stimuli/correct_out2.png,,,,,,,,,,,,,,,,,,,,,,,,,,,,,,,,,,,,,,
,,5f6f25a7fb739547ff9d6206,23,male,2024-04-24_12h31.49.392,stockport_simplified,2022.2.4,Win32,60.24096386,661e456ee6de07e70aa9ef7b,6628df820c3dc83b15b19c33,,,,,,,,,,,,,,,,,,,,,,,,,,,,,,,,,,526.2208,528.1869,"[2,5,3,6,7,4,1,8]","[[-0.3,0.2],[0.3,0.2]]","[[0.125,-0.2],[-0.125,-0.2]]",-0.124074088,-0.137962977,1,0,0,1.4492,o2_image,528.1871,1,528.6871,528.6872,530.6861,0,0,0,0,1,,,,,,,,,,,,,,,,,,,,,,,,,,,,,,,,,,,,,,,,,,,,,,,,,,
,,5f6f25a7fb739547ff9d6206,23,male,2024-04-24_12h31.49.392,stockport_simplified,2022.2.4,Win32,60.24096386,661e456ee6de07e70aa9ef7b,6628df820c3dc83b15b19c33,,,,,,,,,,,,,,,,,,,,,,,,,,,,,,,,,,,,,,,,,,,,,,,,,,,,,,,,1,8,68,29,1,N,M,D,o2_image,stimuli/out2.png,stimuli/out1.png,stimuli/correct_out2.png,,,,,,,,,,,,,,,,,,,,,,,,,,,,,,,,,,,,,,
,,5f6f25a7fb739547ff9d6206,23,male,2024-04-24_12h31.49.392,stockport_simplified,2022.2.4,Win32,60.24096386,661e456ee6de07e70aa9ef7b,6628df820c3dc83b15b19c33,,,,,,,,,,,,,,,,,,,,,,,,,,,,,,,,,,530.6866,532.369,"[2,5,3,6,7,4,1,8]","[[-0.3,0.2],[0.3,0.2]]","[[-0.125,-0.2],[0.125,-0.2]]",-0.127777735,-0.119444459,1,0,0,1.1656,o1_image,532.3698,1,532.8721,532.8721,534.8684,0,0,0,0,1,,,,,,,,,,,,,,,,,,,,,,,,,,,,,,,,,,,,,,,,,,,,,,,,,,
,,5f6f25a7fb739547ff9d6206,23,male,2024-04-24_12h31.49.392,stockport_simplified,2022.2.4,Win32,60.24096386,661e456ee6de07e70aa9ef7b,6628df820c3dc83b15b19c33,,,,,,,,,,,,,,,,,,,,,,,,,,,,,,,,,,,,,,,,,,,,,,,,,,,,,,,,1,9,69,32,1,A,X,N,o1_image,stimuli/out1.png,stimuli/correct_out1.png,stimuli/out2.png,,,,,,,,,,,,,,,,,,,,,,,,,,,,,,,,,,,,,,
,,5f6f25a7fb739547ff9d6206,23,male,2024-04-24_12h31.49.392,stockport_simplified,2022.2.4,Win32,60.24096386,661e456ee6de07e70aa9ef7b,6628df820c3dc83b15b19c33,,,,,,,,,,,,,,,,,,,,,,,,,,,,,,,,,,534.8689,536.3707,"[2,5,3,6,7,4,1,8]","[[-0.3,0.2],[0.3,0.2]]","[[0.125,-0.2],[-0.125,-0.2]]",-0.118518476,-0.150925954,1,0,0,0.9858,o2_image,536.3711,1,536.8705,536.8706,538.867,0,0,0,0,1,,,,,,,,,,,,,,,,,,,,,,,,,,,,,,,,,,,,,,,,,,,,,,,,,,
,,5f6f25a7fb739547ff9d6206,23,male,2024-04-24_12h31.49.392,stockport_simplified,2022.2.4,Win32,60.24096386,661e456ee6de07e70aa9ef7b,6628df820c3dc83b15b19c33,,,,,,,,,,,,,,,,,,,,,,,,,,,,,,,,,,,,,,,,,,,,,,,,,,,,,,,,1,10,70,12,1,B,X,N,o2_image,stimuli/out2.png,stimuli/out1.png,stimuli/correct_out2.png,,,,,,,,,,,,,,,,,,,,,,,,,,,,,,,,,,,,,,
,,5f6f25a7fb739547ff9d6206,23,male,2024-04-24_12h31.49.392,stockport_simplified,2022.2.4,Win32,60.24096386,661e456ee6de07e70aa9ef7b,6628df820c3dc83b15b19c33,,,,,,,,,,,,,,,,,,,,,,,,,,,,,,,,,,538.8675,540.4159,"[2,5,3,6,7,4,1,8]","[[-0.3,0.2],[0.3,0.2]]","[[0.125,-0.2],[-0.125,-0.2]]",-0.113888847,-0.152777778,1,0,0,1.0318,o2_image,540.4169,1,540.916,540.9161,542.9154,0,0,0,0,1,,,,,,,,,,,,,,,,,,,,,,,,,,,,,,,,,,,,,,,,,,,,,,,,,,
,,5f6f25a7fb739547ff9d6206,23,male,2024-04-24_12h31.49.392,stockport_simplified,2022.2.4,Win32,60.24096386,661e456ee6de07e70aa9ef7b,6628df820c3dc83b15b19c33,,,,,,,,,,,,,,,,,,,,,,,,,,,,,,,,,,,,,,,,,,,,,,,,,,,,,,,,1,11,71,55,1,N,M,D,o2_image,stimuli/out2.png,stimuli/out1.png,stimuli/correct_out2.png,,,,,,,,,,,,,,,,,,,,,,,,,,,,,,,,,,,,,,
,,5f6f25a7fb739547ff9d6206,23,male,2024-04-24_12h31.49.392,stockport_simplified,2022.2.4,Win32,60.24096386,661e456ee6de07e70aa9ef7b,6628df820c3dc83b15b19c33,,,,,,,,,,,,,,,,,,,,,,,,,,,,,,,,,,542.9158,544.7316,"[2,5,3,6,7,4,1,8]","[[-0.3,0.2],[0.3,0.2]]","[[0.125,-0.2],[-0.125,-0.2]]",0.114814829,-0.130555541,1,0,0,1.2988,o1_image,544.7324,1,545.2312,545.2312,547.2311,0,0,0,0,1,,,,,,,,,,,,,,,,,,,,,,,,,,,,,,,,,,,,,,,,,,,,,,,,,,
,,5f6f25a7fb739547ff9d6206,23,male,2024-04-24_12h31.49.392,stockport_simplified,2022.2.4,Win32,60.24096386,661e456ee6de07e70aa9ef7b,6628df820c3dc83b15b19c33,,,,,,,,,,,,,,,,,,,,,,,,,,,,,,,,,,,,,,,,,,,,,,,,,,,,,,,,1,12,72,0,1,A,X,N,o1_image,stimuli/out1.png,stimuli/correct_out1.png,stimuli/out2.png,,,,,,,,,,,,,,,,,,,,,,,,,,,,,,,,,,,,,,
,,5f6f25a7fb739547ff9d6206,23,male,2024-04-24_12h31.49.392,stockport_simplified,2022.2.4,Win32,60.24096386,661e456ee6de07e70aa9ef7b,6628df820c3dc83b15b19c33,,,,,,,,,,,,,,,,,,,,,,,,,,,,,,,,,,547.2316,548.9336,"[2,5,3,6,7,4,1,8]","[[-0.3,0.2],[0.3,0.2]]","[[0.125,-0.2],[-0.125,-0.2]]",0.12962963,-0.137962977,1,0,0,1.1864,o1_image,548.9339,1,549.4302,549.4303,551.4292,0,0,0,0,1,,,,,,,,,,,,,,,,,,,,,,,,,,,,,,,,,,,,,,,,,,,,,,,,,,
,,5f6f25a7fb739547ff9d6206,23,male,2024-04-24_12h31.49.392,stockport_simplified,2022.2.4,Win32,60.24096386,661e456ee6de07e70aa9ef7b,6628df820c3dc83b15b19c33,,,,,,,,,,,,,,,,,,,,,,,,,,,,,,,,,,,,,,,,,,,,,,,,,,,,,,,,1,13,73,30,1,A,X,N,o1_image,stimuli/out1.png,stimuli/correct_out1.png,stimuli/out2.png,,,,,,,,,,,,,,,,,,,,,,,,,,,,,,,,,,,,,,
,,5f6f25a7fb739547ff9d6206,23,male,2024-04-24_12h31.49.392,stockport_simplified,2022.2.4,Win32,60.24096386,661e456ee6de07e70aa9ef7b,6628df820c3dc83b15b19c33,,,,,,,,,,,,,,,,,,,,,,,,,,,,,,,,,,551.4302,552.7122,"[2,5,3,6,7,4,1,8]","[[-0.3,0.2],[0.3,0.2]]","[[0.125,-0.2],[-0.125,-0.2]]",0.12962963,-0.18240745,1,0,0,0.7662,o1_image,552.713,1,553.2122,553.2123,555.2112,0,0,0,0,1,,,,,,,,,,,,,,,,,,,,,,,,,,,,,,,,,,,,,,,,,,,,,,,,,,
,,5f6f25a7fb739547ff9d6206,23,male,2024-04-24_12h31.49.392,stockport_simplified,2022.2.4,Win32,60.24096386,661e456ee6de07e70aa9ef7b,6628df820c3dc83b15b19c33,,,,,,,,,,,,,,,,,,,,,,,,,,,,,,,,,,,,,,,,,,,,,,,,,,,,,,,,1,14,74,2,1,A,X,N,o1_image,stimuli/out1.png,stimuli/correct_out1.png,stimuli/out2.png,,,,,,,,,,,,,,,,,,,,,,,,,,,,,,,,,,,,,,
,,5f6f25a7fb739547ff9d6206,23,male,2024-04-24_12h31.49.392,stockport_simplified,2022.2.4,Win32,60.24096386,661e456ee6de07e70aa9ef7b,6628df820c3dc83b15b19c33,,,,,,,,,,,,,,,,,,,,,,,,,,,,,,,,,,555.2118,557.0471,"[2,5,3,6,7,4,1,8]","[[0.3,0.2],[-0.3,0.2]]","[[-0.125,-0.2],[0.125,-0.2]]",-0.123148106,-0.158333319,1,0,0,1.3184,o1_image,557.0474,1,557.5472,557.5472,559.5439,0,0,0,0,1,,,,,,,,,,,,,,,,,,,,,,,,,,,,,,,,,,,,,,,,,,,,,,,,,,
,,5f6f25a7fb739547ff9d6206,23,male,2024-04-24_12h31.49.392,stockport_simplified,2022.2.4,Win32,60.24096386,661e456ee6de07e70aa9ef7b,6628df820c3dc83b15b19c33,,,,,,,,,,,,,,,,,,,,,,,,,,,,,,,,,,,,,,,,,,,,,,,,,,,,,,,,1,15,75,53,1,N,M,C,o1_image,stimuli/out1.png,stimuli/correct_out1.png,stimuli/out2.png,,,,,,,,,,,,,,,,,,,,,,,,,,,,,,,,,,,,,,
,,5f6f25a7fb739547ff9d6206,23,male,2024-04-24_12h31.49.392,stockport_simplified,2022.2.4,Win32,60.24096386,661e456ee6de07e70aa9ef7b,6628df820c3dc83b15b19c33,,,,,,,,,,,,,,,,,,,,,,,,,,,,,,,,,,559.5443,560.9959,"[2,5,3,6,7,4,1,8]","[[0.3,0.2],[-0.3,0.2]]","[[-0.125,-0.2],[0.125,-0.2]]",0.134259259,-0.19722225,1,0,0,0.9359,o2_image,560.9963,1,561.493,561.4931,563.492,0,0,0,0,1,,,,,,,,,,,,,,,,,,,,,,,,,,,,,,,,,,,,,,,,,,,,,,,,,,
,,5f6f25a7fb739547ff9d6206,23,male,2024-04-24_12h31.49.392,stockport_simplified,2022.2.4,Win32,60.24096386,661e456ee6de07e70aa9ef7b,6628df820c3dc83b15b19c33,,,,,,,,,,,,,,,,,,,,,,,,,,,,,,,,,,,,,,,,,,,,,,,,,,,,,,,,1,16,76,28,1,N,M,D,o2_image,stimuli/out2.png,stimuli/out1.png,stimuli/correct_out2.png,,,,,,,,,,,,,,,,,,,,,,,,,,,,,,,,,,,,,,
,,5f6f25a7fb739547ff9d6206,23,male,2024-04-24_12h31.49.392,stockport_simplified,2022.2.4,Win32,60.24096386,661e456ee6de07e70aa9ef7b,6628df820c3dc83b15b19c33,,,,,,,,,,,,,,,,,,,,,,,,,,,,,,,,,,563.4925,564.8912,"[2,5,3,6,7,4,1,8]","[[-0.3,0.2],[0.3,0.2]]","[[-0.125,-0.2],[0.125,-0.2]]",-0.121296282,-0.125925912,1,0,0,0.8801,o1_image,564.8921,1,565.3911,565.3911,567.3905,0,0,0,0,1,,,,,,,,,,,,,,,,,,,,,,,,,,,,,,,,,,,,,,,,,,,,,,,,,,
,,5f6f25a7fb739547ff9d6206,23,male,2024-04-24_12h31.49.392,stockport_simplified,2022.2.4,Win32,60.24096386,661e456ee6de07e70aa9ef7b,6628df820c3dc83b15b19c33,,,,,,,,,,,,,,,,,,,,,,,,,,,,,,,,,,,,,,,,,,,,,,,,,,,,,,,,1,17,77,54,1,N,M,C,o1_image,stimuli/out1.png,stimuli/correct_out1.png,stimuli/out2.png,,,,,,,,,,,,,,,,,,,,,,,,,,,,,,,,,,,,,,
,,5f6f25a7fb739547ff9d6206,23,male,2024-04-24_12h31.49.392,stockport_simplified,2022.2.4,Win32,60.24096386,661e456ee6de07e70aa9ef7b,6628df820c3dc83b15b19c33,,,,,,,,,,,,,,,,,,,,,,,,,,,,,,,,,,567.3912,568.7602,"[2,5,3,6,7,4,1,8]","[[0.3,0.2],[-0.3,0.2]]","[[-0.125,-0.2],[0.125,-0.2]]",-0.134259259,-0.140740783,1,0,0,0.8532,o1_image,568.7606,1,569.2597,569.2597,571.259,0,0,0,0,1,,,,,,,,,,,,,,,,,,,,,,,,,,,,,,,,,,,,,,,,,,,,,,,,,,
,,5f6f25a7fb739547ff9d6206,23,male,2024-04-24_12h31.49.392,stockport_simplified,2022.2.4,Win32,60.24096386,661e456ee6de07e70aa9ef7b,6628df820c3dc83b15b19c33,,,,,,,,,,,,,,,,,,,,,,,,,,,,,,,,,,,,,,,,,,,,,,,,,,,,,,,,1,18,78,51,1,N,M,C,o1_image,stimuli/out1.png,stimuli/correct_out1.png,stimuli/out2.png,,,,,,,,,,,,,,,,,,,,,,,,,,,,,,,,,,,,,,
,,5f6f25a7fb739547ff9d6206,23,male,2024-04-24_12h31.49.392,stockport_simplified,2022.2.4,Win32,60.24096386,661e456ee6de07e70aa9ef7b,6628df820c3dc83b15b19c33,,,,,,,,,,,,,,,,,,,,,,,,,,,,,,,,,,571.2592,572.8421,"[2,5,3,6,7,4,1,8]","[[-0.3,0.2],[0.3,0.2]]","[[0.125,-0.2],[-0.125,-0.2]]",-0.160185143,-0.157407407,1,0,0,1.0693,o2_image,572.8424,1,573.3389,573.339,575.3379,0,0,0,0,1,,,,,,,,,,,,,,,,,,,,,,,,,,,,,,,,,,,,,,,,,,,,,,,,,,
,,5f6f25a7fb739547ff9d6206,23,male,2024-04-24_12h31.49.392,stockport_simplified,2022.2.4,Win32,60.24096386,661e456ee6de07e70aa9ef7b,6628df820c3dc83b15b19c33,,,,,,,,,,,,,,,,,,,,,,,,,,,,,,,,,,,,,,,,,,,,,,,,,,,,,,,,1,19,79,25,1,N,M,D,o2_image,stimuli/out2.png,stimuli/out1.png,stimuli/correct_out2.png,,,,,,,,,,,,,,,,,,,,,,,,,,,,,,,,,,,,,,
,,5f6f25a7fb739547ff9d6206,23,male,2024-04-24_12h31.49.392,stockport_simplified,2022.2.4,Win32,60.24096386,661e456ee6de07e70aa9ef7b,6628df820c3dc83b15b19c33,,,,,,,,,,,,,,,,,,,,,,,,,,,,,,,,,,575.3385,577.8703,"[2,5,3,6,7,4,1,8]","[[0.3,0.2],[-0.3,0.2]]","[[0.125,-0.2],[-0.125,-0.2]]",-0.140740712,-0.090740734,1,0,0,1.6155,o2_image,577.8711,1,578.3708,578.3708,580.3727,0,0,0,0,1,,,,,,,,,,,,,,,,,,,,,,,,,,,,,,,,,,,,,,,,,,,,,,,,,,
,,5f6f25a7fb739547ff9d6206,23,male,2024-04-24_12h31.49.392,stockport_simplified,2022.2.4,Win32,60.24096386,661e456ee6de07e70aa9ef7b,6628df820c3dc83b15b19c33,,,,,,,,,,,,,,,,,,,,,,,,,,,,,,,,,,,,,,,,,,,,,,,,,,,,,,,,1,20,80,17,1,B,Y,N,o2_image,stimuli/out2.png,stimuli/out1.png,stimuli/correct_out2.png,,,,,,,,,,,,,,,,,,,,,,,,,,,,,,,,,,,,,,
,,5f6f25a7fb739547ff9d6206,23,male,2024-04-24_12h31.49.392,stockport_simplified,2022.2.4,Win32,60.24096386,661e456ee6de07e70aa9ef7b,6628df820c3dc83b15b19c33,,,,,,,,,,,,,,,,,,,,,,,,,,,,,,,,,,580.373,581.9223,"[2,5,3,6,7,4,1,8]","[[-0.3,0.2],[0.3,0.2]]","[[-0.125,-0.2],[0.125,-0.2]]",-0.10555557,-0.158333319,1,0,0,1.0358,o1_image,581.9226,1,582.4219,582.4219,584.4181,0,0,0,0,1,,,,,,,,,,,,,,,,,,,,,,,,,,,,,,,,,,,,,,,,,,,,,,,,,,
,,5f6f25a7fb739547ff9d6206,23,male,2024-04-24_12h31.49.392,stockport_simplified,2022.2.4,Win32,60.24096386,661e456ee6de07e70aa9ef7b,6628df820c3dc83b15b19c33,,,,,,,,,,,,,,,,,,,,,,,,,,,,,,,,,,,,,,,,,,,,,,,,,,,,,,,,1,21,81,50,1,N,M,C,o1_image,stimuli/out1.png,stimuli/correct_out1.png,stimuli/out2.png,,,,,,,,,,,,,,,,,,,,,,,,,,,,,,,,,,,,,,
,,5f6f25a7fb739547ff9d6206,23,male,2024-04-24_12h31.49.392,stockport_simplified,2022.2.4,Win32,60.24096386,661e456ee6de07e70aa9ef7b,6628df820c3dc83b15b19c33,,,,,,,,,,,,,,,,,,,,,,,,,,,,,,,,,,584.4186,586.3707,"[2,5,3,6,7,4,1,8]","[[-0.3,0.2],[0.3,0.2]]","[[-0.125,-0.2],[0.125,-0.2]]",0.115740741,-0.150925954,1,0,0,1.4357,o2_image,586.371,1,586.8704,586.8704,588.8666,0,0,0,0,1,,,,,,,,,,,,,,,,,,,,,,,,,,,,,,,,,,,,,,,,,,,,,,,,,,
,,5f6f25a7fb739547ff9d6206,23,male,2024-04-24_12h31.49.392,stockport_simplified,2022.2.4,Win32,60.24096386,661e456ee6de07e70aa9ef7b,6628df820c3dc83b15b19c33,,,,,,,,,,,,,,,,,,,,,,,,,,,,,,,,,,,,,,,,,,,,,,,,,,,,,,,,1,22,82,48,1,B,Y,N,o2_image,stimuli/out2.png,stimuli/out1.png,stimuli/correct_out2.png,,,,,,,,,,,,,,,,,,,,,,,,,,,,,,,,,,,,,,
,,5f6f25a7fb739547ff9d6206,23,male,2024-04-24_12h31.49.392,stockport_simplified,2022.2.4,Win32,60.24096386,661e456ee6de07e70aa9ef7b,6628df820c3dc83b15b19c33,,,,,,,,,,,,,,,,,,,,,,,,,,,,,,,,,,588.8671,590.7691,"[2,5,3,6,7,4,1,8]","[[0.3,0.2],[-0.3,0.2]]","[[0.125,-0.2],[-0.125,-0.2]]",0.133333347,-0.131481524,1,0,0,1.3858,o1_image,590.771,1,591.2661,591.2663,593.2648,0,0,0,0,1,,,,,,,,,,,,,,,,,,,,,,,,,,,,,,,,,,,,,,,,,,,,,,,,,,
,,5f6f25a7fb739547ff9d6206,23,male,2024-04-24_12h31.49.392,stockport_simplified,2022.2.4,Win32,60.24096386,661e456ee6de07e70aa9ef7b,6628df820c3dc83b15b19c33,,,,,,,,,,,,,,,,,,,,,,,,,,,,,,,,,,,,,,,,,,,,,,,,,,,,,,,,1,23,83,6,1,A,Y,N,o1_image,stimuli/out1.png,stimuli/correct_out1.png,stimuli/out2.png,,,,,,,,,,,,,,,,,,,,,,,,,,,,,,,,,,,,,,
,,5f6f25a7fb739547ff9d6206,23,male,2024-04-24_12h31.49.392,stockport_simplified,2022.2.4,Win32,60.24096386,661e456ee6de07e70aa9ef7b,6628df820c3dc83b15b19c33,,,,,,,,,,,,,,,,,,,,,,,,,,,,,,,,,,593.2649,595.1475,"[2,5,3,6,7,4,1,8]","[[0.3,0.2],[-0.3,0.2]]","[[-0.125,-0.2],[0.125,-0.2]]",0.116666653,-0.154629672,1,0,0,1.3662,o2_image,595.1479,1,595.6473,595.6473,597.6466,0,0,0,0,1,,,,,,,,,,,,,,,,,,,,,,,,,,,,,,,,,,,,,,,,,,,,,,,,,,
,,5f6f25a7fb739547ff9d6206,23,male,2024-04-24_12h31.49.392,stockport_simplified,2022.2.4,Win32,60.24096386,661e456ee6de07e70aa9ef7b,6628df820c3dc83b15b19c33,,,,,,,,,,,,,,,,,,,,,,,,,,,,,,,,,,,,,,,,,,,,,,,,,,,,,,,,1,24,84,14,1,B,X,N,o2_image,stimuli/out2.png,stimuli/out1.png,stimuli/correct_out2.png,,,,,,,,,,,,,,,,,,,,,,,,,,,,,,,,,,,,,,
,,5f6f25a7fb739547ff9d6206,23,male,2024-04-24_12h31.49.392,stockport_simplified,2022.2.4,Win32,60.24096386,661e456ee6de07e70aa9ef7b,6628df820c3dc83b15b19c33,,,,,,,,,,,,,,,,,,,,,,,,,,,,,,,,,,597.6468,599.5126,"[2,5,3,6,7,4,1,8]","[[0.3,0.2],[-0.3,0.2]]","[[-0.125,-0.2],[0.125,-0.2]]",0.107407393,-0.189814815,1,0,0,1.3495,o2_image,599.513,1,600.0126,600.0126,602.0119,0,0,0,0,1,,,,,,,,,,,,,,,,,,,,,,,,,,,,,,,,,,,,,,,,,,,,,,,,,,
,,5f6f25a7fb739547ff9d6206,23,male,2024-04-24_12h31.49.392,stockport_simplified,2022.2.4,Win32,60.24096386,661e456ee6de07e70aa9ef7b,6628df820c3dc83b15b19c33,,,,,,,,,,,,,,,,,,,,,,,,,,,,,,,,,,,,,,,,,,,,,,,,,,,,,,,,1,25,85,41,1,B,X,N,o2_image,stimuli/out2.png,stimuli/out1.png,stimuli/correct_out2.png,,,,,,,,,,,,,,,,,,,,,,,,,,,,,,,,,,,,,,
,,5f6f25a7fb739547ff9d6206,23,male,2024-04-24_12h31.49.392,stockport_simplified,2022.2.4,Win32,60.24096386,661e456ee6de07e70aa9ef7b,6628df820c3dc83b15b19c33,,,,,,,,,,,,,,,,,,,,,,,,,,,,,,,,,,602.0122,603.8611,"[2,5,3,6,7,4,1,8]","[[-0.3,0.2],[0.3,0.2]]","[[0.125,-0.2],[-0.125,-0.2]]",0.166666667,-0.158333319,1,0,0,1.3326,o1_image,603.8614,1,604.3609,604.3609,606.3603,0,0,0,0,1,,,,,,,,,,,,,,,,,,,,,,,,,,,,,,,,,,,,,,,,,,,,,,,,,,
,,5f6f25a7fb739547ff9d6206,23,male,2024-04-24_12h31.49.392,stockport_simplified,2022.2.4,Win32,60.24096386,661e456ee6de07e70aa9ef7b,6628df820c3dc83b15b19c33,,,,,,,,,,,,,,,,,,,,,,,,,,,,,,,,,,,,,,,,,,,,,,,,,,,,,,,,1,26,86,7,1,A,Y,N,o1_image,stimuli/out1.png,stimuli/correct_out1.png,stimuli/out2.png,,,,,,,,,,,,,,,,,,,,,,,,,,,,,,,,,,,,,,
,,5f6f25a7fb739547ff9d6206,23,male,2024-04-24_12h31.49.392,stockport_simplified,2022.2.4,Win32,60.24096386,661e456ee6de07e70aa9ef7b,6628df820c3dc83b15b19c33,,,,,,,,,,,,,,,,,,,,,,,,,,,,,,,,,,606.3606,608.3265,"[2,5,3,6,7,4,1,8]","[[0.3,0.2],[-0.3,0.2]]","[[0.125,-0.2],[-0.125,-0.2]]",-0.133333347,-0.152777778,1,0,0,1.4495,o2_image,608.3269,1,608.8263,608.8263,610.8255,0,0,0,0,1,,,,,,,,,,,,,,,,,,,,,,,,,,,,,,,,,,,,,,,,,,,,,,,,,,
,,5f6f25a7fb739547ff9d6206,23,male,2024-04-24_12h31.49.392,stockport_simplified,2022.2.4,Win32,60.24096386,661e456ee6de07e70aa9ef7b,6628df820c3dc83b15b19c33,,,,,,,,,,,,,,,,,,,,,,,,,,,,,,,,,,,,,,,,,,,,,,,,,,,,,,,,1,27,87,57,1,N,M,D,o2_image,stimuli/out2.png,stimuli/out1.png,stimuli/correct_out2.png,,,,,,,,,,,,,,,,,,,,,,,,,,,,,,,,,,,,,,
,,5f6f25a7fb739547ff9d6206,23,male,2024-04-24_12h31.49.392,stockport_simplified,2022.2.4,Win32,60.24096386,661e456ee6de07e70aa9ef7b,6628df820c3dc83b15b19c33,,,,,,,,,,,,,,,,,,,,,,,,,,,,,,,,,,610.8257,613.4747,"[2,5,3,6,7,4,1,8]","[[-0.3,0.2],[0.3,0.2]]","[[-0.125,-0.2],[0.125,-0.2]]",0.150000042,-0.159259302,1,0,0,2.1326,o2_image,613.475,1,613.9745,613.9745,615.9739,0,0,0,0,1,,,,,,,,,,,,,,,,,,,,,,,,,,,,,,,,,,,,,,,,,,,,,,,,,,
,,5f6f25a7fb739547ff9d6206,23,male,2024-04-24_12h31.49.392,stockport_simplified,2022.2.4,Win32,60.24096386,661e456ee6de07e70aa9ef7b,6628df820c3dc83b15b19c33,,,,,,,,,,,,,,,,,,,,,,,,,,,,,,,,,,,,,,,,,,,,,,,,,,,,,,,,1,28,88,18,1,B,Y,N,o2_image,stimuli/out2.png,stimuli/out1.png,stimuli/correct_out2.png,,,,,,,,,,,,,,,,,,,,,,,,,,,,,,,,,,,,,,
,,5f6f25a7fb739547ff9d6206,23,male,2024-04-24_12h31.49.392,stockport_simplified,2022.2.4,Win32,60.24096386,661e456ee6de07e70aa9ef7b,6628df820c3dc83b15b19c33,,,,,,,,,,,,,,,,,,,,,,,,,,,,,,,,,,615.974,617.7565,"[2,5,3,6,7,4,1,8]","[[0.3,0.2],[-0.3,0.2]]","[[0.125,-0.2],[-0.125,-0.2]]",0.136111153,-0.14444443,1,0,0,1.266,o1_image,617.7568,1,618.2564,618.2564,620.2557,0,0,0,0,1,,,,,,,,,,,,,,,,,,,,,,,,,,,,,,,,,,,,,,,,,,,,,,,,,,
,,5f6f25a7fb739547ff9d6206,23,male,2024-04-24_12h31.49.392,stockport_simplified,2022.2.4,Win32,60.24096386,661e456ee6de07e70aa9ef7b,6628df820c3dc83b15b19c33,,,,,,,,,,,,,,,,,,,,,,,,,,,,,,,,,,,,,,,,,,,,,,,,,,,,,,,,1,29,89,4,1,A,X,N,o1_image,stimuli/out1.png,stimuli/correct_out1.png,stimuli/out2.png,,,,,,,,,,,,,,,,,,,,,,,,,,,,,,,,,,,,,,
,,5f6f25a7fb739547ff9d6206,23,male,2024-04-24_12h31.49.392,stockport_simplified,2022.2.4,Win32,60.24096386,661e456ee6de07e70aa9ef7b,6628df820c3dc83b15b19c33,,,,,,,,,,,,,,,,,,,,,,,,,,,,,,,,,,620.2559,621.705,"[2,5,3,6,7,4,1,8]","[[-0.3,0.2],[0.3,0.2]]","[[-0.125,-0.2],[0.125,-0.2]]",-0.132407365,-0.130555541,1,0,0,0.9329,o1_image,621.7053,1,622.2049,622.205,624.2044,0,0,0,0,1,,,,,,,,,,,,,,,,,,,,,,,,,,,,,,,,,,,,,,,,,,,,,,,,,,
,,5f6f25a7fb739547ff9d6206,23,male,2024-04-24_12h31.49.392,stockport_simplified,2022.2.4,Win32,60.24096386,661e456ee6de07e70aa9ef7b,6628df820c3dc83b15b19c33,,,,,,,,,,,,,,,,,,,,,,,,,,,,,,,,,,,,,,,,,,,,,,,,,,,,,,,,1,30,90,8,1,A,Y,N,o1_image,stimuli/out1.png,stimuli/correct_out1.png,stimuli/out2.png,,,,,,,,,,,,,,,,,,,,,,,,,,,,,,,,,,,,,,
,,5f6f25a7fb739547ff9d6206,23,male,2024-04-24_12h31.49.392,stockport_simplified,2022.2.4,Win32,60.24096386,661e456ee6de07e70aa9ef7b,6628df820c3dc83b15b19c33,,,,,,,,,,,,,,,,,,,,,,,,,,,,,,,,,,624.2045,626.4367,"[2,5,3,6,7,4,1,8]","[[0.3,0.2],[-0.3,0.2]]","[[0.125,-0.2],[-0.125,-0.2]]",-0.114814829,-0.139814801,1,0,0,1.7157,o2_image,626.437,1,626.9367,626.9367,628.936,0,0,0,0,1,,,,,,,,,,,,,,,,,,,,,,,,,,,,,,,,,,,,,,,,,,,,,,,,,,
,,5f6f25a7fb739547ff9d6206,23,male,2024-04-24_12h31.49.392,stockport_simplified,2022.2.4,Win32,60.24096386,661e456ee6de07e70aa9ef7b,6628df820c3dc83b15b19c33,,,,,,,,,,,,,,,,,,,,,,,,,,,,,,,,,,,,,,,,,,,,,,,,,,,,,,,,1,31,91,27,1,N,M,D,o2_image,stimuli/out2.png,stimuli/out1.png,stimuli/correct_out2.png,,,,,,,,,,,,,,,,,,,,,,,,,,,,,,,,,,,,,,
,,5f6f25a7fb739547ff9d6206,23,male,2024-04-24_12h31.49.392,stockport_simplified,2022.2.4,Win32,60.24096386,661e456ee6de07e70aa9ef7b,6628df820c3dc83b15b19c33,,,,,,,,,,,,,,,,,,,,,,,,,,,,,,,,,,628.9361,630.3688,"[2,5,3,6,7,4,1,8]","[[0.3,0.2],[-0.3,0.2]]","[[-0.125,-0.2],[0.125,-0.2]]",-0.151851866,-0.154629672,1,0,0,0.9162,o1_image,630.369,1,630.8687,630.8687,632.8681,0,0,0,0,1,,,,,,,,,,,,,,,,,,,,,,,,,,,,,,,,,,,,,,,,,,,,,,,,,,
,,5f6f25a7fb739547ff9d6206,23,male,2024-04-24_12h31.49.392,stockport_simplified,2022.2.4,Win32,60.24096386,661e456ee6de07e70aa9ef7b,6628df820c3dc83b15b19c33,,,,,,,,,,,,,,,,,,,,,,,,,,,,,,,,,,,,,,,,,,,,,,,,,,,,,,,,1,32,92,52,1,N,M,C,o1_image,stimuli/out1.png,stimuli/correct_out1.png,stimuli/out2.png,,,,,,,,,,,,,,,,,,,,,,,,,,,,,,,,,,,,,,
,,5f6f25a7fb739547ff9d6206,23,male,2024-04-24_12h31.49.392,stockport_simplified,2022.2.4,Win32,60.24096386,661e456ee6de07e70aa9ef7b,6628df820c3dc83b15b19c33,,,,,,,,,,,,,,,,,,,,,,,,,,,,,,,,,,632.8683,634.8675,"[2,5,3,6,7,4,1,8]","[[0.3,0.2],[-0.3,0.2]]","[[0.125,-0.2],[-0.125,-0.2]]",-0.174074032,-0.123148176,1,0,0,1.4825,o2_image,634.8678,1,635.3685,635.3685,637.3667,0,0,0,0,1,,,,,,,,,,,,,,,,,,,,,,,,,,,,,,,,,,,,,,,,,,,,,,,,,,
,,5f6f25a7fb739547ff9d6206,23,male,2024-04-24_12h31.49.392,stockport_simplified,2022.2.4,Win32,60.24096386,661e456ee6de07e70aa9ef7b,6628df820c3dc83b15b19c33,,,,,,,,,,,,,,,,,,,,,,,,,,,,,,,,,,,,,,,,,,,,,,,,,,,,,,,,1,33,93,49,1,B,Y,N,o2_image,stimuli/out2.png,stimuli/out1.png,stimuli/correct_out2.png,,,,,,,,,,,,,,,,,,,,,,,,,,,,,,,,,,,,,,
,,5f6f25a7fb739547ff9d6206,23,male,2024-04-24_12h31.49.392,stockport_simplified,2022.2.4,Win32,60.24096386,661e456ee6de07e70aa9ef7b,6628df820c3dc83b15b19c33,,,,,,,,,,,,,,,,,,,,,,,,,,,,,,,,,,637.3669,638.8661,"[2,5,3,6,7,4,1,8]","[[-0.3,0.2],[0.3,0.2]]","[[0.125,-0.2],[-0.125,-0.2]]",0.088888875,-0.137037065,1,0,0,0.9828,o1_image,638.8663,1,639.366,639.366,641.3651,0,0,0,0,1,,,,,,,,,,,,,,,,,,,,,,,,,,,,,,,,,,,,,,,,,,,,,,,,,,
,,5f6f25a7fb739547ff9d6206,23,male,2024-04-24_12h31.49.392,stockport_simplified,2022.2.4,Win32,60.24096386,661e456ee6de07e70aa9ef7b,6628df820c3dc83b15b19c33,,,,,,,,,,,,,,,,,,,,,,,,,,,,,,,,,,,,,,,,,,,,,,,,,,,,,,,,1,34,94,5,1,A,Y,N,o1_image,stimuli/out1.png,stimuli/correct_out1.png,stimuli/out2.png,,,,,,,,,,,,,,,,,,,,,,,,,,,,,,,,,,,,,,
,,5f6f25a7fb739547ff9d6206,23,male,2024-04-24_12h31.49.392,stockport_simplified,2022.2.4,Win32,60.24096386,661e456ee6de07e70aa9ef7b,6628df820c3dc83b15b19c33,,,,,,,,,,,,,,,,,,,,,,,,,,,,,,,,,,641.3652,643.2171,"[2,5,3,6,7,4,1,8]","[[0.3,0.2],[-0.3,0.2]]","[[0.125,-0.2],[-0.125,-0.2]]",0.131481524,-0.131481524,1,0,0,1.3352,o1_image,643.2177,1,643.7144,643.7144,645.7138,0,0,0,0,1,,,,,,,,,,,,,,,,,,,,,,,,,,,,,,,,,,,,,,,,,,,,,,,,,,
,,5f6f25a7fb739547ff9d6206,23,male,2024-04-24_12h31.49.392,stockport_simplified,2022.2.4,Win32,60.24096386,661e456ee6de07e70aa9ef7b,6628df820c3dc83b15b19c33,,,,,,,,,,,,,,,,,,,,,,,,,,,,,,,,,,,,,,,,,,,,,,,,,,,,,,,,1,35,95,3,1,A,X,N,o1_image,stimuli/out1.png,stimuli/correct_out1.png,stimuli/out2.png,,,,,,,,,,,,,,,,,,,,,,,,,,,,,,,,,,,,,,
,,5f6f25a7fb739547ff9d6206,23,male,2024-04-24_12h31.49.392,stockport_simplified,2022.2.4,Win32,60.24096386,661e456ee6de07e70aa9ef7b,6628df820c3dc83b15b19c33,,,,,,,,,,,,,,,,,,,,,,,,,,,,,,,,,,645.714,647.3299,"[2,5,3,6,7,4,1,8]","[[-0.3,0.2],[0.3,0.2]]","[[-0.125,-0.2],[0.125,-0.2]]",0.124074088,-0.159259302,1,0,0,1.0992,o2_image,647.3302,1,647.8297,647.8297,649.8291,0,0,0,0,1,,,,,,,,,,,,,,,,,,,,,,,,,,,,,,,,,,,,,,,,,,,,,,,,,,
,,5f6f25a7fb739547ff9d6206,23,male,2024-04-24_12h31.49.392,stockport_simplified,2022.2.4,Win32,60.24096386,661e456ee6de07e70aa9ef7b,6628df820c3dc83b15b19c33,,,,,,,,,,,,,,,,,,,,,,,,,,,,,,,,,,,,,,,,,,,,,,,,,,,,,,,,1,36,96,56,1,N,M,D,o2_image,stimuli/out2.png,stimuli/out1.png,stimuli/correct_out2.png,,,,,,,,,,,,,,,,,,,,,,,,,,,,,,,,,,,,,,
,,5f6f25a7fb739547ff9d6206,23,male,2024-04-24_12h31.49.392,stockport_simplified,2022.2.4,Win32,60.24096386,661e456ee6de07e70aa9ef7b,6628df820c3dc83b15b19c33,,,,,,,,,,,,,,,,,,,,,,,,,,,,,,,,,,649.8298,651.762,"[2,5,3,6,7,4,1,8]","[[-0.3,0.2],[0.3,0.2]]","[[0.125,-0.2],[-0.125,-0.2]]",-0.151851866,-0.143518519,1,0,0,1.4156,o2_image,651.7628,1,652.2648,652.2648,654.261,0,0,0,0,1,,,,,,,,,,,,,,,,,,,,,,,,,,,,,,,,,,,,,,,,,,,,,,,,,,
,,5f6f25a7fb739547ff9d6206,23,male,2024-04-24_12h31.49.392,stockport_simplified,2022.2.4,Win32,60.24096386,661e456ee6de07e70aa9ef7b,6628df820c3dc83b15b19c33,,,,,,,,,,,,,,,,,,,,,,,,,,,,,,,,,,,,,,,,,,,,,,,,,,,,,,,,1,37,97,47,1,B,Y,N,o2_image,stimuli/out2.png,stimuli/out1.png,stimuli/correct_out2.png,,,,,,,,,,,,,,,,,,,,,,,,,,,,,,,,,,,,,,
,,5f6f25a7fb739547ff9d6206,23,male,2024-04-24_12h31.49.392,stockport_simplified,2022.2.4,Win32,60.24096386,661e456ee6de07e70aa9ef7b,6628df820c3dc83b15b19c33,,,,,,,,,,,,,,,,,,,,,,,,,,,,,,,,,,654.2615,655.6973,"[2,5,3,6,7,4,1,8]","[[0.3,0.2],[-0.3,0.2]]","[[0.125,-0.2],[-0.125,-0.2]]",-0.113888847,-0.133333347,1,0,0,0.9193,o2_image,655.6976,1,656.1941,656.1942,658.1931,0,0,0,0,1,,,,,,,,,,,,,,,,,,,,,,,,,,,,,,,,,,,,,,,,,,,,,,,,,,
,,5f6f25a7fb739547ff9d6206,23,male,2024-04-24_12h31.49.392,stockport_simplified,2022.2.4,Win32,60.24096386,661e456ee6de07e70aa9ef7b,6628df820c3dc83b15b19c33,,,,,,,,,,,,,,,,,,,,,,,,,,,,,,,,,,,,,,,,,,,,,,,,,,,,,,,,1,38,98,26,1,N,M,D,o2_image,stimuli/out2.png,stimuli/out1.png,stimuli/correct_out2.png,,,,,,,,,,,,,,,,,,,,,,,,,,,,,,,,,,,,,,
,,5f6f25a7fb739547ff9d6206,23,male,2024-04-24_12h31.49.392,stockport_simplified,2022.2.4,Win32,60.24096386,661e456ee6de07e70aa9ef7b,6628df820c3dc83b15b19c33,,,,,,,,,,,,,,,,,,,,,,,,,,,,,,,,,,658.1935,660.3293,"[2,5,3,6,7,4,1,8]","[[-0.3,0.2],[0.3,0.2]]","[[0.125,-0.2],[-0.125,-0.2]]",-0.106481481,-0.174074102,1,0,0,1.6193,o2_image,660.3296,1,660.826,660.826,662.828,0,0,0,0,1,,,,,,,,,,,,,,,,,,,,,,,,,,,,,,,,,,,,,,,,,,,,,,,,,,
,,5f6f25a7fb739547ff9d6206,23,male,2024-04-24_12h31.49.392,stockport_simplified,2022.2.4,Win32,60.24096386,661e456ee6de07e70aa9ef7b,6628df820c3dc83b15b19c33,,,,,,,,,,,,,,,,,,,,,,,,,,,,,,,,,,,,,,,,,,,,,,,,,,,,,,,,1,39,99,40,1,B,X,N,o2_image,stimuli/out2.png,stimuli/out1.png,stimuli/correct_out2.png,,,,,,,,,,,,,,,,,,,,,,,,,,,,,,,,,,,,,,
,,5f6f25a7fb739547ff9d6206,23,male,2024-04-24_12h31.49.392,stockport_simplified,2022.2.4,Win32,60.24096386,661e456ee6de07e70aa9ef7b,6628df820c3dc83b15b19c33,,,,,,,,,,,,,,,,,,,,,,,,,,,,,,,,,,662.8283,664.9912,"[2,5,3,6,7,4,1,8]","[[0.3,0.2],[-0.3,0.2]]","[[0.125,-0.2],[-0.125,-0.2]]",-0.108333305,-0.159259302,1,0,0,1.6496,o2_image,664.992,1,665.494,665.494,667.4904,0,0,0,0,1,,,,,,,,,,,,,,,,,,,,,,,,,,,,,,,,,,,,,,,,,,,,,,,,,,
,,5f6f25a7fb739547ff9d6206,23,male,2024-04-24_12h31.49.392,stockport_simplified,2022.2.4,Win32,60.24096386,661e456ee6de07e70aa9ef7b,6628df820c3dc83b15b19c33,,,,,,,,,,,,,,,,,,,,,,,,,,,,,,,,,,,,,,,,,,,,,,,,,,,,,,,,1,40,100,13,1,B,X,N,o2_image,stimuli/out2.png,stimuli/out1.png,stimuli/correct_out2.png,,,,,,,,,,,,,,,,,,,,,,,,,,,,,,,,,,,,,,
,,5f6f25a7fb739547ff9d6206,23,male,2024-04-24_12h31.49.392,stockport_simplified,2022.2.4,Win32,60.24096386,661e456ee6de07e70aa9ef7b,6628df820c3dc83b15b19c33,,,,,,,,,,,,,,,,,,,,,,,,,,,,,,,,,,667.4909,669.0595,"[2,5,3,6,7,4,1,8]","[[0.3,0.2],[-0.3,0.2]]","[[-0.125,-0.2],[0.125,-0.2]]",0.100000028,-0.14907406,1,0,0,1.053,o2_image,669.0598,1,669.5591,669.5591,671.5553,0,0,0,0,1,,,,,,,,,,,,,,,,,,,,,,,,,,,,,,,,,,,,,,,,,,,,,,,,,,
,,5f6f25a7fb739547ff9d6206,23,male,2024-04-24_12h31.49.392,stockport_simplified,2022.2.4,Win32,60.24096386,661e456ee6de07e70aa9ef7b,6628df820c3dc83b15b19c33,,,,,,,,,,,,,,,,,,,,,,,,,,,,,,,,,,,,,,,,,,,,,,,,,,,,,,,,1,41,101,11,1,B,X,N,o2_image,stimuli/out2.png,stimuli/out1.png,stimuli/correct_out2.png,,,,,,,,,,,,,,,,,,,,,,,,,,,,,,,,,,,,,,
,,5f6f25a7fb739547ff9d6206,23,male,2024-04-24_12h31.49.392,stockport_simplified,2022.2.4,Win32,60.24096386,661e456ee6de07e70aa9ef7b,6628df820c3dc83b15b19c33,,,,,,,,,,,,,,,,,,,,,,,,,,,,,,,,,,671.556,673.2876,"[2,5,3,6,7,4,1,8]","[[0.3,0.2],[-0.3,0.2]]","[[0.125,-0.2],[-0.125,-0.2]]",-0.12037037,-0.171296296,1,0,0,1.2157,o2_image,673.2884,1,673.7878,673.7878,675.7871,0,0,0,0,1,,,,,,,,,,,,,,,,,,,,,,,,,,,,,,,,,,,,,,,,,,,,,,,,,,
,,5f6f25a7fb739547ff9d6206,23,male,2024-04-24_12h31.49.392,stockport_simplified,2022.2.4,Win32,60.24096386,661e456ee6de07e70aa9ef7b,6628df820c3dc83b15b19c33,,,,,,,,,,,,,,,,,,,,,,,,,,,,,,,,,,,,,,,,,,,,,,,,,,,,,,,,1,42,102,46,1,B,Y,N,o2_image,stimuli/out2.png,stimuli/out1.png,stimuli/correct_out2.png,,,,,,,,,,,,,,,,,,,,,,,,,,,,,,,,,,,,,,
,,5f6f25a7fb739547ff9d6206,23,male,2024-04-24_12h31.49.392,stockport_simplified,2022.2.4,Win32,60.24096386,661e456ee6de07e70aa9ef7b,6628df820c3dc83b15b19c33,,,,,,,,,,,,,,,,,,,,,,,,,,,,,,,,,,675.7877,677.4032,"[2,5,3,6,7,4,1,8]","[[0.3,0.2],[-0.3,0.2]]","[[0.125,-0.2],[-0.125,-0.2]]",-0.108333305,-0.160185213,1,0,0,1.113,o2_image,677.4041,1,677.9031,677.9031,679.9023,0,0,0,0,1,,,,,,,,,,,,,,,,,,,,,,,,,,,,,,,,,,,,,,,,,,,,,,,,,,
,,5f6f25a7fb739547ff9d6206,23,male,2024-04-24_12h31.49.392,stockport_simplified,2022.2.4,Win32,60.24096386,661e456ee6de07e70aa9ef7b,6628df820c3dc83b15b19c33,,,,,,,,,,,,,,,,,,,,,,,,,,,,,,,,,,,,,,,,,,,,,,,,,,,,,,,,1,43,103,59,1,N,M,D,o2_image,stimuli/out2.png,stimuli/out1.png,stimuli/correct_out2.png,,,,,,,,,,,,,,,,,,,,,,,,,,,,,,,,,,,,,,
,,5f6f25a7fb739547ff9d6206,23,male,2024-04-24_12h31.49.392,stockport_simplified,2022.2.4,Win32,60.24096386,661e456ee6de07e70aa9ef7b,6628df820c3dc83b15b19c33,,,,,,,,,,,,,,,,,,,,,,,,,,,,,,,,,,679.9027,681.3021,"[2,5,3,6,7,4,1,8]","[[0.3,0.2],[-0.3,0.2]]","[[0.125,-0.2],[-0.125,-0.2]]",-0.089814787,-0.150925954,1,0,0,0.883,o2_image,681.3029,1,681.8018,681.8018,683.801,0,0,0,0,1,,,,,,,,,,,,,,,,,,,,,,,,,,,,,,,,,,,,,,,,,,,,,,,,,,
,,5f6f25a7fb739547ff9d6206,23,male,2024-04-24_12h31.49.392,stockport_simplified,2022.2.4,Win32,60.24096386,661e456ee6de07e70aa9ef7b,6628df820c3dc83b15b19c33,,,,,,,,,,,,,,,,,,,,,,,,,,,,,,,,,,,,,,,,,,,,,,,,,,,,,,,,1,44,104,58,1,N,M,D,o2_image,stimuli/out2.png,stimuli/out1.png,stimuli/correct_out2.png,,,,,,,,,,,,,,,,,,,,,,,,,,,,,,,,,,,,,,
,,5f6f25a7fb739547ff9d6206,23,male,2024-04-24_12h31.49.392,stockport_simplified,2022.2.4,Win32,60.24096386,661e456ee6de07e70aa9ef7b,6628df820c3dc83b15b19c33,,,,,,,,,,,,,,,,,,,,,,,,,,,,,,,,,,683.8014,685.9004,"[2,5,3,6,7,4,1,8]","[[-0.3,0.2],[0.3,0.2]]","[[-0.125,-0.2],[0.125,-0.2]]",-0.167592578,-0.156481496,1,0,0,1.5822,o1_image,685.9013,1,686.4036,686.4036,688.3996,0,0,0,0,1,,,,,,,,,,,,,,,,,,,,,,,,,,,,,,,,,,,,,,,,,,,,,,,,,,
,,5f6f25a7fb739547ff9d6206,23,male,2024-04-24_12h31.49.392,stockport_simplified,2022.2.4,Win32,60.24096386,661e456ee6de07e70aa9ef7b,6628df820c3dc83b15b19c33,,,,,,,,,,,,,,,,,,,,,,,,,,,,,,,,,,,,,,,,,,,,,,,,,,,,,,,,1,45,105,9,1,A,Y,N,o1_image,stimuli/out1.png,stimuli/correct_out1.png,stimuli/out2.png,,,,,,,,,,,,,,,,,,,,,,,,,,,,,,,,,,,,,,
,,5f6f25a7fb739547ff9d6206,23,male,2024-04-24_12h31.49.392,stockport_simplified,2022.2.4,Win32,60.24096386,661e456ee6de07e70aa9ef7b,6628df820c3dc83b15b19c33,,,,,,,,,,,,,,,,,,,,,,,,,,,,,,,,,,688.4002,690.0525,"[2,5,3,6,7,4,1,8]","[[-0.3,0.2],[0.3,0.2]]","[[-0.125,-0.2],[0.125,-0.2]]",0.110185199,-0.166666667,1,0,0,1.1362,o2_image,690.0527,1,690.5493,690.5494,692.5481,0,0,0,0,1,,,,,,,,,,,,,,,,,,,,,,,,,,,,,,,,,,,,,,,,,,,,,,,,,,
,,5f6f25a7fb739547ff9d6206,23,male,2024-04-24_12h31.49.392,stockport_simplified,2022.2.4,Win32,60.24096386,661e456ee6de07e70aa9ef7b,6628df820c3dc83b15b19c33,,,,,,,,,,,,,,,,,,,,,,,,,,,,,,,,,,,,,,,,,,,,,,,,,,,,,,,,1,46,106,16,1,B,Y,N,o2_image,stimuli/out2.png,stimuli/out1.png,stimuli/correct_out2.png,,,,,,,,,,,,,,,,,,,,,,,,,,,,,,,,,,,,,,
,,5f6f25a7fb739547ff9d6206,23,male,2024-04-24_12h31.49.392,stockport_simplified,2022.2.4,Win32,60.24096386,661e456ee6de07e70aa9ef7b,6628df820c3dc83b15b19c33,,,,,,,,,,,,,,,,,,,,,,,,,,,,,,,,,,692.5486,694.3676,"[2,5,3,6,7,4,1,8]","[[0.3,0.2],[-0.3,0.2]]","[[-0.125,-0.2],[0.125,-0.2]]",-0.114814829,-0.159259302,1,0,0,1.3001,o1_image,694.3679,1,694.8641,694.8641,696.8633,0,0,0,0,1,,,,,,,,,,,,,,,,,,,,,,,,,,,,,,,,,,,,,,,,,,,,,,,,,,
,,5f6f25a7fb739547ff9d6206,23,male,2024-04-24_12h31.49.392,stockport_simplified,2022.2.4,Win32,60.24096386,661e456ee6de07e70aa9ef7b,6628df820c3dc83b15b19c33,,,,,,,,,,,,,,,,,,,,,,,,,,,,,,,,,,,,,,,,,,,,,,,,,,,,,,,,1,47,107,31,1,A,X,N,o1_image,stimuli/out1.png,stimuli/correct_out1.png,stimuli/out2.png,,,,,,,,,,,,,,,,,,,,,,,,,,,,,,,,,,,,,,
,,5f6f25a7fb739547ff9d6206,23,male,2024-04-24_12h31.49.392,stockport_simplified,2022.2.4,Win32,60.24096386,661e456ee6de07e70aa9ef7b,6628df820c3dc83b15b19c33,,,,,,,,,,,,,,,,,,,,,,,,,,,,,,,,,,696.8638,698.496,"[2,5,3,6,7,4,1,8]","[[0.3,0.2],[-0.3,0.2]]","[[-0.125,-0.2],[0.125,-0.2]]",-0.135185171,-0.164814843,1,0,0,1.1158,o1_image,698.497,1,698.9975,698.9975,700.9953,0,0,0,0,1,,,,,,,,,,,,,,,,,,,,,,,,,,,,,,,,,,,,,,,,,,,,,,,,,,
,,5f6f25a7fb739547ff9d6206,23,male,2024-04-24_12h31.49.392,stockport_simplified,2022.2.4,Win32,60.24096386,661e456ee6de07e70aa9ef7b,6628df820c3dc83b15b19c33,,,,,,,,,,,,,,,,,,,,,,,,,,,,,,,,,,,,,,,,,,,,,,,,,,,,,,,,1,48,108,38,1,A,Y,N,o1_image,stimuli/out1.png,stimuli/correct_out1.png,stimuli/out2.png,,,,,,,,,,,,,,,,,,,,,,,,,,,,,,,,,,,,,,
,,5f6f25a7fb739547ff9d6206,23,male,2024-04-24_12h31.49.392,stockport_simplified,2022.2.4,Win32,60.24096386,661e456ee6de07e70aa9ef7b,6628df820c3dc83b15b19c33,,,,,,,,,,,,,,,,,,,,,,,,,,,,,,,,,,700.9959,702.5947,"[2,5,3,6,7,4,1,8]","[[0.3,0.2],[-0.3,0.2]]","[[-0.125,-0.2],[0.125,-0.2]]",-0.091666681,-0.163888931,1,0,0,1.0831,o1_image,702.5955,1,703.098,703.098,705.0943,0,0,0,0,1,,,,,,,,,,,,,,,,,,,,,,,,,,,,,,,,,,,,,,,,,,,,,,,,,,
,,5f6f25a7fb739547ff9d6206,23,male,2024-04-24_12h31.49.392,stockport_simplified,2022.2.4,Win32,60.24096386,661e456ee6de07e70aa9ef7b,6628df820c3dc83b15b19c33,,,,,,,,,,,,,,,,,,,,,,,,,,,,,,,,,,,,,,,,,,,,,,,,,,,,,,,,1,49,109,39,1,A,Y,N,o1_image,stimuli/out1.png,stimuli/correct_out1.png,stimuli/out2.png,,,,,,,,,,,,,,,,,,,,,,,,,,,,,,,,,,,,,,
,,5f6f25a7fb739547ff9d6206,23,male,2024-04-24_12h31.49.392,stockport_simplified,2022.2.4,Win32,60.24096386,661e456ee6de07e70aa9ef7b,6628df820c3dc83b15b19c33,,,,,,,,,,,,,,,,,,,,,,,,,,,,,,,,,,705.0947,706.9469,"[2,5,3,6,7,4,1,8]","[[-0.3,0.2],[0.3,0.2]]","[[-0.125,-0.2],[0.125,-0.2]]",-0.123148106,-0.131481524,1,0,0,1.3361,o1_image,706.9473,1,707.4431,707.4431,709.4425,0,0,0,0,1,,,,,,,,,,,,,,,,,,,,,,,,,,,,,,,,,,,,,,,,,,,,,,,,,,
,,5f6f25a7fb739547ff9d6206,23,male,2024-04-24_12h31.49.392,stockport_simplified,2022.2.4,Win32,60.24096386,661e456ee6de07e70aa9ef7b,6628df820c3dc83b15b19c33,,,,,,,,,,,,,,,,,,,,,,,,,,,,,,,,,,,,,,,,,,,,,,,,,,,,,,,,1,50,110,1,1,A,X,N,o1_image,stimuli/out1.png,stimuli/correct_out1.png,stimuli/out2.png,,,,,,,,,,,,,,,,,,,,,,,,,,,,,,,,,,,,,,
,,5f6f25a7fb739547ff9d6206,23,male,2024-04-24_12h31.49.392,stockport_simplified,2022.2.4,Win32,60.24096386,661e456ee6de07e70aa9ef7b,6628df820c3dc83b15b19c33,,,,,,,,,,,,,,,,,,,,,,,,,,,,,,,,,,709.4431,712.8244,"[2,5,3,6,7,4,1,8]","[[0.3,0.2],[-0.3,0.2]]","[[-0.125,-0.2],[0.125,-0.2]]",-0.111111111,-0.141666695,1,0,0,2.865,o1_image,712.831,1,713.3244,713.3244,715.3234,0,0,0,0,1,,,,,,,,,,,,,,,,,,,,,,,,,,,,,,,,,,,,,,,,,,,,,,,,,,
,,5f6f25a7fb739547ff9d6206,23,male,2024-04-24_12h31.49.392,stockport_simplified,2022.2.4,Win32,60.24096386,661e456ee6de07e70aa9ef7b,6628df820c3dc83b15b19c33,,,,,,,,,,,,,,,,,,,,,,,,,,,,,,,,,,,,,,,,,,,,,,,,,,,,,,,,1,51,111,21,1,N,M,C,o1_image,stimuli/out1.png,stimuli/correct_out1.png,stimuli/out2.png,,,,,,,,,,,,,,,,,,,,,,,,,,,,,,,,,,,,,,
,,5f6f25a7fb739547ff9d6206,23,male,2024-04-24_12h31.49.392,stockport_simplified,2022.2.4,Win32,60.24096386,661e456ee6de07e70aa9ef7b,6628df820c3dc83b15b19c33,,,,,,,,,,,,,,,,,,,,,,,,,,,,,,,,,,715.3235,717.0397,"[2,5,3,6,7,4,1,8]","[[-0.3,0.2],[0.3,0.2]]","[[-0.125,-0.2],[0.125,-0.2]]",-0.104629587,-0.150925954,1,0,0,1.1997,o1_image,717.04,1,717.5395,717.5396,719.5388,0,0,0,0,1,,,,,,,,,,,,,,,,,,,,,,,,,,,,,,,,,,,,,,,,,,,,,,,,,,
,,5f6f25a7fb739547ff9d6206,23,male,2024-04-24_12h31.49.392,stockport_simplified,2022.2.4,Win32,60.24096386,661e456ee6de07e70aa9ef7b,6628df820c3dc83b15b19c33,,,,,,,,,,,,,,,,,,,,,,,,,,,,,,,,,,,,,,,,,,,,,,,,,,,,,,,,1,52,112,37,1,A,Y,N,o1_image,stimuli/out1.png,stimuli/correct_out1.png,stimuli/out2.png,,,,,,,,,,,,,,,,,,,,,,,,,,,,,,,,,,,,,,
,,5f6f25a7fb739547ff9d6206,23,male,2024-04-24_12h31.49.392,stockport_simplified,2022.2.4,Win32,60.24096386,661e456ee6de07e70aa9ef7b,6628df820c3dc83b15b19c33,,,,,,,,,,,,,,,,,,,,,,,,,,,,,,,,,,719.539,721.0883,"[2,5,3,6,7,4,1,8]","[[0.3,0.2],[-0.3,0.2]]","[[-0.125,-0.2],[0.125,-0.2]]",-0.112962935,-0.150000042,1,0,0,1.0329,o1_image,721.0887,1,721.5879,721.588,723.5871,0,0,0,0,1,,,,,,,,,,,,,,,,,,,,,,,,,,,,,,,,,,,,,,,,,,,,,,,,,,
,,5f6f25a7fb739547ff9d6206,23,male,2024-04-24_12h31.49.392,stockport_simplified,2022.2.4,Win32,60.24096386,661e456ee6de07e70aa9ef7b,6628df820c3dc83b15b19c33,,,,,,,,,,,,,,,,,,,,,,,,,,,,,,,,,,,,,,,,,,,,,,,,,,,,,,,,1,53,113,34,1,A,X,N,o1_image,stimuli/out1.png,stimuli/correct_out1.png,stimuli/out2.png,,,,,,,,,,,,,,,,,,,,,,,,,,,,,,,,,,,,,,
,,5f6f25a7fb739547ff9d6206,23,male,2024-04-24_12h31.49.392,stockport_simplified,2022.2.4,Win32,60.24096386,661e456ee6de07e70aa9ef7b,6628df820c3dc83b15b19c33,,,,,,,,,,,,,,,,,,,,,,,,,,,,,,,,,,723.5873,725.7866,"[2,5,3,6,7,4,1,8]","[[-0.3,0.2],[0.3,0.2]]","[[0.125,-0.2],[-0.125,-0.2]]",-0.17314812,-0.141666695,1,0,0,1.6825,o2_image,725.7869,1,726.2865,726.2865,728.2858,0,0,0,0,1,,,,,,,,,,,,,,,,,,,,,,,,,,,,,,,,,,,,,,,,,,,,,,,,,,
,,5f6f25a7fb739547ff9d6206,23,male,2024-04-24_12h31.49.392,stockport_simplified,2022.2.4,Win32,60.24096386,661e456ee6de07e70aa9ef7b,6628df820c3dc83b15b19c33,,,,,,,,,,,,,,,,,,,,,,,,,,,,,,,,,,,,,,,,,,,,,,,,,,,,,,,,1,54,114,45,1,B,Y,N,o2_image,stimuli/out2.png,stimuli/out1.png,stimuli/correct_out2.png,,,,,,,,,,,,,,,,,,,,,,,,,,,,,,,,,,,,,,
,,5f6f25a7fb739547ff9d6206,23,male,2024-04-24_12h31.49.392,stockport_simplified,2022.2.4,Win32,60.24096386,661e456ee6de07e70aa9ef7b,6628df820c3dc83b15b19c33,,,,,,,,,,,,,,,,,,,,,,,,,,,,,,,,,,728.286,730.2348,"[2,5,3,6,7,4,1,8]","[[0.3,0.2],[-0.3,0.2]]","[[-0.125,-0.2],[0.125,-0.2]]",0.142592607,-0.150925954,1,0,0,1.4327,o2_image,730.2352,1,730.7349,730.735,732.7343,0,0,0,0,1,,,,,,,,,,,,,,,,,,,,,,,,,,,,,,,,,,,,,,,,,,,,,,,,,,
,,5f6f25a7fb739547ff9d6206,23,male,2024-04-24_12h31.49.392,stockport_simplified,2022.2.4,Win32,60.24096386,661e456ee6de07e70aa9ef7b,6628df820c3dc83b15b19c33,,,,,,,,,,,,,,,,,,,,,,,,,,,,,,,,,,,,,,,,,,,,,,,,,,,,,,,,1,55,115,19,1,B,Y,N,o2_image,stimuli/out2.png,stimuli/out1.png,stimuli/correct_out2.png,,,,,,,,,,,,,,,,,,,,,,,,,,,,,,,,,,,,,,
,,5f6f25a7fb739547ff9d6206,23,male,2024-04-24_12h31.49.392,stockport_simplified,2022.2.4,Win32,60.24096386,661e456ee6de07e70aa9ef7b,6628df820c3dc83b15b19c33,,,,,,,,,,,,,,,,,,,,,,,,,,,,,,,,,,732.7345,734.3172,"[2,5,3,6,7,4,1,8]","[[-0.3,0.2],[0.3,0.2]]","[[0.125,-0.2],[-0.125,-0.2]]",-0.118518476,-0.111111111,1,0,0,1.0663,o2_image,734.3174,1,734.8169,734.8169,736.8162,0,0,0,0,1,,,,,,,,,,,,,,,,,,,,,,,,,,,,,,,,,,,,,,,,,,,,,,,,,,
,,5f6f25a7fb739547ff9d6206,23,male,2024-04-24_12h31.49.392,stockport_simplified,2022.2.4,Win32,60.24096386,661e456ee6de07e70aa9ef7b,6628df820c3dc83b15b19c33,,,,,,,,,,,,,,,,,,,,,,,,,,,,,,,,,,,,,,,,,,,,,,,,,,,,,,,,1,56,116,42,1,B,X,N,o2_image,stimuli/out2.png,stimuli/out1.png,stimuli/correct_out2.png,,,,,,,,,,,,,,,,,,,,,,,,,,,,,,,,,,,,,,
,,5f6f25a7fb739547ff9d6206,23,male,2024-04-24_12h31.49.392,stockport_simplified,2022.2.4,Win32,60.24096386,661e456ee6de07e70aa9ef7b,6628df820c3dc83b15b19c33,,,,,,,,,,,,,,,,,,,,,,,,,,,,,,,,,,736.8164,738.549,"[2,5,3,6,7,4,1,8]","[[0.3,0.2],[-0.3,0.2]]","[[-0.125,-0.2],[0.125,-0.2]]",-0.125925912,-0.141666695,1,0,0,1.216,o1_image,738.5492,1,739.0487,739.0487,741.0482,0,0,0,0,1,,,,,,,,,,,,,,,,,,,,,,,,,,,,,,,,,,,,,,,,,,,,,,,,,,
,,5f6f25a7fb739547ff9d6206,23,male,2024-04-24_12h31.49.392,stockport_simplified,2022.2.4,Win32,60.24096386,661e456ee6de07e70aa9ef7b,6628df820c3dc83b15b19c33,,,,,,,,,,,,,,,,,,,,,,,,,,,,,,,,,,,,,,,,,,,,,,,,,,,,,,,,1,57,117,22,1,N,M,C,o1_image,stimuli/out1.png,stimuli/correct_out1.png,stimuli/out2.png,,,,,,,,,,,,,,,,,,,,,,,,,,,,,,,,,,,,,,
,,5f6f25a7fb739547ff9d6206,23,male,2024-04-24_12h31.49.392,stockport_simplified,2022.2.4,Win32,60.24096386,661e456ee6de07e70aa9ef7b,6628df820c3dc83b15b19c33,,,,,,,,,,,,,,,,,,,,,,,,,,,,,,,,,,741.0484,742.7143,"[2,5,3,6,7,4,1,8]","[[0.3,0.2],[-0.3,0.2]]","[[-0.125,-0.2],[0.125,-0.2]]",0.111111111,-0.156481496,1,0,0,1.1495,o2_image,742.7146,1,743.214,743.214,745.2132,0,0,0,0,1,,,,,,,,,,,,,,,,,,,,,,,,,,,,,,,,,,,,,,,,,,,,,,,,,,
,,5f6f25a7fb739547ff9d6206,23,male,2024-04-24_12h31.49.392,stockport_simplified,2022.2.4,Win32,60.24096386,661e456ee6de07e70aa9ef7b,6628df820c3dc83b15b19c33,,,,,,,,,,,,,,,,,,,,,,,,,,,,,,,,,,,,,,,,,,,,,,,,,,,,,,,,1,58,118,15,1,B,Y,N,o2_image,stimuli/out2.png,stimuli/out1.png,stimuli/correct_out2.png,,,,,,,,,,,,,,,,,,,,,,,,,,,,,,,,,,,,,,
,,5f6f25a7fb739547ff9d6206,23,male,2024-04-24_12h31.49.392,stockport_simplified,2022.2.4,Win32,60.24096386,661e456ee6de07e70aa9ef7b,6628df820c3dc83b15b19c33,,,,,,,,,,,,,,,,,,,,,,,,,,,,,,,,,,745.2135,746.796,"[2,5,3,6,7,4,1,8]","[[0.3,0.2],[-0.3,0.2]]","[[-0.125,-0.2],[0.125,-0.2]]",-0.139814801,-0.164814843,1,0,0,1.0659,o1_image,746.7962,1,747.296,747.296,749.2953,0,0,0,0,1,,,,,,,,,,,,,,,,,,,,,,,,,,,,,,,,,,,,,,,,,,,,,,,,,,
,,5f6f25a7fb739547ff9d6206,23,male,2024-04-24_12h31.49.392,stockport_simplified,2022.2.4,Win32,60.24096386,661e456ee6de07e70aa9ef7b,6628df820c3dc83b15b19c33,,,,,,,,,,,,,,,,,,,,,,,,,,,,,,,,,,,,,,,,,,,,,,,,,,,,,,,,1,59,119,33,1,A,X,N,o1_image,stimuli/out1.png,stimuli/correct_out1.png,stimuli/out2.png,,,,,,,,,,,,,,,,,,,,,,,,,,,,,,,,,,,,,,
,,5f6f25a7fb739547ff9d6206,23,male,2024-04-24_12h31.49.392,stockport_simplified,2022.2.4,Win32,60.24096386,661e456ee6de07e70aa9ef7b,6628df820c3dc83b15b19c33,,,,,,,,,,,,,,,,,,,,,,,,,,,,,,,,,,749.3056,750.7617,"[2,5,3,6,7,4,1,8]","[[0.3,0.2],[-0.3,0.2]]","[[-0.125,-0.2],[0.125,-0.2]]",-0.099074046,-0.125,1,0,0,0.9496,o1_image,750.7621,1,751.2613,751.2613,753.2608,,,,,,,,,,,,,,,,,,0,0,0,0,1,,,,,,,,,,,,,,,,,,,,,,,,,,,,,,,,,
,,5f6f25a7fb739547ff9d6206,23,male,2024-04-24_12h31.49.392,stockport_simplified,2022.2.4,Win32,60.24096386,661e456ee6de07e70aa9ef7b,6628df820c3dc83b15b19c33,,,,,,,,,,,,,,,,,,,,,,,,,,,,,,,,,,,,,,,,,,,,,,,,,,,,,,,,,,,,,A,Y,N,o1_image,stimuli/out1.png,stimuli/correct_out1.png,stimuli/out2.png,,,,,,0,0,0,11,1,,,,,,,,,,,,,,,,,,,,,,,,,,,,
,,5f6f25a7fb739547ff9d6206,23,male,2024-04-24_12h31.49.392,stockport_simplified,2022.2.4,Win32,60.24096386,661e456ee6de07e70aa9ef7b,6628df820c3dc83b15b19c33,,,,,,,,,,,,,,,,,,,,,,,,,,,,,,,,,,753.2613,755.2266,"[2,5,3,6,7,4,1,8]","[[-0.3,0.2],[0.3,0.2]]","[[0.125,-0.2],[-0.125,-0.2]]",0.115740741,-0.154629672,1,0,0,1.4494,o1_image,755.2268,0,755.7265,755.7265,757.7258,,,,,,,,,,,,,,,,,,0,0,0,0,1,,,,,,,,,,,,,,,,,,,,,,,,,,,,,,,,,
,,5f6f25a7fb739547ff9d6206,23,male,2024-04-24_12h31.49.392,stockport_simplified,2022.2.4,Win32,60.24096386,661e456ee6de07e70aa9ef7b,6628df820c3dc83b15b19c33,,,,,,,,,,,,,,,,,,,,,,,,,,,,,,,,,,,,,,,,,,,,,,,,,,,,,,,,,,,,,A,X,N,o2_image,stimuli/out2.png,stimuli/out1.png,stimuli/correct_out2.png,,,,,,0,1,1,6,1,,,,,,,,,,,,,,,,,,,,,,,,,,,,
,,5f6f25a7fb739547ff9d6206,23,male,2024-04-24_12h31.49.392,stockport_simplified,2022.2.4,Win32,60.24096386,661e456ee6de07e70aa9ef7b,6628df820c3dc83b15b19c33,,,,,,,,,,,,,,,,,,,,,,,,,,,,,,,,,,757.726,759.8253,"[2,5,3,6,7,4,1,8]","[[0.3,0.2],[-0.3,0.2]]","[[-0.125,-0.2],[0.125,-0.2]]",0.124074088,-0.192592621,1,0,0,1.5829,o2_image,759.8256,1,760.3251,760.3251,762.3242,,,,,,,,,,,,,,,,,,0,0,0,0,1,,,,,,,,,,,,,,,,,,,,,,,,,,,,,,,,,
,,5f6f25a7fb739547ff9d6206,23,male,2024-04-24_12h31.49.392,stockport_simplified,2022.2.4,Win32,60.24096386,661e456ee6de07e70aa9ef7b,6628df820c3dc83b15b19c33,,,,,,,,,,,,,,,,,,,,,,,,,,,,,,,,,,,,,,,,,,,,,,,,,,,,,,,,,,,,,B,Y,N,o2_image,stimuli/out2.png,stimuli/out1.png,stimuli/correct_out2.png,,,,,,0,2,2,39,1,,,,,,,,,,,,,,,,,,,,,,,,,,,,
,,5f6f25a7fb739547ff9d6206,23,male,2024-04-24_12h31.49.392,stockport_simplified,2022.2.4,Win32,60.24096386,661e456ee6de07e70aa9ef7b,6628df820c3dc83b15b19c33,,,,,,,,,,,,,,,,,,,,,,,,,,,,,,,,,,762.3244,764.1903,"[2,5,3,6,7,4,1,8]","[[-0.3,0.2],[0.3,0.2]]","[[-0.125,-0.2],[0.125,-0.2]]",-0.148148148,-0.158333319,1,0,0,1.3496,o1_image,764.1907,1,764.6903,764.6903,766.6894,,,,,,,,,,,,,,,,,,0,0,0,0,1,,,,,,,,,,,,,,,,,,,,,,,,,,,,,,,,,
,,5f6f25a7fb739547ff9d6206,23,male,2024-04-24_12h31.49.392,stockport_simplified,2022.2.4,Win32,60.24096386,661e456ee6de07e70aa9ef7b,6628df820c3dc83b15b19c33,,,,,,,,,,,,,,,,,,,,,,,,,,,,,,,,,,,,,,,,,,,,,,,,,,,,,,,,,,,,,A,Y,N,o1_image,stimuli/out1.png,stimuli/correct_out1.png,stimuli/out2.png,,,,,,0,3,3,13,1,,,,,,,,,,,,,,,,,,,,,,,,,,,,
