counterbalance_2.started,counterbalance_2.stopped,participant,age,gender,date,expName,psychopyVersion,OS,frameRate,STUDY_ID,SESSION_ID,information_2.started,information_2.stopped,information_loop.thisRepN,information_loop.thisTrialN,information_loop.thisN,information_loop.thisIndex,information_loop.ran,information,consent_2.started,consent_2.stopped,slider_1.response,slider_2.response,slider_3.response,slider_4.response,slider_5.response,slider_6.response,instructions.started,instructions.stopped,task1_instr.thisRepN,task1_instr.thisTrialN,task1_instr.thisN,task1_instr.thisIndex,task1_instr.ran,task1,comprehension1_2.started,comprehension1_2.stopped,comp1_mouse.x,comp1_mouse.y,comp1_mouse.leftButton,comp1_mouse.midButton,comp1_mouse.rightButton,comp1_mouse.time,comp1_mouse.clicked_name,cue_o__trial_2.started,cue_o__trial_2.stopped,order,cue_order,out_order,cue_o_mouse.x,cue_o_mouse.y,cue_o_mouse.leftButton,cue_o_mouse.midButton,cue_o_mouse.rightButton,cue_o_mouse.time,cue_o_mouse.clicked_name,cue_selection_2.started,correct_answer,cue_selection_2.stopped,feedback_2.started,feedback_2.stopped,feedback_loop.thisRepN,feedback_loop.thisTrialN,feedback_loop.thisN,feedback_loop.thisIndex,feedback_loop.ran,stage1_trials.thisRepN,stage1_trials.thisTrialN,stage1_trials.thisN,stage1_trials.thisIndex,stage1_trials.ran,cue1,cue2,cue3,outcome,correct_out,o1_feedback,o2_feedback,stage2_feedback_loop.thisRepN,stage2_feedback_loop.thisTrialN,stage2_feedback_loop.thisN,stage2_feedback_loop.thisIndex,stage2_feedback_loop.ran,stage2_trials.thisRepN,stage2_trials.thisTrialN,stage2_trials.thisN,stage2_trials.thisIndex,stage2_trials.ran,stage3_feedback_loop.thisRepN,stage3_feedback_loop.thisTrialN,stage3_feedback_loop.thisN,stage3_feedback_loop.thisIndex,stage3_feedback_loop.ran,stage3_trials.thisRepN,stage3_trials.thisTrialN,stage3_trials.thisN,stage3_trials.thisIndex,stage3_trials.ran,debrief_2.started,debrief_2.stopped,debrief_loop.thisRepN,debrief_loop.thisTrialN,debrief_loop.thisN,debrief_loop.thisIndex,debrief_loop.ran,debrief_img,compr1_completed.thisRepN,compr1_completed.thisTrialN,compr1_completed.thisN,compr1_completed.thisIndex,compr1_completed.ran,consent_loop.thisRepN,consent_loop.thisTrialN,consent_loop.thisN,consent_loop.thisIndex,consent_loop.ran
0.0003,0.0006,613334cf5293abe84a78239c,35,male,2024-04-19_18h37.10.889,stockport_simplified,2022.2.4,Win32,60.24096386,661e456ee6de07e70aa9ef7b,66229da636d1666a9ba2e03a,,,,,,,,,,,,,,,,,,,,,,,,,,,,,,,,,,,,,,,,,,,,,,,,,,,,,,,,,,,,,,,,,,,,,,,,,,,,,,,,,,,,,,,,,,,,,,,,,,,,,,,,,
,,613334cf5293abe84a78239c,35,male,2024-04-19_18h37.10.889,stockport_simplified,2022.2.4,Win32,60.24096386,661e456ee6de07e70aa9ef7b,66229da636d1666a9ba2e03a,0.0199,15.0506,0,0,0,0,1,instructions/info1.png,,,,,,,,,,,,,,,,,,,,,,,,,,,,,,,,,,,,,,,,,,,,,,,,,,,,,,,,,,,,,,,,,,,,,,,,,,,,,,,,,,,,,,,,,,,,,,,,,
,,613334cf5293abe84a78239c,35,male,2024-04-19_18h37.10.889,stockport_simplified,2022.2.4,Win32,60.24096386,661e456ee6de07e70aa9ef7b,66229da636d1666a9ba2e03a,15.051,24.2666,0,1,1,1,1,instructions/info2.png,,,,,,,,,,,,,,,,,,,,,,,,,,,,,,,,,,,,,,,,,,,,,,,,,,,,,,,,,,,,,,,,,,,,,,,,,,,,,,,,,,,,,,,,,,,,,,,,,
,,613334cf5293abe84a78239c,35,male,2024-04-19_18h37.10.889,stockport_simplified,2022.2.4,Win32,60.24096386,661e456ee6de07e70aa9ef7b,66229da636d1666a9ba2e03a,24.2669,38.4335,0,2,2,2,1,instructions/info3.png,,,,,,,,,,,,,,,,,,,,,,,,,,,,,,,,,,,,,,,,,,,,,,,,,,,,,,,,,,,,,,,,,,,,,,,,,,,,,,,,,,,,,,,,,,,,,,,,,
,,613334cf5293abe84a78239c,35,male,2024-04-19_18h37.10.889,stockport_simplified,2022.2.4,Win32,60.24096386,661e456ee6de07e70aa9ef7b,66229da636d1666a9ba2e03a,,,,,,,,,38.4339,67.4507,1,1,1,1,1,1,,,,,,,,,,,,,,,,,,,,,,,,,,,,,,,,,,,,,,,,,,,,,,,,,,,,,,,,,,,,,,,,,,,,,,,,,,,,,,,,,,,,,,,,,
,,613334cf5293abe84a78239c,35,male,2024-04-19_18h37.10.889,stockport_simplified,2022.2.4,Win32,60.24096386,661e456ee6de07e70aa9ef7b,66229da636d1666a9ba2e03a,,,,,,,,,,,,,,,,,67.4574,84.1009,0,0,0,0,1,instructions/task1_1.png,,,,,,,,,,,,,,,,,,,,,,,,,,,,,,,,,,,,,,,,,,,,,,,,,,,,,,,,,,,,,,,,,,,,,,,,,,,,,,,,,
,,613334cf5293abe84a78239c,35,male,2024-04-19_18h37.10.889,stockport_simplified,2022.2.4,Win32,60.24096386,661e456ee6de07e70aa9ef7b,66229da636d1666a9ba2e03a,,,,,,,,,,,,,,,,,84.1088,95.1504,0,1,1,1,1,instructions/task1_2.png,,,,,,,,,,,,,,,,,,,,,,,,,,,,,,,,,,,,,,,,,,,,,,,,,,,,,,,,,,,,,,,,,,,,,,,,,,,,,,,,,
,,613334cf5293abe84a78239c,35,male,2024-04-19_18h37.10.889,stockport_simplified,2022.2.4,Win32,60.24096386,661e456ee6de07e70aa9ef7b,66229da636d1666a9ba2e03a,,,,,,,,,,,,,,,,,95.158,127.8054,0,2,2,2,1,instructions/task1_3.png,,,,,,,,,,,,,,,,,,,,,,,,,,,,,,,,,,,,,,,,,,,,,,,,,,,,,,,,,,,,,,,,,,,,,,,,,,,,,,,,,
,,613334cf5293abe84a78239c,35,male,2024-04-19_18h37.10.889,stockport_simplified,2022.2.4,Win32,60.24096386,661e456ee6de07e70aa9ef7b,66229da636d1666a9ba2e03a,,,,,,,,,,,,,,,,,,,,,,,,,127.806,145.0512,-0.026851852,-0.332407407,1,0,0,17.2447,comp1_resp1,145.0706,153.9679,"[2,5,1,8,6,7,3,4]","[[0.3,0.2],[-0.3,0.2]]","[[-0.125,-0.2],[0.125,-0.2]]",-0.1,-0.199074074,1,0,0,8.3962,o1_image,153.976,1,154.4716,154.4717,156.4676,0,0,0,0,1,,,,,,,,,,,,,,,,,,,,,,,,,,,,,,,,,,,,,,,,,,,,,,,,,,
,,613334cf5293abe84a78239c,35,male,2024-04-19_18h37.10.889,stockport_simplified,2022.2.4,Win32,60.24096386,661e456ee6de07e70aa9ef7b,66229da636d1666a9ba2e03a,,,,,,,,,,,,,,,,,,,,,,,,,,,,,,,,,,,,,,,,,,,,,,,,,,,,,,,,0,0,0,36,1,A,Y,N,o1_image,stimuli/out1.png,stimuli/correct_out1.png,stimuli/out2.png,,,,,,,,,,,,,,,,,,,,,,,,,,,,,,,,,,,,,,
,,613334cf5293abe84a78239c,35,male,2024-04-19_18h37.10.889,stockport_simplified,2022.2.4,Win32,60.24096386,661e456ee6de07e70aa9ef7b,66229da636d1666a9ba2e03a,,,,,,,,,,,,,,,,,,,,,,,,,,,,,,,,,,156.468,159.9008,"[2,5,1,8,6,7,3,4]","[[-0.3,0.2],[0.3,0.2]]","[[0.125,-0.2],[-0.125,-0.2]]",-0.138888889,-0.166666667,1,0,0,2.9163,o2_image,159.9084,1,160.401,160.401,162.4008,0,0,0,0,1,,,,,,,,,,,,,,,,,,,,,,,,,,,,,,,,,,,,,,,,,,,,,,,,,,
,,613334cf5293abe84a78239c,35,male,2024-04-19_18h37.10.889,stockport_simplified,2022.2.4,Win32,60.24096386,661e456ee6de07e70aa9ef7b,66229da636d1666a9ba2e03a,,,,,,,,,,,,,,,,,,,,,,,,,,,,,,,,,,,,,,,,,,,,,,,,,,,,,,,,0,1,1,48,1,B,Y,N,o2_image,stimuli/out2.png,stimuli/out1.png,stimuli/correct_out2.png,,,,,,,,,,,,,,,,,,,,,,,,,,,,,,,,,,,,,,
,,613334cf5293abe84a78239c,35,male,2024-04-19_18h37.10.889,stockport_simplified,2022.2.4,Win32,60.24096386,661e456ee6de07e70aa9ef7b,66229da636d1666a9ba2e03a,,,,,,,,,,,,,,,,,,,,,,,,,,,,,,,,,,162.4011,164.7341,"[2,5,1,8,6,7,3,4]","[[0.3,0.2],[-0.3,0.2]]","[[0.125,-0.2],[-0.125,-0.2]]",-0.130555556,-0.156481481,1,0,0,1.8164,o2_image,164.7347,1,165.2342,165.2342,167.2342,0,0,0,0,1,,,,,,,,,,,,,,,,,,,,,,,,,,,,,,,,,,,,,,,,,,,,,,,,,,
,,613334cf5293abe84a78239c,35,male,2024-04-19_18h37.10.889,stockport_simplified,2022.2.4,Win32,60.24096386,661e456ee6de07e70aa9ef7b,66229da636d1666a9ba2e03a,,,,,,,,,,,,,,,,,,,,,,,,,,,,,,,,,,,,,,,,,,,,,,,,,,,,,,,,0,2,2,11,1,B,X,N,o2_image,stimuli/out2.png,stimuli/out1.png,stimuli/correct_out2.png,,,,,,,,,,,,,,,,,,,,,,,,,,,,,,,,,,,,,,
,,613334cf5293abe84a78239c,35,male,2024-04-19_18h37.10.889,stockport_simplified,2022.2.4,Win32,60.24096386,661e456ee6de07e70aa9ef7b,66229da636d1666a9ba2e03a,,,,,,,,,,,,,,,,,,,,,,,,,,,,,,,,,,167.2345,169.4342,"[2,5,1,8,6,7,3,4]","[[0.3,0.2],[-0.3,0.2]]","[[0.125,-0.2],[-0.125,-0.2]]",-0.125925926,-0.188888889,1,0,0,1.6831,o2_image,169.435,0,169.9341,169.9341,171.9342,0,0,0,0,1,,,,,,,,,,,,,,,,,,,,,,,,,,,,,,,,,,,,,,,,,,,,,,,,,,
,,613334cf5293abe84a78239c,35,male,2024-04-19_18h37.10.889,stockport_simplified,2022.2.4,Win32,60.24096386,661e456ee6de07e70aa9ef7b,66229da636d1666a9ba2e03a,,,,,,,,,,,,,,,,,,,,,,,,,,,,,,,,,,,,,,,,,,,,,,,,,,,,,,,,0,3,3,31,1,A,X,N,o1_image,stimuli/out1.png,stimuli/correct_out1.png,stimuli/out2.png,,,,,,,,,,,,,,,,,,,,,,,,,,,,,,,,,,,,,,
,,613334cf5293abe84a78239c,35,male,2024-04-19_18h37.10.889,stockport_simplified,2022.2.4,Win32,60.24096386,661e456ee6de07e70aa9ef7b,66229da636d1666a9ba2e03a,,,,,,,,,,,,,,,,,,,,,,,,,,,,,,,,,,171.9345,175.2675,"[2,5,1,8,6,7,3,4]","[[0.3,0.2],[-0.3,0.2]]","[[-0.125,-0.2],[0.125,-0.2]]",-0.160185185,-0.197222222,1,0,0,2.8163,o1_image,175.275,1,175.7678,175.7678,177.7675,0,0,0,0,1,,,,,,,,,,,,,,,,,,,,,,,,,,,,,,,,,,,,,,,,,,,,,,,,,,
,,613334cf5293abe84a78239c,35,male,2024-04-19_18h37.10.889,stockport_simplified,2022.2.4,Win32,60.24096386,661e456ee6de07e70aa9ef7b,66229da636d1666a9ba2e03a,,,,,,,,,,,,,,,,,,,,,,,,,,,,,,,,,,,,,,,,,,,,,,,,,,,,,,,,0,4,4,38,1,A,Y,N,o1_image,stimuli/out1.png,stimuli/correct_out1.png,stimuli/out2.png,,,,,,,,,,,,,,,,,,,,,,,,,,,,,,,,,,,,,,
,,613334cf5293abe84a78239c,35,male,2024-04-19_18h37.10.889,stockport_simplified,2022.2.4,Win32,60.24096386,661e456ee6de07e70aa9ef7b,66229da636d1666a9ba2e03a,,,,,,,,,,,,,,,,,,,,,,,,,,,,,,,,,,177.7679,179.7842,"[2,5,1,8,6,7,3,4]","[[0.3,0.2],[-0.3,0.2]]","[[0.125,-0.2],[-0.125,-0.2]]",-0.112962963,-0.181481481,1,0,0,1.4997,o2_image,179.7849,1,180.2842,180.2842,182.2845,0,0,0,0,1,,,,,,,,,,,,,,,,,,,,,,,,,,,,,,,,,,,,,,,,,,,,,,,,,,
,,613334cf5293abe84a78239c,35,male,2024-04-19_18h37.10.889,stockport_simplified,2022.2.4,Win32,60.24096386,661e456ee6de07e70aa9ef7b,66229da636d1666a9ba2e03a,,,,,,,,,,,,,,,,,,,,,,,,,,,,,,,,,,,,,,,,,,,,,,,,,,,,,,,,0,5,5,15,1,B,Y,N,o2_image,stimuli/out2.png,stimuli/out1.png,stimuli/correct_out2.png,,,,,,,,,,,,,,,,,,,,,,,,,,,,,,,,,,,,,,
,,613334cf5293abe84a78239c,35,male,2024-04-19_18h37.10.889,stockport_simplified,2022.2.4,Win32,60.24096386,661e456ee6de07e70aa9ef7b,66229da636d1666a9ba2e03a,,,,,,,,,,,,,,,,,,,,,,,,,,,,,,,,,,182.2848,184.6342,"[2,5,1,8,6,7,3,4]","[[0.3,0.2],[-0.3,0.2]]","[[-0.125,-0.2],[0.125,-0.2]]",-0.105555556,-0.2,1,0,0,1.8326,o1_image,184.6348,1,185.1342,185.1342,187.1343,0,0,0,0,1,,,,,,,,,,,,,,,,,,,,,,,,,,,,,,,,,,,,,,,,,,,,,,,,,,
,,613334cf5293abe84a78239c,35,male,2024-04-19_18h37.10.889,stockport_simplified,2022.2.4,Win32,60.24096386,661e456ee6de07e70aa9ef7b,66229da636d1666a9ba2e03a,,,,,,,,,,,,,,,,,,,,,,,,,,,,,,,,,,,,,,,,,,,,,,,,,,,,,,,,0,6,6,24,1,N,M,C,o1_image,stimuli/out1.png,stimuli/correct_out1.png,stimuli/out2.png,,,,,,,,,,,,,,,,,,,,,,,,,,,,,,,,,,,,,,
,,613334cf5293abe84a78239c,35,male,2024-04-19_18h37.10.889,stockport_simplified,2022.2.4,Win32,60.24096386,661e456ee6de07e70aa9ef7b,66229da636d1666a9ba2e03a,,,,,,,,,,,,,,,,,,,,,,,,,,,,,,,,,,187.1346,189.0844,"[2,5,1,8,6,7,3,4]","[[-0.3,0.2],[0.3,0.2]]","[[-0.125,-0.2],[0.125,-0.2]]",0.066666667,-0.20462963,1,0,0,1.4328,o2_image,189.0849,1,189.5844,189.5844,191.5842,0,0,0,0,1,,,,,,,,,,,,,,,,,,,,,,,,,,,,,,,,,,,,,,,,,,,,,,,,,,
,,613334cf5293abe84a78239c,35,male,2024-04-19_18h37.10.889,stockport_simplified,2022.2.4,Win32,60.24096386,661e456ee6de07e70aa9ef7b,66229da636d1666a9ba2e03a,,,,,,,,,,,,,,,,,,,,,,,,,,,,,,,,,,,,,,,,,,,,,,,,,,,,,,,,0,7,7,10,1,B,X,N,o2_image,stimuli/out2.png,stimuli/out1.png,stimuli/correct_out2.png,,,,,,,,,,,,,,,,,,,,,,,,,,,,,,,,,,,,,,
,,613334cf5293abe84a78239c,35,male,2024-04-19_18h37.10.889,stockport_simplified,2022.2.4,Win32,60.24096386,661e456ee6de07e70aa9ef7b,66229da636d1666a9ba2e03a,,,,,,,,,,,,,,,,,,,,,,,,,,,,,,,,,,191.5846,193.101,"[2,5,1,8,6,7,3,4]","[[-0.3,0.2],[0.3,0.2]]","[[-0.125,-0.2],[0.125,-0.2]]",-0.09537037,-0.194444444,1,0,0,0.9962,o1_image,193.1016,1,193.6009,193.6009,195.6009,0,0,0,0,1,,,,,,,,,,,,,,,,,,,,,,,,,,,,,,,,,,,,,,,,,,,,,,,,,,
,,613334cf5293abe84a78239c,35,male,2024-04-19_18h37.10.889,stockport_simplified,2022.2.4,Win32,60.24096386,661e456ee6de07e70aa9ef7b,66229da636d1666a9ba2e03a,,,,,,,,,,,,,,,,,,,,,,,,,,,,,,,,,,,,,,,,,,,,,,,,,,,,,,,,0,8,8,53,1,N,M,C,o1_image,stimuli/out1.png,stimuli/correct_out1.png,stimuli/out2.png,,,,,,,,,,,,,,,,,,,,,,,,,,,,,,,,,,,,,,
,,613334cf5293abe84a78239c,35,male,2024-04-19_18h37.10.889,stockport_simplified,2022.2.4,Win32,60.24096386,661e456ee6de07e70aa9ef7b,66229da636d1666a9ba2e03a,,,,,,,,,,,,,,,,,,,,,,,,,,,,,,,,,,195.6012,197.6177,"[2,5,1,8,6,7,3,4]","[[-0.3,0.2],[0.3,0.2]]","[[-0.125,-0.2],[0.125,-0.2]]",-0.107407407,-0.210185185,1,0,0,1.4996,o1_image,197.6183,1,198.1176,198.1176,200.1177,0,0,0,0,1,,,,,,,,,,,,,,,,,,,,,,,,,,,,,,,,,,,,,,,,,,,,,,,,,,
,,613334cf5293abe84a78239c,35,male,2024-04-19_18h37.10.889,stockport_simplified,2022.2.4,Win32,60.24096386,661e456ee6de07e70aa9ef7b,66229da636d1666a9ba2e03a,,,,,,,,,,,,,,,,,,,,,,,,,,,,,,,,,,,,,,,,,,,,,,,,,,,,,,,,0,9,9,35,1,A,Y,N,o1_image,stimuli/out1.png,stimuli/correct_out1.png,stimuli/out2.png,,,,,,,,,,,,,,,,,,,,,,,,,,,,,,,,,,,,,,
,,613334cf5293abe84a78239c,35,male,2024-04-19_18h37.10.889,stockport_simplified,2022.2.4,Win32,60.24096386,661e456ee6de07e70aa9ef7b,66229da636d1666a9ba2e03a,,,,,,,,,,,,,,,,,,,,,,,,,,,,,,,,,,200.118,202.101,"[2,5,1,8,6,7,3,4]","[[-0.3,0.2],[0.3,0.2]]","[[-0.125,-0.2],[0.125,-0.2]]",0.113888889,-0.193518519,1,0,0,1.4629,o2_image,202.1015,1,202.6012,202.6013,204.6009,0,0,0,0,1,,,,,,,,,,,,,,,,,,,,,,,,,,,,,,,,,,,,,,,,,,,,,,,,,,
,,613334cf5293abe84a78239c,35,male,2024-04-19_18h37.10.889,stockport_simplified,2022.2.4,Win32,60.24096386,661e456ee6de07e70aa9ef7b,66229da636d1666a9ba2e03a,,,,,,,,,,,,,,,,,,,,,,,,,,,,,,,,,,,,,,,,,,,,,,,,,,,,,,,,0,10,10,27,1,N,M,D,o2_image,stimuli/out2.png,stimuli/out1.png,stimuli/correct_out2.png,,,,,,,,,,,,,,,,,,,,,,,,,,,,,,,,,,,,,,
,,613334cf5293abe84a78239c,35,male,2024-04-19_18h37.10.889,stockport_simplified,2022.2.4,Win32,60.24096386,661e456ee6de07e70aa9ef7b,66229da636d1666a9ba2e03a,,,,,,,,,,,,,,,,,,,,,,,,,,,,,,,,,,204.6013,206.0676,"[2,5,1,8,6,7,3,4]","[[0.3,0.2],[-0.3,0.2]]","[[0.125,-0.2],[-0.125,-0.2]]",0.117592593,-0.172222222,1,0,0,0.9496,o1_image,206.0681,1,206.5677,206.5677,208.5677,0,0,0,0,1,,,,,,,,,,,,,,,,,,,,,,,,,,,,,,,,,,,,,,,,,,,,,,,,,,
,,613334cf5293abe84a78239c,35,male,2024-04-19_18h37.10.889,stockport_simplified,2022.2.4,Win32,60.24096386,661e456ee6de07e70aa9ef7b,66229da636d1666a9ba2e03a,,,,,,,,,,,,,,,,,,,,,,,,,,,,,,,,,,,,,,,,,,,,,,,,,,,,,,,,0,11,11,20,1,N,M,C,o1_image,stimuli/out1.png,stimuli/correct_out1.png,stimuli/out2.png,,,,,,,,,,,,,,,,,,,,,,,,,,,,,,,,,,,,,,
,,613334cf5293abe84a78239c,35,male,2024-04-19_18h37.10.889,stockport_simplified,2022.2.4,Win32,60.24096386,661e456ee6de07e70aa9ef7b,66229da636d1666a9ba2e03a,,,,,,,,,,,,,,,,,,,,,,,,,,,,,,,,,,208.568,210.201,"[2,5,1,8,6,7,3,4]","[[-0.3,0.2],[0.3,0.2]]","[[0.125,-0.2],[-0.125,-0.2]]",0.131481481,-0.172222222,1,0,0,1.116,o1_image,210.2015,1,210.701,210.701,212.701,0,0,0,0,1,,,,,,,,,,,,,,,,,,,,,,,,,,,,,,,,,,,,,,,,,,,,,,,,,,
,,613334cf5293abe84a78239c,35,male,2024-04-19_18h37.10.889,stockport_simplified,2022.2.4,Win32,60.24096386,661e456ee6de07e70aa9ef7b,66229da636d1666a9ba2e03a,,,,,,,,,,,,,,,,,,,,,,,,,,,,,,,,,,,,,,,,,,,,,,,,,,,,,,,,0,12,12,4,1,A,X,N,o1_image,stimuli/out1.png,stimuli/correct_out1.png,stimuli/out2.png,,,,,,,,,,,,,,,,,,,,,,,,,,,,,,,,,,,,,,
,,613334cf5293abe84a78239c,35,male,2024-04-19_18h37.10.889,stockport_simplified,2022.2.4,Win32,60.24096386,661e456ee6de07e70aa9ef7b,66229da636d1666a9ba2e03a,,,,,,,,,,,,,,,,,,,,,,,,,,,,,,,,,,212.7013,214.9552,"[2,5,1,8,6,7,3,4]","[[-0.3,0.2],[0.3,0.2]]","[[-0.125,-0.2],[0.125,-0.2]]",-0.118518519,-0.187037037,1,0,0,1.7503,o1_image,214.9557,1,215.451,215.451,217.451,0,0,0,0,1,,,,,,,,,,,,,,,,,,,,,,,,,,,,,,,,,,,,,,,,,,,,,,,,,,
,,613334cf5293abe84a78239c,35,male,2024-04-19_18h37.10.889,stockport_simplified,2022.2.4,Win32,60.24096386,661e456ee6de07e70aa9ef7b,66229da636d1666a9ba2e03a,,,,,,,,,,,,,,,,,,,,,,,,,,,,,,,,,,,,,,,,,,,,,,,,,,,,,,,,0,13,13,5,1,A,Y,N,o1_image,stimuli/out1.png,stimuli/correct_out1.png,stimuli/out2.png,,,,,,,,,,,,,,,,,,,,,,,,,,,,,,,,,,,,,,
,,613334cf5293abe84a78239c,35,male,2024-04-19_18h37.10.889,stockport_simplified,2022.2.4,Win32,60.24096386,661e456ee6de07e70aa9ef7b,66229da636d1666a9ba2e03a,,,,,,,,,,,,,,,,,,,,,,,,,,,,,,,,,,217.4514,219.3843,"[2,5,1,8,6,7,3,4]","[[0.3,0.2],[-0.3,0.2]]","[[0.125,-0.2],[-0.125,-0.2]]",-0.108333333,-0.192592593,1,0,0,1.4133,o2_image,219.3849,1,219.8847,219.8847,221.8843,0,0,0,0,1,,,,,,,,,,,,,,,,,,,,,,,,,,,,,,,,,,,,,,,,,,,,,,,,,,
,,613334cf5293abe84a78239c,35,male,2024-04-19_18h37.10.889,stockport_simplified,2022.2.4,Win32,60.24096386,661e456ee6de07e70aa9ef7b,66229da636d1666a9ba2e03a,,,,,,,,,,,,,,,,,,,,,,,,,,,,,,,,,,,,,,,,,,,,,,,,,,,,,,,,0,14,14,25,1,N,M,D,o2_image,stimuli/out2.png,stimuli/out1.png,stimuli/correct_out2.png,,,,,,,,,,,,,,,,,,,,,,,,,,,,,,,,,,,,,,
,,613334cf5293abe84a78239c,35,male,2024-04-19_18h37.10.889,stockport_simplified,2022.2.4,Win32,60.24096386,661e456ee6de07e70aa9ef7b,66229da636d1666a9ba2e03a,,,,,,,,,,,,,,,,,,,,,,,,,,,,,,,,,,221.8847,223.8343,"[2,5,1,8,6,7,3,4]","[[-0.3,0.2],[0.3,0.2]]","[[-0.125,-0.2],[0.125,-0.2]]",0.081481481,-0.206481481,1,0,0,1.4328,o2_image,223.8349,1,224.3345,224.3345,226.3345,0,0,0,0,1,,,,,,,,,,,,,,,,,,,,,,,,,,,,,,,,,,,,,,,,,,,,,,,,,,
,,613334cf5293abe84a78239c,35,male,2024-04-19_18h37.10.889,stockport_simplified,2022.2.4,Win32,60.24096386,661e456ee6de07e70aa9ef7b,66229da636d1666a9ba2e03a,,,,,,,,,,,,,,,,,,,,,,,,,,,,,,,,,,,,,,,,,,,,,,,,,,,,,,,,0,15,15,44,1,B,X,N,o2_image,stimuli/out2.png,stimuli/out1.png,stimuli/correct_out2.png,,,,,,,,,,,,,,,,,,,,,,,,,,,,,,,,,,,,,,
,,613334cf5293abe84a78239c,35,male,2024-04-19_18h37.10.889,stockport_simplified,2022.2.4,Win32,60.24096386,661e456ee6de07e70aa9ef7b,66229da636d1666a9ba2e03a,,,,,,,,,,,,,,,,,,,,,,,,,,,,,,,,,,226.3348,228.1049,"[2,5,1,8,6,7,3,4]","[[-0.3,0.2],[0.3,0.2]]","[[-0.125,-0.2],[0.125,-0.2]]",0.09537037,-0.187962963,1,0,0,1.2533,o2_image,228.1054,1,228.6011,228.6011,230.6049,0,0,0,0,1,,,,,,,,,,,,,,,,,,,,,,,,,,,,,,,,,,,,,,,,,,,,,,,,,,
,,613334cf5293abe84a78239c,35,male,2024-04-19_18h37.10.889,stockport_simplified,2022.2.4,Win32,60.24096386,661e456ee6de07e70aa9ef7b,66229da636d1666a9ba2e03a,,,,,,,,,,,,,,,,,,,,,,,,,,,,,,,,,,,,,,,,,,,,,,,,,,,,,,,,0,16,16,56,1,N,M,D,o2_image,stimuli/out2.png,stimuli/out1.png,stimuli/correct_out2.png,,,,,,,,,,,,,,,,,,,,,,,,,,,,,,,,,,,,,,
,,613334cf5293abe84a78239c,35,male,2024-04-19_18h37.10.889,stockport_simplified,2022.2.4,Win32,60.24096386,661e456ee6de07e70aa9ef7b,66229da636d1666a9ba2e03a,,,,,,,,,,,,,,,,,,,,,,,,,,,,,,,,,,230.6052,231.9511,"[2,5,1,8,6,7,3,4]","[[0.3,0.2],[-0.3,0.2]]","[[-0.125,-0.2],[0.125,-0.2]]",-0.118518519,-0.177777778,1,0,0,0.8331,o1_image,231.9517,1,232.451,232.4511,234.4511,0,0,0,0,1,,,,,,,,,,,,,,,,,,,,,,,,,,,,,,,,,,,,,,,,,,,,,,,,,,
,,613334cf5293abe84a78239c,35,male,2024-04-19_18h37.10.889,stockport_simplified,2022.2.4,Win32,60.24096386,661e456ee6de07e70aa9ef7b,66229da636d1666a9ba2e03a,,,,,,,,,,,,,,,,,,,,,,,,,,,,,,,,,,,,,,,,,,,,,,,,,,,,,,,,0,17,17,21,1,N,M,C,o1_image,stimuli/out1.png,stimuli/correct_out1.png,stimuli/out2.png,,,,,,,,,,,,,,,,,,,,,,,,,,,,,,,,,,,,,,
,,613334cf5293abe84a78239c,35,male,2024-04-19_18h37.10.889,stockport_simplified,2022.2.4,Win32,60.24096386,661e456ee6de07e70aa9ef7b,66229da636d1666a9ba2e03a,,,,,,,,,,,,,,,,,,,,,,,,,,,,,,,,,,234.4514,236.1219,"[2,5,1,8,6,7,3,4]","[[0.3,0.2],[-0.3,0.2]]","[[0.125,-0.2],[-0.125,-0.2]]",0.121296296,-0.184259259,1,0,0,1.1535,o1_image,236.1223,1,236.6181,236.6181,238.6222,0,0,0,0,1,,,,,,,,,,,,,,,,,,,,,,,,,,,,,,,,,,,,,,,,,,,,,,,,,,
,,613334cf5293abe84a78239c,35,male,2024-04-19_18h37.10.889,stockport_simplified,2022.2.4,Win32,60.24096386,661e456ee6de07e70aa9ef7b,66229da636d1666a9ba2e03a,,,,,,,,,,,,,,,,,,,,,,,,,,,,,,,,,,,,,,,,,,,,,,,,,,,,,,,,0,18,18,8,1,A,Y,N,o1_image,stimuli/out1.png,stimuli/correct_out1.png,stimuli/out2.png,,,,,,,,,,,,,,,,,,,,,,,,,,,,,,,,,,,,,,
,,613334cf5293abe84a78239c,35,male,2024-04-19_18h37.10.889,stockport_simplified,2022.2.4,Win32,60.24096386,661e456ee6de07e70aa9ef7b,66229da636d1666a9ba2e03a,,,,,,,,,,,,,,,,,,,,,,,,,,,,,,,,,,238.6226,239.9845,"[2,5,1,8,6,7,3,4]","[[0.3,0.2],[-0.3,0.2]]","[[0.125,-0.2],[-0.125,-0.2]]",0.094444444,-0.175925926,1,0,0,0.8496,o1_image,239.9851,1,240.4845,240.4845,242.4883,0,0,0,0,1,,,,,,,,,,,,,,,,,,,,,,,,,,,,,,,,,,,,,,,,,,,,,,,,,,
,,613334cf5293abe84a78239c,35,male,2024-04-19_18h37.10.889,stockport_simplified,2022.2.4,Win32,60.24096386,661e456ee6de07e70aa9ef7b,66229da636d1666a9ba2e03a,,,,,,,,,,,,,,,,,,,,,,,,,,,,,,,,,,,,,,,,,,,,,,,,,,,,,,,,0,19,19,23,1,N,M,C,o1_image,stimuli/out1.png,stimuli/correct_out1.png,stimuli/out2.png,,,,,,,,,,,,,,,,,,,,,,,,,,,,,,,,,,,,,,
,,613334cf5293abe84a78239c,35,male,2024-04-19_18h37.10.889,stockport_simplified,2022.2.4,Win32,60.24096386,661e456ee6de07e70aa9ef7b,66229da636d1666a9ba2e03a,,,,,,,,,,,,,,,,,,,,,,,,,,,,,,,,,,242.4885,244.1683,"[2,5,1,8,6,7,3,4]","[[0.3,0.2],[-0.3,0.2]]","[[-0.125,-0.2],[0.125,-0.2]]",0.126851852,-0.184259259,1,0,0,1.1646,o2_image,244.1687,1,244.668,244.668,246.6679,0,0,0,0,1,,,,,,,,,,,,,,,,,,,,,,,,,,,,,,,,,,,,,,,,,,,,,,,,,,
,,613334cf5293abe84a78239c,35,male,2024-04-19_18h37.10.889,stockport_simplified,2022.2.4,Win32,60.24096386,661e456ee6de07e70aa9ef7b,66229da636d1666a9ba2e03a,,,,,,,,,,,,,,,,,,,,,,,,,,,,,,,,,,,,,,,,,,,,,,,,,,,,,,,,0,20,20,46,1,B,Y,N,o2_image,stimuli/out2.png,stimuli/out1.png,stimuli/correct_out2.png,,,,,,,,,,,,,,,,,,,,,,,,,,,,,,,,,,,,,,
,,613334cf5293abe84a78239c,35,male,2024-04-19_18h37.10.889,stockport_simplified,2022.2.4,Win32,60.24096386,661e456ee6de07e70aa9ef7b,66229da636d1666a9ba2e03a,,,,,,,,,,,,,,,,,,,,,,,,,,,,,,,,,,246.6681,248.2844,"[2,5,1,8,6,7,3,4]","[[0.3,0.2],[-0.3,0.2]]","[[0.125,-0.2],[-0.125,-0.2]]",-0.122222222,-0.186111111,1,0,0,1.0996,o2_image,248.285,1,248.7849,248.785,250.7847,0,0,0,0,1,,,,,,,,,,,,,,,,,,,,,,,,,,,,,,,,,,,,,,,,,,,,,,,,,,
,,613334cf5293abe84a78239c,35,male,2024-04-19_18h37.10.889,stockport_simplified,2022.2.4,Win32,60.24096386,661e456ee6de07e70aa9ef7b,66229da636d1666a9ba2e03a,,,,,,,,,,,,,,,,,,,,,,,,,,,,,,,,,,,,,,,,,,,,,,,,,,,,,,,,0,21,21,58,1,N,M,D,o2_image,stimuli/out2.png,stimuli/out1.png,stimuli/correct_out2.png,,,,,,,,,,,,,,,,,,,,,,,,,,,,,,,,,,,,,,
,,613334cf5293abe84a78239c,35,male,2024-04-19_18h37.10.889,stockport_simplified,2022.2.4,Win32,60.24096386,661e456ee6de07e70aa9ef7b,66229da636d1666a9ba2e03a,,,,,,,,,,,,,,,,,,,,,,,,,,,,,,,,,,250.785,252.168,"[2,5,1,8,6,7,3,4]","[[-0.3,0.2],[0.3,0.2]]","[[0.125,-0.2],[-0.125,-0.2]]",-0.108333333,-0.193518519,1,0,0,0.8662,o2_image,252.1684,1,252.6686,252.6686,254.6679,0,0,0,0,1,,,,,,,,,,,,,,,,,,,,,,,,,,,,,,,,,,,,,,,,,,,,,,,,,,
,,613334cf5293abe84a78239c,35,male,2024-04-19_18h37.10.889,stockport_simplified,2022.2.4,Win32,60.24096386,661e456ee6de07e70aa9ef7b,66229da636d1666a9ba2e03a,,,,,,,,,,,,,,,,,,,,,,,,,,,,,,,,,,,,,,,,,,,,,,,,,,,,,,,,0,22,22,16,1,B,Y,N,o2_image,stimuli/out2.png,stimuli/out1.png,stimuli/correct_out2.png,,,,,,,,,,,,,,,,,,,,,,,,,,,,,,,,,,,,,,
,,613334cf5293abe84a78239c,35,male,2024-04-19_18h37.10.889,stockport_simplified,2022.2.4,Win32,60.24096386,661e456ee6de07e70aa9ef7b,66229da636d1666a9ba2e03a,,,,,,,,,,,,,,,,,,,,,,,,,,,,,,,,,,254.6682,256.4346,"[2,5,1,8,6,7,3,4]","[[0.3,0.2],[-0.3,0.2]]","[[-0.125,-0.2],[0.125,-0.2]]",0.092592593,-0.208333333,1,0,0,1.2496,o2_image,256.4351,1,256.9347,256.9347,258.9349,0,0,0,0,1,,,,,,,,,,,,,,,,,,,,,,,,,,,,,,,,,,,,,,,,,,,,,,,,,,
,,613334cf5293abe84a78239c,35,male,2024-04-19_18h37.10.889,stockport_simplified,2022.2.4,Win32,60.24096386,661e456ee6de07e70aa9ef7b,66229da636d1666a9ba2e03a,,,,,,,,,,,,,,,,,,,,,,,,,,,,,,,,,,,,,,,,,,,,,,,,,,,,,,,,0,23,23,42,1,B,X,N,o2_image,stimuli/out2.png,stimuli/out1.png,stimuli/correct_out2.png,,,,,,,,,,,,,,,,,,,,,,,,,,,,,,,,,,,,,,
,,613334cf5293abe84a78239c,35,male,2024-04-19_18h37.10.889,stockport_simplified,2022.2.4,Win32,60.24096386,661e456ee6de07e70aa9ef7b,66229da636d1666a9ba2e03a,,,,,,,,,,,,,,,,,,,,,,,,,,,,,,,,,,258.9352,260.1513,"[2,5,1,8,6,7,3,4]","[[-0.3,0.2],[0.3,0.2]]","[[0.125,-0.2],[-0.125,-0.2]]",0.1,-0.202777778,1,0,0,0.6996,o1_image,260.1518,1,260.655,260.655,262.6551,0,0,0,0,1,,,,,,,,,,,,,,,,,,,,,,,,,,,,,,,,,,,,,,,,,,,,,,,,,,
,,613334cf5293abe84a78239c,35,male,2024-04-19_18h37.10.889,stockport_simplified,2022.2.4,Win32,60.24096386,661e456ee6de07e70aa9ef7b,66229da636d1666a9ba2e03a,,,,,,,,,,,,,,,,,,,,,,,,,,,,,,,,,,,,,,,,,,,,,,,,,,,,,,,,0,24,24,54,1,N,M,C,o1_image,stimuli/out1.png,stimuli/correct_out1.png,stimuli/out2.png,,,,,,,,,,,,,,,,,,,,,,,,,,,,,,,,,,,,,,
,,613334cf5293abe84a78239c,35,male,2024-04-19_18h37.10.889,stockport_simplified,2022.2.4,Win32,60.24096386,661e456ee6de07e70aa9ef7b,66229da636d1666a9ba2e03a,,,,,,,,,,,,,,,,,,,,,,,,,,,,,,,,,,262.6553,264.4053,"[2,5,1,8,6,7,3,4]","[[0.3,0.2],[-0.3,0.2]]","[[-0.125,-0.2],[0.125,-0.2]]",0.112037037,-0.200925926,1,0,0,1.2369,o2_image,264.4059,1,264.9013,264.9013,266.9013,0,0,0,0,1,,,,,,,,,,,,,,,,,,,,,,,,,,,,,,,,,,,,,,,,,,,,,,,,,,
,,613334cf5293abe84a78239c,35,male,2024-04-19_18h37.10.889,stockport_simplified,2022.2.4,Win32,60.24096386,661e456ee6de07e70aa9ef7b,66229da636d1666a9ba2e03a,,,,,,,,,,,,,,,,,,,,,,,,,,,,,,,,,,,,,,,,,,,,,,,,,,,,,,,,0,25,25,18,1,B,Y,N,o2_image,stimuli/out2.png,stimuli/out1.png,stimuli/correct_out2.png,,,,,,,,,,,,,,,,,,,,,,,,,,,,,,,,,,,,,,
,,613334cf5293abe84a78239c,35,male,2024-04-19_18h37.10.889,stockport_simplified,2022.2.4,Win32,60.24096386,661e456ee6de07e70aa9ef7b,66229da636d1666a9ba2e03a,,,,,,,,,,,,,,,,,,,,,,,,,,,,,,,,,,266.9016,268.5679,"[2,5,1,8,6,7,3,4]","[[-0.3,0.2],[0.3,0.2]]","[[0.125,-0.2],[-0.125,-0.2]]",-0.135185185,-0.188888889,1,0,0,1.1629,o2_image,268.5684,1,269.0718,269.0718,271.068,0,0,0,0,1,,,,,,,,,,,,,,,,,,,,,,,,,,,,,,,,,,,,,,,,,,,,,,,,,,
,,613334cf5293abe84a78239c,35,male,2024-04-19_18h37.10.889,stockport_simplified,2022.2.4,Win32,60.24096386,661e456ee6de07e70aa9ef7b,66229da636d1666a9ba2e03a,,,,,,,,,,,,,,,,,,,,,,,,,,,,,,,,,,,,,,,,,,,,,,,,,,,,,,,,0,26,26,12,1,B,X,N,o2_image,stimuli/out2.png,stimuli/out1.png,stimuli/correct_out2.png,,,,,,,,,,,,,,,,,,,,,,,,,,,,,,,,,,,,,,
,,613334cf5293abe84a78239c,35,male,2024-04-19_18h37.10.889,stockport_simplified,2022.2.4,Win32,60.24096386,661e456ee6de07e70aa9ef7b,66229da636d1666a9ba2e03a,,,,,,,,,,,,,,,,,,,,,,,,,,,,,,,,,,271.0683,272.7181,"[2,5,1,8,6,7,3,4]","[[0.3,0.2],[-0.3,0.2]]","[[-0.125,-0.2],[0.125,-0.2]]",0.090740741,-0.198148148,1,0,0,1.1299,o2_image,272.7187,1,273.2182,273.2182,275.218,0,0,0,0,1,,,,,,,,,,,,,,,,,,,,,,,,,,,,,,,,,,,,,,,,,,,,,,,,,,
,,613334cf5293abe84a78239c,35,male,2024-04-19_18h37.10.889,stockport_simplified,2022.2.4,Win32,60.24096386,661e456ee6de07e70aa9ef7b,66229da636d1666a9ba2e03a,,,,,,,,,,,,,,,,,,,,,,,,,,,,,,,,,,,,,,,,,,,,,,,,,,,,,,,,0,27,27,47,1,B,Y,N,o2_image,stimuli/out2.png,stimuli/out1.png,stimuli/correct_out2.png,,,,,,,,,,,,,,,,,,,,,,,,,,,,,,,,,,,,,,
,,613334cf5293abe84a78239c,35,male,2024-04-19_18h37.10.889,stockport_simplified,2022.2.4,Win32,60.24096386,661e456ee6de07e70aa9ef7b,66229da636d1666a9ba2e03a,,,,,,,,,,,,,,,,,,,,,,,,,,,,,,,,,,275.2182,276.9222,"[2,5,1,8,6,7,3,4]","[[0.3,0.2],[-0.3,0.2]]","[[-0.125,-0.2],[0.125,-0.2]]",-0.092592593,-0.190740741,1,0,0,1.1874,o1_image,276.9227,1,277.4223,277.4223,279.4226,0,0,0,0,1,,,,,,,,,,,,,,,,,,,,,,,,,,,,,,,,,,,,,,,,,,,,,,,,,,
,,613334cf5293abe84a78239c,35,male,2024-04-19_18h37.10.889,stockport_simplified,2022.2.4,Win32,60.24096386,661e456ee6de07e70aa9ef7b,66229da636d1666a9ba2e03a,,,,,,,,,,,,,,,,,,,,,,,,,,,,,,,,,,,,,,,,,,,,,,,,,,,,,,,,0,28,28,6,1,A,Y,N,o1_image,stimuli/out1.png,stimuli/correct_out1.png,stimuli/out2.png,,,,,,,,,,,,,,,,,,,,,,,,,,,,,,,,,,,,,,
,,613334cf5293abe84a78239c,35,male,2024-04-19_18h37.10.889,stockport_simplified,2022.2.4,Win32,60.24096386,661e456ee6de07e70aa9ef7b,66229da636d1666a9ba2e03a,,,,,,,,,,,,,,,,,,,,,,,,,,,,,,,,,,279.4228,280.8514,"[2,5,1,8,6,7,3,4]","[[0.3,0.2],[-0.3,0.2]]","[[-0.125,-0.2],[0.125,-0.2]]",0.10462963,-0.209259259,1,0,0,0.9163,o2_image,280.8519,1,281.3514,281.3514,283.3513,0,0,0,0,1,,,,,,,,,,,,,,,,,,,,,,,,,,,,,,,,,,,,,,,,,,,,,,,,,,
,,613334cf5293abe84a78239c,35,male,2024-04-19_18h37.10.889,stockport_simplified,2022.2.4,Win32,60.24096386,661e456ee6de07e70aa9ef7b,66229da636d1666a9ba2e03a,,,,,,,,,,,,,,,,,,,,,,,,,,,,,,,,,,,,,,,,,,,,,,,,,,,,,,,,0,29,29,43,1,B,X,N,o2_image,stimuli/out2.png,stimuli/out1.png,stimuli/correct_out2.png,,,,,,,,,,,,,,,,,,,,,,,,,,,,,,,,,,,,,,
,,613334cf5293abe84a78239c,35,male,2024-04-19_18h37.10.889,stockport_simplified,2022.2.4,Win32,60.24096386,661e456ee6de07e70aa9ef7b,66229da636d1666a9ba2e03a,,,,,,,,,,,,,,,,,,,,,,,,,,,,,,,,,,283.3516,284.8513,"[2,5,1,8,6,7,3,4]","[[0.3,0.2],[-0.3,0.2]]","[[-0.125,-0.2],[0.125,-0.2]]",0.105555556,-0.201851852,1,0,0,0.996,o2_image,284.8519,1,285.3514,285.3514,287.3555,0,0,0,0,1,,,,,,,,,,,,,,,,,,,,,,,,,,,,,,,,,,,,,,,,,,,,,,,,,,
,,613334cf5293abe84a78239c,35,male,2024-04-19_18h37.10.889,stockport_simplified,2022.2.4,Win32,60.24096386,661e456ee6de07e70aa9ef7b,66229da636d1666a9ba2e03a,,,,,,,,,,,,,,,,,,,,,,,,,,,,,,,,,,,,,,,,,,,,,,,,,,,,,,,,0,30,30,28,1,N,M,D,o2_image,stimuli/out2.png,stimuli/out1.png,stimuli/correct_out2.png,,,,,,,,,,,,,,,,,,,,,,,,,,,,,,,,,,,,,,
,,613334cf5293abe84a78239c,35,male,2024-04-19_18h37.10.889,stockport_simplified,2022.2.4,Win32,60.24096386,661e456ee6de07e70aa9ef7b,66229da636d1666a9ba2e03a,,,,,,,,,,,,,,,,,,,,,,,,,,,,,,,,,,287.3557,288.818,"[2,5,1,8,6,7,3,4]","[[0.3,0.2],[-0.3,0.2]]","[[-0.125,-0.2],[0.125,-0.2]]",0.09537037,-0.20462963,1,0,0,0.9494,o2_image,288.8185,1,289.3181,289.3182,291.318,0,0,0,0,1,,,,,,,,,,,,,,,,,,,,,,,,,,,,,,,,,,,,,,,,,,,,,,,,,,
,,613334cf5293abe84a78239c,35,male,2024-04-19_18h37.10.889,stockport_simplified,2022.2.4,Win32,60.24096386,661e456ee6de07e70aa9ef7b,66229da636d1666a9ba2e03a,,,,,,,,,,,,,,,,,,,,,,,,,,,,,,,,,,,,,,,,,,,,,,,,,,,,,,,,0,31,31,40,1,B,X,N,o2_image,stimuli/out2.png,stimuli/out1.png,stimuli/correct_out2.png,,,,,,,,,,,,,,,,,,,,,,,,,,,,,,,,,,,,,,
,,613334cf5293abe84a78239c,35,male,2024-04-19_18h37.10.889,stockport_simplified,2022.2.4,Win32,60.24096386,661e456ee6de07e70aa9ef7b,66229da636d1666a9ba2e03a,,,,,,,,,,,,,,,,,,,,,,,,,,,,,,,,,,291.3184,292.668,"[2,5,1,8,6,7,3,4]","[[0.3,0.2],[-0.3,0.2]]","[[0.125,-0.2],[-0.125,-0.2]]",0.14537037,-0.212962963,1,0,0,0.8329,o1_image,292.6686,1,293.168,293.168,295.1718,0,0,0,0,1,,,,,,,,,,,,,,,,,,,,,,,,,,,,,,,,,,,,,,,,,,,,,,,,,,
,,613334cf5293abe84a78239c,35,male,2024-04-19_18h37.10.889,stockport_simplified,2022.2.4,Win32,60.24096386,661e456ee6de07e70aa9ef7b,66229da636d1666a9ba2e03a,,,,,,,,,,,,,,,,,,,,,,,,,,,,,,,,,,,,,,,,,,,,,,,,,,,,,,,,0,32,32,3,1,A,X,N,o1_image,stimuli/out1.png,stimuli/correct_out1.png,stimuli/out2.png,,,,,,,,,,,,,,,,,,,,,,,,,,,,,,,,,,,,,,
,,613334cf5293abe84a78239c,35,male,2024-04-19_18h37.10.889,stockport_simplified,2022.2.4,Win32,60.24096386,661e456ee6de07e70aa9ef7b,66229da636d1666a9ba2e03a,,,,,,,,,,,,,,,,,,,,,,,,,,,,,,,,,,295.1721,296.6516,"[2,5,1,8,6,7,3,4]","[[-0.3,0.2],[0.3,0.2]]","[[-0.125,-0.2],[0.125,-0.2]]",-0.092592593,-0.185185185,1,0,0,0.9666,o1_image,296.652,1,297.1555,297.1556,299.1514,0,0,0,0,1,,,,,,,,,,,,,,,,,,,,,,,,,,,,,,,,,,,,,,,,,,,,,,,,,,
,,613334cf5293abe84a78239c,35,male,2024-04-19_18h37.10.889,stockport_simplified,2022.2.4,Win32,60.24096386,661e456ee6de07e70aa9ef7b,66229da636d1666a9ba2e03a,,,,,,,,,,,,,,,,,,,,,,,,,,,,,,,,,,,,,,,,,,,,,,,,,,,,,,,,0,33,33,7,1,A,Y,N,o1_image,stimuli/out1.png,stimuli/correct_out1.png,stimuli/out2.png,,,,,,,,,,,,,,,,,,,,,,,,,,,,,,,,,,,,,,
,,613334cf5293abe84a78239c,35,male,2024-04-19_18h37.10.889,stockport_simplified,2022.2.4,Win32,60.24096386,661e456ee6de07e70aa9ef7b,66229da636d1666a9ba2e03a,,,,,,,,,,,,,,,,,,,,,,,,,,,,,,,,,,299.1517,300.504,"[2,5,1,8,6,7,3,4]","[[-0.3,0.2],[0.3,0.2]]","[[0.125,-0.2],[-0.125,-0.2]]",0.103703704,-0.200925926,1,0,0,0.8357,o1_image,300.5045,1,301.0014,301.0015,303.0014,0,0,0,0,1,,,,,,,,,,,,,,,,,,,,,,,,,,,,,,,,,,,,,,,,,,,,,,,,,,
,,613334cf5293abe84a78239c,35,male,2024-04-19_18h37.10.889,stockport_simplified,2022.2.4,Win32,60.24096386,661e456ee6de07e70aa9ef7b,66229da636d1666a9ba2e03a,,,,,,,,,,,,,,,,,,,,,,,,,,,,,,,,,,,,,,,,,,,,,,,,,,,,,,,,0,34,34,34,1,A,X,N,o1_image,stimuli/out1.png,stimuli/correct_out1.png,stimuli/out2.png,,,,,,,,,,,,,,,,,,,,,,,,,,,,,,,,,,,,,,
,,613334cf5293abe84a78239c,35,male,2024-04-19_18h37.10.889,stockport_simplified,2022.2.4,Win32,60.24096386,661e456ee6de07e70aa9ef7b,66229da636d1666a9ba2e03a,,,,,,,,,,,,,,,,,,,,,,,,,,,,,,,,,,303.0017,304.5354,"[2,5,1,8,6,7,3,4]","[[-0.3,0.2],[0.3,0.2]]","[[-0.125,-0.2],[0.125,-0.2]]",-0.124074074,-0.193518519,1,0,0,1.0146,o1_image,304.5358,1,305.039,305.039,307.0349,0,0,0,0,1,,,,,,,,,,,,,,,,,,,,,,,,,,,,,,,,,,,,,,,,,,,,,,,,,,
,,613334cf5293abe84a78239c,35,male,2024-04-19_18h37.10.889,stockport_simplified,2022.2.4,Win32,60.24096386,661e456ee6de07e70aa9ef7b,66229da636d1666a9ba2e03a,,,,,,,,,,,,,,,,,,,,,,,,,,,,,,,,,,,,,,,,,,,,,,,,,,,,,,,,0,35,35,51,1,N,M,C,o1_image,stimuli/out1.png,stimuli/correct_out1.png,stimuli/out2.png,,,,,,,,,,,,,,,,,,,,,,,,,,,,,,,,,,,,,,
,,613334cf5293abe84a78239c,35,male,2024-04-19_18h37.10.889,stockport_simplified,2022.2.4,Win32,60.24096386,661e456ee6de07e70aa9ef7b,66229da636d1666a9ba2e03a,,,,,,,,,,,,,,,,,,,,,,,,,,,,,,,,,,307.0351,308.4181,"[2,5,1,8,6,7,3,4]","[[0.3,0.2],[-0.3,0.2]]","[[-0.125,-0.2],[0.125,-0.2]]",0.101851852,-0.19537037,1,0,0,0.8661,o2_image,308.4188,1,308.9224,308.9225,310.9182,0,0,0,0,1,,,,,,,,,,,,,,,,,,,,,,,,,,,,,,,,,,,,,,,,,,,,,,,,,,
,,613334cf5293abe84a78239c,35,male,2024-04-19_18h37.10.889,stockport_simplified,2022.2.4,Win32,60.24096386,661e456ee6de07e70aa9ef7b,66229da636d1666a9ba2e03a,,,,,,,,,,,,,,,,,,,,,,,,,,,,,,,,,,,,,,,,,,,,,,,,,,,,,,,,0,36,36,14,1,B,X,N,o2_image,stimuli/out2.png,stimuli/out1.png,stimuli/correct_out2.png,,,,,,,,,,,,,,,,,,,,,,,,,,,,,,,,,,,,,,
,,613334cf5293abe84a78239c,35,male,2024-04-19_18h37.10.889,stockport_simplified,2022.2.4,Win32,60.24096386,661e456ee6de07e70aa9ef7b,66229da636d1666a9ba2e03a,,,,,,,,,,,,,,,,,,,,,,,,,,,,,,,,,,310.9184,312.5016,"[2,5,1,8,6,7,3,4]","[[-0.3,0.2],[0.3,0.2]]","[[0.125,-0.2],[-0.125,-0.2]]",-0.097222222,-0.194444444,1,0,0,1.0665,o2_image,312.5021,1,313.0015,313.0015,315.0015,0,0,0,0,1,,,,,,,,,,,,,,,,,,,,,,,,,,,,,,,,,,,,,,,,,,,,,,,,,,
,,613334cf5293abe84a78239c,35,male,2024-04-19_18h37.10.889,stockport_simplified,2022.2.4,Win32,60.24096386,661e456ee6de07e70aa9ef7b,66229da636d1666a9ba2e03a,,,,,,,,,,,,,,,,,,,,,,,,,,,,,,,,,,,,,,,,,,,,,,,,,,,,,,,,0,37,37,49,1,B,Y,N,o2_image,stimuli/out2.png,stimuli/out1.png,stimuli/correct_out2.png,,,,,,,,,,,,,,,,,,,,,,,,,,,,,,,,,,,,,,
,,613334cf5293abe84a78239c,35,male,2024-04-19_18h37.10.889,stockport_simplified,2022.2.4,Win32,60.24096386,661e456ee6de07e70aa9ef7b,66229da636d1666a9ba2e03a,,,,,,,,,,,,,,,,,,,,,,,,,,,,,,,,,,315.0018,316.3847,"[2,5,1,8,6,7,3,4]","[[0.3,0.2],[-0.3,0.2]]","[[0.125,-0.2],[-0.125,-0.2]]",-0.076851852,-0.171296296,1,0,0,0.8662,o2_image,316.3853,1,316.8851,316.8851,318.8849,0,0,0,0,1,,,,,,,,,,,,,,,,,,,,,,,,,,,,,,,,,,,,,,,,,,,,,,,,,,
,,613334cf5293abe84a78239c,35,male,2024-04-19_18h37.10.889,stockport_simplified,2022.2.4,Win32,60.24096386,661e456ee6de07e70aa9ef7b,66229da636d1666a9ba2e03a,,,,,,,,,,,,,,,,,,,,,,,,,,,,,,,,,,,,,,,,,,,,,,,,,,,,,,,,0,38,38,45,1,B,Y,N,o2_image,stimuli/out2.png,stimuli/out1.png,stimuli/correct_out2.png,,,,,,,,,,,,,,,,,,,,,,,,,,,,,,,,,,,,,,
,,613334cf5293abe84a78239c,35,male,2024-04-19_18h37.10.889,stockport_simplified,2022.2.4,Win32,60.24096386,661e456ee6de07e70aa9ef7b,66229da636d1666a9ba2e03a,,,,,,,,,,,,,,,,,,,,,,,,,,,,,,,,,,318.885,320.3516,"[2,5,1,8,6,7,3,4]","[[0.3,0.2],[-0.3,0.2]]","[[-0.125,-0.2],[0.125,-0.2]]",0.100925926,-0.199074074,1,0,0,0.9494,o2_image,320.3521,1,320.8516,320.8516,322.8517,0,0,0,0,1,,,,,,,,,,,,,,,,,,,,,,,,,,,,,,,,,,,,,,,,,,,,,,,,,,
,,613334cf5293abe84a78239c,35,male,2024-04-19_18h37.10.889,stockport_simplified,2022.2.4,Win32,60.24096386,661e456ee6de07e70aa9ef7b,66229da636d1666a9ba2e03a,,,,,,,,,,,,,,,,,,,,,,,,,,,,,,,,,,,,,,,,,,,,,,,,,,,,,,,,0,39,39,57,1,N,M,D,o2_image,stimuli/out2.png,stimuli/out1.png,stimuli/correct_out2.png,,,,,,,,,,,,,,,,,,,,,,,,,,,,,,,,,,,,,,
,,613334cf5293abe84a78239c,35,male,2024-04-19_18h37.10.889,stockport_simplified,2022.2.4,Win32,60.24096386,661e456ee6de07e70aa9ef7b,66229da636d1666a9ba2e03a,,,,,,,,,,,,,,,,,,,,,,,,,,,,,,,,,,322.8519,324.5517,"[2,5,1,8,6,7,3,4]","[[-0.3,0.2],[0.3,0.2]]","[[0.125,-0.2],[-0.125,-0.2]]",-0.113888889,-0.194444444,1,0,0,1.1833,o2_image,324.5521,1,325.0517,325.0517,327.0518,0,0,0,0,1,,,,,,,,,,,,,,,,,,,,,,,,,,,,,,,,,,,,,,,,,,,,,,,,,,
,,613334cf5293abe84a78239c,35,male,2024-04-19_18h37.10.889,stockport_simplified,2022.2.4,Win32,60.24096386,661e456ee6de07e70aa9ef7b,66229da636d1666a9ba2e03a,,,,,,,,,,,,,,,,,,,,,,,,,,,,,,,,,,,,,,,,,,,,,,,,,,,,,,,,0,40,40,29,1,N,M,D,o2_image,stimuli/out2.png,stimuli/out1.png,stimuli/correct_out2.png,,,,,,,,,,,,,,,,,,,,,,,,,,,,,,,,,,,,,,
,,613334cf5293abe84a78239c,35,male,2024-04-19_18h37.10.889,stockport_simplified,2022.2.4,Win32,60.24096386,661e456ee6de07e70aa9ef7b,66229da636d1666a9ba2e03a,,,,,,,,,,,,,,,,,,,,,,,,,,,,,,,,,,327.052,328.6353,"[2,5,1,8,6,7,3,4]","[[0.3,0.2],[-0.3,0.2]]","[[-0.125,-0.2],[0.125,-0.2]]",-0.100925926,-0.190740741,1,0,0,1.0664,o1_image,328.6362,1,329.1349,329.135,331.1351,0,0,0,0,1,,,,,,,,,,,,,,,,,,,,,,,,,,,,,,,,,,,,,,,,,,,,,,,,,,
,,613334cf5293abe84a78239c,35,male,2024-04-19_18h37.10.889,stockport_simplified,2022.2.4,Win32,60.24096386,661e456ee6de07e70aa9ef7b,66229da636d1666a9ba2e03a,,,,,,,,,,,,,,,,,,,,,,,,,,,,,,,,,,,,,,,,,,,,,,,,,,,,,,,,0,41,41,9,1,A,Y,N,o1_image,stimuli/out1.png,stimuli/correct_out1.png,stimuli/out2.png,,,,,,,,,,,,,,,,,,,,,,,,,,,,,,,,,,,,,,
,,613334cf5293abe84a78239c,35,male,2024-04-19_18h37.10.889,stockport_simplified,2022.2.4,Win32,60.24096386,661e456ee6de07e70aa9ef7b,66229da636d1666a9ba2e03a,,,,,,,,,,,,,,,,,,,,,,,,,,,,,,,,,,331.1354,332.7516,"[2,5,1,8,6,7,3,4]","[[-0.3,0.2],[0.3,0.2]]","[[0.125,-0.2],[-0.125,-0.2]]",-0.086111111,-0.178703704,1,0,0,1.0998,o2_image,332.752,1,333.252,333.252,335.2516,0,0,0,0,1,,,,,,,,,,,,,,,,,,,,,,,,,,,,,,,,,,,,,,,,,,,,,,,,,,
,,613334cf5293abe84a78239c,35,male,2024-04-19_18h37.10.889,stockport_simplified,2022.2.4,Win32,60.24096386,661e456ee6de07e70aa9ef7b,66229da636d1666a9ba2e03a,,,,,,,,,,,,,,,,,,,,,,,,,,,,,,,,,,,,,,,,,,,,,,,,,,,,,,,,0,42,42,19,1,B,Y,N,o2_image,stimuli/out2.png,stimuli/out1.png,stimuli/correct_out2.png,,,,,,,,,,,,,,,,,,,,,,,,,,,,,,,,,,,,,,
,,613334cf5293abe84a78239c,35,male,2024-04-19_18h37.10.889,stockport_simplified,2022.2.4,Win32,60.24096386,661e456ee6de07e70aa9ef7b,66229da636d1666a9ba2e03a,,,,,,,,,,,,,,,,,,,,,,,,,,,,,,,,,,335.2518,336.7683,"[2,5,1,8,6,7,3,4]","[[0.3,0.2],[-0.3,0.2]]","[[0.125,-0.2],[-0.125,-0.2]]",0.108333333,-0.208333333,1,0,0,0.9997,o1_image,336.7689,1,337.2683,337.2683,339.2685,0,0,0,0,1,,,,,,,,,,,,,,,,,,,,,,,,,,,,,,,,,,,,,,,,,,,,,,,,,,
,,613334cf5293abe84a78239c,35,male,2024-04-19_18h37.10.889,stockport_simplified,2022.2.4,Win32,60.24096386,661e456ee6de07e70aa9ef7b,66229da636d1666a9ba2e03a,,,,,,,,,,,,,,,,,,,,,,,,,,,,,,,,,,,,,,,,,,,,,,,,,,,,,,,,0,43,43,37,1,A,Y,N,o1_image,stimuli/out1.png,stimuli/correct_out1.png,stimuli/out2.png,,,,,,,,,,,,,,,,,,,,,,,,,,,,,,,,,,,,,,
,,613334cf5293abe84a78239c,35,male,2024-04-19_18h37.10.889,stockport_simplified,2022.2.4,Win32,60.24096386,661e456ee6de07e70aa9ef7b,66229da636d1666a9ba2e03a,,,,,,,,,,,,,,,,,,,,,,,,,,,,,,,,,,339.2689,340.6683,"[2,5,1,8,6,7,3,4]","[[-0.3,0.2],[0.3,0.2]]","[[-0.125,-0.2],[0.125,-0.2]]",0.110185185,-0.177777778,1,0,0,0.883,o2_image,340.6688,1,341.1683,341.1684,343.1682,0,0,0,0,1,,,,,,,,,,,,,,,,,,,,,,,,,,,,,,,,,,,,,,,,,,,,,,,,,,
,,613334cf5293abe84a78239c,35,male,2024-04-19_18h37.10.889,stockport_simplified,2022.2.4,Win32,60.24096386,661e456ee6de07e70aa9ef7b,66229da636d1666a9ba2e03a,,,,,,,,,,,,,,,,,,,,,,,,,,,,,,,,,,,,,,,,,,,,,,,,,,,,,,,,0,44,44,26,1,N,M,D,o2_image,stimuli/out2.png,stimuli/out1.png,stimuli/correct_out2.png,,,,,,,,,,,,,,,,,,,,,,,,,,,,,,,,,,,,,,
,,613334cf5293abe84a78239c,35,male,2024-04-19_18h37.10.889,stockport_simplified,2022.2.4,Win32,60.24096386,661e456ee6de07e70aa9ef7b,66229da636d1666a9ba2e03a,,,,,,,,,,,,,,,,,,,,,,,,,,,,,,,,,,343.1685,344.5018,"[2,5,1,8,6,7,3,4]","[[0.3,0.2],[-0.3,0.2]]","[[-0.125,-0.2],[0.125,-0.2]]",-0.107407407,-0.17037037,1,0,0,0.8163,o1_image,344.5022,1,345.0058,345.0058,347.0016,0,0,0,0,1,,,,,,,,,,,,,,,,,,,,,,,,,,,,,,,,,,,,,,,,,,,,,,,,,,
,,613334cf5293abe84a78239c,35,male,2024-04-19_18h37.10.889,stockport_simplified,2022.2.4,Win32,60.24096386,661e456ee6de07e70aa9ef7b,66229da636d1666a9ba2e03a,,,,,,,,,,,,,,,,,,,,,,,,,,,,,,,,,,,,,,,,,,,,,,,,,,,,,,,,0,45,45,33,1,A,X,N,o1_image,stimuli/out1.png,stimuli/correct_out1.png,stimuli/out2.png,,,,,,,,,,,,,,,,,,,,,,,,,,,,,,,,,,,,,,
,,613334cf5293abe84a78239c,35,male,2024-04-19_18h37.10.889,stockport_simplified,2022.2.4,Win32,60.24096386,661e456ee6de07e70aa9ef7b,66229da636d1666a9ba2e03a,,,,,,,,,,,,,,,,,,,,,,,,,,,,,,,,,,347.0019,348.285,"[2,5,1,8,6,7,3,4]","[[0.3,0.2],[-0.3,0.2]]","[[0.125,-0.2],[-0.125,-0.2]]",0.103703704,-0.191666667,1,0,0,0.7659,o1_image,348.2855,1,348.7849,348.7849,350.7854,0,0,0,0,1,,,,,,,,,,,,,,,,,,,,,,,,,,,,,,,,,,,,,,,,,,,,,,,,,,
,,613334cf5293abe84a78239c,35,male,2024-04-19_18h37.10.889,stockport_simplified,2022.2.4,Win32,60.24096386,661e456ee6de07e70aa9ef7b,66229da636d1666a9ba2e03a,,,,,,,,,,,,,,,,,,,,,,,,,,,,,,,,,,,,,,,,,,,,,,,,,,,,,,,,0,46,46,52,1,N,M,C,o1_image,stimuli/out1.png,stimuli/correct_out1.png,stimuli/out2.png,,,,,,,,,,,,,,,,,,,,,,,,,,,,,,,,,,,,,,
,,613334cf5293abe84a78239c,35,male,2024-04-19_18h37.10.889,stockport_simplified,2022.2.4,Win32,60.24096386,661e456ee6de07e70aa9ef7b,66229da636d1666a9ba2e03a,,,,,,,,,,,,,,,,,,,,,,,,,,,,,,,,,,350.7856,352.2186,"[2,5,1,8,6,7,3,4]","[[0.3,0.2],[-0.3,0.2]]","[[0.125,-0.2],[-0.125,-0.2]]",-0.116666667,-0.187962963,1,0,0,0.9165,o2_image,352.2191,1,352.7224,352.7225,354.7187,0,0,0,0,1,,,,,,,,,,,,,,,,,,,,,,,,,,,,,,,,,,,,,,,,,,,,,,,,,,
,,613334cf5293abe84a78239c,35,male,2024-04-19_18h37.10.889,stockport_simplified,2022.2.4,Win32,60.24096386,661e456ee6de07e70aa9ef7b,66229da636d1666a9ba2e03a,,,,,,,,,,,,,,,,,,,,,,,,,,,,,,,,,,,,,,,,,,,,,,,,,,,,,,,,0,47,47,17,1,B,Y,N,o2_image,stimuli/out2.png,stimuli/out1.png,stimuli/correct_out2.png,,,,,,,,,,,,,,,,,,,,,,,,,,,,,,,,,,,,,,
,,613334cf5293abe84a78239c,35,male,2024-04-19_18h37.10.889,stockport_simplified,2022.2.4,Win32,60.24096386,661e456ee6de07e70aa9ef7b,66229da636d1666a9ba2e03a,,,,,,,,,,,,,,,,,,,,,,,,,,,,,,,,,,354.7189,356.2184,"[2,5,1,8,6,7,3,4]","[[-0.3,0.2],[0.3,0.2]]","[[-0.125,-0.2],[0.125,-0.2]]",-0.119444444,-0.175925926,1,0,0,0.9831,o1_image,356.2189,1,356.7186,356.7186,358.7187,0,0,0,0,1,,,,,,,,,,,,,,,,,,,,,,,,,,,,,,,,,,,,,,,,,,,,,,,,,,
,,613334cf5293abe84a78239c,35,male,2024-04-19_18h37.10.889,stockport_simplified,2022.2.4,Win32,60.24096386,661e456ee6de07e70aa9ef7b,66229da636d1666a9ba2e03a,,,,,,,,,,,,,,,,,,,,,,,,,,,,,,,,,,,,,,,,,,,,,,,,,,,,,,,,0,48,48,32,1,A,X,N,o1_image,stimuli/out1.png,stimuli/correct_out1.png,stimuli/out2.png,,,,,,,,,,,,,,,,,,,,,,,,,,,,,,,,,,,,,,
,,613334cf5293abe84a78239c,35,male,2024-04-19_18h37.10.889,stockport_simplified,2022.2.4,Win32,60.24096386,661e456ee6de07e70aa9ef7b,66229da636d1666a9ba2e03a,,,,,,,,,,,,,,,,,,,,,,,,,,,,,,,,,,358.719,360.2227,"[2,5,1,8,6,7,3,4]","[[-0.3,0.2],[0.3,0.2]]","[[0.125,-0.2],[-0.125,-0.2]]",-0.082407407,-0.184259259,1,0,0,0.9874,o2_image,360.2231,1,360.7225,360.7225,362.7185,0,0,0,0,1,,,,,,,,,,,,,,,,,,,,,,,,,,,,,,,,,,,,,,,,,,,,,,,,,,
,,613334cf5293abe84a78239c,35,male,2024-04-19_18h37.10.889,stockport_simplified,2022.2.4,Win32,60.24096386,661e456ee6de07e70aa9ef7b,66229da636d1666a9ba2e03a,,,,,,,,,,,,,,,,,,,,,,,,,,,,,,,,,,,,,,,,,,,,,,,,,,,,,,,,0,49,49,13,1,B,X,N,o2_image,stimuli/out2.png,stimuli/out1.png,stimuli/correct_out2.png,,,,,,,,,,,,,,,,,,,,,,,,,,,,,,,,,,,,,,
,,613334cf5293abe84a78239c,35,male,2024-04-19_18h37.10.889,stockport_simplified,2022.2.4,Win32,60.24096386,661e456ee6de07e70aa9ef7b,66229da636d1666a9ba2e03a,,,,,,,,,,,,,,,,,,,,,,,,,,,,,,,,,,362.7189,364.2893,"[2,5,1,8,6,7,3,4]","[[0.3,0.2],[-0.3,0.2]]","[[-0.125,-0.2],[0.125,-0.2]]",-0.1,-0.192592593,1,0,0,1.0671,o1_image,364.2898,1,364.7851,364.7851,366.7871,0,0,0,0,1,,,,,,,,,,,,,,,,,,,,,,,,,,,,,,,,,,,,,,,,,,,,,,,,,,
,,613334cf5293abe84a78239c,35,male,2024-04-19_18h37.10.889,stockport_simplified,2022.2.4,Win32,60.24096386,661e456ee6de07e70aa9ef7b,66229da636d1666a9ba2e03a,,,,,,,,,,,,,,,,,,,,,,,,,,,,,,,,,,,,,,,,,,,,,,,,,,,,,,,,0,50,50,39,1,A,Y,N,o1_image,stimuli/out1.png,stimuli/correct_out1.png,stimuli/out2.png,,,,,,,,,,,,,,,,,,,,,,,,,,,,,,,,,,,,,,
,,613334cf5293abe84a78239c,35,male,2024-04-19_18h37.10.889,stockport_simplified,2022.2.4,Win32,60.24096386,661e456ee6de07e70aa9ef7b,66229da636d1666a9ba2e03a,,,,,,,,,,,,,,,,,,,,,,,,,,,,,,,,,,366.7874,368.7188,"[2,5,1,8,6,7,3,4]","[[0.3,0.2],[-0.3,0.2]]","[[0.125,-0.2],[-0.125,-0.2]]",-0.085185185,-0.187962963,1,0,0,1.4129,o2_image,368.7193,1,369.2185,369.2185,371.2184,0,0,0,0,1,,,,,,,,,,,,,,,,,,,,,,,,,,,,,,,,,,,,,,,,,,,,,,,,,,
,,613334cf5293abe84a78239c,35,male,2024-04-19_18h37.10.889,stockport_simplified,2022.2.4,Win32,60.24096386,661e456ee6de07e70aa9ef7b,66229da636d1666a9ba2e03a,,,,,,,,,,,,,,,,,,,,,,,,,,,,,,,,,,,,,,,,,,,,,,,,,,,,,,,,0,51,51,55,1,N,M,D,o2_image,stimuli/out2.png,stimuli/out1.png,stimuli/correct_out2.png,,,,,,,,,,,,,,,,,,,,,,,,,,,,,,,,,,,,,,
,,613334cf5293abe84a78239c,35,male,2024-04-19_18h37.10.889,stockport_simplified,2022.2.4,Win32,60.24096386,661e456ee6de07e70aa9ef7b,66229da636d1666a9ba2e03a,,,,,,,,,,,,,,,,,,,,,,,,,,,,,,,,,,371.2188,372.6227,"[2,5,1,8,6,7,3,4]","[[-0.3,0.2],[0.3,0.2]]","[[-0.125,-0.2],[0.125,-0.2]]",-0.111111111,-0.187962963,1,0,0,0.8872,o1_image,372.6232,1,373.1185,373.1186,375.1185,0,0,0,0,1,,,,,,,,,,,,,,,,,,,,,,,,,,,,,,,,,,,,,,,,,,,,,,,,,,
,,613334cf5293abe84a78239c,35,male,2024-04-19_18h37.10.889,stockport_simplified,2022.2.4,Win32,60.24096386,661e456ee6de07e70aa9ef7b,66229da636d1666a9ba2e03a,,,,,,,,,,,,,,,,,,,,,,,,,,,,,,,,,,,,,,,,,,,,,,,,,,,,,,,,0,52,52,0,1,A,X,N,o1_image,stimuli/out1.png,stimuli/correct_out1.png,stimuli/out2.png,,,,,,,,,,,,,,,,,,,,,,,,,,,,,,,,,,,,,,
,,613334cf5293abe84a78239c,35,male,2024-04-19_18h37.10.889,stockport_simplified,2022.2.4,Win32,60.24096386,661e456ee6de07e70aa9ef7b,66229da636d1666a9ba2e03a,,,,,,,,,,,,,,,,,,,,,,,,,,,,,,,,,,375.1188,376.4894,"[2,5,1,8,6,7,3,4]","[[-0.3,0.2],[0.3,0.2]]","[[-0.125,-0.2],[0.125,-0.2]]",-0.128703704,-0.189814815,1,0,0,0.854,o1_image,376.4899,1,376.9851,376.9851,378.9852,0,0,0,0,1,,,,,,,,,,,,,,,,,,,,,,,,,,,,,,,,,,,,,,,,,,,,,,,,,,
,,613334cf5293abe84a78239c,35,male,2024-04-19_18h37.10.889,stockport_simplified,2022.2.4,Win32,60.24096386,661e456ee6de07e70aa9ef7b,66229da636d1666a9ba2e03a,,,,,,,,,,,,,,,,,,,,,,,,,,,,,,,,,,,,,,,,,,,,,,,,,,,,,,,,0,53,53,2,1,A,X,N,o1_image,stimuli/out1.png,stimuli/correct_out1.png,stimuli/out2.png,,,,,,,,,,,,,,,,,,,,,,,,,,,,,,,,,,,,,,
,,613334cf5293abe84a78239c,35,male,2024-04-19_18h37.10.889,stockport_simplified,2022.2.4,Win32,60.24096386,661e456ee6de07e70aa9ef7b,66229da636d1666a9ba2e03a,,,,,,,,,,,,,,,,,,,,,,,,,,,,,,,,,,378.9854,380.3392,"[2,5,1,8,6,7,3,4]","[[0.3,0.2],[-0.3,0.2]]","[[-0.125,-0.2],[0.125,-0.2]]",-0.117592593,-0.190740741,1,0,0,0.8375,o1_image,380.3397,1,380.8393,380.8393,382.8389,0,0,0,0,1,,,,,,,,,,,,,,,,,,,,,,,,,,,,,,,,,,,,,,,,,,,,,,,,,,
,,613334cf5293abe84a78239c,35,male,2024-04-19_18h37.10.889,stockport_simplified,2022.2.4,Win32,60.24096386,661e456ee6de07e70aa9ef7b,66229da636d1666a9ba2e03a,,,,,,,,,,,,,,,,,,,,,,,,,,,,,,,,,,,,,,,,,,,,,,,,,,,,,,,,0,54,54,30,1,A,X,N,o1_image,stimuli/out1.png,stimuli/correct_out1.png,stimuli/out2.png,,,,,,,,,,,,,,,,,,,,,,,,,,,,,,,,,,,,,,
,,613334cf5293abe84a78239c,35,male,2024-04-19_18h37.10.889,stockport_simplified,2022.2.4,Win32,60.24096386,661e456ee6de07e70aa9ef7b,66229da636d1666a9ba2e03a,,,,,,,,,,,,,,,,,,,,,,,,,,,,,,,,,,382.8392,384.4726,"[2,5,1,8,6,7,3,4]","[[0.3,0.2],[-0.3,0.2]]","[[-0.125,-0.2],[0.125,-0.2]]",0.1,-0.221296296,1,0,0,1.117,o2_image,384.4731,1,384.9686,384.9686,386.9685,0,0,0,0,1,,,,,,,,,,,,,,,,,,,,,,,,,,,,,,,,,,,,,,,,,,,,,,,,,,
,,613334cf5293abe84a78239c,35,male,2024-04-19_18h37.10.889,stockport_simplified,2022.2.4,Win32,60.24096386,661e456ee6de07e70aa9ef7b,66229da636d1666a9ba2e03a,,,,,,,,,,,,,,,,,,,,,,,,,,,,,,,,,,,,,,,,,,,,,,,,,,,,,,,,0,55,55,41,1,B,X,N,o2_image,stimuli/out2.png,stimuli/out1.png,stimuli/correct_out2.png,,,,,,,,,,,,,,,,,,,,,,,,,,,,,,,,,,,,,,
,,613334cf5293abe84a78239c,35,male,2024-04-19_18h37.10.889,stockport_simplified,2022.2.4,Win32,60.24096386,661e456ee6de07e70aa9ef7b,66229da636d1666a9ba2e03a,,,,,,,,,,,,,,,,,,,,,,,,,,,,,,,,,,386.9689,388.4687,"[2,5,1,8,6,7,3,4]","[[-0.3,0.2],[0.3,0.2]]","[[0.125,-0.2],[-0.125,-0.2]]",0.12037037,-0.222222222,1,0,0,0.9969,o1_image,388.4691,1,388.9691,388.9692,390.9685,0,0,0,0,1,,,,,,,,,,,,,,,,,,,,,,,,,,,,,,,,,,,,,,,,,,,,,,,,,,
,,613334cf5293abe84a78239c,35,male,2024-04-19_18h37.10.889,stockport_simplified,2022.2.4,Win32,60.24096386,661e456ee6de07e70aa9ef7b,66229da636d1666a9ba2e03a,,,,,,,,,,,,,,,,,,,,,,,,,,,,,,,,,,,,,,,,,,,,,,,,,,,,,,,,0,56,56,50,1,N,M,C,o1_image,stimuli/out1.png,stimuli/correct_out1.png,stimuli/out2.png,,,,,,,,,,,,,,,,,,,,,,,,,,,,,,,,,,,,,,
,,613334cf5293abe84a78239c,35,male,2024-04-19_18h37.10.889,stockport_simplified,2022.2.4,Win32,60.24096386,661e456ee6de07e70aa9ef7b,66229da636d1666a9ba2e03a,,,,,,,,,,,,,,,,,,,,,,,,,,,,,,,,,,390.9688,392.2686,"[2,5,1,8,6,7,3,4]","[[-0.3,0.2],[0.3,0.2]]","[[-0.125,-0.2],[0.125,-0.2]]",-0.105555556,-0.200925926,1,0,0,0.7831,o1_image,392.2691,1,392.7688,392.7688,394.7686,0,0,0,0,1,,,,,,,,,,,,,,,,,,,,,,,,,,,,,,,,,,,,,,,,,,,,,,,,,,
,,613334cf5293abe84a78239c,35,male,2024-04-19_18h37.10.889,stockport_simplified,2022.2.4,Win32,60.24096386,661e456ee6de07e70aa9ef7b,66229da636d1666a9ba2e03a,,,,,,,,,,,,,,,,,,,,,,,,,,,,,,,,,,,,,,,,,,,,,,,,,,,,,,,,0,57,57,22,1,N,M,C,o1_image,stimuli/out1.png,stimuli/correct_out1.png,stimuli/out2.png,,,,,,,,,,,,,,,,,,,,,,,,,,,,,,,,,,,,,,
,,613334cf5293abe84a78239c,35,male,2024-04-19_18h37.10.889,stockport_simplified,2022.2.4,Win32,60.24096386,661e456ee6de07e70aa9ef7b,66229da636d1666a9ba2e03a,,,,,,,,,,,,,,,,,,,,,,,,,,,,,,,,,,394.769,396.0019,"[2,5,1,8,6,7,3,4]","[[0.3,0.2],[-0.3,0.2]]","[[0.125,-0.2],[-0.125,-0.2]]",-0.114814815,-0.194444444,1,0,0,0.7165,o2_image,396.0025,1,396.5021,396.5022,398.5019,0,0,0,0,1,,,,,,,,,,,,,,,,,,,,,,,,,,,,,,,,,,,,,,,,,,,,,,,,,,
,,613334cf5293abe84a78239c,35,male,2024-04-19_18h37.10.889,stockport_simplified,2022.2.4,Win32,60.24096386,661e456ee6de07e70aa9ef7b,66229da636d1666a9ba2e03a,,,,,,,,,,,,,,,,,,,,,,,,,,,,,,,,,,,,,,,,,,,,,,,,,,,,,,,,0,58,58,59,1,N,M,D,o2_image,stimuli/out2.png,stimuli/out1.png,stimuli/correct_out2.png,,,,,,,,,,,,,,,,,,,,,,,,,,,,,,,,,,,,,,
,,613334cf5293abe84a78239c,35,male,2024-04-19_18h37.10.889,stockport_simplified,2022.2.4,Win32,60.24096386,661e456ee6de07e70aa9ef7b,66229da636d1666a9ba2e03a,,,,,,,,,,,,,,,,,,,,,,,,,,,,,,,,,,398.5022,400.2059,"[2,5,1,8,6,7,3,4]","[[0.3,0.2],[-0.3,0.2]]","[[-0.125,-0.2],[0.125,-0.2]]",-0.130555556,-0.200925926,1,0,0,1.1868,o1_image,400.2063,1,400.7017,400.7018,402.7019,0,0,0,0,1,,,,,,,,,,,,,,,,,,,,,,,,,,,,,,,,,,,,,,,,,,,,,,,,,,
,,613334cf5293abe84a78239c,35,male,2024-04-19_18h37.10.889,stockport_simplified,2022.2.4,Win32,60.24096386,661e456ee6de07e70aa9ef7b,66229da636d1666a9ba2e03a,,,,,,,,,,,,,,,,,,,,,,,,,,,,,,,,,,,,,,,,,,,,,,,,,,,,,,,,0,59,59,1,1,A,X,N,o1_image,stimuli/out1.png,stimuli/correct_out1.png,stimuli/out2.png,,,,,,,,,,,,,,,,,,,,,,,,,,,,,,,,,,,,,,
,,613334cf5293abe84a78239c,35,male,2024-04-19_18h37.10.889,stockport_simplified,2022.2.4,Win32,60.24096386,661e456ee6de07e70aa9ef7b,66229da636d1666a9ba2e03a,,,,,,,,,,,,,,,,,,,,,,,,,,,,,,,,,,402.7023,404.2519,"[2,5,1,8,6,7,3,4]","[[-0.3,0.2],[0.3,0.2]]","[[0.125,-0.2],[-0.125,-0.2]]",-0.105555556,-0.194444444,1,0,0,1.0327,o2_image,404.2524,1,404.752,404.752,406.7522,0,0,0,0,1,,,,,,,,,,,,,,,,,,,,,,,,,,,,,,,,,,,,,,,,,,,,,,,,,,
,,613334cf5293abe84a78239c,35,male,2024-04-19_18h37.10.889,stockport_simplified,2022.2.4,Win32,60.24096386,661e456ee6de07e70aa9ef7b,66229da636d1666a9ba2e03a,,,,,,,,,,,,,,,,,,,,,,,,,,,,,,,,,,,,,,,,,,,,,,,,,,,,,,,,1,0,60,16,1,B,Y,N,o2_image,stimuli/out2.png,stimuli/out1.png,stimuli/correct_out2.png,,,,,,,,,,,,,,,,,,,,,,,,,,,,,,,,,,,,,,
,,613334cf5293abe84a78239c,35,male,2024-04-19_18h37.10.889,stockport_simplified,2022.2.4,Win32,60.24096386,661e456ee6de07e70aa9ef7b,66229da636d1666a9ba2e03a,,,,,,,,,,,,,,,,,,,,,,,,,,,,,,,,,,406.7526,408.702,"[2,5,1,8,6,7,3,4]","[[0.3,0.2],[-0.3,0.2]]","[[-0.125,-0.2],[0.125,-0.2]]",-0.113888889,-0.188888889,1,0,0,1.4331,o1_image,408.7027,1,409.2024,409.2024,411.202,0,0,0,0,1,,,,,,,,,,,,,,,,,,,,,,,,,,,,,,,,,,,,,,,,,,,,,,,,,,
,,613334cf5293abe84a78239c,35,male,2024-04-19_18h37.10.889,stockport_simplified,2022.2.4,Win32,60.24096386,661e456ee6de07e70aa9ef7b,66229da636d1666a9ba2e03a,,,,,,,,,,,,,,,,,,,,,,,,,,,,,,,,,,,,,,,,,,,,,,,,,,,,,,,,1,1,61,5,1,A,Y,N,o1_image,stimuli/out1.png,stimuli/correct_out1.png,stimuli/out2.png,,,,,,,,,,,,,,,,,,,,,,,,,,,,,,,,,,,,,,
,,613334cf5293abe84a78239c,35,male,2024-04-19_18h37.10.889,stockport_simplified,2022.2.4,Win32,60.24096386,661e456ee6de07e70aa9ef7b,66229da636d1666a9ba2e03a,,,,,,,,,,,,,,,,,,,,,,,,,,,,,,,,,,411.2023,412.569,"[2,5,1,8,6,7,3,4]","[[0.3,0.2],[-0.3,0.2]]","[[0.125,-0.2],[-0.125,-0.2]]",0.126851852,-0.212962963,1,0,0,0.8503,o1_image,412.5695,1,413.0687,413.0687,415.0688,0,0,0,0,1,,,,,,,,,,,,,,,,,,,,,,,,,,,,,,,,,,,,,,,,,,,,,,,,,,
,,613334cf5293abe84a78239c,35,male,2024-04-19_18h37.10.889,stockport_simplified,2022.2.4,Win32,60.24096386,661e456ee6de07e70aa9ef7b,66229da636d1666a9ba2e03a,,,,,,,,,,,,,,,,,,,,,,,,,,,,,,,,,,,,,,,,,,,,,,,,,,,,,,,,1,2,62,9,1,A,Y,N,o1_image,stimuli/out1.png,stimuli/correct_out1.png,stimuli/out2.png,,,,,,,,,,,,,,,,,,,,,,,,,,,,,,,,,,,,,,
,,613334cf5293abe84a78239c,35,male,2024-04-19_18h37.10.889,stockport_simplified,2022.2.4,Win32,60.24096386,661e456ee6de07e70aa9ef7b,66229da636d1666a9ba2e03a,,,,,,,,,,,,,,,,,,,,,,,,,,,,,,,,,,415.069,416.1188,"[2,5,1,8,6,7,3,4]","[[0.3,0.2],[-0.3,0.2]]","[[0.125,-0.2],[-0.125,-0.2]]",-0.080555556,-0.201851852,1,0,0,0.5329,o2_image,416.1192,0,416.6192,416.6192,418.6192,0,0,0,0,1,,,,,,,,,,,,,,,,,,,,,,,,,,,,,,,,,,,,,,,,,,,,,,,,,,
,,613334cf5293abe84a78239c,35,male,2024-04-19_18h37.10.889,stockport_simplified,2022.2.4,Win32,60.24096386,661e456ee6de07e70aa9ef7b,66229da636d1666a9ba2e03a,,,,,,,,,,,,,,,,,,,,,,,,,,,,,,,,,,,,,,,,,,,,,,,,,,,,,,,,1,3,63,0,1,A,X,N,o1_image,stimuli/out1.png,stimuli/correct_out1.png,stimuli/out2.png,,,,,,,,,,,,,,,,,,,,,,,,,,,,,,,,,,,,,,
,,613334cf5293abe84a78239c,35,male,2024-04-19_18h37.10.889,stockport_simplified,2022.2.4,Win32,60.24096386,661e456ee6de07e70aa9ef7b,66229da636d1666a9ba2e03a,,,,,,,,,,,,,,,,,,,,,,,,,,,,,,,,,,418.6194,420.0188,"[2,5,1,8,6,7,3,4]","[[-0.3,0.2],[0.3,0.2]]","[[0.125,-0.2],[-0.125,-0.2]]",-0.112962963,-0.215740741,1,0,0,0.8829,o2_image,420.0193,1,420.5188,420.5189,422.519,0,0,0,0,1,,,,,,,,,,,,,,,,,,,,,,,,,,,,,,,,,,,,,,,,,,,,,,,,,,
,,613334cf5293abe84a78239c,35,male,2024-04-19_18h37.10.889,stockport_simplified,2022.2.4,Win32,60.24096386,661e456ee6de07e70aa9ef7b,66229da636d1666a9ba2e03a,,,,,,,,,,,,,,,,,,,,,,,,,,,,,,,,,,,,,,,,,,,,,,,,,,,,,,,,1,4,64,56,1,N,M,D,o2_image,stimuli/out2.png,stimuli/out1.png,stimuli/correct_out2.png,,,,,,,,,,,,,,,,,,,,,,,,,,,,,,,,,,,,,,
,,613334cf5293abe84a78239c,35,male,2024-04-19_18h37.10.889,stockport_simplified,2022.2.4,Win32,60.24096386,661e456ee6de07e70aa9ef7b,66229da636d1666a9ba2e03a,,,,,,,,,,,,,,,,,,,,,,,,,,,,,,,,,,422.5193,423.8692,"[2,5,1,8,6,7,3,4]","[[0.3,0.2],[-0.3,0.2]]","[[0.125,-0.2],[-0.125,-0.2]]",0.132407407,-0.202777778,1,0,0,0.8334,o1_image,423.8695,1,424.3688,424.3688,426.3689,0,0,0,0,1,,,,,,,,,,,,,,,,,,,,,,,,,,,,,,,,,,,,,,,,,,,,,,,,,,
,,613334cf5293abe84a78239c,35,male,2024-04-19_18h37.10.889,stockport_simplified,2022.2.4,Win32,60.24096386,661e456ee6de07e70aa9ef7b,66229da636d1666a9ba2e03a,,,,,,,,,,,,,,,,,,,,,,,,,,,,,,,,,,,,,,,,,,,,,,,,,,,,,,,,1,5,65,35,1,A,Y,N,o1_image,stimuli/out1.png,stimuli/correct_out1.png,stimuli/out2.png,,,,,,,,,,,,,,,,,,,,,,,,,,,,,,,,,,,,,,
,,613334cf5293abe84a78239c,35,male,2024-04-19_18h37.10.889,stockport_simplified,2022.2.4,Win32,60.24096386,661e456ee6de07e70aa9ef7b,66229da636d1666a9ba2e03a,,,,,,,,,,,,,,,,,,,,,,,,,,,,,,,,,,426.3691,427.8188,"[2,5,1,8,6,7,3,4]","[[0.3,0.2],[-0.3,0.2]]","[[0.125,-0.2],[-0.125,-0.2]]",0.112037037,-0.207407407,1,0,0,0.9334,o1_image,427.8193,1,428.3188,428.3189,430.3191,0,0,0,0,1,,,,,,,,,,,,,,,,,,,,,,,,,,,,,,,,,,,,,,,,,,,,,,,,,,
,,613334cf5293abe84a78239c,35,male,2024-04-19_18h37.10.889,stockport_simplified,2022.2.4,Win32,60.24096386,661e456ee6de07e70aa9ef7b,66229da636d1666a9ba2e03a,,,,,,,,,,,,,,,,,,,,,,,,,,,,,,,,,,,,,,,,,,,,,,,,,,,,,,,,1,6,66,36,1,A,Y,N,o1_image,stimuli/out1.png,stimuli/correct_out1.png,stimuli/out2.png,,,,,,,,,,,,,,,,,,,,,,,,,,,,,,,,,,,,,,
,,613334cf5293abe84a78239c,35,male,2024-04-19_18h37.10.889,stockport_simplified,2022.2.4,Win32,60.24096386,661e456ee6de07e70aa9ef7b,66229da636d1666a9ba2e03a,,,,,,,,,,,,,,,,,,,,,,,,,,,,,,,,,,430.3194,431.8022,"[2,5,1,8,6,7,3,4]","[[0.3,0.2],[-0.3,0.2]]","[[0.125,-0.2],[-0.125,-0.2]]",-0.150925926,-0.200925926,1,0,0,0.9665,o2_image,431.8027,1,432.3022,432.3023,434.3021,0,0,0,0,1,,,,,,,,,,,,,,,,,,,,,,,,,,,,,,,,,,,,,,,,,,,,,,,,,,
,,613334cf5293abe84a78239c,35,male,2024-04-19_18h37.10.889,stockport_simplified,2022.2.4,Win32,60.24096386,661e456ee6de07e70aa9ef7b,66229da636d1666a9ba2e03a,,,,,,,,,,,,,,,,,,,,,,,,,,,,,,,,,,,,,,,,,,,,,,,,,,,,,,,,1,7,67,43,1,B,X,N,o2_image,stimuli/out2.png,stimuli/out1.png,stimuli/correct_out2.png,,,,,,,,,,,,,,,,,,,,,,,,,,,,,,,,,,,,,,
,,613334cf5293abe84a78239c,35,male,2024-04-19_18h37.10.889,stockport_simplified,2022.2.4,Win32,60.24096386,661e456ee6de07e70aa9ef7b,66229da636d1666a9ba2e03a,,,,,,,,,,,,,,,,,,,,,,,,,,,,,,,,,,434.3025,435.7522,"[2,5,1,8,6,7,3,4]","[[0.3,0.2],[-0.3,0.2]]","[[-0.125,-0.2],[0.125,-0.2]]",0.101851852,-0.200925926,1,0,0,0.9333,o2_image,435.7527,1,436.2522,436.2522,438.2522,0,0,0,0,1,,,,,,,,,,,,,,,,,,,,,,,,,,,,,,,,,,,,,,,,,,,,,,,,,,
,,613334cf5293abe84a78239c,35,male,2024-04-19_18h37.10.889,stockport_simplified,2022.2.4,Win32,60.24096386,661e456ee6de07e70aa9ef7b,66229da636d1666a9ba2e03a,,,,,,,,,,,,,,,,,,,,,,,,,,,,,,,,,,,,,,,,,,,,,,,,,,,,,,,,1,8,68,41,1,B,X,N,o2_image,stimuli/out2.png,stimuli/out1.png,stimuli/correct_out2.png,,,,,,,,,,,,,,,,,,,,,,,,,,,,,,,,,,,,,,
,,613334cf5293abe84a78239c,35,male,2024-04-19_18h37.10.889,stockport_simplified,2022.2.4,Win32,60.24096386,661e456ee6de07e70aa9ef7b,66229da636d1666a9ba2e03a,,,,,,,,,,,,,,,,,,,,,,,,,,,,,,,,,,438.2525,439.9022,"[2,5,1,8,6,7,3,4]","[[-0.3,0.2],[0.3,0.2]]","[[0.125,-0.2],[-0.125,-0.2]]",-0.134259259,-0.194444444,1,0,0,1.1331,o2_image,439.9026,1,440.4021,440.4022,442.4023,0,0,0,0,1,,,,,,,,,,,,,,,,,,,,,,,,,,,,,,,,,,,,,,,,,,,,,,,,,,
,,613334cf5293abe84a78239c,35,male,2024-04-19_18h37.10.889,stockport_simplified,2022.2.4,Win32,60.24096386,661e456ee6de07e70aa9ef7b,66229da636d1666a9ba2e03a,,,,,,,,,,,,,,,,,,,,,,,,,,,,,,,,,,,,,,,,,,,,,,,,,,,,,,,,1,9,69,40,1,B,X,N,o2_image,stimuli/out2.png,stimuli/out1.png,stimuli/correct_out2.png,,,,,,,,,,,,,,,,,,,,,,,,,,,,,,,,,,,,,,
,,613334cf5293abe84a78239c,35,male,2024-04-19_18h37.10.889,stockport_simplified,2022.2.4,Win32,60.24096386,661e456ee6de07e70aa9ef7b,66229da636d1666a9ba2e03a,,,,,,,,,,,,,,,,,,,,,,,,,,,,,,,,,,442.4025,443.8191,"[2,5,1,8,6,7,3,4]","[[0.3,0.2],[-0.3,0.2]]","[[-0.125,-0.2],[0.125,-0.2]]",-0.137037037,-0.210185185,1,0,0,0.8997,o1_image,443.8195,1,444.3188,444.3188,446.3191,0,0,0,0,1,,,,,,,,,,,,,,,,,,,,,,,,,,,,,,,,,,,,,,,,,,,,,,,,,,
,,613334cf5293abe84a78239c,35,male,2024-04-19_18h37.10.889,stockport_simplified,2022.2.4,Win32,60.24096386,661e456ee6de07e70aa9ef7b,66229da636d1666a9ba2e03a,,,,,,,,,,,,,,,,,,,,,,,,,,,,,,,,,,,,,,,,,,,,,,,,,,,,,,,,1,10,70,22,1,N,M,C,o1_image,stimuli/out1.png,stimuli/correct_out1.png,stimuli/out2.png,,,,,,,,,,,,,,,,,,,,,,,,,,,,,,,,,,,,,,
,,613334cf5293abe84a78239c,35,male,2024-04-19_18h37.10.889,stockport_simplified,2022.2.4,Win32,60.24096386,661e456ee6de07e70aa9ef7b,66229da636d1666a9ba2e03a,,,,,,,,,,,,,,,,,,,,,,,,,,,,,,,,,,446.3193,447.5522,"[2,5,1,8,6,7,3,4]","[[0.3,0.2],[-0.3,0.2]]","[[-0.125,-0.2],[0.125,-0.2]]",-0.094444444,-0.210185185,1,0,0,0.7165,o1_image,447.5527,1,448.0521,448.0522,450.0522,0,0,0,0,1,,,,,,,,,,,,,,,,,,,,,,,,,,,,,,,,,,,,,,,,,,,,,,,,,,
,,613334cf5293abe84a78239c,35,male,2024-04-19_18h37.10.889,stockport_simplified,2022.2.4,Win32,60.24096386,661e456ee6de07e70aa9ef7b,66229da636d1666a9ba2e03a,,,,,,,,,,,,,,,,,,,,,,,,,,,,,,,,,,,,,,,,,,,,,,,,,,,,,,,,1,11,71,54,1,N,M,C,o1_image,stimuli/out1.png,stimuli/correct_out1.png,stimuli/out2.png,,,,,,,,,,,,,,,,,,,,,,,,,,,,,,,,,,,,,,
,,613334cf5293abe84a78239c,35,male,2024-04-19_18h37.10.889,stockport_simplified,2022.2.4,Win32,60.24096386,661e456ee6de07e70aa9ef7b,66229da636d1666a9ba2e03a,,,,,,,,,,,,,,,,,,,,,,,,,,,,,,,,,,450.0525,451.4396,"[2,5,1,8,6,7,3,4]","[[0.3,0.2],[-0.3,0.2]]","[[0.125,-0.2],[-0.125,-0.2]]",-0.136111111,-0.2,1,0,0,0.8702,o2_image,451.4401,1,451.9355,451.9355,453.9355,0,0,0,0,1,,,,,,,,,,,,,,,,,,,,,,,,,,,,,,,,,,,,,,,,,,,,,,,,,,
,,613334cf5293abe84a78239c,35,male,2024-04-19_18h37.10.889,stockport_simplified,2022.2.4,Win32,60.24096386,661e456ee6de07e70aa9ef7b,66229da636d1666a9ba2e03a,,,,,,,,,,,,,,,,,,,,,,,,,,,,,,,,,,,,,,,,,,,,,,,,,,,,,,,,1,12,72,14,1,B,X,N,o2_image,stimuli/out2.png,stimuli/out1.png,stimuli/correct_out2.png,,,,,,,,,,,,,,,,,,,,,,,,,,,,,,,,,,,,,,
,,613334cf5293abe84a78239c,35,male,2024-04-19_18h37.10.889,stockport_simplified,2022.2.4,Win32,60.24096386,661e456ee6de07e70aa9ef7b,66229da636d1666a9ba2e03a,,,,,,,,,,,,,,,,,,,,,,,,,,,,,,,,,,453.9358,455.1522,"[2,5,1,8,6,7,3,4]","[[0.3,0.2],[-0.3,0.2]]","[[0.125,-0.2],[-0.125,-0.2]]",-0.107407407,-0.192592593,1,0,0,0.6996,o2_image,455.1528,1,455.6522,455.6522,457.6522,0,0,0,0,1,,,,,,,,,,,,,,,,,,,,,,,,,,,,,,,,,,,,,,,,,,,,,,,,,,
,,613334cf5293abe84a78239c,35,male,2024-04-19_18h37.10.889,stockport_simplified,2022.2.4,Win32,60.24096386,661e456ee6de07e70aa9ef7b,66229da636d1666a9ba2e03a,,,,,,,,,,,,,,,,,,,,,,,,,,,,,,,,,,,,,,,,,,,,,,,,,,,,,,,,1,13,73,28,1,N,M,D,o2_image,stimuli/out2.png,stimuli/out1.png,stimuli/correct_out2.png,,,,,,,,,,,,,,,,,,,,,,,,,,,,,,,,,,,,,,
,,613334cf5293abe84a78239c,35,male,2024-04-19_18h37.10.889,stockport_simplified,2022.2.4,Win32,60.24096386,661e456ee6de07e70aa9ef7b,66229da636d1666a9ba2e03a,,,,,,,,,,,,,,,,,,,,,,,,,,,,,,,,,,457.6524,459.0397,"[2,5,1,8,6,7,3,4]","[[-0.3,0.2],[0.3,0.2]]","[[0.125,-0.2],[-0.125,-0.2]]",-0.113888889,-0.197222222,1,0,0,0.8705,o2_image,459.04,1,459.5358,459.5358,461.5355,0,0,0,0,1,,,,,,,,,,,,,,,,,,,,,,,,,,,,,,,,,,,,,,,,,,,,,,,,,,
,,613334cf5293abe84a78239c,35,male,2024-04-19_18h37.10.889,stockport_simplified,2022.2.4,Win32,60.24096386,661e456ee6de07e70aa9ef7b,66229da636d1666a9ba2e03a,,,,,,,,,,,,,,,,,,,,,,,,,,,,,,,,,,,,,,,,,,,,,,,,,,,,,,,,1,14,74,49,1,B,Y,N,o2_image,stimuli/out2.png,stimuli/out1.png,stimuli/correct_out2.png,,,,,,,,,,,,,,,,,,,,,,,,,,,,,,,,,,,,,,
,,613334cf5293abe84a78239c,35,male,2024-04-19_18h37.10.889,stockport_simplified,2022.2.4,Win32,60.24096386,661e456ee6de07e70aa9ef7b,66229da636d1666a9ba2e03a,,,,,,,,,,,,,,,,,,,,,,,,,,,,,,,,,,461.5358,463.1397,"[2,5,1,8,6,7,3,4]","[[0.3,0.2],[-0.3,0.2]]","[[-0.125,-0.2],[0.125,-0.2]]",-0.118518519,-0.191666667,1,0,0,1.0874,o1_image,463.1402,1,463.6355,463.6356,465.6356,0,0,0,0,1,,,,,,,,,,,,,,,,,,,,,,,,,,,,,,,,,,,,,,,,,,,,,,,,,,
,,613334cf5293abe84a78239c,35,male,2024-04-19_18h37.10.889,stockport_simplified,2022.2.4,Win32,60.24096386,661e456ee6de07e70aa9ef7b,66229da636d1666a9ba2e03a,,,,,,,,,,,,,,,,,,,,,,,,,,,,,,,,,,,,,,,,,,,,,,,,,,,,,,,,1,15,75,38,1,A,Y,N,o1_image,stimuli/out1.png,stimuli/correct_out1.png,stimuli/out2.png,,,,,,,,,,,,,,,,,,,,,,,,,,,,,,,,,,,,,,
,,613334cf5293abe84a78239c,35,male,2024-04-19_18h37.10.889,stockport_simplified,2022.2.4,Win32,60.24096386,661e456ee6de07e70aa9ef7b,66229da636d1666a9ba2e03a,,,,,,,,,,,,,,,,,,,,,,,,,,,,,,,,,,465.6358,467.1058,"[2,5,1,8,6,7,3,4]","[[0.3,0.2],[-0.3,0.2]]","[[0.125,-0.2],[-0.125,-0.2]]",0.124074074,-0.207407407,1,0,0,0.9534,o1_image,467.1063,1,467.6023,467.6023,469.6023,0,0,0,0,1,,,,,,,,,,,,,,,,,,,,,,,,,,,,,,,,,,,,,,,,,,,,,,,,,,
,,613334cf5293abe84a78239c,35,male,2024-04-19_18h37.10.889,stockport_simplified,2022.2.4,Win32,60.24096386,661e456ee6de07e70aa9ef7b,66229da636d1666a9ba2e03a,,,,,,,,,,,,,,,,,,,,,,,,,,,,,,,,,,,,,,,,,,,,,,,,,,,,,,,,1,16,76,30,1,A,X,N,o1_image,stimuli/out1.png,stimuli/correct_out1.png,stimuli/out2.png,,,,,,,,,,,,,,,,,,,,,,,,,,,,,,,,,,,,,,
,,613334cf5293abe84a78239c,35,male,2024-04-19_18h37.10.889,stockport_simplified,2022.2.4,Win32,60.24096386,661e456ee6de07e70aa9ef7b,66229da636d1666a9ba2e03a,,,,,,,,,,,,,,,,,,,,,,,,,,,,,,,,,,469.6025,470.9357,"[2,5,1,8,6,7,3,4]","[[0.3,0.2],[-0.3,0.2]]","[[0.125,-0.2],[-0.125,-0.2]]",0.119444444,-0.22037037,1,0,0,0.8166,o1_image,470.9362,1,471.4359,471.4359,473.4377,0,0,0,0,1,,,,,,,,,,,,,,,,,,,,,,,,,,,,,,,,,,,,,,,,,,,,,,,,,,
,,613334cf5293abe84a78239c,35,male,2024-04-19_18h37.10.889,stockport_simplified,2022.2.4,Win32,60.24096386,661e456ee6de07e70aa9ef7b,66229da636d1666a9ba2e03a,,,,,,,,,,,,,,,,,,,,,,,,,,,,,,,,,,,,,,,,,,,,,,,,,,,,,,,,1,17,77,3,1,A,X,N,o1_image,stimuli/out1.png,stimuli/correct_out1.png,stimuli/out2.png,,,,,,,,,,,,,,,,,,,,,,,,,,,,,,,,,,,,,,
,,613334cf5293abe84a78239c,35,male,2024-04-19_18h37.10.889,stockport_simplified,2022.2.4,Win32,60.24096386,661e456ee6de07e70aa9ef7b,66229da636d1666a9ba2e03a,,,,,,,,,,,,,,,,,,,,,,,,,,,,,,,,,,473.438,474.7023,"[2,5,1,8,6,7,3,4]","[[-0.3,0.2],[0.3,0.2]]","[[-0.125,-0.2],[0.125,-0.2]]",-0.094444444,-0.198148148,1,0,0,0.7472,o1_image,474.7028,1,475.2023,475.2023,477.2056,0,0,0,0,1,,,,,,,,,,,,,,,,,,,,,,,,,,,,,,,,,,,,,,,,,,,,,,,,,,
,,613334cf5293abe84a78239c,35,male,2024-04-19_18h37.10.889,stockport_simplified,2022.2.4,Win32,60.24096386,661e456ee6de07e70aa9ef7b,66229da636d1666a9ba2e03a,,,,,,,,,,,,,,,,,,,,,,,,,,,,,,,,,,,,,,,,,,,,,,,,,,,,,,,,1,18,78,39,1,A,Y,N,o1_image,stimuli/out1.png,stimuli/correct_out1.png,stimuli/out2.png,,,,,,,,,,,,,,,,,,,,,,,,,,,,,,,,,,,,,,
,,613334cf5293abe84a78239c,35,male,2024-04-19_18h37.10.889,stockport_simplified,2022.2.4,Win32,60.24096386,661e456ee6de07e70aa9ef7b,66229da636d1666a9ba2e03a,,,,,,,,,,,,,,,,,,,,,,,,,,,,,,,,,,477.2058,478.8023,"[2,5,1,8,6,7,3,4]","[[-0.3,0.2],[0.3,0.2]]","[[0.125,-0.2],[-0.125,-0.2]]",0.146296296,-0.210185185,1,0,0,1.0833,o1_image,478.8028,1,479.3023,479.3024,481.3023,0,0,0,0,1,,,,,,,,,,,,,,,,,,,,,,,,,,,,,,,,,,,,,,,,,,,,,,,,,,
,,613334cf5293abe84a78239c,35,male,2024-04-19_18h37.10.889,stockport_simplified,2022.2.4,Win32,60.24096386,661e456ee6de07e70aa9ef7b,66229da636d1666a9ba2e03a,,,,,,,,,,,,,,,,,,,,,,,,,,,,,,,,,,,,,,,,,,,,,,,,,,,,,,,,1,19,79,8,1,A,Y,N,o1_image,stimuli/out1.png,stimuli/correct_out1.png,stimuli/out2.png,,,,,,,,,,,,,,,,,,,,,,,,,,,,,,,,,,,,,,
,,613334cf5293abe84a78239c,35,male,2024-04-19_18h37.10.889,stockport_simplified,2022.2.4,Win32,60.24096386,661e456ee6de07e70aa9ef7b,66229da636d1666a9ba2e03a,,,,,,,,,,,,,,,,,,,,,,,,,,,,,,,,,,481.3026,482.8191,"[2,5,1,8,6,7,3,4]","[[-0.3,0.2],[0.3,0.2]]","[[0.125,-0.2],[-0.125,-0.2]]",-0.106481481,-0.209259259,1,0,0,0.9998,o2_image,482.8196,1,483.319,483.3191,485.3191,0,0,0,0,1,,,,,,,,,,,,,,,,,,,,,,,,,,,,,,,,,,,,,,,,,,,,,,,,,,
,,613334cf5293abe84a78239c,35,male,2024-04-19_18h37.10.889,stockport_simplified,2022.2.4,Win32,60.24096386,661e456ee6de07e70aa9ef7b,66229da636d1666a9ba2e03a,,,,,,,,,,,,,,,,,,,,,,,,,,,,,,,,,,,,,,,,,,,,,,,,,,,,,,,,1,20,80,26,1,N,M,D,o2_image,stimuli/out2.png,stimuli/out1.png,stimuli/correct_out2.png,,,,,,,,,,,,,,,,,,,,,,,,,,,,,,,,,,,,,,
,,613334cf5293abe84a78239c,35,male,2024-04-19_18h37.10.889,stockport_simplified,2022.2.4,Win32,60.24096386,661e456ee6de07e70aa9ef7b,66229da636d1666a9ba2e03a,,,,,,,,,,,,,,,,,,,,,,,,,,,,,,,,,,485.3194,486.8358,"[2,5,1,8,6,7,3,4]","[[0.3,0.2],[-0.3,0.2]]","[[0.125,-0.2],[-0.125,-0.2]]",-0.099074074,-0.199074074,1,0,0,0.9998,o2_image,486.8363,1,487.3362,487.3363,489.3358,0,0,0,0,1,,,,,,,,,,,,,,,,,,,,,,,,,,,,,,,,,,,,,,,,,,,,,,,,,,
,,613334cf5293abe84a78239c,35,male,2024-04-19_18h37.10.889,stockport_simplified,2022.2.4,Win32,60.24096386,661e456ee6de07e70aa9ef7b,66229da636d1666a9ba2e03a,,,,,,,,,,,,,,,,,,,,,,,,,,,,,,,,,,,,,,,,,,,,,,,,,,,,,,,,1,21,81,45,1,B,Y,N,o2_image,stimuli/out2.png,stimuli/out1.png,stimuli/correct_out2.png,,,,,,,,,,,,,,,,,,,,,,,,,,,,,,,,,,,,,,
,,613334cf5293abe84a78239c,35,male,2024-04-19_18h37.10.889,stockport_simplified,2022.2.4,Win32,60.24096386,661e456ee6de07e70aa9ef7b,66229da636d1666a9ba2e03a,,,,,,,,,,,,,,,,,,,,,,,,,,,,,,,,,,489.3361,490.6691,"[2,5,1,8,6,7,3,4]","[[0.3,0.2],[-0.3,0.2]]","[[0.125,-0.2],[-0.125,-0.2]]",-0.077777778,-0.193518519,1,0,0,0.8165,o2_image,490.6696,1,491.1691,491.1691,493.1694,0,0,0,0,1,,,,,,,,,,,,,,,,,,,,,,,,,,,,,,,,,,,,,,,,,,,,,,,,,,
,,613334cf5293abe84a78239c,35,male,2024-04-19_18h37.10.889,stockport_simplified,2022.2.4,Win32,60.24096386,661e456ee6de07e70aa9ef7b,66229da636d1666a9ba2e03a,,,,,,,,,,,,,,,,,,,,,,,,,,,,,,,,,,,,,,,,,,,,,,,,,,,,,,,,1,22,82,44,1,B,X,N,o2_image,stimuli/out2.png,stimuli/out1.png,stimuli/correct_out2.png,,,,,,,,,,,,,,,,,,,,,,,,,,,,,,,,,,,,,,
,,613334cf5293abe84a78239c,35,male,2024-04-19_18h37.10.889,stockport_simplified,2022.2.4,Win32,60.24096386,661e456ee6de07e70aa9ef7b,66229da636d1666a9ba2e03a,,,,,,,,,,,,,,,,,,,,,,,,,,,,,,,,,,493.1698,494.8858,"[2,5,1,8,6,7,3,4]","[[0.3,0.2],[-0.3,0.2]]","[[-0.125,-0.2],[0.125,-0.2]]",-0.103703704,-0.186111111,1,0,0,1.1996,o1_image,494.8863,1,495.3858,495.3859,497.3859,0,0,0,0,1,,,,,,,,,,,,,,,,,,,,,,,,,,,,,,,,,,,,,,,,,,,,,,,,,,
,,613334cf5293abe84a78239c,35,male,2024-04-19_18h37.10.889,stockport_simplified,2022.2.4,Win32,60.24096386,661e456ee6de07e70aa9ef7b,66229da636d1666a9ba2e03a,,,,,,,,,,,,,,,,,,,,,,,,,,,,,,,,,,,,,,,,,,,,,,,,,,,,,,,,1,23,83,6,1,A,Y,N,o1_image,stimuli/out1.png,stimuli/correct_out1.png,stimuli/out2.png,,,,,,,,,,,,,,,,,,,,,,,,,,,,,,,,,,,,,,
,,613334cf5293abe84a78239c,35,male,2024-04-19_18h37.10.889,stockport_simplified,2022.2.4,Win32,60.24096386,661e456ee6de07e70aa9ef7b,66229da636d1666a9ba2e03a,,,,,,,,,,,,,,,,,,,,,,,,,,,,,,,,,,497.3861,499.0692,"[2,5,1,8,6,7,3,4]","[[0.3,0.2],[-0.3,0.2]]","[[-0.125,-0.2],[0.125,-0.2]]",0.103703704,-0.189814815,1,0,0,1.1663,o2_image,499.0697,1,499.5692,499.5692,501.5691,0,0,0,0,1,,,,,,,,,,,,,,,,,,,,,,,,,,,,,,,,,,,,,,,,,,,,,,,,,,
,,613334cf5293abe84a78239c,35,male,2024-04-19_18h37.10.889,stockport_simplified,2022.2.4,Win32,60.24096386,661e456ee6de07e70aa9ef7b,66229da636d1666a9ba2e03a,,,,,,,,,,,,,,,,,,,,,,,,,,,,,,,,,,,,,,,,,,,,,,,,,,,,,,,,1,24,84,46,1,B,Y,N,o2_image,stimuli/out2.png,stimuli/out1.png,stimuli/correct_out2.png,,,,,,,,,,,,,,,,,,,,,,,,,,,,,,,,,,,,,,
,,613334cf5293abe84a78239c,35,male,2024-04-19_18h37.10.889,stockport_simplified,2022.2.4,Win32,60.24096386,661e456ee6de07e70aa9ef7b,66229da636d1666a9ba2e03a,,,,,,,,,,,,,,,,,,,,,,,,,,,,,,,,,,501.5694,503.2358,"[2,5,1,8,6,7,3,4]","[[-0.3,0.2],[0.3,0.2]]","[[0.125,-0.2],[-0.125,-0.2]]",-0.094444444,-0.193518519,1,0,0,1.1499,o2_image,503.2363,1,503.7358,503.7358,505.7364,0,0,0,0,1,,,,,,,,,,,,,,,,,,,,,,,,,,,,,,,,,,,,,,,,,,,,,,,,,,
,,613334cf5293abe84a78239c,35,male,2024-04-19_18h37.10.889,stockport_simplified,2022.2.4,Win32,60.24096386,661e456ee6de07e70aa9ef7b,66229da636d1666a9ba2e03a,,,,,,,,,,,,,,,,,,,,,,,,,,,,,,,,,,,,,,,,,,,,,,,,,,,,,,,,1,25,85,12,1,B,X,N,o2_image,stimuli/out2.png,stimuli/out1.png,stimuli/correct_out2.png,,,,,,,,,,,,,,,,,,,,,,,,,,,,,,,,,,,,,,
,,613334cf5293abe84a78239c,35,male,2024-04-19_18h37.10.889,stockport_simplified,2022.2.4,Win32,60.24096386,661e456ee6de07e70aa9ef7b,66229da636d1666a9ba2e03a,,,,,,,,,,,,,,,,,,,,,,,,,,,,,,,,,,505.7366,507.086,"[2,5,1,8,6,7,3,4]","[[-0.3,0.2],[0.3,0.2]]","[[0.125,-0.2],[-0.125,-0.2]]",-0.134259259,-0.188888889,1,0,0,0.8333,o2_image,507.0864,1,507.5859,507.5859,509.5859,0,0,0,0,1,,,,,,,,,,,,,,,,,,,,,,,,,,,,,,,,,,,,,,,,,,,,,,,,,,
,,613334cf5293abe84a78239c,35,male,2024-04-19_18h37.10.889,stockport_simplified,2022.2.4,Win32,60.24096386,661e456ee6de07e70aa9ef7b,66229da636d1666a9ba2e03a,,,,,,,,,,,,,,,,,,,,,,,,,,,,,,,,,,,,,,,,,,,,,,,,,,,,,,,,1,26,86,47,1,B,Y,N,o2_image,stimuli/out2.png,stimuli/out1.png,stimuli/correct_out2.png,,,,,,,,,,,,,,,,,,,,,,,,,,,,,,,,,,,,,,
,,613334cf5293abe84a78239c,35,male,2024-04-19_18h37.10.889,stockport_simplified,2022.2.4,Win32,60.24096386,661e456ee6de07e70aa9ef7b,66229da636d1666a9ba2e03a,,,,,,,,,,,,,,,,,,,,,,,,,,,,,,,,,,509.5862,511.436,"[2,5,1,8,6,7,3,4]","[[-0.3,0.2],[0.3,0.2]]","[[-0.125,-0.2],[0.125,-0.2]]",-0.105555556,-0.199074074,1,0,0,1.333,o1_image,511.4368,1,511.9359,511.9359,513.9359,0,0,0,0,1,,,,,,,,,,,,,,,,,,,,,,,,,,,,,,,,,,,,,,,,,,,,,,,,,,
,,613334cf5293abe84a78239c,35,male,2024-04-19_18h37.10.889,stockport_simplified,2022.2.4,Win32,60.24096386,661e456ee6de07e70aa9ef7b,66229da636d1666a9ba2e03a,,,,,,,,,,,,,,,,,,,,,,,,,,,,,,,,,,,,,,,,,,,,,,,,,,,,,,,,1,27,87,1,1,A,X,N,o1_image,stimuli/out1.png,stimuli/correct_out1.png,stimuli/out2.png,,,,,,,,,,,,,,,,,,,,,,,,,,,,,,,,,,,,,,
,,613334cf5293abe84a78239c,35,male,2024-04-19_18h37.10.889,stockport_simplified,2022.2.4,Win32,60.24096386,661e456ee6de07e70aa9ef7b,66229da636d1666a9ba2e03a,,,,,,,,,,,,,,,,,,,,,,,,,,,,,,,,,,513.9361,515.4193,"[2,5,1,8,6,7,3,4]","[[-0.3,0.2],[0.3,0.2]]","[[-0.125,-0.2],[0.125,-0.2]]",-0.115740741,-0.206481481,1,0,0,0.9663,o1_image,515.4197,1,515.9193,515.9193,517.9193,0,0,0,0,1,,,,,,,,,,,,,,,,,,,,,,,,,,,,,,,,,,,,,,,,,,,,,,,,,,
,,613334cf5293abe84a78239c,35,male,2024-04-19_18h37.10.889,stockport_simplified,2022.2.4,Win32,60.24096386,661e456ee6de07e70aa9ef7b,66229da636d1666a9ba2e03a,,,,,,,,,,,,,,,,,,,,,,,,,,,,,,,,,,,,,,,,,,,,,,,,,,,,,,,,1,28,88,51,1,N,M,C,o1_image,stimuli/out1.png,stimuli/correct_out1.png,stimuli/out2.png,,,,,,,,,,,,,,,,,,,,,,,,,,,,,,,,,,,,,,
,,613334cf5293abe84a78239c,35,male,2024-04-19_18h37.10.889,stockport_simplified,2022.2.4,Win32,60.24096386,661e456ee6de07e70aa9ef7b,66229da636d1666a9ba2e03a,,,,,,,,,,,,,,,,,,,,,,,,,,,,,,,,,,517.9195,519.5526,"[2,5,1,8,6,7,3,4]","[[0.3,0.2],[-0.3,0.2]]","[[-0.125,-0.2],[0.125,-0.2]]",-0.151851852,-0.198148148,1,0,0,1.1165,o1_image,519.5532,1,520.0526,520.0526,522.056,0,0,0,0,1,,,,,,,,,,,,,,,,,,,,,,,,,,,,,,,,,,,,,,,,,,,,,,,,,,
,,613334cf5293abe84a78239c,35,male,2024-04-19_18h37.10.889,stockport_simplified,2022.2.4,Win32,60.24096386,661e456ee6de07e70aa9ef7b,66229da636d1666a9ba2e03a,,,,,,,,,,,,,,,,,,,,,,,,,,,,,,,,,,,,,,,,,,,,,,,,,,,,,,,,1,29,89,7,1,A,Y,N,o1_image,stimuli/out1.png,stimuli/correct_out1.png,stimuli/out2.png,,,,,,,,,,,,,,,,,,,,,,,,,,,,,,,,,,,,,,
,,613334cf5293abe84a78239c,35,male,2024-04-19_18h37.10.889,stockport_simplified,2022.2.4,Win32,60.24096386,661e456ee6de07e70aa9ef7b,66229da636d1666a9ba2e03a,,,,,,,,,,,,,,,,,,,,,,,,,,,,,,,,,,522.0562,523.6396,"[2,5,1,8,6,7,3,4]","[[0.3,0.2],[-0.3,0.2]]","[[-0.125,-0.2],[0.125,-0.2]]",0.1,-0.211111111,1,0,0,1.0673,o2_image,523.64,0,524.1396,524.1397,526.1395,0,0,0,0,1,,,,,,,,,,,,,,,,,,,,,,,,,,,,,,,,,,,,,,,,,,,,,,,,,,
,,613334cf5293abe84a78239c,35,male,2024-04-19_18h37.10.889,stockport_simplified,2022.2.4,Win32,60.24096386,661e456ee6de07e70aa9ef7b,66229da636d1666a9ba2e03a,,,,,,,,,,,,,,,,,,,,,,,,,,,,,,,,,,,,,,,,,,,,,,,,,,,,,,,,1,30,90,4,1,A,X,N,o1_image,stimuli/out1.png,stimuli/correct_out1.png,stimuli/out2.png,,,,,,,,,,,,,,,,,,,,,,,,,,,,,,,,,,,,,,
,,613334cf5293abe84a78239c,35,male,2024-04-19_18h37.10.889,stockport_simplified,2022.2.4,Win32,60.24096386,661e456ee6de07e70aa9ef7b,66229da636d1666a9ba2e03a,,,,,,,,,,,,,,,,,,,,,,,,,,,,,,,,,,526.1398,527.5897,"[2,5,1,8,6,7,3,4]","[[0.3,0.2],[-0.3,0.2]]","[[0.125,-0.2],[-0.125,-0.2]]",-0.121296296,-0.175,1,0,0,0.934,o2_image,527.5901,1,528.0894,528.0894,530.0894,0,0,0,0,1,,,,,,,,,,,,,,,,,,,,,,,,,,,,,,,,,,,,,,,,,,,,,,,,,,
,,613334cf5293abe84a78239c,35,male,2024-04-19_18h37.10.889,stockport_simplified,2022.2.4,Win32,60.24096386,661e456ee6de07e70aa9ef7b,66229da636d1666a9ba2e03a,,,,,,,,,,,,,,,,,,,,,,,,,,,,,,,,,,,,,,,,,,,,,,,,,,,,,,,,1,31,91,10,1,B,X,N,o2_image,stimuli/out2.png,stimuli/out1.png,stimuli/correct_out2.png,,,,,,,,,,,,,,,,,,,,,,,,,,,,,,,,,,,,,,
,,613334cf5293abe84a78239c,35,male,2024-04-19_18h37.10.889,stockport_simplified,2022.2.4,Win32,60.24096386,661e456ee6de07e70aa9ef7b,66229da636d1666a9ba2e03a,,,,,,,,,,,,,,,,,,,,,,,,,,,,,,,,,,530.0897,531.6896,"[2,5,1,8,6,7,3,4]","[[-0.3,0.2],[0.3,0.2]]","[[0.125,-0.2],[-0.125,-0.2]]",-0.109259259,-0.155555556,1,0,0,1.0842,o2_image,531.6899,1,532.1895,532.1895,534.1892,0,0,0,0,1,,,,,,,,,,,,,,,,,,,,,,,,,,,,,,,,,,,,,,,,,,,,,,,,,,
,,613334cf5293abe84a78239c,35,male,2024-04-19_18h37.10.889,stockport_simplified,2022.2.4,Win32,60.24096386,661e456ee6de07e70aa9ef7b,66229da636d1666a9ba2e03a,,,,,,,,,,,,,,,,,,,,,,,,,,,,,,,,,,,,,,,,,,,,,,,,,,,,,,,,1,32,92,13,1,B,X,N,o2_image,stimuli/out2.png,stimuli/out1.png,stimuli/correct_out2.png,,,,,,,,,,,,,,,,,,,,,,,,,,,,,,,,,,,,,,
,,613334cf5293abe84a78239c,35,male,2024-04-19_18h37.10.889,stockport_simplified,2022.2.4,Win32,60.24096386,661e456ee6de07e70aa9ef7b,66229da636d1666a9ba2e03a,,,,,,,,,,,,,,,,,,,,,,,,,,,,,,,,,,534.1894,535.6693,"[2,5,1,8,6,7,3,4]","[[0.3,0.2],[-0.3,0.2]]","[[-0.125,-0.2],[0.125,-0.2]]",-0.109259259,-0.186111111,1,0,0,0.9634,o1_image,535.6698,1,536.1693,536.1693,538.1735,0,0,0,0,1,,,,,,,,,,,,,,,,,,,,,,,,,,,,,,,,,,,,,,,,,,,,,,,,,,
,,613334cf5293abe84a78239c,35,male,2024-04-19_18h37.10.889,stockport_simplified,2022.2.4,Win32,60.24096386,661e456ee6de07e70aa9ef7b,66229da636d1666a9ba2e03a,,,,,,,,,,,,,,,,,,,,,,,,,,,,,,,,,,,,,,,,,,,,,,,,,,,,,,,,1,33,93,24,1,N,M,C,o1_image,stimuli/out1.png,stimuli/correct_out1.png,stimuli/out2.png,,,,,,,,,,,,,,,,,,,,,,,,,,,,,,,,,,,,,,
,,613334cf5293abe84a78239c,35,male,2024-04-19_18h37.10.889,stockport_simplified,2022.2.4,Win32,60.24096386,661e456ee6de07e70aa9ef7b,66229da636d1666a9ba2e03a,,,,,,,,,,,,,,,,,,,,,,,,,,,,,,,,,,538.1736,539.6567,"[2,5,1,8,6,7,3,4]","[[0.3,0.2],[-0.3,0.2]]","[[-0.125,-0.2],[0.125,-0.2]]",0.091666667,-0.177777778,1,0,0,0.9706,o2_image,539.6571,1,540.1527,540.1527,542.1527,0,0,0,0,1,,,,,,,,,,,,,,,,,,,,,,,,,,,,,,,,,,,,,,,,,,,,,,,,,,
,,613334cf5293abe84a78239c,35,male,2024-04-19_18h37.10.889,stockport_simplified,2022.2.4,Win32,60.24096386,661e456ee6de07e70aa9ef7b,66229da636d1666a9ba2e03a,,,,,,,,,,,,,,,,,,,,,,,,,,,,,,,,,,,,,,,,,,,,,,,,,,,,,,,,1,34,94,55,1,N,M,D,o2_image,stimuli/out2.png,stimuli/out1.png,stimuli/correct_out2.png,,,,,,,,,,,,,,,,,,,,,,,,,,,,,,,,,,,,,,
,,613334cf5293abe84a78239c,35,male,2024-04-19_18h37.10.889,stockport_simplified,2022.2.4,Win32,60.24096386,661e456ee6de07e70aa9ef7b,66229da636d1666a9ba2e03a,,,,,,,,,,,,,,,,,,,,,,,,,,,,,,,,,,542.153,543.7027,"[2,5,1,8,6,7,3,4]","[[0.3,0.2],[-0.3,0.2]]","[[-0.125,-0.2],[0.125,-0.2]]",-0.114814815,-0.188888889,1,0,0,1.0463,o1_image,543.7032,1,544.2027,544.2027,546.2028,0,0,0,0,1,,,,,,,,,,,,,,,,,,,,,,,,,,,,,,,,,,,,,,,,,,,,,,,,,,
,,613334cf5293abe84a78239c,35,male,2024-04-19_18h37.10.889,stockport_simplified,2022.2.4,Win32,60.24096386,661e456ee6de07e70aa9ef7b,66229da636d1666a9ba2e03a,,,,,,,,,,,,,,,,,,,,,,,,,,,,,,,,,,,,,,,,,,,,,,,,,,,,,,,,1,35,95,2,1,A,X,N,o1_image,stimuli/out1.png,stimuli/correct_out1.png,stimuli/out2.png,,,,,,,,,,,,,,,,,,,,,,,,,,,,,,,,,,,,,,
,,613334cf5293abe84a78239c,35,male,2024-04-19_18h37.10.889,stockport_simplified,2022.2.4,Win32,60.24096386,661e456ee6de07e70aa9ef7b,66229da636d1666a9ba2e03a,,,,,,,,,,,,,,,,,,,,,,,,,,,,,,,,,,546.2031,547.9027,"[2,5,1,8,6,7,3,4]","[[-0.3,0.2],[0.3,0.2]]","[[0.125,-0.2],[-0.125,-0.2]]",0.103703704,-0.191666667,1,0,0,1.1834,o1_image,547.9032,1,548.4026,548.4027,550.4026,0,0,0,0,1,,,,,,,,,,,,,,,,,,,,,,,,,,,,,,,,,,,,,,,,,,,,,,,,,,
,,613334cf5293abe84a78239c,35,male,2024-04-19_18h37.10.889,stockport_simplified,2022.2.4,Win32,60.24096386,661e456ee6de07e70aa9ef7b,66229da636d1666a9ba2e03a,,,,,,,,,,,,,,,,,,,,,,,,,,,,,,,,,,,,,,,,,,,,,,,,,,,,,,,,1,36,96,33,1,A,X,N,o1_image,stimuli/out1.png,stimuli/correct_out1.png,stimuli/out2.png,,,,,,,,,,,,,,,,,,,,,,,,,,,,,,,,,,,,,,
,,613334cf5293abe84a78239c,35,male,2024-04-19_18h37.10.889,stockport_simplified,2022.2.4,Win32,60.24096386,661e456ee6de07e70aa9ef7b,66229da636d1666a9ba2e03a,,,,,,,,,,,,,,,,,,,,,,,,,,,,,,,,,,550.403,551.7526,"[2,5,1,8,6,7,3,4]","[[-0.3,0.2],[0.3,0.2]]","[[0.125,-0.2],[-0.125,-0.2]]",0.099074074,-0.191666667,1,0,0,0.8334,o1_image,551.7532,1,552.253,552.253,554.2527,0,0,0,0,1,,,,,,,,,,,,,,,,,,,,,,,,,,,,,,,,,,,,,,,,,,,,,,,,,,
,,613334cf5293abe84a78239c,35,male,2024-04-19_18h37.10.889,stockport_simplified,2022.2.4,Win32,60.24096386,661e456ee6de07e70aa9ef7b,66229da636d1666a9ba2e03a,,,,,,,,,,,,,,,,,,,,,,,,,,,,,,,,,,,,,,,,,,,,,,,,,,,,,,,,1,37,97,32,1,A,X,N,o1_image,stimuli/out1.png,stimuli/correct_out1.png,stimuli/out2.png,,,,,,,,,,,,,,,,,,,,,,,,,,,,,,,,,,,,,,
,,613334cf5293abe84a78239c,35,male,2024-04-19_18h37.10.889,stockport_simplified,2022.2.4,Win32,60.24096386,661e456ee6de07e70aa9ef7b,66229da636d1666a9ba2e03a,,,,,,,,,,,,,,,,,,,,,,,,,,,,,,,,,,554.2531,555.6694,"[2,5,1,8,6,7,3,4]","[[0.3,0.2],[-0.3,0.2]]","[[0.125,-0.2],[-0.125,-0.2]]",-0.121296296,-0.197222222,1,0,0,0.8998,o2_image,555.6698,1,556.1696,556.1697,558.1696,0,0,0,0,1,,,,,,,,,,,,,,,,,,,,,,,,,,,,,,,,,,,,,,,,,,,,,,,,,,
,,613334cf5293abe84a78239c,35,male,2024-04-19_18h37.10.889,stockport_simplified,2022.2.4,Win32,60.24096386,661e456ee6de07e70aa9ef7b,66229da636d1666a9ba2e03a,,,,,,,,,,,,,,,,,,,,,,,,,,,,,,,,,,,,,,,,,,,,,,,,,,,,,,,,1,38,98,19,1,B,Y,N,o2_image,stimuli/out2.png,stimuli/out1.png,stimuli/correct_out2.png,,,,,,,,,,,,,,,,,,,,,,,,,,,,,,,,,,,,,,
,,613334cf5293abe84a78239c,35,male,2024-04-19_18h37.10.889,stockport_simplified,2022.2.4,Win32,60.24096386,661e456ee6de07e70aa9ef7b,66229da636d1666a9ba2e03a,,,,,,,,,,,,,,,,,,,,,,,,,,,,,,,,,,558.1698,559.9528,"[2,5,1,8,6,7,3,4]","[[0.3,0.2],[-0.3,0.2]]","[[0.125,-0.2],[-0.125,-0.2]]",-0.103703704,-0.191666667,1,0,0,1.2665,o2_image,559.9533,1,560.453,560.453,562.4527,0,0,0,0,1,,,,,,,,,,,,,,,,,,,,,,,,,,,,,,,,,,,,,,,,,,,,,,,,,,
,,613334cf5293abe84a78239c,35,male,2024-04-19_18h37.10.889,stockport_simplified,2022.2.4,Win32,60.24096386,661e456ee6de07e70aa9ef7b,66229da636d1666a9ba2e03a,,,,,,,,,,,,,,,,,,,,,,,,,,,,,,,,,,,,,,,,,,,,,,,,,,,,,,,,1,39,99,11,1,B,X,N,o2_image,stimuli/out2.png,stimuli/out1.png,stimuli/correct_out2.png,,,,,,,,,,,,,,,,,,,,,,,,,,,,,,,,,,,,,,
,,613334cf5293abe84a78239c,35,male,2024-04-19_18h37.10.889,stockport_simplified,2022.2.4,Win32,60.24096386,661e456ee6de07e70aa9ef7b,66229da636d1666a9ba2e03a,,,,,,,,,,,,,,,,,,,,,,,,,,,,,,,,,,562.453,564.0194,"[2,5,1,8,6,7,3,4]","[[-0.3,0.2],[0.3,0.2]]","[[-0.125,-0.2],[0.125,-0.2]]",-0.125925926,-0.187962963,1,0,0,1.0499,o1_image,564.0199,0,564.5196,564.5197,566.5199,0,0,0,0,1,,,,,,,,,,,,,,,,,,,,,,,,,,,,,,,,,,,,,,,,,,,,,,,,,,
,,613334cf5293abe84a78239c,35,male,2024-04-19_18h37.10.889,stockport_simplified,2022.2.4,Win32,60.24096386,661e456ee6de07e70aa9ef7b,66229da636d1666a9ba2e03a,,,,,,,,,,,,,,,,,,,,,,,,,,,,,,,,,,,,,,,,,,,,,,,,,,,,,,,,1,40,100,42,1,B,X,N,o2_image,stimuli/out2.png,stimuli/out1.png,stimuli/correct_out2.png,,,,,,,,,,,,,,,,,,,,,,,,,,,,,,,,,,,,,,
,,613334cf5293abe84a78239c,35,male,2024-04-19_18h37.10.889,stockport_simplified,2022.2.4,Win32,60.24096386,661e456ee6de07e70aa9ef7b,66229da636d1666a9ba2e03a,,,,,,,,,,,,,,,,,,,,,,,,,,,,,,,,,,566.5202,568.0862,"[2,5,1,8,6,7,3,4]","[[0.3,0.2],[-0.3,0.2]]","[[0.125,-0.2],[-0.125,-0.2]]",-0.090740741,-0.198148148,1,0,0,1.0494,o2_image,568.0868,1,568.5861,568.5861,570.5861,0,0,0,0,1,,,,,,,,,,,,,,,,,,,,,,,,,,,,,,,,,,,,,,,,,,,,,,,,,,
,,613334cf5293abe84a78239c,35,male,2024-04-19_18h37.10.889,stockport_simplified,2022.2.4,Win32,60.24096386,661e456ee6de07e70aa9ef7b,66229da636d1666a9ba2e03a,,,,,,,,,,,,,,,,,,,,,,,,,,,,,,,,,,,,,,,,,,,,,,,,,,,,,,,,1,41,101,48,1,B,Y,N,o2_image,stimuli/out2.png,stimuli/out1.png,stimuli/correct_out2.png,,,,,,,,,,,,,,,,,,,,,,,,,,,,,,,,,,,,,,
,,613334cf5293abe84a78239c,35,male,2024-04-19_18h37.10.889,stockport_simplified,2022.2.4,Win32,60.24096386,661e456ee6de07e70aa9ef7b,66229da636d1666a9ba2e03a,,,,,,,,,,,,,,,,,,,,,,,,,,,,,,,,,,570.5863,572.0569,"[2,5,1,8,6,7,3,4]","[[-0.3,0.2],[0.3,0.2]]","[[-0.125,-0.2],[0.125,-0.2]]",-0.156481481,-0.174074074,1,0,0,0.9538,o1_image,572.0574,1,572.5529,572.5529,574.5531,0,0,0,0,1,,,,,,,,,,,,,,,,,,,,,,,,,,,,,,,,,,,,,,,,,,,,,,,,,,
,,613334cf5293abe84a78239c,35,male,2024-04-19_18h37.10.889,stockport_simplified,2022.2.4,Win32,60.24096386,661e456ee6de07e70aa9ef7b,66229da636d1666a9ba2e03a,,,,,,,,,,,,,,,,,,,,,,,,,,,,,,,,,,,,,,,,,,,,,,,,,,,,,,,,1,42,102,23,1,N,M,C,o1_image,stimuli/out1.png,stimuli/correct_out1.png,stimuli/out2.png,,,,,,,,,,,,,,,,,,,,,,,,,,,,,,,,,,,,,,
,,613334cf5293abe84a78239c,35,male,2024-04-19_18h37.10.889,stockport_simplified,2022.2.4,Win32,60.24096386,661e456ee6de07e70aa9ef7b,66229da636d1666a9ba2e03a,,,,,,,,,,,,,,,,,,,,,,,,,,,,,,,,,,574.5533,576.3861,"[2,5,1,8,6,7,3,4]","[[0.3,0.2],[-0.3,0.2]]","[[-0.125,-0.2],[0.125,-0.2]]",-0.130555556,-0.177777778,1,0,0,1.3163,o1_image,576.3866,1,576.8862,576.8862,578.8862,0,0,0,0,1,,,,,,,,,,,,,,,,,,,,,,,,,,,,,,,,,,,,,,,,,,,,,,,,,,
,,613334cf5293abe84a78239c,35,male,2024-04-19_18h37.10.889,stockport_simplified,2022.2.4,Win32,60.24096386,661e456ee6de07e70aa9ef7b,66229da636d1666a9ba2e03a,,,,,,,,,,,,,,,,,,,,,,,,,,,,,,,,,,,,,,,,,,,,,,,,,,,,,,,,1,43,103,31,1,A,X,N,o1_image,stimuli/out1.png,stimuli/correct_out1.png,stimuli/out2.png,,,,,,,,,,,,,,,,,,,,,,,,,,,,,,,,,,,,,,
,,613334cf5293abe84a78239c,35,male,2024-04-19_18h37.10.889,stockport_simplified,2022.2.4,Win32,60.24096386,661e456ee6de07e70aa9ef7b,66229da636d1666a9ba2e03a,,,,,,,,,,,,,,,,,,,,,,,,,,,,,,,,,,578.8864,580.4029,"[2,5,1,8,6,7,3,4]","[[-0.3,0.2],[0.3,0.2]]","[[-0.125,-0.2],[0.125,-0.2]]",0.127777778,-0.186111111,1,0,0,1.0128,o2_image,580.4033,1,580.9066,580.9066,582.9066,0,0,0,0,1,,,,,,,,,,,,,,,,,,,,,,,,,,,,,,,,,,,,,,,,,,,,,,,,,,
,,613334cf5293abe84a78239c,35,male,2024-04-19_18h37.10.889,stockport_simplified,2022.2.4,Win32,60.24096386,661e456ee6de07e70aa9ef7b,66229da636d1666a9ba2e03a,,,,,,,,,,,,,,,,,,,,,,,,,,,,,,,,,,,,,,,,,,,,,,,,,,,,,,,,1,44,104,17,1,B,Y,N,o2_image,stimuli/out2.png,stimuli/out1.png,stimuli/correct_out2.png,,,,,,,,,,,,,,,,,,,,,,,,,,,,,,,,,,,,,,
,,613334cf5293abe84a78239c,35,male,2024-04-19_18h37.10.889,stockport_simplified,2022.2.4,Win32,60.24096386,661e456ee6de07e70aa9ef7b,66229da636d1666a9ba2e03a,,,,,,,,,,,,,,,,,,,,,,,,,,,,,,,,,,582.9068,584.2527,"[2,5,1,8,6,7,3,4]","[[0.3,0.2],[-0.3,0.2]]","[[-0.125,-0.2],[0.125,-0.2]]",-0.115740741,-0.161111111,1,0,0,0.8329,o1_image,584.2532,1,584.753,584.753,586.753,0,0,0,0,1,,,,,,,,,,,,,,,,,,,,,,,,,,,,,,,,,,,,,,,,,,,,,,,,,,
,,613334cf5293abe84a78239c,35,male,2024-04-19_18h37.10.889,stockport_simplified,2022.2.4,Win32,60.24096386,661e456ee6de07e70aa9ef7b,66229da636d1666a9ba2e03a,,,,,,,,,,,,,,,,,,,,,,,,,,,,,,,,,,,,,,,,,,,,,,,,,,,,,,,,1,45,105,53,1,N,M,C,o1_image,stimuli/out1.png,stimuli/correct_out1.png,stimuli/out2.png,,,,,,,,,,,,,,,,,,,,,,,,,,,,,,,,,,,,,,
,,613334cf5293abe84a78239c,35,male,2024-04-19_18h37.10.889,stockport_simplified,2022.2.4,Win32,60.24096386,661e456ee6de07e70aa9ef7b,66229da636d1666a9ba2e03a,,,,,,,,,,,,,,,,,,,,,,,,,,,,,,,,,,586.7533,588.6529,"[2,5,1,8,6,7,3,4]","[[0.3,0.2],[-0.3,0.2]]","[[0.125,-0.2],[-0.125,-0.2]]",-0.134259259,-0.177777778,1,0,0,1.3832,o2_image,588.6533,1,589.1528,589.1529,591.1529,0,0,0,0,1,,,,,,,,,,,,,,,,,,,,,,,,,,,,,,,,,,,,,,,,,,,,,,,,,,
,,613334cf5293abe84a78239c,35,male,2024-04-19_18h37.10.889,stockport_simplified,2022.2.4,Win32,60.24096386,661e456ee6de07e70aa9ef7b,66229da636d1666a9ba2e03a,,,,,,,,,,,,,,,,,,,,,,,,,,,,,,,,,,,,,,,,,,,,,,,,,,,,,,,,1,46,106,18,1,B,Y,N,o2_image,stimuli/out2.png,stimuli/out1.png,stimuli/correct_out2.png,,,,,,,,,,,,,,,,,,,,,,,,,,,,,,,,,,,,,,
,,613334cf5293abe84a78239c,35,male,2024-04-19_18h37.10.889,stockport_simplified,2022.2.4,Win32,60.24096386,661e456ee6de07e70aa9ef7b,66229da636d1666a9ba2e03a,,,,,,,,,,,,,,,,,,,,,,,,,,,,,,,,,,591.1532,592.6696,"[2,5,1,8,6,7,3,4]","[[-0.3,0.2],[0.3,0.2]]","[[0.125,-0.2],[-0.125,-0.2]]",0.128703704,-0.164814815,1,0,0,0.9997,o1_image,592.6701,1,593.1736,593.1736,595.1738,0,0,0,0,1,,,,,,,,,,,,,,,,,,,,,,,,,,,,,,,,,,,,,,,,,,,,,,,,,,
,,613334cf5293abe84a78239c,35,male,2024-04-19_18h37.10.889,stockport_simplified,2022.2.4,Win32,60.24096386,661e456ee6de07e70aa9ef7b,66229da636d1666a9ba2e03a,,,,,,,,,,,,,,,,,,,,,,,,,,,,,,,,,,,,,,,,,,,,,,,,,,,,,,,,1,47,107,34,1,A,X,N,o1_image,stimuli/out1.png,stimuli/correct_out1.png,stimuli/out2.png,,,,,,,,,,,,,,,,,,,,,,,,,,,,,,,,,,,,,,
,,613334cf5293abe84a78239c,35,male,2024-04-19_18h37.10.889,stockport_simplified,2022.2.4,Win32,60.24096386,661e456ee6de07e70aa9ef7b,66229da636d1666a9ba2e03a,,,,,,,,,,,,,,,,,,,,,,,,,,,,,,,,,,595.1741,596.5403,"[2,5,1,8,6,7,3,4]","[[0.3,0.2],[-0.3,0.2]]","[[-0.125,-0.2],[0.125,-0.2]]",0.165740741,-0.199074074,1,0,0,0.8539,o2_image,596.5409,1,597.0362,597.0363,599.0366,0,0,0,0,1,,,,,,,,,,,,,,,,,,,,,,,,,,,,,,,,,,,,,,,,,,,,,,,,,,
,,613334cf5293abe84a78239c,35,male,2024-04-19_18h37.10.889,stockport_simplified,2022.2.4,Win32,60.24096386,661e456ee6de07e70aa9ef7b,66229da636d1666a9ba2e03a,,,,,,,,,,,,,,,,,,,,,,,,,,,,,,,,,,,,,,,,,,,,,,,,,,,,,,,,1,48,108,58,1,N,M,D,o2_image,stimuli/out2.png,stimuli/out1.png,stimuli/correct_out2.png,,,,,,,,,,,,,,,,,,,,,,,,,,,,,,,,,,,,,,
,,613334cf5293abe84a78239c,35,male,2024-04-19_18h37.10.889,stockport_simplified,2022.2.4,Win32,60.24096386,661e456ee6de07e70aa9ef7b,66229da636d1666a9ba2e03a,,,,,,,,,,,,,,,,,,,,,,,,,,,,,,,,,,599.0369,600.303,"[2,5,1,8,6,7,3,4]","[[0.3,0.2],[-0.3,0.2]]","[[-0.125,-0.2],[0.125,-0.2]]",0.099074074,-0.168518519,1,0,0,0.75,o2_image,600.3036,1,600.8031,600.8031,602.803,0,0,0,0,1,,,,,,,,,,,,,,,,,,,,,,,,,,,,,,,,,,,,,,,,,,,,,,,,,,
,,613334cf5293abe84a78239c,35,male,2024-04-19_18h37.10.889,stockport_simplified,2022.2.4,Win32,60.24096386,661e456ee6de07e70aa9ef7b,66229da636d1666a9ba2e03a,,,,,,,,,,,,,,,,,,,,,,,,,,,,,,,,,,,,,,,,,,,,,,,,,,,,,,,,1,49,109,57,1,N,M,D,o2_image,stimuli/out2.png,stimuli/out1.png,stimuli/correct_out2.png,,,,,,,,,,,,,,,,,,,,,,,,,,,,,,,,,,,,,,
,,613334cf5293abe84a78239c,35,male,2024-04-19_18h37.10.889,stockport_simplified,2022.2.4,Win32,60.24096386,661e456ee6de07e70aa9ef7b,66229da636d1666a9ba2e03a,,,,,,,,,,,,,,,,,,,,,,,,,,,,,,,,,,602.8033,604.07,"[2,5,1,8,6,7,3,4]","[[0.3,0.2],[-0.3,0.2]]","[[-0.125,-0.2],[0.125,-0.2]]",0.094444444,-0.182407407,1,0,0,0.7504,o2_image,604.0704,1,604.5697,604.5697,606.5699,0,0,0,0,1,,,,,,,,,,,,,,,,,,,,,,,,,,,,,,,,,,,,,,,,,,,,,,,,,,
,,613334cf5293abe84a78239c,35,male,2024-04-19_18h37.10.889,stockport_simplified,2022.2.4,Win32,60.24096386,661e456ee6de07e70aa9ef7b,66229da636d1666a9ba2e03a,,,,,,,,,,,,,,,,,,,,,,,,,,,,,,,,,,,,,,,,,,,,,,,,,,,,,,,,1,50,110,25,1,N,M,D,o2_image,stimuli/out2.png,stimuli/out1.png,stimuli/correct_out2.png,,,,,,,,,,,,,,,,,,,,,,,,,,,,,,,,,,,,,,
,,613334cf5293abe84a78239c,35,male,2024-04-19_18h37.10.889,stockport_simplified,2022.2.4,Win32,60.24096386,661e456ee6de07e70aa9ef7b,66229da636d1666a9ba2e03a,,,,,,,,,,,,,,,,,,,,,,,,,,,,,,,,,,606.5702,608.0531,"[2,5,1,8,6,7,3,4]","[[-0.3,0.2],[0.3,0.2]]","[[0.125,-0.2],[-0.125,-0.2]]",-0.117592593,-0.169444444,1,0,0,0.9666,o2_image,608.0536,1,608.553,608.553,610.553,0,0,0,0,1,,,,,,,,,,,,,,,,,,,,,,,,,,,,,,,,,,,,,,,,,,,,,,,,,,
,,613334cf5293abe84a78239c,35,male,2024-04-19_18h37.10.889,stockport_simplified,2022.2.4,Win32,60.24096386,661e456ee6de07e70aa9ef7b,66229da636d1666a9ba2e03a,,,,,,,,,,,,,,,,,,,,,,,,,,,,,,,,,,,,,,,,,,,,,,,,,,,,,,,,1,51,111,59,1,N,M,D,o2_image,stimuli/out2.png,stimuli/out1.png,stimuli/correct_out2.png,,,,,,,,,,,,,,,,,,,,,,,,,,,,,,,,,,,,,,
,,613334cf5293abe84a78239c,35,male,2024-04-19_18h37.10.889,stockport_simplified,2022.2.4,Win32,60.24096386,661e456ee6de07e70aa9ef7b,66229da636d1666a9ba2e03a,,,,,,,,,,,,,,,,,,,,,,,,,,,,,,,,,,610.5533,612.2698,"[2,5,1,8,6,7,3,4]","[[-0.3,0.2],[0.3,0.2]]","[[-0.125,-0.2],[0.125,-0.2]]",-0.102777778,-0.177777778,1,0,0,1.1998,o1_image,612.2702,1,612.773,612.773,614.7734,0,0,0,0,1,,,,,,,,,,,,,,,,,,,,,,,,,,,,,,,,,,,,,,,,,,,,,,,,,,
,,613334cf5293abe84a78239c,35,male,2024-04-19_18h37.10.889,stockport_simplified,2022.2.4,Win32,60.24096386,661e456ee6de07e70aa9ef7b,66229da636d1666a9ba2e03a,,,,,,,,,,,,,,,,,,,,,,,,,,,,,,,,,,,,,,,,,,,,,,,,,,,,,,,,1,52,112,37,1,A,Y,N,o1_image,stimuli/out1.png,stimuli/correct_out1.png,stimuli/out2.png,,,,,,,,,,,,,,,,,,,,,,,,,,,,,,,,,,,,,,
,,613334cf5293abe84a78239c,35,male,2024-04-19_18h37.10.889,stockport_simplified,2022.2.4,Win32,60.24096386,661e456ee6de07e70aa9ef7b,66229da636d1666a9ba2e03a,,,,,,,,,,,,,,,,,,,,,,,,,,,,,,,,,,614.7738,616.2574,"[2,5,1,8,6,7,3,4]","[[-0.3,0.2],[0.3,0.2]]","[[0.125,-0.2],[-0.125,-0.2]]",0.115740741,-0.196296296,1,0,0,0.9707,o1_image,616.2576,1,616.7533,616.7533,618.7533,0,0,0,0,1,,,,,,,,,,,,,,,,,,,,,,,,,,,,,,,,,,,,,,,,,,,,,,,,,,
,,613334cf5293abe84a78239c,35,male,2024-04-19_18h37.10.889,stockport_simplified,2022.2.4,Win32,60.24096386,661e456ee6de07e70aa9ef7b,66229da636d1666a9ba2e03a,,,,,,,,,,,,,,,,,,,,,,,,,,,,,,,,,,,,,,,,,,,,,,,,,,,,,,,,1,53,113,21,1,N,M,C,o1_image,stimuli/out1.png,stimuli/correct_out1.png,stimuli/out2.png,,,,,,,,,,,,,,,,,,,,,,,,,,,,,,,,,,,,,,
,,613334cf5293abe84a78239c,35,male,2024-04-19_18h37.10.889,stockport_simplified,2022.2.4,Win32,60.24096386,661e456ee6de07e70aa9ef7b,66229da636d1666a9ba2e03a,,,,,,,,,,,,,,,,,,,,,,,,,,,,,,,,,,618.7538,620.1699,"[2,5,1,8,6,7,3,4]","[[0.3,0.2],[-0.3,0.2]]","[[-0.125,-0.2],[0.125,-0.2]]",0.142592593,-0.175925926,1,0,0,0.8997,o2_image,620.1703,1,620.6697,620.6698,622.6698,0,0,0,0,1,,,,,,,,,,,,,,,,,,,,,,,,,,,,,,,,,,,,,,,,,,,,,,,,,,
,,613334cf5293abe84a78239c,35,male,2024-04-19_18h37.10.889,stockport_simplified,2022.2.4,Win32,60.24096386,661e456ee6de07e70aa9ef7b,66229da636d1666a9ba2e03a,,,,,,,,,,,,,,,,,,,,,,,,,,,,,,,,,,,,,,,,,,,,,,,,,,,,,,,,1,54,114,29,1,N,M,D,o2_image,stimuli/out2.png,stimuli/out1.png,stimuli/correct_out2.png,,,,,,,,,,,,,,,,,,,,,,,,,,,,,,,,,,,,,,
,,613334cf5293abe84a78239c,35,male,2024-04-19_18h37.10.889,stockport_simplified,2022.2.4,Win32,60.24096386,661e456ee6de07e70aa9ef7b,66229da636d1666a9ba2e03a,,,,,,,,,,,,,,,,,,,,,,,,,,,,,,,,,,622.67,624.5699,"[2,5,1,8,6,7,3,4]","[[0.3,0.2],[-0.3,0.2]]","[[0.125,-0.2],[-0.125,-0.2]]",0.12037037,-0.156481481,1,0,0,1.3995,o1_image,624.5704,1,625.0699,625.07,627.0702,0,0,0,0,1,,,,,,,,,,,,,,,,,,,,,,,,,,,,,,,,,,,,,,,,,,,,,,,,,,
,,613334cf5293abe84a78239c,35,male,2024-04-19_18h37.10.889,stockport_simplified,2022.2.4,Win32,60.24096386,661e456ee6de07e70aa9ef7b,66229da636d1666a9ba2e03a,,,,,,,,,,,,,,,,,,,,,,,,,,,,,,,,,,,,,,,,,,,,,,,,,,,,,,,,1,55,115,50,1,N,M,C,o1_image,stimuli/out1.png,stimuli/correct_out1.png,stimuli/out2.png,,,,,,,,,,,,,,,,,,,,,,,,,,,,,,,,,,,,,,
,,613334cf5293abe84a78239c,35,male,2024-04-19_18h37.10.889,stockport_simplified,2022.2.4,Win32,60.24096386,661e456ee6de07e70aa9ef7b,66229da636d1666a9ba2e03a,,,,,,,,,,,,,,,,,,,,,,,,,,,,,,,,,,627.0704,628.3697,"[2,5,1,8,6,7,3,4]","[[0.3,0.2],[-0.3,0.2]]","[[0.125,-0.2],[-0.125,-0.2]]",-0.097222222,-0.151851852,1,0,0,0.7828,o2_image,628.3702,1,628.8703,628.8703,630.8697,0,0,0,0,1,,,,,,,,,,,,,,,,,,,,,,,,,,,,,,,,,,,,,,,,,,,,,,,,,,
,,613334cf5293abe84a78239c,35,male,2024-04-19_18h37.10.889,stockport_simplified,2022.2.4,Win32,60.24096386,661e456ee6de07e70aa9ef7b,66229da636d1666a9ba2e03a,,,,,,,,,,,,,,,,,,,,,,,,,,,,,,,,,,,,,,,,,,,,,,,,,,,,,,,,1,56,116,27,1,N,M,D,o2_image,stimuli/out2.png,stimuli/out1.png,stimuli/correct_out2.png,,,,,,,,,,,,,,,,,,,,,,,,,,,,,,,,,,,,,,
,,613334cf5293abe84a78239c,35,male,2024-04-19_18h37.10.889,stockport_simplified,2022.2.4,Win32,60.24096386,661e456ee6de07e70aa9ef7b,66229da636d1666a9ba2e03a,,,,,,,,,,,,,,,,,,,,,,,,,,,,,,,,,,630.8699,632.1697,"[2,5,1,8,6,7,3,4]","[[0.3,0.2],[-0.3,0.2]]","[[0.125,-0.2],[-0.125,-0.2]]",0.136111111,-0.169444444,1,0,0,0.783,o1_image,632.1702,1,632.6697,632.6698,634.6697,0,0,0,0,1,,,,,,,,,,,,,,,,,,,,,,,,,,,,,,,,,,,,,,,,,,,,,,,,,,
,,613334cf5293abe84a78239c,35,male,2024-04-19_18h37.10.889,stockport_simplified,2022.2.4,Win32,60.24096386,661e456ee6de07e70aa9ef7b,66229da636d1666a9ba2e03a,,,,,,,,,,,,,,,,,,,,,,,,,,,,,,,,,,,,,,,,,,,,,,,,,,,,,,,,1,57,117,20,1,N,M,C,o1_image,stimuli/out1.png,stimuli/correct_out1.png,stimuli/out2.png,,,,,,,,,,,,,,,,,,,,,,,,,,,,,,,,,,,,,,
,,613334cf5293abe84a78239c,35,male,2024-04-19_18h37.10.889,stockport_simplified,2022.2.4,Win32,60.24096386,661e456ee6de07e70aa9ef7b,66229da636d1666a9ba2e03a,,,,,,,,,,,,,,,,,,,,,,,,,,,,,,,,,,634.67,635.903,"[2,5,1,8,6,7,3,4]","[[-0.3,0.2],[0.3,0.2]]","[[0.125,-0.2],[-0.125,-0.2]]",0.132407407,-0.177777778,1,0,0,0.7163,o1_image,635.9035,1,636.4031,636.4031,638.403,0,0,0,0,1,,,,,,,,,,,,,,,,,,,,,,,,,,,,,,,,,,,,,,,,,,,,,,,,,,
,,613334cf5293abe84a78239c,35,male,2024-04-19_18h37.10.889,stockport_simplified,2022.2.4,Win32,60.24096386,661e456ee6de07e70aa9ef7b,66229da636d1666a9ba2e03a,,,,,,,,,,,,,,,,,,,,,,,,,,,,,,,,,,,,,,,,,,,,,,,,,,,,,,,,1,58,118,52,1,N,M,C,o1_image,stimuli/out1.png,stimuli/correct_out1.png,stimuli/out2.png,,,,,,,,,,,,,,,,,,,,,,,,,,,,,,,,,,,,,,
,,613334cf5293abe84a78239c,35,male,2024-04-19_18h37.10.889,stockport_simplified,2022.2.4,Win32,60.24096386,661e456ee6de07e70aa9ef7b,66229da636d1666a9ba2e03a,,,,,,,,,,,,,,,,,,,,,,,,,,,,,,,,,,638.4033,640.257,"[2,5,1,8,6,7,3,4]","[[-0.3,0.2],[0.3,0.2]]","[[-0.125,-0.2],[0.125,-0.2]]",0.117592593,-0.192592593,1,0,0,1.3531,o2_image,640.2575,1,640.753,640.753,642.753,0,0,0,0,1,,,,,,,,,,,,,,,,,,,,,,,,,,,,,,,,,,,,,,,,,,,,,,,,,,
,,613334cf5293abe84a78239c,35,male,2024-04-19_18h37.10.889,stockport_simplified,2022.2.4,Win32,60.24096386,661e456ee6de07e70aa9ef7b,66229da636d1666a9ba2e03a,,,,,,,,,,,,,,,,,,,,,,,,,,,,,,,,,,,,,,,,,,,,,,,,,,,,,,,,1,59,119,15,1,B,Y,N,o2_image,stimuli/out2.png,stimuli/out1.png,stimuli/correct_out2.png,,,,,,,,,,,,,,,,,,,,,,,,,,,,,,,,,,,,,,
,,613334cf5293abe84a78239c,35,male,2024-04-19_18h37.10.889,stockport_simplified,2022.2.4,Win32,60.24096386,661e456ee6de07e70aa9ef7b,66229da636d1666a9ba2e03a,,,,,,,,,,,,,,,,,,,,,,,,,,,,,,,,,,642.7653,644.1076,"[2,5,1,8,6,7,3,4]","[[0.3,0.2],[-0.3,0.2]]","[[0.125,-0.2],[-0.125,-0.2]]",0.122222222,-0.17962963,1,0,0,0.8377,o1_image,644.1083,1,644.6033,644.6033,646.6031,,,,,,,,,,,,,,,,,,0,0,0,0,1,,,,,,,,,,,,,,,,,,,,,,,,,,,,,,,,,
,,613334cf5293abe84a78239c,35,male,2024-04-19_18h37.10.889,stockport_simplified,2022.2.4,Win32,60.24096386,661e456ee6de07e70aa9ef7b,66229da636d1666a9ba2e03a,,,,,,,,,,,,,,,,,,,,,,,,,,,,,,,,,,,,,,,,,,,,,,,,,,,,,,,,,,,,,N,M,C,o1_image,stimuli/out1.png,stimuli/correct_out1.png,stimuli/out2.png,,,,,,0,0,0,42,1,,,,,,,,,,,,,,,,,,,,,,,,,,,,
,,613334cf5293abe84a78239c,35,male,2024-04-19_18h37.10.889,stockport_simplified,2022.2.4,Win32,60.24096386,661e456ee6de07e70aa9ef7b,66229da636d1666a9ba2e03a,,,,,,,,,,,,,,,,,,,,,,,,,,,,,,,,,,646.6037,647.8863,"[2,5,1,8,6,7,3,4]","[[0.3,0.2],[-0.3,0.2]]","[[-0.125,-0.2],[0.125,-0.2]]",-0.075,-0.171296296,1,0,0,0.7665,o1_image,647.8869,1,648.3863,648.3863,650.3864,,,,,,,,,,,,,,,,,,0,0,0,0,1,,,,,,,,,,,,,,,,,,,,,,,,,,,,,,,,,
,,613334cf5293abe84a78239c,35,male,2024-04-19_18h37.10.889,stockport_simplified,2022.2.4,Win32,60.24096386,661e456ee6de07e70aa9ef7b,66229da636d1666a9ba2e03a,,,,,,,,,,,,,,,,,,,,,,,,,,,,,,,,,,,,,,,,,,,,,,,,,,,,,,,,,,,,,N,M,C,o1_image,stimuli/out1.png,stimuli/correct_out1.png,stimuli/out2.png,,,,,,0,1,1,47,1,,,,,,,,,,,,,,,,,,,,,,,,,,,,
,,613334cf5293abe84a78239c,35,male,2024-04-19_18h37.10.889,stockport_simplified,2022.2.4,Win32,60.24096386,661e456ee6de07e70aa9ef7b,66229da636d1666a9ba2e03a,,,,,,,,,,,,,,,,,,,,,,,,,,,,,,,,,,650.3867,652.0698,"[2,5,1,8,6,7,3,4]","[[-0.3,0.2],[0.3,0.2]]","[[0.125,-0.2],[-0.125,-0.2]]",0.127777778,-0.196296296,1,0,0,1.1664,o1_image,652.0703,1,652.5697,652.5697,654.5697,,,,,,,,,,,,,,,,,,0,0,0,0,1,,,,,,,,,,,,,,,,,,,,,,,,,,,,,,,,,
,,613334cf5293abe84a78239c,35,male,2024-04-19_18h37.10.889,stockport_simplified,2022.2.4,Win32,60.24096386,661e456ee6de07e70aa9ef7b,66229da636d1666a9ba2e03a,,,,,,,,,,,,,,,,,,,,,,,,,,,,,,,,,,,,,,,,,,,,,,,,,,,,,,,,,,,,,A,Y,N,o1_image,stimuli/out1.png,stimuli/correct_out1.png,stimuli/out2.png,,,,,,0,2,2,12,1,,,,,,,,,,,,,,,,,,,,,,,,,,,,
,,613334cf5293abe84a78239c,35,male,2024-04-19_18h37.10.889,stockport_simplified,2022.2.4,Win32,60.24096386,661e456ee6de07e70aa9ef7b,66229da636d1666a9ba2e03a,,,,,,,,,,,,,,,,,,,,,,,,,,,,,,,,,,654.5699,655.8742,"[2,5,1,8,6,7,3,4]","[[0.3,0.2],[-0.3,0.2]]","[[0.125,-0.2],[-0.125,-0.2]]",0.118518519,-0.19537037,1,0,0,0.7876,o1_image,655.8746,1,656.3703,656.3703,658.3699,,,,,,,,,,,,,,,,,,0,0,0,0,1,,,,,,,,,,,,,,,,,,,,,,,,,,,,,,,,,
,,613334cf5293abe84a78239c,35,male,2024-04-19_18h37.10.889,stockport_simplified,2022.2.4,Win32,60.24096386,661e456ee6de07e70aa9ef7b,66229da636d1666a9ba2e03a,,,,,,,,,,,,,,,,,,,,,,,,,,,,,,,,,,,,,,,,,,,,,,,,,,,,,,,,,,,,,N,M,C,o1_image,stimuli/out1.png,stimuli/correct_out1.png,stimuli/out2.png,,,,,,0,3,3,48,1,,,,,,,,,,,,,,,,,,,,,,,,,,,,
,,613334cf5293abe84a78239c,35,male,2024-04-19_18h37.10.889,stockport_simplified,2022.2.4,Win32,60.24096386,661e456ee6de07e70aa9ef7b,66229da636d1666a9ba2e03a,,,,,,,,,,,,,,,,,,,,,,,,,,,,,,,,,,658.3702,659.7241,"[2,5,1,8,6,7,3,4]","[[0.3,0.2],[-0.3,0.2]]","[[0.125,-0.2],[-0.125,-0.2]]",-0.117592593,-0.17962963,1,0,0,0.8373,o2_image,659.7246,1,660.2199,660.2199,662.2199,,,,,,,,,,,,,,,,,,0,0,0,0,1,,,,,,,,,,,,,,,,,,,,,,,,,,,,,,,,,
