counterbalance_2.started,counterbalance_2.stopped,participant,age,gender,date,expName,psychopyVersion,OS,frameRate,STUDY_ID,SESSION_ID,information_2.started,information_2.stopped,information_loop.thisRepN,information_loop.thisTrialN,information_loop.thisN,information_loop.thisIndex,information_loop.ran,information,consent_2.started,consent_2.stopped,slider_1.response,slider_2.response,slider_3.response,slider_4.response,slider_5.response,slider_6.response,instructions.started,instructions.stopped,task1_instr.thisRepN,task1_instr.thisTrialN,task1_instr.thisN,task1_instr.thisIndex,task1_instr.ran,task1,comprehension1_2.started,comprehension1_2.stopped,comp1_mouse.x,comp1_mouse.y,comp1_mouse.leftButton,comp1_mouse.midButton,comp1_mouse.rightButton,comp1_mouse.time,comp1_mouse.clicked_name,cue_o__trial_2.started,cue_o__trial_2.stopped,order,cue_order,out_order,cue_o_mouse.x,cue_o_mouse.y,cue_o_mouse.leftButton,cue_o_mouse.midButton,cue_o_mouse.rightButton,cue_o_mouse.time,cue_o_mouse.clicked_name,cue_selection_2.started,correct_answer,cue_selection_2.stopped,feedback_2.started,feedback_2.stopped,feedback_loop.thisRepN,feedback_loop.thisTrialN,feedback_loop.thisN,feedback_loop.thisIndex,feedback_loop.ran,stage1_trials.thisRepN,stage1_trials.thisTrialN,stage1_trials.thisN,stage1_trials.thisIndex,stage1_trials.ran,cue1,cue2,cue3,outcome,correct_out,o1_feedback,o2_feedback,stage2_feedback_loop.thisRepN,stage2_feedback_loop.thisTrialN,stage2_feedback_loop.thisN,stage2_feedback_loop.thisIndex,stage2_feedback_loop.ran,stage2_trials.thisRepN,stage2_trials.thisTrialN,stage2_trials.thisN,stage2_trials.thisIndex,stage2_trials.ran,stage3_feedback_loop.thisRepN,stage3_feedback_loop.thisTrialN,stage3_feedback_loop.thisN,stage3_feedback_loop.thisIndex,stage3_feedback_loop.ran,stage3_trials.thisRepN,stage3_trials.thisTrialN,stage3_trials.thisN,stage3_trials.thisIndex,stage3_trials.ran,debrief_2.started,debrief_2.stopped,debrief_loop.thisRepN,debrief_loop.thisTrialN,debrief_loop.thisN,debrief_loop.thisIndex,debrief_loop.ran,debrief_img,compr1_completed.thisRepN,compr1_completed.thisTrialN,compr1_completed.thisN,compr1_completed.thisIndex,compr1_completed.ran,consent_loop.thisRepN,consent_loop.thisTrialN,consent_loop.thisN,consent_loop.thisIndex,consent_loop.ran
0.0007,0.0014,5ed9ee3afd7ffe59917d3dfa,32,female,2024-04-24_11h31.55.064,stockport_simplified,2022.2.4,Win32,60.24096386,661e456ee6de07e70aa9ef7b,6628df8335cd12580fb24720,,,,,,,,,,,,,,,,,,,,,,,,,,,,,,,,,,,,,,,,,,,,,,,,,,,,,,,,,,,,,,,,,,,,,,,,,,,,,,,,,,,,,,,,,,,,,,,,,,,,,,,,,
,,5ed9ee3afd7ffe59917d3dfa,32,female,2024-04-24_11h31.55.064,stockport_simplified,2022.2.4,Win32,60.24096386,661e456ee6de07e70aa9ef7b,6628df8335cd12580fb24720,0.0501,28.2701,0,0,0,0,1,instructions/info1.png,,,,,,,,,,,,,,,,,,,,,,,,,,,,,,,,,,,,,,,,,,,,,,,,,,,,,,,,,,,,,,,,,,,,,,,,,,,,,,,,,,,,,,,,,,,,,,,,,
,,5ed9ee3afd7ffe59917d3dfa,32,female,2024-04-24_11h31.55.064,stockport_simplified,2022.2.4,Win32,60.24096386,661e456ee6de07e70aa9ef7b,6628df8335cd12580fb24720,28.2706,31.1427,0,1,1,1,1,instructions/info2.png,,,,,,,,,,,,,,,,,,,,,,,,,,,,,,,,,,,,,,,,,,,,,,,,,,,,,,,,,,,,,,,,,,,,,,,,,,,,,,,,,,,,,,,,,,,,,,,,,
,,5ed9ee3afd7ffe59917d3dfa,32,female,2024-04-24_11h31.55.064,stockport_simplified,2022.2.4,Win32,60.24096386,661e456ee6de07e70aa9ef7b,6628df8335cd12580fb24720,31.1432,34.0278,0,2,2,2,1,instructions/info3.png,,,,,,,,,,,,,,,,,,,,,,,,,,,,,,,,,,,,,,,,,,,,,,,,,,,,,,,,,,,,,,,,,,,,,,,,,,,,,,,,,,,,,,,,,,,,,,,,,
,,5ed9ee3afd7ffe59917d3dfa,32,female,2024-04-24_11h31.55.064,stockport_simplified,2022.2.4,Win32,60.24096386,661e456ee6de07e70aa9ef7b,6628df8335cd12580fb24720,,,,,,,,,34.0284,49.3516,1,1,1,1,1,1,,,,,,,,,,,,,,,,,,,,,,,,,,,,,,,,,,,,,,,,,,,,,,,,,,,,,,,,,,,,,,,,,,,,,,,,,,,,,,,,,,,,,,,,,
,,5ed9ee3afd7ffe59917d3dfa,32,female,2024-04-24_11h31.55.064,stockport_simplified,2022.2.4,Win32,60.24096386,661e456ee6de07e70aa9ef7b,6628df8335cd12580fb24720,,,,,,,,,,,,,,,,,49.3627,160.8594,0,0,0,0,1,instructions/task1_1.png,,,,,,,,,,,,,,,,,,,,,,,,,,,,,,,,,,,,,,,,,,,,,,,,,,,,,,,,,,,,,,,,,,,,,,,,,,,,,,,,,
,,5ed9ee3afd7ffe59917d3dfa,32,female,2024-04-24_11h31.55.064,stockport_simplified,2022.2.4,Win32,60.24096386,661e456ee6de07e70aa9ef7b,6628df8335cd12580fb24720,,,,,,,,,,,,,,,,,160.8733,182.9837,0,1,1,1,1,instructions/task1_2.png,,,,,,,,,,,,,,,,,,,,,,,,,,,,,,,,,,,,,,,,,,,,,,,,,,,,,,,,,,,,,,,,,,,,,,,,,,,,,,,,,
,,5ed9ee3afd7ffe59917d3dfa,32,female,2024-04-24_11h31.55.064,stockport_simplified,2022.2.4,Win32,60.24096386,661e456ee6de07e70aa9ef7b,6628df8335cd12580fb24720,,,,,,,,,,,,,,,,,182.9972,905.121,0,2,2,2,1,instructions/task1_3.png,,,,,,,,,,,,,,,,,,,,,,,,,,,,,,,,,,,,,,,,,,,,,,,,,,,,,,,,,,,,,,,,,,,,,,,,,,,,,,,,,
,,5ed9ee3afd7ffe59917d3dfa,32,female,2024-04-24_11h31.55.064,stockport_simplified,2022.2.4,Win32,60.24096386,661e456ee6de07e70aa9ef7b,6628df8335cd12580fb24720,,,,,,,,,,,,,,,,,,,,,,,,,905.1218,923.5369,-0.024479167,-0.322916667,1,0,0,18.4129,comp1_resp1,923.5754,926.252,"[5,2,3,6,7,1,8,4]","[[0.3,0.2],[-0.3,0.2]]","[[-0.125,-0.2],[0.125,-0.2]]",0.135677083,-0.196614583,1,0,0,2.165,o2_image,926.2549,0,926.7522,926.7524,928.7518,0,0,0,0,1,,,,,,,,,,,,,,,,,,,,,,,,,,,,,,,,,,,,,,,,,,,,,,,,,,
,,5ed9ee3afd7ffe59917d3dfa,32,female,2024-04-24_11h31.55.064,stockport_simplified,2022.2.4,Win32,60.24096386,661e456ee6de07e70aa9ef7b,6628df8335cd12580fb24720,,,,,,,,,,,,,,,,,,,,,,,,,,,,,,,,,,,,,,,,,,,,,,,,,,,,,,,,0,0,0,22,1,N,M,C,o1_image,stimuli/out1.png,stimuli/correct_out1.png,stimuli/out2.png,,,,,,,,,,,,,,,,,,,,,,,,,,,,,,,,,,,,,,
,,5ed9ee3afd7ffe59917d3dfa,32,female,2024-04-24_11h31.55.064,stockport_simplified,2022.2.4,Win32,60.24096386,661e456ee6de07e70aa9ef7b,6628df8335cd12580fb24720,,,,,,,,,,,,,,,,,,,,,,,,,,,,,,,,,,928.7532,931.7853,"[5,2,3,6,7,1,8,4]","[[-0.3,0.2],[0.3,0.2]]","[[-0.125,-0.2],[0.125,-0.2]]",0.159114583,-0.200520833,1,0,0,2.513,o2_image,931.7996,1,932.3017,932.3017,934.303,0,0,0,0,1,,,,,,,,,,,,,,,,,,,,,,,,,,,,,,,,,,,,,,,,,,,,,,,,,,
,,5ed9ee3afd7ffe59917d3dfa,32,female,2024-04-24_11h31.55.064,stockport_simplified,2022.2.4,Win32,60.24096386,661e456ee6de07e70aa9ef7b,6628df8335cd12580fb24720,,,,,,,,,,,,,,,,,,,,,,,,,,,,,,,,,,,,,,,,,,,,,,,,,,,,,,,,0,1,1,59,1,N,M,D,o2_image,stimuli/out2.png,stimuli/out1.png,stimuli/correct_out2.png,,,,,,,,,,,,,,,,,,,,,,,,,,,,,,,,,,,,,,
,,5ed9ee3afd7ffe59917d3dfa,32,female,2024-04-24_11h31.55.064,stockport_simplified,2022.2.4,Win32,60.24096386,661e456ee6de07e70aa9ef7b,6628df8335cd12580fb24720,,,,,,,,,,,,,,,,,,,,,,,,,,,,,,,,,,934.3042,938.2929,"[5,2,3,6,7,1,8,4]","[[0.3,0.2],[-0.3,0.2]]","[[0.125,-0.2],[-0.125,-0.2]]",-0.126041667,-0.197916667,1,0,0,3.4703,o2_image,938.3063,1,938.8092,938.8093,940.8021,0,0,0,0,1,,,,,,,,,,,,,,,,,,,,,,,,,,,,,,,,,,,,,,,,,,,,,,,,,,
,,5ed9ee3afd7ffe59917d3dfa,32,female,2024-04-24_11h31.55.064,stockport_simplified,2022.2.4,Win32,60.24096386,661e456ee6de07e70aa9ef7b,6628df8335cd12580fb24720,,,,,,,,,,,,,,,,,,,,,,,,,,,,,,,,,,,,,,,,,,,,,,,,,,,,,,,,0,2,2,49,1,B,Y,N,o2_image,stimuli/out2.png,stimuli/out1.png,stimuli/correct_out2.png,,,,,,,,,,,,,,,,,,,,,,,,,,,,,,,,,,,,,,
,,5ed9ee3afd7ffe59917d3dfa,32,female,2024-04-24_11h31.55.064,stockport_simplified,2022.2.4,Win32,60.24096386,661e456ee6de07e70aa9ef7b,6628df8335cd12580fb24720,,,,,,,,,,,,,,,,,,,,,,,,,,,,,,,,,,940.8028,943.5604,"[5,2,3,6,7,1,8,4]","[[0.3,0.2],[-0.3,0.2]]","[[-0.125,-0.2],[0.125,-0.2]]",0.117447917,-0.19140625,1,0,0,2.2406,o2_image,943.5613,1,944.0522,944.0523,946.0525,0,0,0,0,1,,,,,,,,,,,,,,,,,,,,,,,,,,,,,,,,,,,,,,,,,,,,,,,,,,
,,5ed9ee3afd7ffe59917d3dfa,32,female,2024-04-24_11h31.55.064,stockport_simplified,2022.2.4,Win32,60.24096386,661e456ee6de07e70aa9ef7b,6628df8335cd12580fb24720,,,,,,,,,,,,,,,,,,,,,,,,,,,,,,,,,,,,,,,,,,,,,,,,,,,,,,,,0,3,3,57,1,N,M,D,o2_image,stimuli/out2.png,stimuli/out1.png,stimuli/correct_out2.png,,,,,,,,,,,,,,,,,,,,,,,,,,,,,,,,,,,,,,
,,5ed9ee3afd7ffe59917d3dfa,32,female,2024-04-24_11h31.55.064,stockport_simplified,2022.2.4,Win32,60.24096386,661e456ee6de07e70aa9ef7b,6628df8335cd12580fb24720,,,,,,,,,,,,,,,,,,,,,,,,,,,,,,,,,,946.0538,948.6863,"[5,2,3,6,7,1,8,4]","[[0.3,0.2],[-0.3,0.2]]","[[-0.125,-0.2],[0.125,-0.2]]",0.120052083,-0.186197917,1,0,0,2.1155,o2_image,948.69,0,949.1928,949.1928,951.1863,0,0,0,0,1,,,,,,,,,,,,,,,,,,,,,,,,,,,,,,,,,,,,,,,,,,,,,,,,,,
,,5ed9ee3afd7ffe59917d3dfa,32,female,2024-04-24_11h31.55.064,stockport_simplified,2022.2.4,Win32,60.24096386,661e456ee6de07e70aa9ef7b,6628df8335cd12580fb24720,,,,,,,,,,,,,,,,,,,,,,,,,,,,,,,,,,,,,,,,,,,,,,,,,,,,,,,,0,4,4,36,1,A,Y,N,o1_image,stimuli/out1.png,stimuli/correct_out1.png,stimuli/out2.png,,,,,,,,,,,,,,,,,,,,,,,,,,,,,,,,,,,,,,
,,5ed9ee3afd7ffe59917d3dfa,32,female,2024-04-24_11h31.55.064,stockport_simplified,2022.2.4,Win32,60.24096386,661e456ee6de07e70aa9ef7b,6628df8335cd12580fb24720,,,,,,,,,,,,,,,,,,,,,,,,,,,,,,,,,,951.1877,953.6029,"[5,2,3,6,7,1,8,4]","[[-0.3,0.2],[0.3,0.2]]","[[0.125,-0.2],[-0.125,-0.2]]",0.143489583,-0.188802083,1,0,0,1.899,o1_image,953.6053,1,954.1093,954.1094,956.1028,0,0,0,0,1,,,,,,,,,,,,,,,,,,,,,,,,,,,,,,,,,,,,,,,,,,,,,,,,,,
,,5ed9ee3afd7ffe59917d3dfa,32,female,2024-04-24_11h31.55.064,stockport_simplified,2022.2.4,Win32,60.24096386,661e456ee6de07e70aa9ef7b,6628df8335cd12580fb24720,,,,,,,,,,,,,,,,,,,,,,,,,,,,,,,,,,,,,,,,,,,,,,,,,,,,,,,,0,5,5,1,1,A,X,N,o1_image,stimuli/out1.png,stimuli/correct_out1.png,stimuli/out2.png,,,,,,,,,,,,,,,,,,,,,,,,,,,,,,,,,,,,,,
,,5ed9ee3afd7ffe59917d3dfa,32,female,2024-04-24_11h31.55.064,stockport_simplified,2022.2.4,Win32,60.24096386,661e456ee6de07e70aa9ef7b,6628df8335cd12580fb24720,,,,,,,,,,,,,,,,,,,,,,,,,,,,,,,,,,956.1033,958.9195,"[5,2,3,6,7,1,8,4]","[[0.3,0.2],[-0.3,0.2]]","[[-0.125,-0.2],[0.125,-0.2]]",0.11484375,-0.2109375,1,0,0,2.2995,o2_image,958.9216,0,959.4105,959.4107,961.4038,0,0,0,0,1,,,,,,,,,,,,,,,,,,,,,,,,,,,,,,,,,,,,,,,,,,,,,,,,,,
,,5ed9ee3afd7ffe59917d3dfa,32,female,2024-04-24_11h31.55.064,stockport_simplified,2022.2.4,Win32,60.24096386,661e456ee6de07e70aa9ef7b,6628df8335cd12580fb24720,,,,,,,,,,,,,,,,,,,,,,,,,,,,,,,,,,,,,,,,,,,,,,,,,,,,,,,,0,6,6,5,1,A,Y,N,o1_image,stimuli/out1.png,stimuli/correct_out1.png,stimuli/out2.png,,,,,,,,,,,,,,,,,,,,,,,,,,,,,,,,,,,,,,
,,5ed9ee3afd7ffe59917d3dfa,32,female,2024-04-24_11h31.55.064,stockport_simplified,2022.2.4,Win32,60.24096386,661e456ee6de07e70aa9ef7b,6628df8335cd12580fb24720,,,,,,,,,,,,,,,,,,,,,,,,,,,,,,,,,,961.4051,964.9109,"[5,2,3,6,7,1,8,4]","[[0.3,0.2],[-0.3,0.2]]","[[0.125,-0.2],[-0.125,-0.2]]",-0.122135417,-0.170572917,1,0,0,2.9887,o2_image,964.9252,0,965.42,965.4201,967.4198,0,0,0,0,1,,,,,,,,,,,,,,,,,,,,,,,,,,,,,,,,,,,,,,,,,,,,,,,,,,
,,5ed9ee3afd7ffe59917d3dfa,32,female,2024-04-24_11h31.55.064,stockport_simplified,2022.2.4,Win32,60.24096386,661e456ee6de07e70aa9ef7b,6628df8335cd12580fb24720,,,,,,,,,,,,,,,,,,,,,,,,,,,,,,,,,,,,,,,,,,,,,,,,,,,,,,,,0,7,7,24,1,N,M,C,o1_image,stimuli/out1.png,stimuli/correct_out1.png,stimuli/out2.png,,,,,,,,,,,,,,,,,,,,,,,,,,,,,,,,,,,,,,
,,5ed9ee3afd7ffe59917d3dfa,32,female,2024-04-24_11h31.55.064,stockport_simplified,2022.2.4,Win32,60.24096386,661e456ee6de07e70aa9ef7b,6628df8335cd12580fb24720,,,,,,,,,,,,,,,,,,,,,,,,,,,,,,,,,,967.4204,970.5868,"[5,2,3,6,7,1,8,4]","[[0.3,0.2],[-0.3,0.2]]","[[0.125,-0.2],[-0.125,-0.2]]",0.1109375,-0.19921875,1,0,0,2.648,o1_image,970.5986,0,971.0872,971.0873,973.0869,0,0,0,0,1,,,,,,,,,,,,,,,,,,,,,,,,,,,,,,,,,,,,,,,,,,,,,,,,,,
,,5ed9ee3afd7ffe59917d3dfa,32,female,2024-04-24_11h31.55.064,stockport_simplified,2022.2.4,Win32,60.24096386,661e456ee6de07e70aa9ef7b,6628df8335cd12580fb24720,,,,,,,,,,,,,,,,,,,,,,,,,,,,,,,,,,,,,,,,,,,,,,,,,,,,,,,,0,8,8,44,1,B,X,N,o2_image,stimuli/out2.png,stimuli/out1.png,stimuli/correct_out2.png,,,,,,,,,,,,,,,,,,,,,,,,,,,,,,,,,,,,,,
,,5ed9ee3afd7ffe59917d3dfa,32,female,2024-04-24_11h31.55.064,stockport_simplified,2022.2.4,Win32,60.24096386,661e456ee6de07e70aa9ef7b,6628df8335cd12580fb24720,,,,,,,,,,,,,,,,,,,,,,,,,,,,,,,,,,973.0877,976.6209,"[5,2,3,6,7,1,8,4]","[[0.3,0.2],[-0.3,0.2]]","[[-0.125,-0.2],[0.125,-0.2]]",-0.08828125,-0.174479167,1,0,0,3.0162,o1_image,976.6327,0,977.1371,977.1371,979.1441,0,0,0,0,1,,,,,,,,,,,,,,,,,,,,,,,,,,,,,,,,,,,,,,,,,,,,,,,,,,
,,5ed9ee3afd7ffe59917d3dfa,32,female,2024-04-24_11h31.55.064,stockport_simplified,2022.2.4,Win32,60.24096386,661e456ee6de07e70aa9ef7b,6628df8335cd12580fb24720,,,,,,,,,,,,,,,,,,,,,,,,,,,,,,,,,,,,,,,,,,,,,,,,,,,,,,,,0,9,9,58,1,N,M,D,o2_image,stimuli/out2.png,stimuli/out1.png,stimuli/correct_out2.png,,,,,,,,,,,,,,,,,,,,,,,,,,,,,,,,,,,,,,
,,5ed9ee3afd7ffe59917d3dfa,32,female,2024-04-24_11h31.55.064,stockport_simplified,2022.2.4,Win32,60.24096386,661e456ee6de07e70aa9ef7b,6628df8335cd12580fb24720,,,,,,,,,,,,,,,,,,,,,,,,,,,,,,,,,,979.1448,982.8376,"[5,2,3,6,7,1,8,4]","[[-0.3,0.2],[0.3,0.2]]","[[0.125,-0.2],[-0.125,-0.2]]",-0.11953125,-0.2109375,1,0,0,3.1761,o2_image,982.85,1,983.3537,983.3538,985.3618,0,0,0,0,1,,,,,,,,,,,,,,,,,,,,,,,,,,,,,,,,,,,,,,,,,,,,,,,,,,
,,5ed9ee3afd7ffe59917d3dfa,32,female,2024-04-24_11h31.55.064,stockport_simplified,2022.2.4,Win32,60.24096386,661e456ee6de07e70aa9ef7b,6628df8335cd12580fb24720,,,,,,,,,,,,,,,,,,,,,,,,,,,,,,,,,,,,,,,,,,,,,,,,,,,,,,,,0,10,10,16,1,B,Y,N,o2_image,stimuli/out2.png,stimuli/out1.png,stimuli/correct_out2.png,,,,,,,,,,,,,,,,,,,,,,,,,,,,,,,,,,,,,,
,,5ed9ee3afd7ffe59917d3dfa,32,female,2024-04-24_11h31.55.064,stockport_simplified,2022.2.4,Win32,60.24096386,661e456ee6de07e70aa9ef7b,6628df8335cd12580fb24720,,,,,,,,,,,,,,,,,,,,,,,,,,,,,,,,,,985.3631,987.7626,"[5,2,3,6,7,1,8,4]","[[0.3,0.2],[-0.3,0.2]]","[[-0.125,-0.2],[0.125,-0.2]]",-0.114322917,-0.190104167,1,0,0,1.8849,o1_image,987.7635,0,988.2611,988.2612,990.2548,0,0,0,0,1,,,,,,,,,,,,,,,,,,,,,,,,,,,,,,,,,,,,,,,,,,,,,,,,,,
,,5ed9ee3afd7ffe59917d3dfa,32,female,2024-04-24_11h31.55.064,stockport_simplified,2022.2.4,Win32,60.24096386,661e456ee6de07e70aa9ef7b,6628df8335cd12580fb24720,,,,,,,,,,,,,,,,,,,,,,,,,,,,,,,,,,,,,,,,,,,,,,,,,,,,,,,,0,11,11,40,1,B,X,N,o2_image,stimuli/out2.png,stimuli/out1.png,stimuli/correct_out2.png,,,,,,,,,,,,,,,,,,,,,,,,,,,,,,,,,,,,,,
,,5ed9ee3afd7ffe59917d3dfa,32,female,2024-04-24_11h31.55.064,stockport_simplified,2022.2.4,Win32,60.24096386,661e456ee6de07e70aa9ef7b,6628df8335cd12580fb24720,,,,,,,,,,,,,,,,,,,,,,,,,,,,,,,,,,990.2559,993.0546,"[5,2,3,6,7,1,8,4]","[[-0.3,0.2],[0.3,0.2]]","[[0.125,-0.2],[-0.125,-0.2]]",-0.145572917,-0.188802083,1,0,0,2.2762,o2_image,993.0564,1,993.5542,993.5542,995.5551,0,0,0,0,1,,,,,,,,,,,,,,,,,,,,,,,,,,,,,,,,,,,,,,,,,,,,,,,,,,
,,5ed9ee3afd7ffe59917d3dfa,32,female,2024-04-24_11h31.55.064,stockport_simplified,2022.2.4,Win32,60.24096386,661e456ee6de07e70aa9ef7b,6628df8335cd12580fb24720,,,,,,,,,,,,,,,,,,,,,,,,,,,,,,,,,,,,,,,,,,,,,,,,,,,,,,,,0,12,12,27,1,N,M,D,o2_image,stimuli/out2.png,stimuli/out1.png,stimuli/correct_out2.png,,,,,,,,,,,,,,,,,,,,,,,,,,,,,,,,,,,,,,
,,5ed9ee3afd7ffe59917d3dfa,32,female,2024-04-24_11h31.55.064,stockport_simplified,2022.2.4,Win32,60.24096386,661e456ee6de07e70aa9ef7b,6628df8335cd12580fb24720,,,,,,,,,,,,,,,,,,,,,,,,,,,,,,,,,,995.5562,997.9379,"[5,2,3,6,7,1,8,4]","[[-0.3,0.2],[0.3,0.2]]","[[0.125,-0.2],[-0.125,-0.2]]",-0.118229167,-0.18359375,1,0,0,1.8664,o2_image,997.9497,0,998.4447,998.4447,1000.4446,0,0,0,0,1,,,,,,,,,,,,,,,,,,,,,,,,,,,,,,,,,,,,,,,,,,,,,,,,,,
,,5ed9ee3afd7ffe59917d3dfa,32,female,2024-04-24_11h31.55.064,stockport_simplified,2022.2.4,Win32,60.24096386,661e456ee6de07e70aa9ef7b,6628df8335cd12580fb24720,,,,,,,,,,,,,,,,,,,,,,,,,,,,,,,,,,,,,,,,,,,,,,,,,,,,,,,,0,13,13,50,1,N,M,C,o1_image,stimuli/out1.png,stimuli/correct_out1.png,stimuli/out2.png,,,,,,,,,,,,,,,,,,,,,,,,,,,,,,,,,,,,,,
,,5ed9ee3afd7ffe59917d3dfa,32,female,2024-04-24_11h31.55.064,stockport_simplified,2022.2.4,Win32,60.24096386,661e456ee6de07e70aa9ef7b,6628df8335cd12580fb24720,,,,,,,,,,,,,,,,,,,,,,,,,,,,,,,,,,1000.4452,1002.8126,"[5,2,3,6,7,1,8,4]","[[-0.3,0.2],[0.3,0.2]]","[[0.125,-0.2],[-0.125,-0.2]]",0.113541667,-0.188802083,1,0,0,1.8542,o1_image,1002.8134,1,1003.3048,1003.3049,1005.3051,0,0,0,0,1,,,,,,,,,,,,,,,,,,,,,,,,,,,,,,,,,,,,,,,,,,,,,,,,,,
,,5ed9ee3afd7ffe59917d3dfa,32,female,2024-04-24_11h31.55.064,stockport_simplified,2022.2.4,Win32,60.24096386,661e456ee6de07e70aa9ef7b,6628df8335cd12580fb24720,,,,,,,,,,,,,,,,,,,,,,,,,,,,,,,,,,,,,,,,,,,,,,,,,,,,,,,,0,14,14,33,1,A,X,N,o1_image,stimuli/out1.png,stimuli/correct_out1.png,stimuli/out2.png,,,,,,,,,,,,,,,,,,,,,,,,,,,,,,,,,,,,,,
,,5ed9ee3afd7ffe59917d3dfa,32,female,2024-04-24_11h31.55.064,stockport_simplified,2022.2.4,Win32,60.24096386,661e456ee6de07e70aa9ef7b,6628df8335cd12580fb24720,,,,,,,,,,,,,,,,,,,,,,,,,,,,,,,,,,1005.3058,1008.5797,"[5,2,3,6,7,1,8,4]","[[-0.3,0.2],[0.3,0.2]]","[[0.125,-0.2],[-0.125,-0.2]]",0.117447917,-0.213541667,1,0,0,2.757,o1_image,1008.593,1,1009.0884,1009.0884,1011.0886,0,0,0,0,1,,,,,,,,,,,,,,,,,,,,,,,,,,,,,,,,,,,,,,,,,,,,,,,,,,
,,5ed9ee3afd7ffe59917d3dfa,32,female,2024-04-24_11h31.55.064,stockport_simplified,2022.2.4,Win32,60.24096386,661e456ee6de07e70aa9ef7b,6628df8335cd12580fb24720,,,,,,,,,,,,,,,,,,,,,,,,,,,,,,,,,,,,,,,,,,,,,,,,,,,,,,,,0,15,15,52,1,N,M,C,o1_image,stimuli/out1.png,stimuli/correct_out1.png,stimuli/out2.png,,,,,,,,,,,,,,,,,,,,,,,,,,,,,,,,,,,,,,
,,5ed9ee3afd7ffe59917d3dfa,32,female,2024-04-24_11h31.55.064,stockport_simplified,2022.2.4,Win32,60.24096386,661e456ee6de07e70aa9ef7b,6628df8335cd12580fb24720,,,,,,,,,,,,,,,,,,,,,,,,,,,,,,,,,,1011.0894,1014.1719,"[5,2,3,6,7,1,8,4]","[[0.3,0.2],[-0.3,0.2]]","[[0.125,-0.2],[-0.125,-0.2]]",-0.145572917,-0.203125,1,0,0,2.565,o2_image,1014.1835,0,1014.6724,1014.6725,1016.6725,0,0,0,0,1,,,,,,,,,,,,,,,,,,,,,,,,,,,,,,,,,,,,,,,,,,,,,,,,,,
,,5ed9ee3afd7ffe59917d3dfa,32,female,2024-04-24_11h31.55.064,stockport_simplified,2022.2.4,Win32,60.24096386,661e456ee6de07e70aa9ef7b,6628df8335cd12580fb24720,,,,,,,,,,,,,,,,,,,,,,,,,,,,,,,,,,,,,,,,,,,,,,,,,,,,,,,,0,16,16,35,1,A,Y,N,o1_image,stimuli/out1.png,stimuli/correct_out1.png,stimuli/out2.png,,,,,,,,,,,,,,,,,,,,,,,,,,,,,,,,,,,,,,
,,5ed9ee3afd7ffe59917d3dfa,32,female,2024-04-24_11h31.55.064,stockport_simplified,2022.2.4,Win32,60.24096386,661e456ee6de07e70aa9ef7b,6628df8335cd12580fb24720,,,,,,,,,,,,,,,,,,,,,,,,,,,,,,,,,,1016.6735,1019.3062,"[5,2,3,6,7,1,8,4]","[[0.3,0.2],[-0.3,0.2]]","[[0.125,-0.2],[-0.125,-0.2]]",-0.079166667,-0.196614583,1,0,0,2.1162,o2_image,1019.3086,1,1019.8054,1019.8055,1021.8064,0,0,0,0,1,,,,,,,,,,,,,,,,,,,,,,,,,,,,,,,,,,,,,,,,,,,,,,,,,,
,,5ed9ee3afd7ffe59917d3dfa,32,female,2024-04-24_11h31.55.064,stockport_simplified,2022.2.4,Win32,60.24096386,661e456ee6de07e70aa9ef7b,6628df8335cd12580fb24720,,,,,,,,,,,,,,,,,,,,,,,,,,,,,,,,,,,,,,,,,,,,,,,,,,,,,,,,0,17,17,47,1,B,Y,N,o2_image,stimuli/out2.png,stimuli/out1.png,stimuli/correct_out2.png,,,,,,,,,,,,,,,,,,,,,,,,,,,,,,,,,,,,,,
,,5ed9ee3afd7ffe59917d3dfa,32,female,2024-04-24_11h31.55.064,stockport_simplified,2022.2.4,Win32,60.24096386,661e456ee6de07e70aa9ef7b,6628df8335cd12580fb24720,,,,,,,,,,,,,,,,,,,,,,,,,,,,,,,,,,1021.8075,1024.1159,"[5,2,3,6,7,1,8,4]","[[-0.3,0.2],[0.3,0.2]]","[[-0.125,-0.2],[0.125,-0.2]]",0.135677083,-0.204427083,1,0,0,1.7905,o2_image,1024.1428,1,1024.6394,1024.6394,1026.6401,0,0,0,0,1,,,,,,,,,,,,,,,,,,,,,,,,,,,,,,,,,,,,,,,,,,,,,,,,,,
,,5ed9ee3afd7ffe59917d3dfa,32,female,2024-04-24_11h31.55.064,stockport_simplified,2022.2.4,Win32,60.24096386,661e456ee6de07e70aa9ef7b,6628df8335cd12580fb24720,,,,,,,,,,,,,,,,,,,,,,,,,,,,,,,,,,,,,,,,,,,,,,,,,,,,,,,,0,18,18,10,1,B,X,N,o2_image,stimuli/out2.png,stimuli/out1.png,stimuli/correct_out2.png,,,,,,,,,,,,,,,,,,,,,,,,,,,,,,,,,,,,,,
,,5ed9ee3afd7ffe59917d3dfa,32,female,2024-04-24_11h31.55.064,stockport_simplified,2022.2.4,Win32,60.24096386,661e456ee6de07e70aa9ef7b,6628df8335cd12580fb24720,,,,,,,,,,,,,,,,,,,,,,,,,,,,,,,,,,1026.6422,1029.0577,"[5,2,3,6,7,1,8,4]","[[0.3,0.2],[-0.3,0.2]]","[[0.125,-0.2],[-0.125,-0.2]]",0.131770833,-0.208333333,1,0,0,1.9003,o1_image,1029.0587,1,1029.5574,1029.5577,1031.5564,0,0,0,0,1,,,,,,,,,,,,,,,,,,,,,,,,,,,,,,,,,,,,,,,,,,,,,,,,,,
,,5ed9ee3afd7ffe59917d3dfa,32,female,2024-04-24_11h31.55.064,stockport_simplified,2022.2.4,Win32,60.24096386,661e456ee6de07e70aa9ef7b,6628df8335cd12580fb24720,,,,,,,,,,,,,,,,,,,,,,,,,,,,,,,,,,,,,,,,,,,,,,,,,,,,,,,,0,19,19,4,1,A,X,N,o1_image,stimuli/out1.png,stimuli/correct_out1.png,stimuli/out2.png,,,,,,,,,,,,,,,,,,,,,,,,,,,,,,,,,,,,,,
,,5ed9ee3afd7ffe59917d3dfa,32,female,2024-04-24_11h31.55.064,stockport_simplified,2022.2.4,Win32,60.24096386,661e456ee6de07e70aa9ef7b,6628df8335cd12580fb24720,,,,,,,,,,,,,,,,,,,,,,,,,,,,,,,,,,1031.5575,1034.2398,"[5,2,3,6,7,1,8,4]","[[0.3,0.2],[-0.3,0.2]]","[[0.125,-0.2],[-0.125,-0.2]]",0.140885417,-0.194010417,1,0,0,2.166,o1_image,1034.2569,0,1034.756,1034.756,1036.7562,0,0,0,0,1,,,,,,,,,,,,,,,,,,,,,,,,,,,,,,,,,,,,,,,,,,,,,,,,,,
,,5ed9ee3afd7ffe59917d3dfa,32,female,2024-04-24_11h31.55.064,stockport_simplified,2022.2.4,Win32,60.24096386,661e456ee6de07e70aa9ef7b,6628df8335cd12580fb24720,,,,,,,,,,,,,,,,,,,,,,,,,,,,,,,,,,,,,,,,,,,,,,,,,,,,,,,,0,20,20,55,1,N,M,D,o2_image,stimuli/out2.png,stimuli/out1.png,stimuli/correct_out2.png,,,,,,,,,,,,,,,,,,,,,,,,,,,,,,,,,,,,,,
,,5ed9ee3afd7ffe59917d3dfa,32,female,2024-04-24_11h31.55.064,stockport_simplified,2022.2.4,Win32,60.24096386,661e456ee6de07e70aa9ef7b,6628df8335cd12580fb24720,,,,,,,,,,,,,,,,,,,,,,,,,,,,,,,,,,1036.7569,1040.1731,"[5,2,3,6,7,1,8,4]","[[0.3,0.2],[-0.3,0.2]]","[[0.125,-0.2],[-0.125,-0.2]]",-0.089583333,-0.201822917,1,0,0,2.8982,o2_image,1040.1848,1,1040.6727,1040.6727,1042.6735,0,0,0,0,1,,,,,,,,,,,,,,,,,,,,,,,,,,,,,,,,,,,,,,,,,,,,,,,,,,
,,5ed9ee3afd7ffe59917d3dfa,32,female,2024-04-24_11h31.55.064,stockport_simplified,2022.2.4,Win32,60.24096386,661e456ee6de07e70aa9ef7b,6628df8335cd12580fb24720,,,,,,,,,,,,,,,,,,,,,,,,,,,,,,,,,,,,,,,,,,,,,,,,,,,,,,,,0,21,21,42,1,B,X,N,o2_image,stimuli/out2.png,stimuli/out1.png,stimuli/correct_out2.png,,,,,,,,,,,,,,,,,,,,,,,,,,,,,,,,,,,,,,
,,5ed9ee3afd7ffe59917d3dfa,32,female,2024-04-24_11h31.55.064,stockport_simplified,2022.2.4,Win32,60.24096386,661e456ee6de07e70aa9ef7b,6628df8335cd12580fb24720,,,,,,,,,,,,,,,,,,,,,,,,,,,,,,,,,,1042.6745,1045.5066,"[5,2,3,6,7,1,8,4]","[[0.3,0.2],[-0.3,0.2]]","[[0.125,-0.2],[-0.125,-0.2]]",-0.09609375,-0.217447917,1,0,0,2.3154,o2_image,1045.5086,0,1046.0065,1046.0065,1048.0077,0,0,0,0,1,,,,,,,,,,,,,,,,,,,,,,,,,,,,,,,,,,,,,,,,,,,,,,,,,,
,,5ed9ee3afd7ffe59917d3dfa,32,female,2024-04-24_11h31.55.064,stockport_simplified,2022.2.4,Win32,60.24096386,661e456ee6de07e70aa9ef7b,6628df8335cd12580fb24720,,,,,,,,,,,,,,,,,,,,,,,,,,,,,,,,,,,,,,,,,,,,,,,,,,,,,,,,0,22,22,32,1,A,X,N,o1_image,stimuli/out1.png,stimuli/correct_out1.png,stimuli/out2.png,,,,,,,,,,,,,,,,,,,,,,,,,,,,,,,,,,,,,,
,,5ed9ee3afd7ffe59917d3dfa,32,female,2024-04-24_11h31.55.064,stockport_simplified,2022.2.4,Win32,60.24096386,661e456ee6de07e70aa9ef7b,6628df8335cd12580fb24720,,,,,,,,,,,,,,,,,,,,,,,,,,,,,,,,,,1048.0089,1051.4071,"[5,2,3,6,7,1,8,4]","[[-0.3,0.2],[0.3,0.2]]","[[0.125,-0.2],[-0.125,-0.2]]",-0.086979167,-0.1796875,1,0,0,2.895,o2_image,1051.4092,1,1051.9071,1051.9071,1053.9074,0,0,0,0,1,,,,,,,,,,,,,,,,,,,,,,,,,,,,,,,,,,,,,,,,,,,,,,,,,,
,,5ed9ee3afd7ffe59917d3dfa,32,female,2024-04-24_11h31.55.064,stockport_simplified,2022.2.4,Win32,60.24096386,661e456ee6de07e70aa9ef7b,6628df8335cd12580fb24720,,,,,,,,,,,,,,,,,,,,,,,,,,,,,,,,,,,,,,,,,,,,,,,,,,,,,,,,0,23,23,26,1,N,M,D,o2_image,stimuli/out2.png,stimuli/out1.png,stimuli/correct_out2.png,,,,,,,,,,,,,,,,,,,,,,,,,,,,,,,,,,,,,,
,,5ed9ee3afd7ffe59917d3dfa,32,female,2024-04-24_11h31.55.064,stockport_simplified,2022.2.4,Win32,60.24096386,661e456ee6de07e70aa9ef7b,6628df8335cd12580fb24720,,,,,,,,,,,,,,,,,,,,,,,,,,,,,,,,,,1053.9086,1056.4907,"[5,2,3,6,7,1,8,4]","[[0.3,0.2],[-0.3,0.2]]","[[0.125,-0.2],[-0.125,-0.2]]",0.116145833,-0.204427083,1,0,0,2.0653,o1_image,1056.5027,1,1057.0069,1057.007,1059.0087,0,0,0,0,1,,,,,,,,,,,,,,,,,,,,,,,,,,,,,,,,,,,,,,,,,,,,,,,,,,
,,5ed9ee3afd7ffe59917d3dfa,32,female,2024-04-24_11h31.55.064,stockport_simplified,2022.2.4,Win32,60.24096386,661e456ee6de07e70aa9ef7b,6628df8335cd12580fb24720,,,,,,,,,,,,,,,,,,,,,,,,,,,,,,,,,,,,,,,,,,,,,,,,,,,,,,,,0,24,24,8,1,A,Y,N,o1_image,stimuli/out1.png,stimuli/correct_out1.png,stimuli/out2.png,,,,,,,,,,,,,,,,,,,,,,,,,,,,,,,,,,,,,,
,,5ed9ee3afd7ffe59917d3dfa,32,female,2024-04-24_11h31.55.064,stockport_simplified,2022.2.4,Win32,60.24096386,661e456ee6de07e70aa9ef7b,6628df8335cd12580fb24720,,,,,,,,,,,,,,,,,,,,,,,,,,,,,,,,,,1059.0096,1061.0981,"[5,2,3,6,7,1,8,4]","[[-0.3,0.2],[0.3,0.2]]","[[0.125,-0.2],[-0.125,-0.2]]",-0.09609375,-0.192708333,1,0,0,1.585,o2_image,1061.0989,0,1061.5926,1061.5926,1063.5906,0,0,0,0,1,,,,,,,,,,,,,,,,,,,,,,,,,,,,,,,,,,,,,,,,,,,,,,,,,,
,,5ed9ee3afd7ffe59917d3dfa,32,female,2024-04-24_11h31.55.064,stockport_simplified,2022.2.4,Win32,60.24096386,661e456ee6de07e70aa9ef7b,6628df8335cd12580fb24720,,,,,,,,,,,,,,,,,,,,,,,,,,,,,,,,,,,,,,,,,,,,,,,,,,,,,,,,0,25,25,2,1,A,X,N,o1_image,stimuli/out1.png,stimuli/correct_out1.png,stimuli/out2.png,,,,,,,,,,,,,,,,,,,,,,,,,,,,,,,,,,,,,,
,,5ed9ee3afd7ffe59917d3dfa,32,female,2024-04-24_11h31.55.064,stockport_simplified,2022.2.4,Win32,60.24096386,661e456ee6de07e70aa9ef7b,6628df8335cd12580fb24720,,,,,,,,,,,,,,,,,,,,,,,,,,,,,,,,,,1063.5915,1065.9262,"[5,2,3,6,7,1,8,4]","[[0.3,0.2],[-0.3,0.2]]","[[-0.125,-0.2],[0.125,-0.2]]",0.1109375,-0.19921875,1,0,0,1.8167,o2_image,1065.9275,1,1066.4243,1066.4243,1068.4253,0,0,0,0,1,,,,,,,,,,,,,,,,,,,,,,,,,,,,,,,,,,,,,,,,,,,,,,,,,,
,,5ed9ee3afd7ffe59917d3dfa,32,female,2024-04-24_11h31.55.064,stockport_simplified,2022.2.4,Win32,60.24096386,661e456ee6de07e70aa9ef7b,6628df8335cd12580fb24720,,,,,,,,,,,,,,,,,,,,,,,,,,,,,,,,,,,,,,,,,,,,,,,,,,,,,,,,0,26,26,13,1,B,X,N,o2_image,stimuli/out2.png,stimuli/out1.png,stimuli/correct_out2.png,,,,,,,,,,,,,,,,,,,,,,,,,,,,,,,,,,,,,,
,,5ed9ee3afd7ffe59917d3dfa,32,female,2024-04-24_11h31.55.064,stockport_simplified,2022.2.4,Win32,60.24096386,661e456ee6de07e70aa9ef7b,6628df8335cd12580fb24720,,,,,,,,,,,,,,,,,,,,,,,,,,,,,,,,,,1068.4276,1071.508,"[5,2,3,6,7,1,8,4]","[[-0.3,0.2],[0.3,0.2]]","[[-0.125,-0.2],[0.125,-0.2]]",-0.089583333,-0.161458333,1,0,0,2.5662,o1_image,1071.5099,1,1072.008,1072.0081,1073.9978,0,0,0,0,1,,,,,,,,,,,,,,,,,,,,,,,,,,,,,,,,,,,,,,,,,,,,,,,,,,
,,5ed9ee3afd7ffe59917d3dfa,32,female,2024-04-24_11h31.55.064,stockport_simplified,2022.2.4,Win32,60.24096386,661e456ee6de07e70aa9ef7b,6628df8335cd12580fb24720,,,,,,,,,,,,,,,,,,,,,,,,,,,,,,,,,,,,,,,,,,,,,,,,,,,,,,,,0,27,27,37,1,A,Y,N,o1_image,stimuli/out1.png,stimuli/correct_out1.png,stimuli/out2.png,,,,,,,,,,,,,,,,,,,,,,,,,,,,,,,,,,,,,,
,,5ed9ee3afd7ffe59917d3dfa,32,female,2024-04-24_11h31.55.064,stockport_simplified,2022.2.4,Win32,60.24096386,661e456ee6de07e70aa9ef7b,6628df8335cd12580fb24720,,,,,,,,,,,,,,,,,,,,,,,,,,,,,,,,,,1073.9983,1076.5669,"[5,2,3,6,7,1,8,4]","[[0.3,0.2],[-0.3,0.2]]","[[-0.125,-0.2],[0.125,-0.2]]",-0.148177083,-0.196614583,1,0,0,2.0524,o1_image,1076.5956,1,1077.0981,1077.0981,1079.0926,0,0,0,0,1,,,,,,,,,,,,,,,,,,,,,,,,,,,,,,,,,,,,,,,,,,,,,,,,,,
,,5ed9ee3afd7ffe59917d3dfa,32,female,2024-04-24_11h31.55.064,stockport_simplified,2022.2.4,Win32,60.24096386,661e456ee6de07e70aa9ef7b,6628df8335cd12580fb24720,,,,,,,,,,,,,,,,,,,,,,,,,,,,,,,,,,,,,,,,,,,,,,,,,,,,,,,,0,28,28,7,1,A,Y,N,o1_image,stimuli/out1.png,stimuli/correct_out1.png,stimuli/out2.png,,,,,,,,,,,,,,,,,,,,,,,,,,,,,,,,,,,,,,
,,5ed9ee3afd7ffe59917d3dfa,32,female,2024-04-24_11h31.55.064,stockport_simplified,2022.2.4,Win32,60.24096386,661e456ee6de07e70aa9ef7b,6628df8335cd12580fb24720,,,,,,,,,,,,,,,,,,,,,,,,,,,,,,,,,,1079.0936,1081.1412,"[5,2,3,6,7,1,8,4]","[[-0.3,0.2],[0.3,0.2]]","[[-0.125,-0.2],[0.125,-0.2]]",-0.094791667,-0.194010417,1,0,0,1.5304,o1_image,1081.1429,1,1081.6418,1081.6419,1083.6418,0,0,0,0,1,,,,,,,,,,,,,,,,,,,,,,,,,,,,,,,,,,,,,,,,,,,,,,,,,,
,,5ed9ee3afd7ffe59917d3dfa,32,female,2024-04-24_11h31.55.064,stockport_simplified,2022.2.4,Win32,60.24096386,661e456ee6de07e70aa9ef7b,6628df8335cd12580fb24720,,,,,,,,,,,,,,,,,,,,,,,,,,,,,,,,,,,,,,,,,,,,,,,,,,,,,,,,0,29,29,20,1,N,M,C,o1_image,stimuli/out1.png,stimuli/correct_out1.png,stimuli/out2.png,,,,,,,,,,,,,,,,,,,,,,,,,,,,,,,,,,,,,,
,,5ed9ee3afd7ffe59917d3dfa,32,female,2024-04-24_11h31.55.064,stockport_simplified,2022.2.4,Win32,60.24096386,661e456ee6de07e70aa9ef7b,6628df8335cd12580fb24720,,,,,,,,,,,,,,,,,,,,,,,,,,,,,,,,,,1083.6429,1085.4752,"[5,2,3,6,7,1,8,4]","[[0.3,0.2],[-0.3,0.2]]","[[0.125,-0.2],[-0.125,-0.2]]",0.144791667,-0.205729167,1,0,0,1.3162,o1_image,1085.4773,1,1085.975,1085.975,1087.9752,0,0,0,0,1,,,,,,,,,,,,,,,,,,,,,,,,,,,,,,,,,,,,,,,,,,,,,,,,,,
,,5ed9ee3afd7ffe59917d3dfa,32,female,2024-04-24_11h31.55.064,stockport_simplified,2022.2.4,Win32,60.24096386,661e456ee6de07e70aa9ef7b,6628df8335cd12580fb24720,,,,,,,,,,,,,,,,,,,,,,,,,,,,,,,,,,,,,,,,,,,,,,,,,,,,,,,,0,30,30,23,1,N,M,C,o1_image,stimuli/out1.png,stimuli/correct_out1.png,stimuli/out2.png,,,,,,,,,,,,,,,,,,,,,,,,,,,,,,,,,,,,,,
,,5ed9ee3afd7ffe59917d3dfa,32,female,2024-04-24_11h31.55.064,stockport_simplified,2022.2.4,Win32,60.24096386,661e456ee6de07e70aa9ef7b,6628df8335cd12580fb24720,,,,,,,,,,,,,,,,,,,,,,,,,,,,,,,,,,1087.9764,1090.5191,"[5,2,3,6,7,1,8,4]","[[-0.3,0.2],[0.3,0.2]]","[[0.125,-0.2],[-0.125,-0.2]]",0.15,-0.143229167,1,0,0,2.0251,o1_image,1090.5435,0,1091.042,1091.042,1093.0422,0,0,0,0,1,,,,,,,,,,,,,,,,,,,,,,,,,,,,,,,,,,,,,,,,,,,,,,,,,,
,,5ed9ee3afd7ffe59917d3dfa,32,female,2024-04-24_11h31.55.064,stockport_simplified,2022.2.4,Win32,60.24096386,661e456ee6de07e70aa9ef7b,6628df8335cd12580fb24720,,,,,,,,,,,,,,,,,,,,,,,,,,,,,,,,,,,,,,,,,,,,,,,,,,,,,,,,0,31,31,17,1,B,Y,N,o2_image,stimuli/out2.png,stimuli/out1.png,stimuli/correct_out2.png,,,,,,,,,,,,,,,,,,,,,,,,,,,,,,,,,,,,,,
,,5ed9ee3afd7ffe59917d3dfa,32,female,2024-04-24_11h31.55.064,stockport_simplified,2022.2.4,Win32,60.24096386,661e456ee6de07e70aa9ef7b,6628df8335cd12580fb24720,,,,,,,,,,,,,,,,,,,,,,,,,,,,,,,,,,1093.0431,1094.8423,"[5,2,3,6,7,1,8,4]","[[-0.3,0.2],[0.3,0.2]]","[[0.125,-0.2],[-0.125,-0.2]]",0.1109375,-0.203125,1,0,0,1.2829,o1_image,1094.844,1,1095.3322,1095.3322,1097.3253,0,0,0,0,1,,,,,,,,,,,,,,,,,,,,,,,,,,,,,,,,,,,,,,,,,,,,,,,,,,
,,5ed9ee3afd7ffe59917d3dfa,32,female,2024-04-24_11h31.55.064,stockport_simplified,2022.2.4,Win32,60.24096386,661e456ee6de07e70aa9ef7b,6628df8335cd12580fb24720,,,,,,,,,,,,,,,,,,,,,,,,,,,,,,,,,,,,,,,,,,,,,,,,,,,,,,,,0,32,32,9,1,A,Y,N,o1_image,stimuli/out1.png,stimuli/correct_out1.png,stimuli/out2.png,,,,,,,,,,,,,,,,,,,,,,,,,,,,,,,,,,,,,,
,,5ed9ee3afd7ffe59917d3dfa,32,female,2024-04-24_11h31.55.064,stockport_simplified,2022.2.4,Win32,60.24096386,661e456ee6de07e70aa9ef7b,6628df8335cd12580fb24720,,,,,,,,,,,,,,,,,,,,,,,,,,,,,,,,,,1097.3259,1099.4423,"[5,2,3,6,7,1,8,4]","[[0.3,0.2],[-0.3,0.2]]","[[-0.125,-0.2],[0.125,-0.2]]",0.104427083,-0.2109375,1,0,0,1.5992,o2_image,1099.4436,0,1099.9419,1099.9419,1101.9422,0,0,0,0,1,,,,,,,,,,,,,,,,,,,,,,,,,,,,,,,,,,,,,,,,,,,,,,,,,,
,,5ed9ee3afd7ffe59917d3dfa,32,female,2024-04-24_11h31.55.064,stockport_simplified,2022.2.4,Win32,60.24096386,661e456ee6de07e70aa9ef7b,6628df8335cd12580fb24720,,,,,,,,,,,,,,,,,,,,,,,,,,,,,,,,,,,,,,,,,,,,,,,,,,,,,,,,0,33,33,38,1,A,Y,N,o1_image,stimuli/out1.png,stimuli/correct_out1.png,stimuli/out2.png,,,,,,,,,,,,,,,,,,,,,,,,,,,,,,,,,,,,,,
,,5ed9ee3afd7ffe59917d3dfa,32,female,2024-04-24_11h31.55.064,stockport_simplified,2022.2.4,Win32,60.24096386,661e456ee6de07e70aa9ef7b,6628df8335cd12580fb24720,,,,,,,,,,,,,,,,,,,,,,,,,,,,,,,,,,1101.9428,1104.9091,"[5,2,3,6,7,1,8,4]","[[0.3,0.2],[-0.3,0.2]]","[[-0.125,-0.2],[0.125,-0.2]]",0.061458333,-0.23046875,1,0,0,2.4492,o2_image,1104.9207,1,1105.4088,1105.4089,1107.4093,0,0,0,0,1,,,,,,,,,,,,,,,,,,,,,,,,,,,,,,,,,,,,,,,,,,,,,,,,,,
,,5ed9ee3afd7ffe59917d3dfa,32,female,2024-04-24_11h31.55.064,stockport_simplified,2022.2.4,Win32,60.24096386,661e456ee6de07e70aa9ef7b,6628df8335cd12580fb24720,,,,,,,,,,,,,,,,,,,,,,,,,,,,,,,,,,,,,,,,,,,,,,,,,,,,,,,,0,34,34,12,1,B,X,N,o2_image,stimuli/out2.png,stimuli/out1.png,stimuli/correct_out2.png,,,,,,,,,,,,,,,,,,,,,,,,,,,,,,,,,,,,,,
,,5ed9ee3afd7ffe59917d3dfa,32,female,2024-04-24_11h31.55.064,stockport_simplified,2022.2.4,Win32,60.24096386,661e456ee6de07e70aa9ef7b,6628df8335cd12580fb24720,,,,,,,,,,,,,,,,,,,,,,,,,,,,,,,,,,1107.41,1110.0092,"[5,2,3,6,7,1,8,4]","[[0.3,0.2],[-0.3,0.2]]","[[0.125,-0.2],[-0.125,-0.2]]",-0.1078125,-0.184895833,1,0,0,2.0832,o2_image,1110.0106,1,1110.5092,1110.5093,1112.5095,0,0,0,0,1,,,,,,,,,,,,,,,,,,,,,,,,,,,,,,,,,,,,,,,,,,,,,,,,,,
,,5ed9ee3afd7ffe59917d3dfa,32,female,2024-04-24_11h31.55.064,stockport_simplified,2022.2.4,Win32,60.24096386,661e456ee6de07e70aa9ef7b,6628df8335cd12580fb24720,,,,,,,,,,,,,,,,,,,,,,,,,,,,,,,,,,,,,,,,,,,,,,,,,,,,,,,,0,35,35,11,1,B,X,N,o2_image,stimuli/out2.png,stimuli/out1.png,stimuli/correct_out2.png,,,,,,,,,,,,,,,,,,,,,,,,,,,,,,,,,,,,,,
,,5ed9ee3afd7ffe59917d3dfa,32,female,2024-04-24_11h31.55.064,stockport_simplified,2022.2.4,Win32,60.24096386,661e456ee6de07e70aa9ef7b,6628df8335cd12580fb24720,,,,,,,,,,,,,,,,,,,,,,,,,,,,,,,,,,1112.5101,1114.7595,"[5,2,3,6,7,1,8,4]","[[-0.3,0.2],[0.3,0.2]]","[[0.125,-0.2],[-0.125,-0.2]]",-0.1390625,-0.201822917,1,0,0,1.7313,o2_image,1114.761,0,1115.2593,1115.2593,1117.2599,0,0,0,0,1,,,,,,,,,,,,,,,,,,,,,,,,,,,,,,,,,,,,,,,,,,,,,,,,,,
,,5ed9ee3afd7ffe59917d3dfa,32,female,2024-04-24_11h31.55.064,stockport_simplified,2022.2.4,Win32,60.24096386,661e456ee6de07e70aa9ef7b,6628df8335cd12580fb24720,,,,,,,,,,,,,,,,,,,,,,,,,,,,,,,,,,,,,,,,,,,,,,,,,,,,,,,,0,36,36,54,1,N,M,C,o1_image,stimuli/out1.png,stimuli/correct_out1.png,stimuli/out2.png,,,,,,,,,,,,,,,,,,,,,,,,,,,,,,,,,,,,,,
,,5ed9ee3afd7ffe59917d3dfa,32,female,2024-04-24_11h31.55.064,stockport_simplified,2022.2.4,Win32,60.24096386,661e456ee6de07e70aa9ef7b,6628df8335cd12580fb24720,,,,,,,,,,,,,,,,,,,,,,,,,,,,,,,,,,1117.2608,1118.8264,"[5,2,3,6,7,1,8,4]","[[-0.3,0.2],[0.3,0.2]]","[[-0.125,-0.2],[0.125,-0.2]]",-0.153385417,-0.203125,1,0,0,1.0495,o1_image,1118.8277,1,1119.3262,1119.3262,1121.3263,0,0,0,0,1,,,,,,,,,,,,,,,,,,,,,,,,,,,,,,,,,,,,,,,,,,,,,,,,,,
,,5ed9ee3afd7ffe59917d3dfa,32,female,2024-04-24_11h31.55.064,stockport_simplified,2022.2.4,Win32,60.24096386,661e456ee6de07e70aa9ef7b,6628df8335cd12580fb24720,,,,,,,,,,,,,,,,,,,,,,,,,,,,,,,,,,,,,,,,,,,,,,,,,,,,,,,,0,37,37,53,1,N,M,C,o1_image,stimuli/out1.png,stimuli/correct_out1.png,stimuli/out2.png,,,,,,,,,,,,,,,,,,,,,,,,,,,,,,,,,,,,,,
,,5ed9ee3afd7ffe59917d3dfa,32,female,2024-04-24_11h31.55.064,stockport_simplified,2022.2.4,Win32,60.24096386,661e456ee6de07e70aa9ef7b,6628df8335cd12580fb24720,,,,,,,,,,,,,,,,,,,,,,,,,,,,,,,,,,1121.3268,1122.8767,"[5,2,3,6,7,1,8,4]","[[0.3,0.2],[-0.3,0.2]]","[[0.125,-0.2],[-0.125,-0.2]]",0.19296875,-0.19921875,1,0,0,1.0327,o1_image,1122.8782,1,1123.3765,1123.3765,1125.3767,0,0,0,0,1,,,,,,,,,,,,,,,,,,,,,,,,,,,,,,,,,,,,,,,,,,,,,,,,,,
,,5ed9ee3afd7ffe59917d3dfa,32,female,2024-04-24_11h31.55.064,stockport_simplified,2022.2.4,Win32,60.24096386,661e456ee6de07e70aa9ef7b,6628df8335cd12580fb24720,,,,,,,,,,,,,,,,,,,,,,,,,,,,,,,,,,,,,,,,,,,,,,,,,,,,,,,,0,38,38,51,1,N,M,C,o1_image,stimuli/out1.png,stimuli/correct_out1.png,stimuli/out2.png,,,,,,,,,,,,,,,,,,,,,,,,,,,,,,,,,,,,,,
,,5ed9ee3afd7ffe59917d3dfa,32,female,2024-04-24_11h31.55.064,stockport_simplified,2022.2.4,Win32,60.24096386,661e456ee6de07e70aa9ef7b,6628df8335cd12580fb24720,,,,,,,,,,,,,,,,,,,,,,,,,,,,,,,,,,1125.3772,1127.7936,"[5,2,3,6,7,1,8,4]","[[0.3,0.2],[-0.3,0.2]]","[[0.125,-0.2],[-0.125,-0.2]]",-0.083072917,-0.196614583,1,0,0,1.8981,o2_image,1127.7954,0,1128.2937,1128.2938,1130.2938,0,0,0,0,1,,,,,,,,,,,,,,,,,,,,,,,,,,,,,,,,,,,,,,,,,,,,,,,,,,
,,5ed9ee3afd7ffe59917d3dfa,32,female,2024-04-24_11h31.55.064,stockport_simplified,2022.2.4,Win32,60.24096386,661e456ee6de07e70aa9ef7b,6628df8335cd12580fb24720,,,,,,,,,,,,,,,,,,,,,,,,,,,,,,,,,,,,,,,,,,,,,,,,,,,,,,,,0,39,39,31,1,A,X,N,o1_image,stimuli/out1.png,stimuli/correct_out1.png,stimuli/out2.png,,,,,,,,,,,,,,,,,,,,,,,,,,,,,,,,,,,,,,
,,5ed9ee3afd7ffe59917d3dfa,32,female,2024-04-24_11h31.55.064,stockport_simplified,2022.2.4,Win32,60.24096386,661e456ee6de07e70aa9ef7b,6628df8335cd12580fb24720,,,,,,,,,,,,,,,,,,,,,,,,,,,,,,,,,,1130.2948,1132.1101,"[5,2,3,6,7,1,8,4]","[[-0.3,0.2],[0.3,0.2]]","[[0.125,-0.2],[-0.125,-0.2]]",-0.1,-0.19140625,1,0,0,1.2983,o2_image,1132.1124,1,1132.6101,1132.6102,1134.612,0,0,0,0,1,,,,,,,,,,,,,,,,,,,,,,,,,,,,,,,,,,,,,,,,,,,,,,,,,,
,,5ed9ee3afd7ffe59917d3dfa,32,female,2024-04-24_11h31.55.064,stockport_simplified,2022.2.4,Win32,60.24096386,661e456ee6de07e70aa9ef7b,6628df8335cd12580fb24720,,,,,,,,,,,,,,,,,,,,,,,,,,,,,,,,,,,,,,,,,,,,,,,,,,,,,,,,0,40,40,43,1,B,X,N,o2_image,stimuli/out2.png,stimuli/out1.png,stimuli/correct_out2.png,,,,,,,,,,,,,,,,,,,,,,,,,,,,,,,,,,,,,,
,,5ed9ee3afd7ffe59917d3dfa,32,female,2024-04-24_11h31.55.064,stockport_simplified,2022.2.4,Win32,60.24096386,661e456ee6de07e70aa9ef7b,6628df8335cd12580fb24720,,,,,,,,,,,,,,,,,,,,,,,,,,,,,,,,,,1134.613,1136.261,"[5,2,3,6,7,1,8,4]","[[-0.3,0.2],[0.3,0.2]]","[[0.125,-0.2],[-0.125,-0.2]]",-0.084375,-0.171875,1,0,0,1.1279,o2_image,1136.2632,1,1136.7605,1136.7606,1138.7607,0,0,0,0,1,,,,,,,,,,,,,,,,,,,,,,,,,,,,,,,,,,,,,,,,,,,,,,,,,,
,,5ed9ee3afd7ffe59917d3dfa,32,female,2024-04-24_11h31.55.064,stockport_simplified,2022.2.4,Win32,60.24096386,661e456ee6de07e70aa9ef7b,6628df8335cd12580fb24720,,,,,,,,,,,,,,,,,,,,,,,,,,,,,,,,,,,,,,,,,,,,,,,,,,,,,,,,0,41,41,48,1,B,Y,N,o2_image,stimuli/out2.png,stimuli/out1.png,stimuli/correct_out2.png,,,,,,,,,,,,,,,,,,,,,,,,,,,,,,,,,,,,,,
,,5ed9ee3afd7ffe59917d3dfa,32,female,2024-04-24_11h31.55.064,stockport_simplified,2022.2.4,Win32,60.24096386,661e456ee6de07e70aa9ef7b,6628df8335cd12580fb24720,,,,,,,,,,,,,,,,,,,,,,,,,,,,,,,,,,1138.7618,1141.535,"[5,2,3,6,7,1,8,4]","[[-0.3,0.2],[0.3,0.2]]","[[0.125,-0.2],[-0.125,-0.2]]",0.11484375,-0.194010417,1,0,0,2.2555,o1_image,1141.5358,0,1142.0277,1142.0277,1144.0277,0,0,0,0,1,,,,,,,,,,,,,,,,,,,,,,,,,,,,,,,,,,,,,,,,,,,,,,,,,,
,,5ed9ee3afd7ffe59917d3dfa,32,female,2024-04-24_11h31.55.064,stockport_simplified,2022.2.4,Win32,60.24096386,661e456ee6de07e70aa9ef7b,6628df8335cd12580fb24720,,,,,,,,,,,,,,,,,,,,,,,,,,,,,,,,,,,,,,,,,,,,,,,,,,,,,,,,0,42,42,28,1,N,M,D,o2_image,stimuli/out2.png,stimuli/out1.png,stimuli/correct_out2.png,,,,,,,,,,,,,,,,,,,,,,,,,,,,,,,,,,,,,,
,,5ed9ee3afd7ffe59917d3dfa,32,female,2024-04-24_11h31.55.064,stockport_simplified,2022.2.4,Win32,60.24096386,661e456ee6de07e70aa9ef7b,6628df8335cd12580fb24720,,,,,,,,,,,,,,,,,,,,,,,,,,,,,,,,,,1144.0287,1146.5277,"[5,2,3,6,7,1,8,4]","[[0.3,0.2],[-0.3,0.2]]","[[-0.125,-0.2],[0.125,-0.2]]",-0.128645833,-0.186197917,1,0,0,1.9836,o1_image,1146.543,0,1147.0441,1147.0441,1149.0442,0,0,0,0,1,,,,,,,,,,,,,,,,,,,,,,,,,,,,,,,,,,,,,,,,,,,,,,,,,,
,,5ed9ee3afd7ffe59917d3dfa,32,female,2024-04-24_11h31.55.064,stockport_simplified,2022.2.4,Win32,60.24096386,661e456ee6de07e70aa9ef7b,6628df8335cd12580fb24720,,,,,,,,,,,,,,,,,,,,,,,,,,,,,,,,,,,,,,,,,,,,,,,,,,,,,,,,0,43,43,29,1,N,M,D,o2_image,stimuli/out2.png,stimuli/out1.png,stimuli/correct_out2.png,,,,,,,,,,,,,,,,,,,,,,,,,,,,,,,,,,,,,,
,,5ed9ee3afd7ffe59917d3dfa,32,female,2024-04-24_11h31.55.064,stockport_simplified,2022.2.4,Win32,60.24096386,661e456ee6de07e70aa9ef7b,6628df8335cd12580fb24720,,,,,,,,,,,,,,,,,,,,,,,,,,,,,,,,,,1149.0447,1150.6283,"[5,2,3,6,7,1,8,4]","[[0.3,0.2],[-0.3,0.2]]","[[0.125,-0.2],[-0.125,-0.2]]",0.094010417,-0.203125,1,0,0,1.067,o1_image,1150.6305,0,1151.1275,1151.1275,1153.1277,0,0,0,0,1,,,,,,,,,,,,,,,,,,,,,,,,,,,,,,,,,,,,,,,,,,,,,,,,,,
,,5ed9ee3afd7ffe59917d3dfa,32,female,2024-04-24_11h31.55.064,stockport_simplified,2022.2.4,Win32,60.24096386,661e456ee6de07e70aa9ef7b,6628df8335cd12580fb24720,,,,,,,,,,,,,,,,,,,,,,,,,,,,,,,,,,,,,,,,,,,,,,,,,,,,,,,,0,44,44,56,1,N,M,D,o2_image,stimuli/out2.png,stimuli/out1.png,stimuli/correct_out2.png,,,,,,,,,,,,,,,,,,,,,,,,,,,,,,,,,,,,,,
,,5ed9ee3afd7ffe59917d3dfa,32,female,2024-04-24_11h31.55.064,stockport_simplified,2022.2.4,Win32,60.24096386,661e456ee6de07e70aa9ef7b,6628df8335cd12580fb24720,,,,,,,,,,,,,,,,,,,,,,,,,,,,,,,,,,1153.1283,1156.1946,"[5,2,3,6,7,1,8,4]","[[0.3,0.2],[-0.3,0.2]]","[[-0.125,-0.2],[0.125,-0.2]]",-0.105208333,-0.212239583,1,0,0,2.5496,o1_image,1156.2079,1,1156.7119,1156.712,1158.7112,0,0,0,0,1,,,,,,,,,,,,,,,,,,,,,,,,,,,,,,,,,,,,,,,,,,,,,,,,,,
,,5ed9ee3afd7ffe59917d3dfa,32,female,2024-04-24_11h31.55.064,stockport_simplified,2022.2.4,Win32,60.24096386,661e456ee6de07e70aa9ef7b,6628df8335cd12580fb24720,,,,,,,,,,,,,,,,,,,,,,,,,,,,,,,,,,,,,,,,,,,,,,,,,,,,,,,,0,45,45,34,1,A,X,N,o1_image,stimuli/out1.png,stimuli/correct_out1.png,stimuli/out2.png,,,,,,,,,,,,,,,,,,,,,,,,,,,,,,,,,,,,,,
,,5ed9ee3afd7ffe59917d3dfa,32,female,2024-04-24_11h31.55.064,stockport_simplified,2022.2.4,Win32,60.24096386,661e456ee6de07e70aa9ef7b,6628df8335cd12580fb24720,,,,,,,,,,,,,,,,,,,,,,,,,,,,,,,,,,1158.7118,1160.9691,"[5,2,3,6,7,1,8,4]","[[0.3,0.2],[-0.3,0.2]]","[[0.125,-0.2],[-0.125,-0.2]]",0.144791667,-0.188802083,1,0,0,1.7401,o1_image,1160.9697,0,1161.4631,1161.4632,1163.4614,0,0,0,0,1,,,,,,,,,,,,,,,,,,,,,,,,,,,,,,,,,,,,,,,,,,,,,,,,,,
,,5ed9ee3afd7ffe59917d3dfa,32,female,2024-04-24_11h31.55.064,stockport_simplified,2022.2.4,Win32,60.24096386,661e456ee6de07e70aa9ef7b,6628df8335cd12580fb24720,,,,,,,,,,,,,,,,,,,,,,,,,,,,,,,,,,,,,,,,,,,,,,,,,,,,,,,,0,46,46,14,1,B,X,N,o2_image,stimuli/out2.png,stimuli/out1.png,stimuli/correct_out2.png,,,,,,,,,,,,,,,,,,,,,,,,,,,,,,,,,,,,,,
,,5ed9ee3afd7ffe59917d3dfa,32,female,2024-04-24_11h31.55.064,stockport_simplified,2022.2.4,Win32,60.24096386,661e456ee6de07e70aa9ef7b,6628df8335cd12580fb24720,,,,,,,,,,,,,,,,,,,,,,,,,,,,,,,,,,1163.4619,1165.7691,"[5,2,3,6,7,1,8,4]","[[-0.3,0.2],[0.3,0.2]]","[[0.125,-0.2],[-0.125,-0.2]]",-0.137760417,-0.182291667,1,0,0,1.7898,o2_image,1165.7698,1,1166.2632,1166.2632,1168.2625,0,0,0,0,1,,,,,,,,,,,,,,,,,,,,,,,,,,,,,,,,,,,,,,,,,,,,,,,,,,
,,5ed9ee3afd7ffe59917d3dfa,32,female,2024-04-24_11h31.55.064,stockport_simplified,2022.2.4,Win32,60.24096386,661e456ee6de07e70aa9ef7b,6628df8335cd12580fb24720,,,,,,,,,,,,,,,,,,,,,,,,,,,,,,,,,,,,,,,,,,,,,,,,,,,,,,,,0,47,47,15,1,B,Y,N,o2_image,stimuli/out2.png,stimuli/out1.png,stimuli/correct_out2.png,,,,,,,,,,,,,,,,,,,,,,,,,,,,,,,,,,,,,,
,,5ed9ee3afd7ffe59917d3dfa,32,female,2024-04-24_11h31.55.064,stockport_simplified,2022.2.4,Win32,60.24096386,661e456ee6de07e70aa9ef7b,6628df8335cd12580fb24720,,,,,,,,,,,,,,,,,,,,,,,,,,,,,,,,,,1168.2637,1170.3789,"[5,2,3,6,7,1,8,4]","[[0.3,0.2],[-0.3,0.2]]","[[0.125,-0.2],[-0.125,-0.2]]",-0.098697917,-0.174479167,1,0,0,1.5942,o2_image,1170.3808,0,1170.8783,1170.8783,1172.8689,0,0,0,0,1,,,,,,,,,,,,,,,,,,,,,,,,,,,,,,,,,,,,,,,,,,,,,,,,,,
,,5ed9ee3afd7ffe59917d3dfa,32,female,2024-04-24_11h31.55.064,stockport_simplified,2022.2.4,Win32,60.24096386,661e456ee6de07e70aa9ef7b,6628df8335cd12580fb24720,,,,,,,,,,,,,,,,,,,,,,,,,,,,,,,,,,,,,,,,,,,,,,,,,,,,,,,,0,48,48,6,1,A,Y,N,o1_image,stimuli/out1.png,stimuli/correct_out1.png,stimuli/out2.png,,,,,,,,,,,,,,,,,,,,,,,,,,,,,,,,,,,,,,
,,5ed9ee3afd7ffe59917d3dfa,32,female,2024-04-24_11h31.55.064,stockport_simplified,2022.2.4,Win32,60.24096386,661e456ee6de07e70aa9ef7b,6628df8335cd12580fb24720,,,,,,,,,,,,,,,,,,,,,,,,,,,,,,,,,,1172.8695,1175.1137,"[5,2,3,6,7,1,8,4]","[[-0.3,0.2],[0.3,0.2]]","[[0.125,-0.2],[-0.125,-0.2]]",0.15390625,-0.205729167,1,0,0,1.7288,o1_image,1175.1149,1,1175.6129,1175.6131,1177.6031,0,0,0,0,1,,,,,,,,,,,,,,,,,,,,,,,,,,,,,,,,,,,,,,,,,,,,,,,,,,
,,5ed9ee3afd7ffe59917d3dfa,32,female,2024-04-24_11h31.55.064,stockport_simplified,2022.2.4,Win32,60.24096386,661e456ee6de07e70aa9ef7b,6628df8335cd12580fb24720,,,,,,,,,,,,,,,,,,,,,,,,,,,,,,,,,,,,,,,,,,,,,,,,,,,,,,,,0,49,49,39,1,A,Y,N,o1_image,stimuli/out1.png,stimuli/correct_out1.png,stimuli/out2.png,,,,,,,,,,,,,,,,,,,,,,,,,,,,,,,,,,,,,,
,,5ed9ee3afd7ffe59917d3dfa,32,female,2024-04-24_11h31.55.064,stockport_simplified,2022.2.4,Win32,60.24096386,661e456ee6de07e70aa9ef7b,6628df8335cd12580fb24720,,,,,,,,,,,,,,,,,,,,,,,,,,,,,,,,,,1177.6041,1180.3123,"[5,2,3,6,7,1,8,4]","[[-0.3,0.2],[0.3,0.2]]","[[-0.125,-0.2],[0.125,-0.2]]",0.1421875,-0.196614583,1,0,0,2.1937,o2_image,1180.3245,1,1180.8288,1180.8288,1182.829,0,0,0,0,1,,,,,,,,,,,,,,,,,,,,,,,,,,,,,,,,,,,,,,,,,,,,,,,,,,
,,5ed9ee3afd7ffe59917d3dfa,32,female,2024-04-24_11h31.55.064,stockport_simplified,2022.2.4,Win32,60.24096386,661e456ee6de07e70aa9ef7b,6628df8335cd12580fb24720,,,,,,,,,,,,,,,,,,,,,,,,,,,,,,,,,,,,,,,,,,,,,,,,,,,,,,,,0,50,50,18,1,B,Y,N,o2_image,stimuli/out2.png,stimuli/out1.png,stimuli/correct_out2.png,,,,,,,,,,,,,,,,,,,,,,,,,,,,,,,,,,,,,,
,,5ed9ee3afd7ffe59917d3dfa,32,female,2024-04-24_11h31.55.064,stockport_simplified,2022.2.4,Win32,60.24096386,661e456ee6de07e70aa9ef7b,6628df8335cd12580fb24720,,,,,,,,,,,,,,,,,,,,,,,,,,,,,,,,,,1182.8297,1184.5796,"[5,2,3,6,7,1,8,4]","[[-0.3,0.2],[0.3,0.2]]","[[-0.125,-0.2],[0.125,-0.2]]",0.109635417,-0.169270833,1,0,0,1.2334,o2_image,1184.5817,1,1185.0788,1185.0789,1187.0793,0,0,0,0,1,,,,,,,,,,,,,,,,,,,,,,,,,,,,,,,,,,,,,,,,,,,,,,,,,,
,,5ed9ee3afd7ffe59917d3dfa,32,female,2024-04-24_11h31.55.064,stockport_simplified,2022.2.4,Win32,60.24096386,661e456ee6de07e70aa9ef7b,6628df8335cd12580fb24720,,,,,,,,,,,,,,,,,,,,,,,,,,,,,,,,,,,,,,,,,,,,,,,,,,,,,,,,0,51,51,45,1,B,Y,N,o2_image,stimuli/out2.png,stimuli/out1.png,stimuli/correct_out2.png,,,,,,,,,,,,,,,,,,,,,,,,,,,,,,,,,,,,,,
,,5ed9ee3afd7ffe59917d3dfa,32,female,2024-04-24_11h31.55.064,stockport_simplified,2022.2.4,Win32,60.24096386,661e456ee6de07e70aa9ef7b,6628df8335cd12580fb24720,,,,,,,,,,,,,,,,,,,,,,,,,,,,,,,,,,1187.0805,1189.4296,"[5,2,3,6,7,1,8,4]","[[0.3,0.2],[-0.3,0.2]]","[[0.125,-0.2],[-0.125,-0.2]]",0.168229167,-0.18359375,1,0,0,1.8322,o1_image,1189.4322,1,1189.9292,1189.9293,1191.9293,0,0,0,0,1,,,,,,,,,,,,,,,,,,,,,,,,,,,,,,,,,,,,,,,,,,,,,,,,,,
,,5ed9ee3afd7ffe59917d3dfa,32,female,2024-04-24_11h31.55.064,stockport_simplified,2022.2.4,Win32,60.24096386,661e456ee6de07e70aa9ef7b,6628df8335cd12580fb24720,,,,,,,,,,,,,,,,,,,,,,,,,,,,,,,,,,,,,,,,,,,,,,,,,,,,,,,,0,52,52,3,1,A,X,N,o1_image,stimuli/out1.png,stimuli/correct_out1.png,stimuli/out2.png,,,,,,,,,,,,,,,,,,,,,,,,,,,,,,,,,,,,,,
,,5ed9ee3afd7ffe59917d3dfa,32,female,2024-04-24_11h31.55.064,stockport_simplified,2022.2.4,Win32,60.24096386,661e456ee6de07e70aa9ef7b,6628df8335cd12580fb24720,,,,,,,,,,,,,,,,,,,,,,,,,,,,,,,,,,1191.9299,1193.7873,"[5,2,3,6,7,1,8,4]","[[0.3,0.2],[-0.3,0.2]]","[[0.125,-0.2],[-0.125,-0.2]]",-0.073958333,-0.1640625,1,0,0,1.34,o2_image,1193.7886,1,1194.2863,1194.2864,1196.2797,0,0,0,0,1,,,,,,,,,,,,,,,,,,,,,,,,,,,,,,,,,,,,,,,,,,,,,,,,,,
,,5ed9ee3afd7ffe59917d3dfa,32,female,2024-04-24_11h31.55.064,stockport_simplified,2022.2.4,Win32,60.24096386,661e456ee6de07e70aa9ef7b,6628df8335cd12580fb24720,,,,,,,,,,,,,,,,,,,,,,,,,,,,,,,,,,,,,,,,,,,,,,,,,,,,,,,,0,53,53,46,1,B,Y,N,o2_image,stimuli/out2.png,stimuli/out1.png,stimuli/correct_out2.png,,,,,,,,,,,,,,,,,,,,,,,,,,,,,,,,,,,,,,
,,5ed9ee3afd7ffe59917d3dfa,32,female,2024-04-24_11h31.55.064,stockport_simplified,2022.2.4,Win32,60.24096386,661e456ee6de07e70aa9ef7b,6628df8335cd12580fb24720,,,,,,,,,,,,,,,,,,,,,,,,,,,,,,,,,,1196.2804,1199.1369,"[5,2,3,6,7,1,8,4]","[[-0.3,0.2],[0.3,0.2]]","[[-0.125,-0.2],[0.125,-0.2]]",0.13046875,-0.200520833,1,0,0,2.3376,o2_image,1199.1376,1,1199.6296,1199.6296,1201.6362,0,0,0,0,1,,,,,,,,,,,,,,,,,,,,,,,,,,,,,,,,,,,,,,,,,,,,,,,,,,
,,5ed9ee3afd7ffe59917d3dfa,32,female,2024-04-24_11h31.55.064,stockport_simplified,2022.2.4,Win32,60.24096386,661e456ee6de07e70aa9ef7b,6628df8335cd12580fb24720,,,,,,,,,,,,,,,,,,,,,,,,,,,,,,,,,,,,,,,,,,,,,,,,,,,,,,,,0,54,54,25,1,N,M,D,o2_image,stimuli/out2.png,stimuli/out1.png,stimuli/correct_out2.png,,,,,,,,,,,,,,,,,,,,,,,,,,,,,,,,,,,,,,
,,5ed9ee3afd7ffe59917d3dfa,32,female,2024-04-24_11h31.55.064,stockport_simplified,2022.2.4,Win32,60.24096386,661e456ee6de07e70aa9ef7b,6628df8335cd12580fb24720,,,,,,,,,,,,,,,,,,,,,,,,,,,,,,,,,,1201.6369,1203.9399,"[5,2,3,6,7,1,8,4]","[[0.3,0.2],[-0.3,0.2]]","[[0.125,-0.2],[-0.125,-0.2]]",-0.106510417,-0.186197917,1,0,0,1.7901,o2_image,1203.9409,0,1204.4297,1204.4297,1206.4301,0,0,0,0,1,,,,,,,,,,,,,,,,,,,,,,,,,,,,,,,,,,,,,,,,,,,,,,,,,,
,,5ed9ee3afd7ffe59917d3dfa,32,female,2024-04-24_11h31.55.064,stockport_simplified,2022.2.4,Win32,60.24096386,661e456ee6de07e70aa9ef7b,6628df8335cd12580fb24720,,,,,,,,,,,,,,,,,,,,,,,,,,,,,,,,,,,,,,,,,,,,,,,,,,,,,,,,0,55,55,30,1,A,X,N,o1_image,stimuli/out1.png,stimuli/correct_out1.png,stimuli/out2.png,,,,,,,,,,,,,,,,,,,,,,,,,,,,,,,,,,,,,,
,,5ed9ee3afd7ffe59917d3dfa,32,female,2024-04-24_11h31.55.064,stockport_simplified,2022.2.4,Win32,60.24096386,661e456ee6de07e70aa9ef7b,6628df8335cd12580fb24720,,,,,,,,,,,,,,,,,,,,,,,,,,,,,,,,,,1206.4307,1208.4139,"[5,2,3,6,7,1,8,4]","[[0.3,0.2],[-0.3,0.2]]","[[0.125,-0.2],[-0.125,-0.2]]",-0.122135417,-0.196614583,1,0,0,1.4673,o2_image,1208.4156,0,1208.9133,1208.9133,1210.9144,0,0,0,0,1,,,,,,,,,,,,,,,,,,,,,,,,,,,,,,,,,,,,,,,,,,,,,,,,,,
,,5ed9ee3afd7ffe59917d3dfa,32,female,2024-04-24_11h31.55.064,stockport_simplified,2022.2.4,Win32,60.24096386,661e456ee6de07e70aa9ef7b,6628df8335cd12580fb24720,,,,,,,,,,,,,,,,,,,,,,,,,,,,,,,,,,,,,,,,,,,,,,,,,,,,,,,,0,56,56,0,1,A,X,N,o1_image,stimuli/out1.png,stimuli/correct_out1.png,stimuli/out2.png,,,,,,,,,,,,,,,,,,,,,,,,,,,,,,,,,,,,,,
,,5ed9ee3afd7ffe59917d3dfa,32,female,2024-04-24_11h31.55.064,stockport_simplified,2022.2.4,Win32,60.24096386,661e456ee6de07e70aa9ef7b,6628df8335cd12580fb24720,,,,,,,,,,,,,,,,,,,,,,,,,,,,,,,,,,1210.9153,1213.432,"[5,2,3,6,7,1,8,4]","[[-0.3,0.2],[0.3,0.2]]","[[-0.125,-0.2],[0.125,-0.2]]",-0.140364583,-0.209635417,1,0,0,2.0002,o1_image,1213.4332,0,1213.9301,1213.9302,1215.9378,0,0,0,0,1,,,,,,,,,,,,,,,,,,,,,,,,,,,,,,,,,,,,,,,,,,,,,,,,,,
,,5ed9ee3afd7ffe59917d3dfa,32,female,2024-04-24_11h31.55.064,stockport_simplified,2022.2.4,Win32,60.24096386,661e456ee6de07e70aa9ef7b,6628df8335cd12580fb24720,,,,,,,,,,,,,,,,,,,,,,,,,,,,,,,,,,,,,,,,,,,,,,,,,,,,,,,,0,57,57,19,1,B,Y,N,o2_image,stimuli/out2.png,stimuli/out1.png,stimuli/correct_out2.png,,,,,,,,,,,,,,,,,,,,,,,,,,,,,,,,,,,,,,
,,5ed9ee3afd7ffe59917d3dfa,32,female,2024-04-24_11h31.55.064,stockport_simplified,2022.2.4,Win32,60.24096386,661e456ee6de07e70aa9ef7b,6628df8335cd12580fb24720,,,,,,,,,,,,,,,,,,,,,,,,,,,,,,,,,,1215.9388,1218.9471,"[5,2,3,6,7,1,8,4]","[[0.3,0.2],[-0.3,0.2]]","[[-0.125,-0.2],[0.125,-0.2]]",0.069270833,-0.21484375,1,0,0,2.4978,o2_image,1218.9592,0,1219.4472,1219.4472,1221.4475,0,0,0,0,1,,,,,,,,,,,,,,,,,,,,,,,,,,,,,,,,,,,,,,,,,,,,,,,,,,
,,5ed9ee3afd7ffe59917d3dfa,32,female,2024-04-24_11h31.55.064,stockport_simplified,2022.2.4,Win32,60.24096386,661e456ee6de07e70aa9ef7b,6628df8335cd12580fb24720,,,,,,,,,,,,,,,,,,,,,,,,,,,,,,,,,,,,,,,,,,,,,,,,,,,,,,,,0,58,58,21,1,N,M,C,o1_image,stimuli/out1.png,stimuli/correct_out1.png,stimuli/out2.png,,,,,,,,,,,,,,,,,,,,,,,,,,,,,,,,,,,,,,
,,5ed9ee3afd7ffe59917d3dfa,32,female,2024-04-24_11h31.55.064,stockport_simplified,2022.2.4,Win32,60.24096386,661e456ee6de07e70aa9ef7b,6628df8335cd12580fb24720,,,,,,,,,,,,,,,,,,,,,,,,,,,,,,,,,,1221.4485,1224.067,"[5,2,3,6,7,1,8,4]","[[0.3,0.2],[-0.3,0.2]]","[[-0.125,-0.2],[0.125,-0.2]]",-0.118229167,-0.19140625,1,0,0,2.1022,o1_image,1224.0678,0,1224.5662,1224.5662,1226.5642,0,0,0,0,1,,,,,,,,,,,,,,,,,,,,,,,,,,,,,,,,,,,,,,,,,,,,,,,,,,
,,5ed9ee3afd7ffe59917d3dfa,32,female,2024-04-24_11h31.55.064,stockport_simplified,2022.2.4,Win32,60.24096386,661e456ee6de07e70aa9ef7b,6628df8335cd12580fb24720,,,,,,,,,,,,,,,,,,,,,,,,,,,,,,,,,,,,,,,,,,,,,,,,,,,,,,,,0,59,59,41,1,B,X,N,o2_image,stimuli/out2.png,stimuli/out1.png,stimuli/correct_out2.png,,,,,,,,,,,,,,,,,,,,,,,,,,,,,,,,,,,,,,
,,5ed9ee3afd7ffe59917d3dfa,32,female,2024-04-24_11h31.55.064,stockport_simplified,2022.2.4,Win32,60.24096386,661e456ee6de07e70aa9ef7b,6628df8335cd12580fb24720,,,,,,,,,,,,,,,,,,,,,,,,,,,,,,,,,,1226.5648,1228.9644,"[5,2,3,6,7,1,8,4]","[[-0.3,0.2],[0.3,0.2]]","[[0.125,-0.2],[-0.125,-0.2]]",0.103125,-0.203125,1,0,0,1.8828,o1_image,1228.9661,0,1229.4642,1229.4642,1231.4642,0,0,0,0,1,,,,,,,,,,,,,,,,,,,,,,,,,,,,,,,,,,,,,,,,,,,,,,,,,,
,,5ed9ee3afd7ffe59917d3dfa,32,female,2024-04-24_11h31.55.064,stockport_simplified,2022.2.4,Win32,60.24096386,661e456ee6de07e70aa9ef7b,6628df8335cd12580fb24720,,,,,,,,,,,,,,,,,,,,,,,,,,,,,,,,,,,,,,,,,,,,,,,,,,,,,,,,1,0,60,42,1,B,X,N,o2_image,stimuli/out2.png,stimuli/out1.png,stimuli/correct_out2.png,,,,,,,,,,,,,,,,,,,,,,,,,,,,,,,,,,,,,,
,,5ed9ee3afd7ffe59917d3dfa,32,female,2024-04-24_11h31.55.064,stockport_simplified,2022.2.4,Win32,60.24096386,661e456ee6de07e70aa9ef7b,6628df8335cd12580fb24720,,,,,,,,,,,,,,,,,,,,,,,,,,,,,,,,,,1231.4647,1233.3477,"[5,2,3,6,7,1,8,4]","[[-0.3,0.2],[0.3,0.2]]","[[-0.125,-0.2],[0.125,-0.2]]",0.096614583,-0.190104167,1,0,0,1.3665,o2_image,1233.3491,0,1233.8477,1233.8477,1235.8481,0,0,0,0,1,,,,,,,,,,,,,,,,,,,,,,,,,,,,,,,,,,,,,,,,,,,,,,,,,,
,,5ed9ee3afd7ffe59917d3dfa,32,female,2024-04-24_11h31.55.064,stockport_simplified,2022.2.4,Win32,60.24096386,661e456ee6de07e70aa9ef7b,6628df8335cd12580fb24720,,,,,,,,,,,,,,,,,,,,,,,,,,,,,,,,,,,,,,,,,,,,,,,,,,,,,,,,1,1,61,4,1,A,X,N,o1_image,stimuli/out1.png,stimuli/correct_out1.png,stimuli/out2.png,,,,,,,,,,,,,,,,,,,,,,,,,,,,,,,,,,,,,,
,,5ed9ee3afd7ffe59917d3dfa,32,female,2024-04-24_11h31.55.064,stockport_simplified,2022.2.4,Win32,60.24096386,661e456ee6de07e70aa9ef7b,6628df8335cd12580fb24720,,,,,,,,,,,,,,,,,,,,,,,,,,,,,,,,,,1235.8491,1238.1386,"[5,2,3,6,7,1,8,4]","[[-0.3,0.2],[0.3,0.2]]","[[0.125,-0.2],[-0.125,-0.2]]",-0.097395833,-0.1953125,1,0,0,1.7723,o2_image,1238.1393,1,1238.6311,1238.6311,1240.6316,0,0,0,0,1,,,,,,,,,,,,,,,,,,,,,,,,,,,,,,,,,,,,,,,,,,,,,,,,,,
,,5ed9ee3afd7ffe59917d3dfa,32,female,2024-04-24_11h31.55.064,stockport_simplified,2022.2.4,Win32,60.24096386,661e456ee6de07e70aa9ef7b,6628df8335cd12580fb24720,,,,,,,,,,,,,,,,,,,,,,,,,,,,,,,,,,,,,,,,,,,,,,,,,,,,,,,,1,2,62,58,1,N,M,D,o2_image,stimuli/out2.png,stimuli/out1.png,stimuli/correct_out2.png,,,,,,,,,,,,,,,,,,,,,,,,,,,,,,,,,,,,,,
,,5ed9ee3afd7ffe59917d3dfa,32,female,2024-04-24_11h31.55.064,stockport_simplified,2022.2.4,Win32,60.24096386,661e456ee6de07e70aa9ef7b,6628df8335cd12580fb24720,,,,,,,,,,,,,,,,,,,,,,,,,,,,,,,,,,1240.6328,1243.4651,"[5,2,3,6,7,1,8,4]","[[0.3,0.2],[-0.3,0.2]]","[[0.125,-0.2],[-0.125,-0.2]]",0.116145833,-0.21484375,1,0,0,2.3165,o1_image,1243.4665,1,1243.9649,1243.9649,1245.9658,0,0,0,0,1,,,,,,,,,,,,,,,,,,,,,,,,,,,,,,,,,,,,,,,,,,,,,,,,,,
,,5ed9ee3afd7ffe59917d3dfa,32,female,2024-04-24_11h31.55.064,stockport_simplified,2022.2.4,Win32,60.24096386,661e456ee6de07e70aa9ef7b,6628df8335cd12580fb24720,,,,,,,,,,,,,,,,,,,,,,,,,,,,,,,,,,,,,,,,,,,,,,,,,,,,,,,,1,3,63,50,1,N,M,C,o1_image,stimuli/out1.png,stimuli/correct_out1.png,stimuli/out2.png,,,,,,,,,,,,,,,,,,,,,,,,,,,,,,,,,,,,,,
,,5ed9ee3afd7ffe59917d3dfa,32,female,2024-04-24_11h31.55.064,stockport_simplified,2022.2.4,Win32,60.24096386,661e456ee6de07e70aa9ef7b,6628df8335cd12580fb24720,,,,,,,,,,,,,,,,,,,,,,,,,,,,,,,,,,1245.9669,1248.5659,"[5,2,3,6,7,1,8,4]","[[0.3,0.2],[-0.3,0.2]]","[[0.125,-0.2],[-0.125,-0.2]]",-0.105208333,-0.204427083,1,0,0,2.0819,o2_image,1248.5773,1,1249.0651,1249.0651,1251.0656,0,0,0,0,1,,,,,,,,,,,,,,,,,,,,,,,,,,,,,,,,,,,,,,,,,,,,,,,,,,
,,5ed9ee3afd7ffe59917d3dfa,32,female,2024-04-24_11h31.55.064,stockport_simplified,2022.2.4,Win32,60.24096386,661e456ee6de07e70aa9ef7b,6628df8335cd12580fb24720,,,,,,,,,,,,,,,,,,,,,,,,,,,,,,,,,,,,,,,,,,,,,,,,,,,,,,,,1,4,64,44,1,B,X,N,o2_image,stimuli/out2.png,stimuli/out1.png,stimuli/correct_out2.png,,,,,,,,,,,,,,,,,,,,,,,,,,,,,,,,,,,,,,
,,5ed9ee3afd7ffe59917d3dfa,32,female,2024-04-24_11h31.55.064,stockport_simplified,2022.2.4,Win32,60.24096386,661e456ee6de07e70aa9ef7b,6628df8335cd12580fb24720,,,,,,,,,,,,,,,,,,,,,,,,,,,,,,,,,,1251.0667,1253.9823,"[5,2,3,6,7,1,8,4]","[[-0.3,0.2],[0.3,0.2]]","[[-0.125,-0.2],[0.125,-0.2]]",-0.084375,-0.1796875,1,0,0,2.4,o1_image,1253.9851,0,1254.4819,1254.482,1256.4839,0,0,0,0,1,,,,,,,,,,,,,,,,,,,,,,,,,,,,,,,,,,,,,,,,,,,,,,,,,,
,,5ed9ee3afd7ffe59917d3dfa,32,female,2024-04-24_11h31.55.064,stockport_simplified,2022.2.4,Win32,60.24096386,661e456ee6de07e70aa9ef7b,6628df8335cd12580fb24720,,,,,,,,,,,,,,,,,,,,,,,,,,,,,,,,,,,,,,,,,,,,,,,,,,,,,,,,1,5,65,47,1,B,Y,N,o2_image,stimuli/out2.png,stimuli/out1.png,stimuli/correct_out2.png,,,,,,,,,,,,,,,,,,,,,,,,,,,,,,,,,,,,,,
,,5ed9ee3afd7ffe59917d3dfa,32,female,2024-04-24_11h31.55.064,stockport_simplified,2022.2.4,Win32,60.24096386,661e456ee6de07e70aa9ef7b,6628df8335cd12580fb24720,,,,,,,,,,,,,,,,,,,,,,,,,,,,,,,,,,1256.4845,1258.2749,"[5,2,3,6,7,1,8,4]","[[0.3,0.2],[-0.3,0.2]]","[[-0.125,-0.2],[0.125,-0.2]]",0.061458333,-0.2109375,1,0,0,1.2749,o2_image,1258.276,1,1258.7677,1258.7678,1260.7664,0,0,0,0,1,,,,,,,,,,,,,,,,,,,,,,,,,,,,,,,,,,,,,,,,,,,,,,,,,,
,,5ed9ee3afd7ffe59917d3dfa,32,female,2024-04-24_11h31.55.064,stockport_simplified,2022.2.4,Win32,60.24096386,661e456ee6de07e70aa9ef7b,6628df8335cd12580fb24720,,,,,,,,,,,,,,,,,,,,,,,,,,,,,,,,,,,,,,,,,,,,,,,,,,,,,,,,1,6,66,19,1,B,Y,N,o2_image,stimuli/out2.png,stimuli/out1.png,stimuli/correct_out2.png,,,,,,,,,,,,,,,,,,,,,,,,,,,,,,,,,,,,,,
,,5ed9ee3afd7ffe59917d3dfa,32,female,2024-04-24_11h31.55.064,stockport_simplified,2022.2.4,Win32,60.24096386,661e456ee6de07e70aa9ef7b,6628df8335cd12580fb24720,,,,,,,,,,,,,,,,,,,,,,,,,,,,,,,,,,1260.7675,1262.6658,"[5,2,3,6,7,1,8,4]","[[-0.3,0.2],[0.3,0.2]]","[[0.125,-0.2],[-0.125,-0.2]]",0.108333333,-0.204427083,1,0,0,1.3803,o1_image,1262.6674,1,1263.1668,1263.167,1265.1658,0,0,0,0,1,,,,,,,,,,,,,,,,,,,,,,,,,,,,,,,,,,,,,,,,,,,,,,,,,,
,,5ed9ee3afd7ffe59917d3dfa,32,female,2024-04-24_11h31.55.064,stockport_simplified,2022.2.4,Win32,60.24096386,661e456ee6de07e70aa9ef7b,6628df8335cd12580fb24720,,,,,,,,,,,,,,,,,,,,,,,,,,,,,,,,,,,,,,,,,,,,,,,,,,,,,,,,1,7,67,22,1,N,M,C,o1_image,stimuli/out1.png,stimuli/correct_out1.png,stimuli/out2.png,,,,,,,,,,,,,,,,,,,,,,,,,,,,,,,,,,,,,,
,,5ed9ee3afd7ffe59917d3dfa,32,female,2024-04-24_11h31.55.064,stockport_simplified,2022.2.4,Win32,60.24096386,661e456ee6de07e70aa9ef7b,6628df8335cd12580fb24720,,,,,,,,,,,,,,,,,,,,,,,,,,,,,,,,,,1265.1665,1267.7737,"[5,2,3,6,7,1,8,4]","[[-0.3,0.2],[0.3,0.2]]","[[0.125,-0.2],[-0.125,-0.2]]",-0.141666667,-0.216145833,1,0,0,2.0896,o2_image,1267.7743,1,1268.2659,1268.2659,1270.2658,0,0,0,0,1,,,,,,,,,,,,,,,,,,,,,,,,,,,,,,,,,,,,,,,,,,,,,,,,,,
,,5ed9ee3afd7ffe59917d3dfa,32,female,2024-04-24_11h31.55.064,stockport_simplified,2022.2.4,Win32,60.24096386,661e456ee6de07e70aa9ef7b,6628df8335cd12580fb24720,,,,,,,,,,,,,,,,,,,,,,,,,,,,,,,,,,,,,,,,,,,,,,,,,,,,,,,,1,8,68,12,1,B,X,N,o2_image,stimuli/out2.png,stimuli/out1.png,stimuli/correct_out2.png,,,,,,,,,,,,,,,,,,,,,,,,,,,,,,,,,,,,,,
,,5ed9ee3afd7ffe59917d3dfa,32,female,2024-04-24_11h31.55.064,stockport_simplified,2022.2.4,Win32,60.24096386,661e456ee6de07e70aa9ef7b,6628df8335cd12580fb24720,,,,,,,,,,,,,,,,,,,,,,,,,,,,,,,,,,1270.2663,1271.9161,"[5,2,3,6,7,1,8,4]","[[-0.3,0.2],[0.3,0.2]]","[[0.125,-0.2],[-0.125,-0.2]]",0.084895833,-0.18359375,1,0,0,1.1331,o1_image,1271.9171,1,1272.4162,1272.4162,1274.4161,0,0,0,0,1,,,,,,,,,,,,,,,,,,,,,,,,,,,,,,,,,,,,,,,,,,,,,,,,,,
,,5ed9ee3afd7ffe59917d3dfa,32,female,2024-04-24_11h31.55.064,stockport_simplified,2022.2.4,Win32,60.24096386,661e456ee6de07e70aa9ef7b,6628df8335cd12580fb24720,,,,,,,,,,,,,,,,,,,,,,,,,,,,,,,,,,,,,,,,,,,,,,,,,,,,,,,,1,9,69,2,1,A,X,N,o1_image,stimuli/out1.png,stimuli/correct_out1.png,stimuli/out2.png,,,,,,,,,,,,,,,,,,,,,,,,,,,,,,,,,,,,,,
,,5ed9ee3afd7ffe59917d3dfa,32,female,2024-04-24_11h31.55.064,stockport_simplified,2022.2.4,Win32,60.24096386,661e456ee6de07e70aa9ef7b,6628df8335cd12580fb24720,,,,,,,,,,,,,,,,,,,,,,,,,,,,,,,,,,1274.4167,1277.3664,"[5,2,3,6,7,1,8,4]","[[0.3,0.2],[-0.3,0.2]]","[[-0.125,-0.2],[0.125,-0.2]]",-0.136458333,-0.178385417,1,0,0,2.4327,o1_image,1277.3676,1,1277.8663,1277.8663,1279.866,0,0,0,0,1,,,,,,,,,,,,,,,,,,,,,,,,,,,,,,,,,,,,,,,,,,,,,,,,,,
,,5ed9ee3afd7ffe59917d3dfa,32,female,2024-04-24_11h31.55.064,stockport_simplified,2022.2.4,Win32,60.24096386,661e456ee6de07e70aa9ef7b,6628df8335cd12580fb24720,,,,,,,,,,,,,,,,,,,,,,,,,,,,,,,,,,,,,,,,,,,,,,,,,,,,,,,,1,10,70,1,1,A,X,N,o1_image,stimuli/out1.png,stimuli/correct_out1.png,stimuli/out2.png,,,,,,,,,,,,,,,,,,,,,,,,,,,,,,,,,,,,,,
,,5ed9ee3afd7ffe59917d3dfa,32,female,2024-04-24_11h31.55.064,stockport_simplified,2022.2.4,Win32,60.24096386,661e456ee6de07e70aa9ef7b,6628df8335cd12580fb24720,,,,,,,,,,,,,,,,,,,,,,,,,,,,,,,,,,1279.8666,1281.8998,"[5,2,3,6,7,1,8,4]","[[-0.3,0.2],[0.3,0.2]]","[[-0.125,-0.2],[0.125,-0.2]]",-0.1234375,-0.157552083,1,0,0,1.5154,o1_image,1281.9009,1,1282.3997,1282.3997,1284.4008,0,0,0,0,1,,,,,,,,,,,,,,,,,,,,,,,,,,,,,,,,,,,,,,,,,,,,,,,,,,
,,5ed9ee3afd7ffe59917d3dfa,32,female,2024-04-24_11h31.55.064,stockport_simplified,2022.2.4,Win32,60.24096386,661e456ee6de07e70aa9ef7b,6628df8335cd12580fb24720,,,,,,,,,,,,,,,,,,,,,,,,,,,,,,,,,,,,,,,,,,,,,,,,,,,,,,,,1,11,71,51,1,N,M,C,o1_image,stimuli/out1.png,stimuli/correct_out1.png,stimuli/out2.png,,,,,,,,,,,,,,,,,,,,,,,,,,,,,,,,,,,,,,
,,5ed9ee3afd7ffe59917d3dfa,32,female,2024-04-24_11h31.55.064,stockport_simplified,2022.2.4,Win32,60.24096386,661e456ee6de07e70aa9ef7b,6628df8335cd12580fb24720,,,,,,,,,,,,,,,,,,,,,,,,,,,,,,,,,,1284.4017,1285.9743,"[5,2,3,6,7,1,8,4]","[[0.3,0.2],[-0.3,0.2]]","[[0.125,-0.2],[-0.125,-0.2]]",0.139583333,-0.190104167,1,0,0,1.0523,o1_image,1285.9751,1,1286.4675,1286.4677,1288.4704,0,0,0,0,1,,,,,,,,,,,,,,,,,,,,,,,,,,,,,,,,,,,,,,,,,,,,,,,,,,
,,5ed9ee3afd7ffe59917d3dfa,32,female,2024-04-24_11h31.55.064,stockport_simplified,2022.2.4,Win32,60.24096386,661e456ee6de07e70aa9ef7b,6628df8335cd12580fb24720,,,,,,,,,,,,,,,,,,,,,,,,,,,,,,,,,,,,,,,,,,,,,,,,,,,,,,,,1,12,72,52,1,N,M,C,o1_image,stimuli/out1.png,stimuli/correct_out1.png,stimuli/out2.png,,,,,,,,,,,,,,,,,,,,,,,,,,,,,,,,,,,,,,
,,5ed9ee3afd7ffe59917d3dfa,32,female,2024-04-24_11h31.55.064,stockport_simplified,2022.2.4,Win32,60.24096386,661e456ee6de07e70aa9ef7b,6628df8335cd12580fb24720,,,,,,,,,,,,,,,,,,,,,,,,,,,,,,,,,,1288.4713,1290.5673,"[5,2,3,6,7,1,8,4]","[[0.3,0.2],[-0.3,0.2]]","[[-0.125,-0.2],[0.125,-0.2]]",0.136979167,-0.18359375,1,0,0,1.581,o2_image,1290.5701,0,1291.0668,1291.0669,1293.0669,0,0,0,0,1,,,,,,,,,,,,,,,,,,,,,,,,,,,,,,,,,,,,,,,,,,,,,,,,,,
,,5ed9ee3afd7ffe59917d3dfa,32,female,2024-04-24_11h31.55.064,stockport_simplified,2022.2.4,Win32,60.24096386,661e456ee6de07e70aa9ef7b,6628df8335cd12580fb24720,,,,,,,,,,,,,,,,,,,,,,,,,,,,,,,,,,,,,,,,,,,,,,,,,,,,,,,,1,13,73,31,1,A,X,N,o1_image,stimuli/out1.png,stimuli/correct_out1.png,stimuli/out2.png,,,,,,,,,,,,,,,,,,,,,,,,,,,,,,,,,,,,,,
,,5ed9ee3afd7ffe59917d3dfa,32,female,2024-04-24_11h31.55.064,stockport_simplified,2022.2.4,Win32,60.24096386,661e456ee6de07e70aa9ef7b,6628df8335cd12580fb24720,,,,,,,,,,,,,,,,,,,,,,,,,,,,,,,,,,1293.0676,1294.8172,"[5,2,3,6,7,1,8,4]","[[-0.3,0.2],[0.3,0.2]]","[[0.125,-0.2],[-0.125,-0.2]]",0.151302083,-0.139322917,1,0,0,1.2328,o1_image,1294.8183,1,1295.317,1295.317,1297.3176,0,0,0,0,1,,,,,,,,,,,,,,,,,,,,,,,,,,,,,,,,,,,,,,,,,,,,,,,,,,
,,5ed9ee3afd7ffe59917d3dfa,32,female,2024-04-24_11h31.55.064,stockport_simplified,2022.2.4,Win32,60.24096386,661e456ee6de07e70aa9ef7b,6628df8335cd12580fb24720,,,,,,,,,,,,,,,,,,,,,,,,,,,,,,,,,,,,,,,,,,,,,,,,,,,,,,,,1,14,74,34,1,A,X,N,o1_image,stimuli/out1.png,stimuli/correct_out1.png,stimuli/out2.png,,,,,,,,,,,,,,,,,,,,,,,,,,,,,,,,,,,,,,
,,5ed9ee3afd7ffe59917d3dfa,32,female,2024-04-24_11h31.55.064,stockport_simplified,2022.2.4,Win32,60.24096386,661e456ee6de07e70aa9ef7b,6628df8335cd12580fb24720,,,,,,,,,,,,,,,,,,,,,,,,,,,,,,,,,,1297.3187,1298.9007,"[5,2,3,6,7,1,8,4]","[[-0.3,0.2],[0.3,0.2]]","[[-0.125,-0.2],[0.125,-0.2]]",-0.04921875,-0.1796875,1,0,0,1.0664,o1_image,1298.9023,1,1299.4003,1299.4003,1301.4007,0,0,0,0,1,,,,,,,,,,,,,,,,,,,,,,,,,,,,,,,,,,,,,,,,,,,,,,,,,,
,,5ed9ee3afd7ffe59917d3dfa,32,female,2024-04-24_11h31.55.064,stockport_simplified,2022.2.4,Win32,60.24096386,661e456ee6de07e70aa9ef7b,6628df8335cd12580fb24720,,,,,,,,,,,,,,,,,,,,,,,,,,,,,,,,,,,,,,,,,,,,,,,,,,,,,,,,1,15,75,3,1,A,X,N,o1_image,stimuli/out1.png,stimuli/correct_out1.png,stimuli/out2.png,,,,,,,,,,,,,,,,,,,,,,,,,,,,,,,,,,,,,,
,,5ed9ee3afd7ffe59917d3dfa,32,female,2024-04-24_11h31.55.064,stockport_simplified,2022.2.4,Win32,60.24096386,661e456ee6de07e70aa9ef7b,6628df8335cd12580fb24720,,,,,,,,,,,,,,,,,,,,,,,,,,,,,,,,,,1301.4016,1303.1009,"[5,2,3,6,7,1,8,4]","[[-0.3,0.2],[0.3,0.2]]","[[-0.125,-0.2],[0.125,-0.2]]",-0.094791667,-0.151041667,1,0,0,1.1823,o1_image,1303.1028,1,1303.6005,1303.6006,1305.6012,0,0,0,0,1,,,,,,,,,,,,,,,,,,,,,,,,,,,,,,,,,,,,,,,,,,,,,,,,,,
,,5ed9ee3afd7ffe59917d3dfa,32,female,2024-04-24_11h31.55.064,stockport_simplified,2022.2.4,Win32,60.24096386,661e456ee6de07e70aa9ef7b,6628df8335cd12580fb24720,,,,,,,,,,,,,,,,,,,,,,,,,,,,,,,,,,,,,,,,,,,,,,,,,,,,,,,,1,16,76,53,1,N,M,C,o1_image,stimuli/out1.png,stimuli/correct_out1.png,stimuli/out2.png,,,,,,,,,,,,,,,,,,,,,,,,,,,,,,,,,,,,,,
,,5ed9ee3afd7ffe59917d3dfa,32,female,2024-04-24_11h31.55.064,stockport_simplified,2022.2.4,Win32,60.24096386,661e456ee6de07e70aa9ef7b,6628df8335cd12580fb24720,,,,,,,,,,,,,,,,,,,,,,,,,,,,,,,,,,1305.6027,1307.8677,"[5,2,3,6,7,1,8,4]","[[-0.3,0.2],[0.3,0.2]]","[[-0.125,-0.2],[0.125,-0.2]]",-0.08828125,-0.184895833,1,0,0,1.7493,o1_image,1307.869,0,1308.3579,1308.3579,1310.3511,0,0,0,0,1,,,,,,,,,,,,,,,,,,,,,,,,,,,,,,,,,,,,,,,,,,,,,,,,,,
,,5ed9ee3afd7ffe59917d3dfa,32,female,2024-04-24_11h31.55.064,stockport_simplified,2022.2.4,Win32,60.24096386,661e456ee6de07e70aa9ef7b,6628df8335cd12580fb24720,,,,,,,,,,,,,,,,,,,,,,,,,,,,,,,,,,,,,,,,,,,,,,,,,,,,,,,,1,17,77,48,1,B,Y,N,o2_image,stimuli/out2.png,stimuli/out1.png,stimuli/correct_out2.png,,,,,,,,,,,,,,,,,,,,,,,,,,,,,,,,,,,,,,
,,5ed9ee3afd7ffe59917d3dfa,32,female,2024-04-24_11h31.55.064,stockport_simplified,2022.2.4,Win32,60.24096386,661e456ee6de07e70aa9ef7b,6628df8335cd12580fb24720,,,,,,,,,,,,,,,,,,,,,,,,,,,,,,,,,,1310.3516,1312.343,"[5,2,3,6,7,1,8,4]","[[-0.3,0.2],[0.3,0.2]]","[[0.125,-0.2],[-0.125,-0.2]]",-0.08828125,-0.19921875,1,0,0,1.4743,o2_image,1312.3435,0,1312.8415,1312.8415,1314.8344,0,0,0,0,1,,,,,,,,,,,,,,,,,,,,,,,,,,,,,,,,,,,,,,,,,,,,,,,,,,
,,5ed9ee3afd7ffe59917d3dfa,32,female,2024-04-24_11h31.55.064,stockport_simplified,2022.2.4,Win32,60.24096386,661e456ee6de07e70aa9ef7b,6628df8335cd12580fb24720,,,,,,,,,,,,,,,,,,,,,,,,,,,,,,,,,,,,,,,,,,,,,,,,,,,,,,,,1,18,78,37,1,A,Y,N,o1_image,stimuli/out1.png,stimuli/correct_out1.png,stimuli/out2.png,,,,,,,,,,,,,,,,,,,,,,,,,,,,,,,,,,,,,,
,,5ed9ee3afd7ffe59917d3dfa,32,female,2024-04-24_11h31.55.064,stockport_simplified,2022.2.4,Win32,60.24096386,661e456ee6de07e70aa9ef7b,6628df8335cd12580fb24720,,,,,,,,,,,,,,,,,,,,,,,,,,,,,,,,,,1314.8349,1316.9925,"[5,2,3,6,7,1,8,4]","[[-0.3,0.2],[0.3,0.2]]","[[0.125,-0.2],[-0.125,-0.2]]",-0.133854167,-0.208333333,1,0,0,1.6398,o2_image,1316.9932,1,1317.4847,1317.4849,1319.4849,0,0,0,0,1,,,,,,,,,,,,,,,,,,,,,,,,,,,,,,,,,,,,,,,,,,,,,,,,,,
,,5ed9ee3afd7ffe59917d3dfa,32,female,2024-04-24_11h31.55.064,stockport_simplified,2022.2.4,Win32,60.24096386,661e456ee6de07e70aa9ef7b,6628df8335cd12580fb24720,,,,,,,,,,,,,,,,,,,,,,,,,,,,,,,,,,,,,,,,,,,,,,,,,,,,,,,,1,19,79,55,1,N,M,D,o2_image,stimuli/out2.png,stimuli/out1.png,stimuli/correct_out2.png,,,,,,,,,,,,,,,,,,,,,,,,,,,,,,,,,,,,,,
,,5ed9ee3afd7ffe59917d3dfa,32,female,2024-04-24_11h31.55.064,stockport_simplified,2022.2.4,Win32,60.24096386,661e456ee6de07e70aa9ef7b,6628df8335cd12580fb24720,,,,,,,,,,,,,,,,,,,,,,,,,,,,,,,,,,1319.4857,1322.2263,"[5,2,3,6,7,1,8,4]","[[0.3,0.2],[-0.3,0.2]]","[[0.125,-0.2],[-0.125,-0.2]]",-0.145572917,-0.1796875,1,0,0,2.2233,o2_image,1322.2269,0,1322.7184,1322.7185,1324.7182,0,0,0,0,1,,,,,,,,,,,,,,,,,,,,,,,,,,,,,,,,,,,,,,,,,,,,,,,,,,
,,5ed9ee3afd7ffe59917d3dfa,32,female,2024-04-24_11h31.55.064,stockport_simplified,2022.2.4,Win32,60.24096386,661e456ee6de07e70aa9ef7b,6628df8335cd12580fb24720,,,,,,,,,,,,,,,,,,,,,,,,,,,,,,,,,,,,,,,,,,,,,,,,,,,,,,,,1,20,80,38,1,A,Y,N,o1_image,stimuli/out1.png,stimuli/correct_out1.png,stimuli/out2.png,,,,,,,,,,,,,,,,,,,,,,,,,,,,,,,,,,,,,,
,,5ed9ee3afd7ffe59917d3dfa,32,female,2024-04-24_11h31.55.064,stockport_simplified,2022.2.4,Win32,60.24096386,661e456ee6de07e70aa9ef7b,6628df8335cd12580fb24720,,,,,,,,,,,,,,,,,,,,,,,,,,,,,,,,,,1324.7187,1326.3855,"[5,2,3,6,7,1,8,4]","[[-0.3,0.2],[0.3,0.2]]","[[0.125,-0.2],[-0.125,-0.2]]",0.136979167,-0.213541667,1,0,0,1.1481,o1_image,1326.3871,1,1326.8849,1326.885,1328.8852,0,0,0,0,1,,,,,,,,,,,,,,,,,,,,,,,,,,,,,,,,,,,,,,,,,,,,,,,,,,
,,5ed9ee3afd7ffe59917d3dfa,32,female,2024-04-24_11h31.55.064,stockport_simplified,2022.2.4,Win32,60.24096386,661e456ee6de07e70aa9ef7b,6628df8335cd12580fb24720,,,,,,,,,,,,,,,,,,,,,,,,,,,,,,,,,,,,,,,,,,,,,,,,,,,,,,,,1,21,81,23,1,N,M,C,o1_image,stimuli/out1.png,stimuli/correct_out1.png,stimuli/out2.png,,,,,,,,,,,,,,,,,,,,,,,,,,,,,,,,,,,,,,
,,5ed9ee3afd7ffe59917d3dfa,32,female,2024-04-24_11h31.55.064,stockport_simplified,2022.2.4,Win32,60.24096386,661e456ee6de07e70aa9ef7b,6628df8335cd12580fb24720,,,,,,,,,,,,,,,,,,,,,,,,,,,,,,,,,,1328.8858,1331.0858,"[5,2,3,6,7,1,8,4]","[[0.3,0.2],[-0.3,0.2]]","[[0.125,-0.2],[-0.125,-0.2]]",0.11875,-0.208333333,1,0,0,1.6826,o1_image,1331.0879,1,1331.5851,1331.5852,1333.5861,0,0,0,0,1,,,,,,,,,,,,,,,,,,,,,,,,,,,,,,,,,,,,,,,,,,,,,,,,,,
,,5ed9ee3afd7ffe59917d3dfa,32,female,2024-04-24_11h31.55.064,stockport_simplified,2022.2.4,Win32,60.24096386,661e456ee6de07e70aa9ef7b,6628df8335cd12580fb24720,,,,,,,,,,,,,,,,,,,,,,,,,,,,,,,,,,,,,,,,,,,,,,,,,,,,,,,,1,22,82,5,1,A,Y,N,o1_image,stimuli/out1.png,stimuli/correct_out1.png,stimuli/out2.png,,,,,,,,,,,,,,,,,,,,,,,,,,,,,,,,,,,,,,
,,5ed9ee3afd7ffe59917d3dfa,32,female,2024-04-24_11h31.55.064,stockport_simplified,2022.2.4,Win32,60.24096386,661e456ee6de07e70aa9ef7b,6628df8335cd12580fb24720,,,,,,,,,,,,,,,,,,,,,,,,,,,,,,,,,,1333.5873,1335.2938,"[5,2,3,6,7,1,8,4]","[[0.3,0.2],[-0.3,0.2]]","[[-0.125,-0.2],[0.125,-0.2]]",0.134375,-0.240885417,1,0,0,1.1899,o2_image,1335.2947,0,1335.7929,1335.793,1337.7868,0,0,0,0,1,,,,,,,,,,,,,,,,,,,,,,,,,,,,,,,,,,,,,,,,,,,,,,,,,,
,,5ed9ee3afd7ffe59917d3dfa,32,female,2024-04-24_11h31.55.064,stockport_simplified,2022.2.4,Win32,60.24096386,661e456ee6de07e70aa9ef7b,6628df8335cd12580fb24720,,,,,,,,,,,,,,,,,,,,,,,,,,,,,,,,,,,,,,,,,,,,,,,,,,,,,,,,1,23,83,39,1,A,Y,N,o1_image,stimuli/out1.png,stimuli/correct_out1.png,stimuli/out2.png,,,,,,,,,,,,,,,,,,,,,,,,,,,,,,,,,,,,,,
,,5ed9ee3afd7ffe59917d3dfa,32,female,2024-04-24_11h31.55.064,stockport_simplified,2022.2.4,Win32,60.24096386,661e456ee6de07e70aa9ef7b,6628df8335cd12580fb24720,,,,,,,,,,,,,,,,,,,,,,,,,,,,,,,,,,1337.7877,1339.6938,"[5,2,3,6,7,1,8,4]","[[0.3,0.2],[-0.3,0.2]]","[[-0.125,-0.2],[0.125,-0.2]]",0.120052083,-0.20703125,1,0,0,1.3889,o2_image,1339.6943,1,1340.1854,1340.1855,1342.1855,0,0,0,0,1,,,,,,,,,,,,,,,,,,,,,,,,,,,,,,,,,,,,,,,,,,,,,,,,,,
,,5ed9ee3afd7ffe59917d3dfa,32,female,2024-04-24_11h31.55.064,stockport_simplified,2022.2.4,Win32,60.24096386,661e456ee6de07e70aa9ef7b,6628df8335cd12580fb24720,,,,,,,,,,,,,,,,,,,,,,,,,,,,,,,,,,,,,,,,,,,,,,,,,,,,,,,,1,24,84,14,1,B,X,N,o2_image,stimuli/out2.png,stimuli/out1.png,stimuli/correct_out2.png,,,,,,,,,,,,,,,,,,,,,,,,,,,,,,,,,,,,,,
,,5ed9ee3afd7ffe59917d3dfa,32,female,2024-04-24_11h31.55.064,stockport_simplified,2022.2.4,Win32,60.24096386,661e456ee6de07e70aa9ef7b,6628df8335cd12580fb24720,,,,,,,,,,,,,,,,,,,,,,,,,,,,,,,,,,1342.186,1344.3024,"[5,2,3,6,7,1,8,4]","[[0.3,0.2],[-0.3,0.2]]","[[-0.125,-0.2],[0.125,-0.2]]",0.105729167,-0.225260417,1,0,0,1.5997,o2_image,1344.3042,1,1344.8023,1344.8024,1346.8025,0,0,0,0,1,,,,,,,,,,,,,,,,,,,,,,,,,,,,,,,,,,,,,,,,,,,,,,,,,,
,,5ed9ee3afd7ffe59917d3dfa,32,female,2024-04-24_11h31.55.064,stockport_simplified,2022.2.4,Win32,60.24096386,661e456ee6de07e70aa9ef7b,6628df8335cd12580fb24720,,,,,,,,,,,,,,,,,,,,,,,,,,,,,,,,,,,,,,,,,,,,,,,,,,,,,,,,1,25,85,28,1,N,M,D,o2_image,stimuli/out2.png,stimuli/out1.png,stimuli/correct_out2.png,,,,,,,,,,,,,,,,,,,,,,,,,,,,,,,,,,,,,,
,,5ed9ee3afd7ffe59917d3dfa,32,female,2024-04-24_11h31.55.064,stockport_simplified,2022.2.4,Win32,60.24096386,661e456ee6de07e70aa9ef7b,6628df8335cd12580fb24720,,,,,,,,,,,,,,,,,,,,,,,,,,,,,,,,,,1346.803,1348.4197,"[5,2,3,6,7,1,8,4]","[[-0.3,0.2],[0.3,0.2]]","[[-0.125,-0.2],[0.125,-0.2]]",-0.102604167,-0.16015625,1,0,0,1.0995,o1_image,1348.4223,1,1348.9194,1348.9195,1350.9197,0,0,0,0,1,,,,,,,,,,,,,,,,,,,,,,,,,,,,,,,,,,,,,,,,,,,,,,,,,,
,,5ed9ee3afd7ffe59917d3dfa,32,female,2024-04-24_11h31.55.064,stockport_simplified,2022.2.4,Win32,60.24096386,661e456ee6de07e70aa9ef7b,6628df8335cd12580fb24720,,,,,,,,,,,,,,,,,,,,,,,,,,,,,,,,,,,,,,,,,,,,,,,,,,,,,,,,1,26,86,20,1,N,M,C,o1_image,stimuli/out1.png,stimuli/correct_out1.png,stimuli/out2.png,,,,,,,,,,,,,,,,,,,,,,,,,,,,,,,,,,,,,,
,,5ed9ee3afd7ffe59917d3dfa,32,female,2024-04-24_11h31.55.064,stockport_simplified,2022.2.4,Win32,60.24096386,661e456ee6de07e70aa9ef7b,6628df8335cd12580fb24720,,,,,,,,,,,,,,,,,,,,,,,,,,,,,,,,,,1350.9209,1353.4694,"[5,2,3,6,7,1,8,4]","[[0.3,0.2],[-0.3,0.2]]","[[-0.125,-0.2],[0.125,-0.2]]",-0.114322917,-0.151041667,1,0,0,2.0322,o1_image,1353.4706,0,1353.9705,1353.9707,1355.9693,0,0,0,0,1,,,,,,,,,,,,,,,,,,,,,,,,,,,,,,,,,,,,,,,,,,,,,,,,,,
,,5ed9ee3afd7ffe59917d3dfa,32,female,2024-04-24_11h31.55.064,stockport_simplified,2022.2.4,Win32,60.24096386,661e456ee6de07e70aa9ef7b,6628df8335cd12580fb24720,,,,,,,,,,,,,,,,,,,,,,,,,,,,,,,,,,,,,,,,,,,,,,,,,,,,,,,,1,27,87,49,1,B,Y,N,o2_image,stimuli/out2.png,stimuli/out1.png,stimuli/correct_out2.png,,,,,,,,,,,,,,,,,,,,,,,,,,,,,,,,,,,,,,
,,5ed9ee3afd7ffe59917d3dfa,32,female,2024-04-24_11h31.55.064,stockport_simplified,2022.2.4,Win32,60.24096386,661e456ee6de07e70aa9ef7b,6628df8335cd12580fb24720,,,,,,,,,,,,,,,,,,,,,,,,,,,,,,,,,,1355.97,1358.0372,"[5,2,3,6,7,1,8,4]","[[-0.3,0.2],[0.3,0.2]]","[[0.125,-0.2],[-0.125,-0.2]]",-0.128645833,-0.221354167,1,0,0,1.5497,o2_image,1358.0396,1,1358.5363,1358.5363,1360.5444,0,0,0,0,1,,,,,,,,,,,,,,,,,,,,,,,,,,,,,,,,,,,,,,,,,,,,,,,,,,
,,5ed9ee3afd7ffe59917d3dfa,32,female,2024-04-24_11h31.55.064,stockport_simplified,2022.2.4,Win32,60.24096386,661e456ee6de07e70aa9ef7b,6628df8335cd12580fb24720,,,,,,,,,,,,,,,,,,,,,,,,,,,,,,,,,,,,,,,,,,,,,,,,,,,,,,,,1,28,88,10,1,B,X,N,o2_image,stimuli/out2.png,stimuli/out1.png,stimuli/correct_out2.png,,,,,,,,,,,,,,,,,,,,,,,,,,,,,,,,,,,,,,
,,5ed9ee3afd7ffe59917d3dfa,32,female,2024-04-24_11h31.55.064,stockport_simplified,2022.2.4,Win32,60.24096386,661e456ee6de07e70aa9ef7b,6628df8335cd12580fb24720,,,,,,,,,,,,,,,,,,,,,,,,,,,,,,,,,,1360.5455,1362.6282,"[5,2,3,6,7,1,8,4]","[[-0.3,0.2],[0.3,0.2]]","[[0.125,-0.2],[-0.125,-0.2]]",-0.071354167,-0.162760417,1,0,0,1.5733,o2_image,1362.6291,1,1363.1268,1363.1269,1365.1247,0,0,0,0,1,,,,,,,,,,,,,,,,,,,,,,,,,,,,,,,,,,,,,,,,,,,,,,,,,,
,,5ed9ee3afd7ffe59917d3dfa,32,female,2024-04-24_11h31.55.064,stockport_simplified,2022.2.4,Win32,60.24096386,661e456ee6de07e70aa9ef7b,6628df8335cd12580fb24720,,,,,,,,,,,,,,,,,,,,,,,,,,,,,,,,,,,,,,,,,,,,,,,,,,,,,,,,1,29,89,11,1,B,X,N,o2_image,stimuli/out2.png,stimuli/out1.png,stimuli/correct_out2.png,,,,,,,,,,,,,,,,,,,,,,,,,,,,,,,,,,,,,,
,,5ed9ee3afd7ffe59917d3dfa,32,female,2024-04-24_11h31.55.064,stockport_simplified,2022.2.4,Win32,60.24096386,661e456ee6de07e70aa9ef7b,6628df8335cd12580fb24720,,,,,,,,,,,,,,,,,,,,,,,,,,,,,,,,,,1365.1251,1366.9777,"[5,2,3,6,7,1,8,4]","[[-0.3,0.2],[0.3,0.2]]","[[-0.125,-0.2],[0.125,-0.2]]",-0.084375,-0.145833333,1,0,0,1.3387,o1_image,1366.9783,0,1367.4784,1367.4784,1369.4708,0,0,0,0,1,,,,,,,,,,,,,,,,,,,,,,,,,,,,,,,,,,,,,,,,,,,,,,,,,,
,,5ed9ee3afd7ffe59917d3dfa,32,female,2024-04-24_11h31.55.064,stockport_simplified,2022.2.4,Win32,60.24096386,661e456ee6de07e70aa9ef7b,6628df8335cd12580fb24720,,,,,,,,,,,,,,,,,,,,,,,,,,,,,,,,,,,,,,,,,,,,,,,,,,,,,,,,1,30,90,18,1,B,Y,N,o2_image,stimuli/out2.png,stimuli/out1.png,stimuli/correct_out2.png,,,,,,,,,,,,,,,,,,,,,,,,,,,,,,,,,,,,,,
,,5ed9ee3afd7ffe59917d3dfa,32,female,2024-04-24_11h31.55.064,stockport_simplified,2022.2.4,Win32,60.24096386,661e456ee6de07e70aa9ef7b,6628df8335cd12580fb24720,,,,,,,,,,,,,,,,,,,,,,,,,,,,,,,,,,1369.4723,1371.2547,"[5,2,3,6,7,1,8,4]","[[-0.3,0.2],[0.3,0.2]]","[[-0.125,-0.2],[0.125,-0.2]]",0.077083333,-0.161458333,1,0,0,1.2668,o2_image,1371.2567,1,1371.7536,1371.7536,1373.7536,0,0,0,0,1,,,,,,,,,,,,,,,,,,,,,,,,,,,,,,,,,,,,,,,,,,,,,,,,,,
,,5ed9ee3afd7ffe59917d3dfa,32,female,2024-04-24_11h31.55.064,stockport_simplified,2022.2.4,Win32,60.24096386,661e456ee6de07e70aa9ef7b,6628df8335cd12580fb24720,,,,,,,,,,,,,,,,,,,,,,,,,,,,,,,,,,,,,,,,,,,,,,,,,,,,,,,,1,31,91,27,1,N,M,D,o2_image,stimuli/out2.png,stimuli/out1.png,stimuli/correct_out2.png,,,,,,,,,,,,,,,,,,,,,,,,,,,,,,,,,,,,,,
,,5ed9ee3afd7ffe59917d3dfa,32,female,2024-04-24_11h31.55.064,stockport_simplified,2022.2.4,Win32,60.24096386,661e456ee6de07e70aa9ef7b,6628df8335cd12580fb24720,,,,,,,,,,,,,,,,,,,,,,,,,,,,,,,,,,1373.7541,1375.1205,"[5,2,3,6,7,1,8,4]","[[0.3,0.2],[-0.3,0.2]]","[[-0.125,-0.2],[0.125,-0.2]]",0.097916667,-0.200520833,1,0,0,0.85,o2_image,1375.1215,1,1375.6202,1375.6203,1377.621,0,0,0,0,1,,,,,,,,,,,,,,,,,,,,,,,,,,,,,,,,,,,,,,,,,,,,,,,,,,
,,5ed9ee3afd7ffe59917d3dfa,32,female,2024-04-24_11h31.55.064,stockport_simplified,2022.2.4,Win32,60.24096386,661e456ee6de07e70aa9ef7b,6628df8335cd12580fb24720,,,,,,,,,,,,,,,,,,,,,,,,,,,,,,,,,,,,,,,,,,,,,,,,,,,,,,,,1,32,92,25,1,N,M,D,o2_image,stimuli/out2.png,stimuli/out1.png,stimuli/correct_out2.png,,,,,,,,,,,,,,,,,,,,,,,,,,,,,,,,,,,,,,
,,5ed9ee3afd7ffe59917d3dfa,32,female,2024-04-24_11h31.55.064,stockport_simplified,2022.2.4,Win32,60.24096386,661e456ee6de07e70aa9ef7b,6628df8335cd12580fb24720,,,,,,,,,,,,,,,,,,,,,,,,,,,,,,,,,,1377.6221,1379.2708,"[5,2,3,6,7,1,8,4]","[[-0.3,0.2],[0.3,0.2]]","[[0.125,-0.2],[-0.125,-0.2]]",-0.157291667,-0.203125,1,0,0,1.1327,o2_image,1379.2722,1,1379.7703,1379.7704,1381.7711,0,0,0,0,1,,,,,,,,,,,,,,,,,,,,,,,,,,,,,,,,,,,,,,,,,,,,,,,,,,
,,5ed9ee3afd7ffe59917d3dfa,32,female,2024-04-24_11h31.55.064,stockport_simplified,2022.2.4,Win32,60.24096386,661e456ee6de07e70aa9ef7b,6628df8335cd12580fb24720,,,,,,,,,,,,,,,,,,,,,,,,,,,,,,,,,,,,,,,,,,,,,,,,,,,,,,,,1,33,93,56,1,N,M,D,o2_image,stimuli/out2.png,stimuli/out1.png,stimuli/correct_out2.png,,,,,,,,,,,,,,,,,,,,,,,,,,,,,,,,,,,,,,
,,5ed9ee3afd7ffe59917d3dfa,32,female,2024-04-24_11h31.55.064,stockport_simplified,2022.2.4,Win32,60.24096386,661e456ee6de07e70aa9ef7b,6628df8335cd12580fb24720,,,,,,,,,,,,,,,,,,,,,,,,,,,,,,,,,,1381.7722,1383.3782,"[5,2,3,6,7,1,8,4]","[[0.3,0.2],[-0.3,0.2]]","[[-0.125,-0.2],[0.125,-0.2]]",-0.110416667,-0.158854167,1,0,0,1.0902,o1_image,1383.3789,1,1383.8731,1383.8731,1385.8792,0,0,0,0,1,,,,,,,,,,,,,,,,,,,,,,,,,,,,,,,,,,,,,,,,,,,,,,,,,,
,,5ed9ee3afd7ffe59917d3dfa,32,female,2024-04-24_11h31.55.064,stockport_simplified,2022.2.4,Win32,60.24096386,661e456ee6de07e70aa9ef7b,6628df8335cd12580fb24720,,,,,,,,,,,,,,,,,,,,,,,,,,,,,,,,,,,,,,,,,,,,,,,,,,,,,,,,1,34,94,54,1,N,M,C,o1_image,stimuli/out1.png,stimuli/correct_out1.png,stimuli/out2.png,,,,,,,,,,,,,,,,,,,,,,,,,,,,,,,,,,,,,,
,,5ed9ee3afd7ffe59917d3dfa,32,female,2024-04-24_11h31.55.064,stockport_simplified,2022.2.4,Win32,60.24096386,661e456ee6de07e70aa9ef7b,6628df8335cd12580fb24720,,,,,,,,,,,,,,,,,,,,,,,,,,,,,,,,,,1385.8803,1388.0043,"[5,2,3,6,7,1,8,4]","[[-0.3,0.2],[0.3,0.2]]","[[-0.125,-0.2],[0.125,-0.2]]",-0.102604167,-0.161458333,1,0,0,1.6106,o1_image,1388.0053,0,1388.4947,1388.4947,1390.4882,0,0,0,0,1,,,,,,,,,,,,,,,,,,,,,,,,,,,,,,,,,,,,,,,,,,,,,,,,,,
,,5ed9ee3afd7ffe59917d3dfa,32,female,2024-04-24_11h31.55.064,stockport_simplified,2022.2.4,Win32,60.24096386,661e456ee6de07e70aa9ef7b,6628df8335cd12580fb24720,,,,,,,,,,,,,,,,,,,,,,,,,,,,,,,,,,,,,,,,,,,,,,,,,,,,,,,,1,35,95,16,1,B,Y,N,o2_image,stimuli/out2.png,stimuli/out1.png,stimuli/correct_out2.png,,,,,,,,,,,,,,,,,,,,,,,,,,,,,,,,,,,,,,
,,5ed9ee3afd7ffe59917d3dfa,32,female,2024-04-24_11h31.55.064,stockport_simplified,2022.2.4,Win32,60.24096386,661e456ee6de07e70aa9ef7b,6628df8335cd12580fb24720,,,,,,,,,,,,,,,,,,,,,,,,,,,,,,,,,,1390.4893,1393.1211,"[5,2,3,6,7,1,8,4]","[[0.3,0.2],[-0.3,0.2]]","[[0.125,-0.2],[-0.125,-0.2]]",-0.14296875,-0.21875,1,0,0,2.1168,o2_image,1393.1338,1,1393.6378,1393.6378,1395.6379,0,0,0,0,1,,,,,,,,,,,,,,,,,,,,,,,,,,,,,,,,,,,,,,,,,,,,,,,,,,
,,5ed9ee3afd7ffe59917d3dfa,32,female,2024-04-24_11h31.55.064,stockport_simplified,2022.2.4,Win32,60.24096386,661e456ee6de07e70aa9ef7b,6628df8335cd12580fb24720,,,,,,,,,,,,,,,,,,,,,,,,,,,,,,,,,,,,,,,,,,,,,,,,,,,,,,,,1,36,96,46,1,B,Y,N,o2_image,stimuli/out2.png,stimuli/out1.png,stimuli/correct_out2.png,,,,,,,,,,,,,,,,,,,,,,,,,,,,,,,,,,,,,,
,,5ed9ee3afd7ffe59917d3dfa,32,female,2024-04-24_11h31.55.064,stockport_simplified,2022.2.4,Win32,60.24096386,661e456ee6de07e70aa9ef7b,6628df8335cd12580fb24720,,,,,,,,,,,,,,,,,,,,,,,,,,,,,,,,,,1395.6384,1398.5549,"[5,2,3,6,7,1,8,4]","[[0.3,0.2],[-0.3,0.2]]","[[0.125,-0.2],[-0.125,-0.2]]",0.077083333,-0.229166667,1,0,0,2.3999,o1_image,1398.5559,0,1399.0545,1399.0546,1401.0563,0,0,0,0,1,,,,,,,,,,,,,,,,,,,,,,,,,,,,,,,,,,,,,,,,,,,,,,,,,,
,,5ed9ee3afd7ffe59917d3dfa,32,female,2024-04-24_11h31.55.064,stockport_simplified,2022.2.4,Win32,60.24096386,661e456ee6de07e70aa9ef7b,6628df8335cd12580fb24720,,,,,,,,,,,,,,,,,,,,,,,,,,,,,,,,,,,,,,,,,,,,,,,,,,,,,,,,1,37,97,43,1,B,X,N,o2_image,stimuli/out2.png,stimuli/out1.png,stimuli/correct_out2.png,,,,,,,,,,,,,,,,,,,,,,,,,,,,,,,,,,,,,,
,,5ed9ee3afd7ffe59917d3dfa,32,female,2024-04-24_11h31.55.064,stockport_simplified,2022.2.4,Win32,60.24096386,661e456ee6de07e70aa9ef7b,6628df8335cd12580fb24720,,,,,,,,,,,,,,,,,,,,,,,,,,,,,,,,,,1401.0569,1402.8384,"[5,2,3,6,7,1,8,4]","[[0.3,0.2],[-0.3,0.2]]","[[0.125,-0.2],[-0.125,-0.2]]",-0.094791667,-0.190104167,1,0,0,1.2644,o2_image,1402.8408,1,1403.3451,1403.3453,1405.3389,0,0,0,0,1,,,,,,,,,,,,,,,,,,,,,,,,,,,,,,,,,,,,,,,,,,,,,,,,,,
,,5ed9ee3afd7ffe59917d3dfa,32,female,2024-04-24_11h31.55.064,stockport_simplified,2022.2.4,Win32,60.24096386,661e456ee6de07e70aa9ef7b,6628df8335cd12580fb24720,,,,,,,,,,,,,,,,,,,,,,,,,,,,,,,,,,,,,,,,,,,,,,,,,,,,,,,,1,38,98,57,1,N,M,D,o2_image,stimuli/out2.png,stimuli/out1.png,stimuli/correct_out2.png,,,,,,,,,,,,,,,,,,,,,,,,,,,,,,,,,,,,,,
,,5ed9ee3afd7ffe59917d3dfa,32,female,2024-04-24_11h31.55.064,stockport_simplified,2022.2.4,Win32,60.24096386,661e456ee6de07e70aa9ef7b,6628df8335cd12580fb24720,,,,,,,,,,,,,,,,,,,,,,,,,,,,,,,,,,1405.3401,1407.2219,"[5,2,3,6,7,1,8,4]","[[0.3,0.2],[-0.3,0.2]]","[[0.125,-0.2],[-0.125,-0.2]]",0.11875,-0.145833333,1,0,0,1.3648,o1_image,1407.2235,0,1407.7295,1407.7295,1409.7218,0,0,0,0,1,,,,,,,,,,,,,,,,,,,,,,,,,,,,,,,,,,,,,,,,,,,,,,,,,,
,,5ed9ee3afd7ffe59917d3dfa,32,female,2024-04-24_11h31.55.064,stockport_simplified,2022.2.4,Win32,60.24096386,661e456ee6de07e70aa9ef7b,6628df8335cd12580fb24720,,,,,,,,,,,,,,,,,,,,,,,,,,,,,,,,,,,,,,,,,,,,,,,,,,,,,,,,1,39,99,13,1,B,X,N,o2_image,stimuli/out2.png,stimuli/out1.png,stimuli/correct_out2.png,,,,,,,,,,,,,,,,,,,,,,,,,,,,,,,,,,,,,,
,,5ed9ee3afd7ffe59917d3dfa,32,female,2024-04-24_11h31.55.064,stockport_simplified,2022.2.4,Win32,60.24096386,661e456ee6de07e70aa9ef7b,6628df8335cd12580fb24720,,,,,,,,,,,,,,,,,,,,,,,,,,,,,,,,,,1409.7225,1412.0555,"[5,2,3,6,7,1,8,4]","[[0.3,0.2],[-0.3,0.2]]","[[-0.125,-0.2],[0.125,-0.2]]",0.112239583,-0.227864583,1,0,0,1.8158,o2_image,1412.0572,1,1412.5552,1412.5552,1414.5562,0,0,0,0,1,,,,,,,,,,,,,,,,,,,,,,,,,,,,,,,,,,,,,,,,,,,,,,,,,,
,,5ed9ee3afd7ffe59917d3dfa,32,female,2024-04-24_11h31.55.064,stockport_simplified,2022.2.4,Win32,60.24096386,661e456ee6de07e70aa9ef7b,6628df8335cd12580fb24720,,,,,,,,,,,,,,,,,,,,,,,,,,,,,,,,,,,,,,,,,,,,,,,,,,,,,,,,1,40,100,45,1,B,Y,N,o2_image,stimuli/out2.png,stimuli/out1.png,stimuli/correct_out2.png,,,,,,,,,,,,,,,,,,,,,,,,,,,,,,,,,,,,,,
,,5ed9ee3afd7ffe59917d3dfa,32,female,2024-04-24_11h31.55.064,stockport_simplified,2022.2.4,Win32,60.24096386,661e456ee6de07e70aa9ef7b,6628df8335cd12580fb24720,,,,,,,,,,,,,,,,,,,,,,,,,,,,,,,,,,1414.5578,1416.8558,"[5,2,3,6,7,1,8,4]","[[0.3,0.2],[-0.3,0.2]]","[[0.125,-0.2],[-0.125,-0.2]]",0.131770833,-0.19921875,1,0,0,1.7834,o1_image,1416.8718,1,1417.3722,1417.3723,1419.3732,0,0,0,0,1,,,,,,,,,,,,,,,,,,,,,,,,,,,,,,,,,,,,,,,,,,,,,,,,,,
,,5ed9ee3afd7ffe59917d3dfa,32,female,2024-04-24_11h31.55.064,stockport_simplified,2022.2.4,Win32,60.24096386,661e456ee6de07e70aa9ef7b,6628df8335cd12580fb24720,,,,,,,,,,,,,,,,,,,,,,,,,,,,,,,,,,,,,,,,,,,,,,,,,,,,,,,,1,41,101,35,1,A,Y,N,o1_image,stimuli/out1.png,stimuli/correct_out1.png,stimuli/out2.png,,,,,,,,,,,,,,,,,,,,,,,,,,,,,,,,,,,,,,
,,5ed9ee3afd7ffe59917d3dfa,32,female,2024-04-24_11h31.55.064,stockport_simplified,2022.2.4,Win32,60.24096386,661e456ee6de07e70aa9ef7b,6628df8335cd12580fb24720,,,,,,,,,,,,,,,,,,,,,,,,,,,,,,,,,,1419.3745,1422.8396,"[5,2,3,6,7,1,8,4]","[[0.3,0.2],[-0.3,0.2]]","[[-0.125,-0.2],[0.125,-0.2]]",0.11484375,-0.205729167,1,0,0,2.9484,o2_image,1422.853,1,1423.3572,1423.3573,1425.3561,0,0,0,0,1,,,,,,,,,,,,,,,,,,,,,,,,,,,,,,,,,,,,,,,,,,,,,,,,,,
,,5ed9ee3afd7ffe59917d3dfa,32,female,2024-04-24_11h31.55.064,stockport_simplified,2022.2.4,Win32,60.24096386,661e456ee6de07e70aa9ef7b,6628df8335cd12580fb24720,,,,,,,,,,,,,,,,,,,,,,,,,,,,,,,,,,,,,,,,,,,,,,,,,,,,,,,,1,42,102,40,1,B,X,N,o2_image,stimuli/out2.png,stimuli/out1.png,stimuli/correct_out2.png,,,,,,,,,,,,,,,,,,,,,,,,,,,,,,,,,,,,,,
,,5ed9ee3afd7ffe59917d3dfa,32,female,2024-04-24_11h31.55.064,stockport_simplified,2022.2.4,Win32,60.24096386,661e456ee6de07e70aa9ef7b,6628df8335cd12580fb24720,,,,,,,,,,,,,,,,,,,,,,,,,,,,,,,,,,1425.3568,1427.1635,"[5,2,3,6,7,1,8,4]","[[-0.3,0.2],[0.3,0.2]]","[[0.125,-0.2],[-0.125,-0.2]]",-0.115625,-0.180989583,1,0,0,1.2906,o2_image,1427.1642,1,1427.6558,1427.6558,1429.6563,0,0,0,0,1,,,,,,,,,,,,,,,,,,,,,,,,,,,,,,,,,,,,,,,,,,,,,,,,,,
,,5ed9ee3afd7ffe59917d3dfa,32,female,2024-04-24_11h31.55.064,stockport_simplified,2022.2.4,Win32,60.24096386,661e456ee6de07e70aa9ef7b,6628df8335cd12580fb24720,,,,,,,,,,,,,,,,,,,,,,,,,,,,,,,,,,,,,,,,,,,,,,,,,,,,,,,,1,43,103,59,1,N,M,D,o2_image,stimuli/out2.png,stimuli/out1.png,stimuli/correct_out2.png,,,,,,,,,,,,,,,,,,,,,,,,,,,,,,,,,,,,,,
,,5ed9ee3afd7ffe59917d3dfa,32,female,2024-04-24_11h31.55.064,stockport_simplified,2022.2.4,Win32,60.24096386,661e456ee6de07e70aa9ef7b,6628df8335cd12580fb24720,,,,,,,,,,,,,,,,,,,,,,,,,,,,,,,,,,1429.6573,1432.4397,"[5,2,3,6,7,1,8,4]","[[-0.3,0.2],[0.3,0.2]]","[[-0.125,-0.2],[0.125,-0.2]]",-0.155989583,-0.205729167,1,0,0,2.2653,o1_image,1432.4414,1,1432.9404,1432.9406,1434.9394,0,0,0,0,1,,,,,,,,,,,,,,,,,,,,,,,,,,,,,,,,,,,,,,,,,,,,,,,,,,
,,5ed9ee3afd7ffe59917d3dfa,32,female,2024-04-24_11h31.55.064,stockport_simplified,2022.2.4,Win32,60.24096386,661e456ee6de07e70aa9ef7b,6628df8335cd12580fb24720,,,,,,,,,,,,,,,,,,,,,,,,,,,,,,,,,,,,,,,,,,,,,,,,,,,,,,,,1,44,104,0,1,A,X,N,o1_image,stimuli/out1.png,stimuli/correct_out1.png,stimuli/out2.png,,,,,,,,,,,,,,,,,,,,,,,,,,,,,,,,,,,,,,
,,5ed9ee3afd7ffe59917d3dfa,32,female,2024-04-24_11h31.55.064,stockport_simplified,2022.2.4,Win32,60.24096386,661e456ee6de07e70aa9ef7b,6628df8335cd12580fb24720,,,,,,,,,,,,,,,,,,,,,,,,,,,,,,,,,,1434.94,1437.073,"[5,2,3,6,7,1,8,4]","[[-0.3,0.2],[0.3,0.2]]","[[0.125,-0.2],[-0.125,-0.2]]",-0.1078125,-0.188802083,1,0,0,1.6155,o2_image,1437.0744,1,1437.5728,1437.5729,1439.5731,0,0,0,0,1,,,,,,,,,,,,,,,,,,,,,,,,,,,,,,,,,,,,,,,,,,,,,,,,,,
,,5ed9ee3afd7ffe59917d3dfa,32,female,2024-04-24_11h31.55.064,stockport_simplified,2022.2.4,Win32,60.24096386,661e456ee6de07e70aa9ef7b,6628df8335cd12580fb24720,,,,,,,,,,,,,,,,,,,,,,,,,,,,,,,,,,,,,,,,,,,,,,,,,,,,,,,,1,45,105,17,1,B,Y,N,o2_image,stimuli/out2.png,stimuli/out1.png,stimuli/correct_out2.png,,,,,,,,,,,,,,,,,,,,,,,,,,,,,,,,,,,,,,
,,5ed9ee3afd7ffe59917d3dfa,32,female,2024-04-24_11h31.55.064,stockport_simplified,2022.2.4,Win32,60.24096386,661e456ee6de07e70aa9ef7b,6628df8335cd12580fb24720,,,,,,,,,,,,,,,,,,,,,,,,,,,,,,,,,,1439.5737,1441.6898,"[5,2,3,6,7,1,8,4]","[[-0.3,0.2],[0.3,0.2]]","[[0.125,-0.2],[-0.125,-0.2]]",0.135677083,-0.1796875,1,0,0,1.5993,o1_image,1441.6914,1,1442.1897,1442.1898,1444.1904,0,0,0,0,1,,,,,,,,,,,,,,,,,,,,,,,,,,,,,,,,,,,,,,,,,,,,,,,,,,
,,5ed9ee3afd7ffe59917d3dfa,32,female,2024-04-24_11h31.55.064,stockport_simplified,2022.2.4,Win32,60.24096386,661e456ee6de07e70aa9ef7b,6628df8335cd12580fb24720,,,,,,,,,,,,,,,,,,,,,,,,,,,,,,,,,,,,,,,,,,,,,,,,,,,,,,,,1,46,106,32,1,A,X,N,o1_image,stimuli/out1.png,stimuli/correct_out1.png,stimuli/out2.png,,,,,,,,,,,,,,,,,,,,,,,,,,,,,,,,,,,,,,
,,5ed9ee3afd7ffe59917d3dfa,32,female,2024-04-24_11h31.55.064,stockport_simplified,2022.2.4,Win32,60.24096386,661e456ee6de07e70aa9ef7b,6628df8335cd12580fb24720,,,,,,,,,,,,,,,,,,,,,,,,,,,,,,,,,,1444.1914,1446.1573,"[5,2,3,6,7,1,8,4]","[[-0.3,0.2],[0.3,0.2]]","[[0.125,-0.2],[-0.125,-0.2]]",-0.11171875,-0.1953125,1,0,0,1.4502,o2_image,1446.1597,1,1446.6566,1446.6567,1448.6568,0,0,0,0,1,,,,,,,,,,,,,,,,,,,,,,,,,,,,,,,,,,,,,,,,,,,,,,,,,,
,,5ed9ee3afd7ffe59917d3dfa,32,female,2024-04-24_11h31.55.064,stockport_simplified,2022.2.4,Win32,60.24096386,661e456ee6de07e70aa9ef7b,6628df8335cd12580fb24720,,,,,,,,,,,,,,,,,,,,,,,,,,,,,,,,,,,,,,,,,,,,,,,,,,,,,,,,1,47,107,15,1,B,Y,N,o2_image,stimuli/out2.png,stimuli/out1.png,stimuli/correct_out2.png,,,,,,,,,,,,,,,,,,,,,,,,,,,,,,,,,,,,,,
,,5ed9ee3afd7ffe59917d3dfa,32,female,2024-04-24_11h31.55.064,stockport_simplified,2022.2.4,Win32,60.24096386,661e456ee6de07e70aa9ef7b,6628df8335cd12580fb24720,,,,,,,,,,,,,,,,,,,,,,,,,,,,,,,,,,1448.6572,1450.8734,"[5,2,3,6,7,1,8,4]","[[0.3,0.2],[-0.3,0.2]]","[[0.125,-0.2],[-0.125,-0.2]]",0.14609375,-0.2265625,1,0,0,1.6986,o1_image,1450.888,1,1451.39,1451.39,1453.3931,0,0,0,0,1,,,,,,,,,,,,,,,,,,,,,,,,,,,,,,,,,,,,,,,,,,,,,,,,,,
,,5ed9ee3afd7ffe59917d3dfa,32,female,2024-04-24_11h31.55.064,stockport_simplified,2022.2.4,Win32,60.24096386,661e456ee6de07e70aa9ef7b,6628df8335cd12580fb24720,,,,,,,,,,,,,,,,,,,,,,,,,,,,,,,,,,,,,,,,,,,,,,,,,,,,,,,,1,48,108,21,1,N,M,C,o1_image,stimuli/out1.png,stimuli/correct_out1.png,stimuli/out2.png,,,,,,,,,,,,,,,,,,,,,,,,,,,,,,,,,,,,,,
,,5ed9ee3afd7ffe59917d3dfa,32,female,2024-04-24_11h31.55.064,stockport_simplified,2022.2.4,Win32,60.24096386,661e456ee6de07e70aa9ef7b,6628df8335cd12580fb24720,,,,,,,,,,,,,,,,,,,,,,,,,,,,,,,,,,1453.3942,1456.4989,"[5,2,3,6,7,1,8,4]","[[0.3,0.2],[-0.3,0.2]]","[[-0.125,-0.2],[0.125,-0.2]]",0.129166667,-0.184895833,1,0,0,2.5897,o2_image,1456.4995,0,1456.9904,1456.9905,1458.9913,0,0,0,0,1,,,,,,,,,,,,,,,,,,,,,,,,,,,,,,,,,,,,,,,,,,,,,,,,,,
,,5ed9ee3afd7ffe59917d3dfa,32,female,2024-04-24_11h31.55.064,stockport_simplified,2022.2.4,Win32,60.24096386,661e456ee6de07e70aa9ef7b,6628df8335cd12580fb24720,,,,,,,,,,,,,,,,,,,,,,,,,,,,,,,,,,,,,,,,,,,,,,,,,,,,,,,,1,49,109,7,1,A,Y,N,o1_image,stimuli/out1.png,stimuli/correct_out1.png,stimuli/out2.png,,,,,,,,,,,,,,,,,,,,,,,,,,,,,,,,,,,,,,
,,5ed9ee3afd7ffe59917d3dfa,32,female,2024-04-24_11h31.55.064,stockport_simplified,2022.2.4,Win32,60.24096386,661e456ee6de07e70aa9ef7b,6628df8335cd12580fb24720,,,,,,,,,,,,,,,,,,,,,,,,,,,,,,,,,,1458.9924,1461.7739,"[5,2,3,6,7,1,8,4]","[[0.3,0.2],[-0.3,0.2]]","[[0.125,-0.2],[-0.125,-0.2]]",0.14609375,-0.19921875,1,0,0,2.2772,o1_image,1461.7753,1,1462.2755,1462.2757,1464.274,0,0,0,0,1,,,,,,,,,,,,,,,,,,,,,,,,,,,,,,,,,,,,,,,,,,,,,,,,,,
,,5ed9ee3afd7ffe59917d3dfa,32,female,2024-04-24_11h31.55.064,stockport_simplified,2022.2.4,Win32,60.24096386,661e456ee6de07e70aa9ef7b,6628df8335cd12580fb24720,,,,,,,,,,,,,,,,,,,,,,,,,,,,,,,,,,,,,,,,,,,,,,,,,,,,,,,,1,50,110,24,1,N,M,C,o1_image,stimuli/out1.png,stimuli/correct_out1.png,stimuli/out2.png,,,,,,,,,,,,,,,,,,,,,,,,,,,,,,,,,,,,,,
,,5ed9ee3afd7ffe59917d3dfa,32,female,2024-04-24_11h31.55.064,stockport_simplified,2022.2.4,Win32,60.24096386,661e456ee6de07e70aa9ef7b,6628df8335cd12580fb24720,,,,,,,,,,,,,,,,,,,,,,,,,,,,,,,,,,1464.2746,1466.1153,"[5,2,3,6,7,1,8,4]","[[0.3,0.2],[-0.3,0.2]]","[[-0.125,-0.2],[0.125,-0.2]]",0.14609375,-0.18359375,1,0,0,1.3236,o2_image,1466.116,1,1466.6153,1466.6154,1468.608,0,0,0,0,1,,,,,,,,,,,,,,,,,,,,,,,,,,,,,,,,,,,,,,,,,,,,,,,,,,
,,5ed9ee3afd7ffe59917d3dfa,32,female,2024-04-24_11h31.55.064,stockport_simplified,2022.2.4,Win32,60.24096386,661e456ee6de07e70aa9ef7b,6628df8335cd12580fb24720,,,,,,,,,,,,,,,,,,,,,,,,,,,,,,,,,,,,,,,,,,,,,,,,,,,,,,,,1,51,111,26,1,N,M,D,o2_image,stimuli/out2.png,stimuli/out1.png,stimuli/correct_out2.png,,,,,,,,,,,,,,,,,,,,,,,,,,,,,,,,,,,,,,
,,5ed9ee3afd7ffe59917d3dfa,32,female,2024-04-24_11h31.55.064,stockport_simplified,2022.2.4,Win32,60.24096386,661e456ee6de07e70aa9ef7b,6628df8335cd12580fb24720,,,,,,,,,,,,,,,,,,,,,,,,,,,,,,,,,,1468.6091,1471.4244,"[5,2,3,6,7,1,8,4]","[[0.3,0.2],[-0.3,0.2]]","[[-0.125,-0.2],[0.125,-0.2]]",0.108333333,-0.1875,1,0,0,2.2993,o2_image,1471.4365,1,1471.9248,1471.9248,1473.9261,0,0,0,0,1,,,,,,,,,,,,,,,,,,,,,,,,,,,,,,,,,,,,,,,,,,,,,,,,,,
,,5ed9ee3afd7ffe59917d3dfa,32,female,2024-04-24_11h31.55.064,stockport_simplified,2022.2.4,Win32,60.24096386,661e456ee6de07e70aa9ef7b,6628df8335cd12580fb24720,,,,,,,,,,,,,,,,,,,,,,,,,,,,,,,,,,,,,,,,,,,,,,,,,,,,,,,,1,52,112,41,1,B,X,N,o2_image,stimuli/out2.png,stimuli/out1.png,stimuli/correct_out2.png,,,,,,,,,,,,,,,,,,,,,,,,,,,,,,,,,,,,,,
,,5ed9ee3afd7ffe59917d3dfa,32,female,2024-04-24_11h31.55.064,stockport_simplified,2022.2.4,Win32,60.24096386,661e456ee6de07e70aa9ef7b,6628df8335cd12580fb24720,,,,,,,,,,,,,,,,,,,,,,,,,,,,,,,,,,1473.9266,1476.016,"[5,2,3,6,7,1,8,4]","[[-0.3,0.2],[0.3,0.2]]","[[-0.125,-0.2],[0.125,-0.2]]",-0.101302083,-0.190104167,1,0,0,1.5728,o1_image,1476.0165,1,1476.5089,1476.5095,1478.5155,0,0,0,0,1,,,,,,,,,,,,,,,,,,,,,,,,,,,,,,,,,,,,,,,,,,,,,,,,,,
,,5ed9ee3afd7ffe59917d3dfa,32,female,2024-04-24_11h31.55.064,stockport_simplified,2022.2.4,Win32,60.24096386,661e456ee6de07e70aa9ef7b,6628df8335cd12580fb24720,,,,,,,,,,,,,,,,,,,,,,,,,,,,,,,,,,,,,,,,,,,,,,,,,,,,,,,,1,53,113,30,1,A,X,N,o1_image,stimuli/out1.png,stimuli/correct_out1.png,stimuli/out2.png,,,,,,,,,,,,,,,,,,,,,,,,,,,,,,,,,,,,,,
,,5ed9ee3afd7ffe59917d3dfa,32,female,2024-04-24_11h31.55.064,stockport_simplified,2022.2.4,Win32,60.24096386,661e456ee6de07e70aa9ef7b,6628df8335cd12580fb24720,,,,,,,,,,,,,,,,,,,,,,,,,,,,,,,,,,1478.5164,1481.8598,"[5,2,3,6,7,1,8,4]","[[-0.3,0.2],[0.3,0.2]]","[[-0.125,-0.2],[0.125,-0.2]]",0.084895833,-0.212239583,1,0,0,2.833,o2_image,1481.8712,0,1482.3749,1482.375,1484.3651,0,0,0,0,1,,,,,,,,,,,,,,,,,,,,,,,,,,,,,,,,,,,,,,,,,,,,,,,,,,
,,5ed9ee3afd7ffe59917d3dfa,32,female,2024-04-24_11h31.55.064,stockport_simplified,2022.2.4,Win32,60.24096386,661e456ee6de07e70aa9ef7b,6628df8335cd12580fb24720,,,,,,,,,,,,,,,,,,,,,,,,,,,,,,,,,,,,,,,,,,,,,,,,,,,,,,,,1,54,114,8,1,A,Y,N,o1_image,stimuli/out1.png,stimuli/correct_out1.png,stimuli/out2.png,,,,,,,,,,,,,,,,,,,,,,,,,,,,,,,,,,,,,,
,,5ed9ee3afd7ffe59917d3dfa,32,female,2024-04-24_11h31.55.064,stockport_simplified,2022.2.4,Win32,60.24096386,661e456ee6de07e70aa9ef7b,6628df8335cd12580fb24720,,,,,,,,,,,,,,,,,,,,,,,,,,,,,,,,,,1484.3656,1486.4496,"[5,2,3,6,7,1,8,4]","[[-0.3,0.2],[0.3,0.2]]","[[-0.125,-0.2],[0.125,-0.2]]",-0.129947917,-0.1796875,1,0,0,1.5693,o1_image,1486.4502,1,1486.9485,1486.9485,1488.943,0,0,0,0,1,,,,,,,,,,,,,,,,,,,,,,,,,,,,,,,,,,,,,,,,,,,,,,,,,,
,,5ed9ee3afd7ffe59917d3dfa,32,female,2024-04-24_11h31.55.064,stockport_simplified,2022.2.4,Win32,60.24096386,661e456ee6de07e70aa9ef7b,6628df8335cd12580fb24720,,,,,,,,,,,,,,,,,,,,,,,,,,,,,,,,,,,,,,,,,,,,,,,,,,,,,,,,1,55,115,9,1,A,Y,N,o1_image,stimuli/out1.png,stimuli/correct_out1.png,stimuli/out2.png,,,,,,,,,,,,,,,,,,,,,,,,,,,,,,,,,,,,,,
,,5ed9ee3afd7ffe59917d3dfa,32,female,2024-04-24_11h31.55.064,stockport_simplified,2022.2.4,Win32,60.24096386,661e456ee6de07e70aa9ef7b,6628df8335cd12580fb24720,,,,,,,,,,,,,,,,,,,,,,,,,,,,,,,,,,1488.9444,1491.3175,"[5,2,3,6,7,1,8,4]","[[-0.3,0.2],[0.3,0.2]]","[[0.125,-0.2],[-0.125,-0.2]]",0.152604167,-0.24609375,1,0,0,1.8577,o1_image,1491.3183,1,1491.8104,1491.8105,1493.8002,0,0,0,0,1,,,,,,,,,,,,,,,,,,,,,,,,,,,,,,,,,,,,,,,,,,,,,,,,,,
,,5ed9ee3afd7ffe59917d3dfa,32,female,2024-04-24_11h31.55.064,stockport_simplified,2022.2.4,Win32,60.24096386,661e456ee6de07e70aa9ef7b,6628df8335cd12580fb24720,,,,,,,,,,,,,,,,,,,,,,,,,,,,,,,,,,,,,,,,,,,,,,,,,,,,,,,,1,56,116,36,1,A,Y,N,o1_image,stimuli/out1.png,stimuli/correct_out1.png,stimuli/out2.png,,,,,,,,,,,,,,,,,,,,,,,,,,,,,,,,,,,,,,
,,5ed9ee3afd7ffe59917d3dfa,32,female,2024-04-24_11h31.55.064,stockport_simplified,2022.2.4,Win32,60.24096386,661e456ee6de07e70aa9ef7b,6628df8335cd12580fb24720,,,,,,,,,,,,,,,,,,,,,,,,,,,,,,,,,,1493.8007,1497.2344,"[5,2,3,6,7,1,8,4]","[[0.3,0.2],[-0.3,0.2]]","[[0.125,-0.2],[-0.125,-0.2]]",0.100520833,-0.203125,1,0,0,2.9245,o1_image,1497.2512,1,1497.7419,1497.7421,1499.7423,0,0,0,0,1,,,,,,,,,,,,,,,,,,,,,,,,,,,,,,,,,,,,,,,,,,,,,,,,,,
,,5ed9ee3afd7ffe59917d3dfa,32,female,2024-04-24_11h31.55.064,stockport_simplified,2022.2.4,Win32,60.24096386,661e456ee6de07e70aa9ef7b,6628df8335cd12580fb24720,,,,,,,,,,,,,,,,,,,,,,,,,,,,,,,,,,,,,,,,,,,,,,,,,,,,,,,,1,57,117,6,1,A,Y,N,o1_image,stimuli/out1.png,stimuli/correct_out1.png,stimuli/out2.png,,,,,,,,,,,,,,,,,,,,,,,,,,,,,,,,,,,,,,
,,5ed9ee3afd7ffe59917d3dfa,32,female,2024-04-24_11h31.55.064,stockport_simplified,2022.2.4,Win32,60.24096386,661e456ee6de07e70aa9ef7b,6628df8335cd12580fb24720,,,,,,,,,,,,,,,,,,,,,,,,,,,,,,,,,,1499.7428,1503.984,"[5,2,3,6,7,1,8,4]","[[0.3,0.2],[-0.3,0.2]]","[[0.125,-0.2],[-0.125,-0.2]]",-0.157291667,-0.19140625,1,0,0,3.7237,o2_image,1503.9967,0,1504.4922,1504.4922,1506.4948,0,0,0,0,1,,,,,,,,,,,,,,,,,,,,,,,,,,,,,,,,,,,,,,,,,,,,,,,,,,
,,5ed9ee3afd7ffe59917d3dfa,32,female,2024-04-24_11h31.55.064,stockport_simplified,2022.2.4,Win32,60.24096386,661e456ee6de07e70aa9ef7b,6628df8335cd12580fb24720,,,,,,,,,,,,,,,,,,,,,,,,,,,,,,,,,,,,,,,,,,,,,,,,,,,,,,,,1,58,118,33,1,A,X,N,o1_image,stimuli/out1.png,stimuli/correct_out1.png,stimuli/out2.png,,,,,,,,,,,,,,,,,,,,,,,,,,,,,,,,,,,,,,
,,5ed9ee3afd7ffe59917d3dfa,32,female,2024-04-24_11h31.55.064,stockport_simplified,2022.2.4,Win32,60.24096386,661e456ee6de07e70aa9ef7b,6628df8335cd12580fb24720,,,,,,,,,,,,,,,,,,,,,,,,,,,,,,,,,,1506.4952,1508.35,"[5,2,3,6,7,1,8,4]","[[0.3,0.2],[-0.3,0.2]]","[[-0.125,-0.2],[0.125,-0.2]]",0.10703125,-0.2109375,1,0,0,1.338,o2_image,1508.3508,1,1508.8428,1508.8428,1510.8432,0,0,0,0,1,,,,,,,,,,,,,,,,,,,,,,,,,,,,,,,,,,,,,,,,,,,,,,,,,,
,,5ed9ee3afd7ffe59917d3dfa,32,female,2024-04-24_11h31.55.064,stockport_simplified,2022.2.4,Win32,60.24096386,661e456ee6de07e70aa9ef7b,6628df8335cd12580fb24720,,,,,,,,,,,,,,,,,,,,,,,,,,,,,,,,,,,,,,,,,,,,,,,,,,,,,,,,1,59,119,29,1,N,M,D,o2_image,stimuli/out2.png,stimuli/out1.png,stimuli/correct_out2.png,,,,,,,,,,,,,,,,,,,,,,,,,,,,,,,,,,,,,,
,,5ed9ee3afd7ffe59917d3dfa,32,female,2024-04-24_11h31.55.064,stockport_simplified,2022.2.4,Win32,60.24096386,661e456ee6de07e70aa9ef7b,6628df8335cd12580fb24720,,,,,,,,,,,,,,,,,,,,,,,,,,,,,,,,,,1510.8837,1512.6853,"[5,2,3,6,7,1,8,4]","[[0.3,0.2],[-0.3,0.2]]","[[-0.125,-0.2],[0.125,-0.2]]",0.094010417,-0.151041667,1,0,0,1.2913,o2_image,1512.6865,1,1513.183,1513.183,1515.1796,,,,,,,,,,,,,,,,,,0,0,0,0,1,,,,,,,,,,,,,,,,,,,,,,,,,,,,,,,,,
,,5ed9ee3afd7ffe59917d3dfa,32,female,2024-04-24_11h31.55.064,stockport_simplified,2022.2.4,Win32,60.24096386,661e456ee6de07e70aa9ef7b,6628df8335cd12580fb24720,,,,,,,,,,,,,,,,,,,,,,,,,,,,,,,,,,,,,,,,,,,,,,,,,,,,,,,,,,,,,N,M,D,o2_image,stimuli/out2.png,stimuli/out1.png,stimuli/correct_out2.png,,,,,,0,0,0,56,1,,,,,,,,,,,,,,,,,,,,,,,,,,,,
,,5ed9ee3afd7ffe59917d3dfa,32,female,2024-04-24_11h31.55.064,stockport_simplified,2022.2.4,Win32,60.24096386,661e456ee6de07e70aa9ef7b,6628df8335cd12580fb24720,,,,,,,,,,,,,,,,,,,,,,,,,,,,,,,,,,1515.1819,1517.7931,"[5,2,3,6,7,1,8,4]","[[-0.3,0.2],[0.3,0.2]]","[[0.125,-0.2],[-0.125,-0.2]]",-0.136458333,-0.203125,1,0,0,2.0971,o2_image,1517.7941,0,1518.294,1518.2941,1520.293,,,,,,,,,,,,,,,,,,0,0,0,0,1,,,,,,,,,,,,,,,,,,,,,,,,,,,,,,,,,
,,5ed9ee3afd7ffe59917d3dfa,32,female,2024-04-24_11h31.55.064,stockport_simplified,2022.2.4,Win32,60.24096386,661e456ee6de07e70aa9ef7b,6628df8335cd12580fb24720,,,,,,,,,,,,,,,,,,,,,,,,,,,,,,,,,,,,,,,,,,,,,,,,,,,,,,,,,,,,,A,Y,N,o1_image,stimuli/out1.png,stimuli/correct_out1.png,stimuli/out2.png,,,,,,0,1,1,15,1,,,,,,,,,,,,,,,,,,,,,,,,,,,,
,,5ed9ee3afd7ffe59917d3dfa,32,female,2024-04-24_11h31.55.064,stockport_simplified,2022.2.4,Win32,60.24096386,661e456ee6de07e70aa9ef7b,6628df8335cd12580fb24720,,,,,,,,,,,,,,,,,,,,,,,,,,,,,,,,,,1520.2935,1522.51,"[5,2,3,6,7,1,8,4]","[[-0.3,0.2],[0.3,0.2]]","[[-0.125,-0.2],[0.125,-0.2]]",-0.115625,-0.184895833,1,0,0,1.6988,o1_image,1522.5125,0,1523.01,1523.01,1525.0103,,,,,,,,,,,,,,,,,,0,0,0,0,1,,,,,,,,,,,,,,,,,,,,,,,,,,,,,,,,,
,,5ed9ee3afd7ffe59917d3dfa,32,female,2024-04-24_11h31.55.064,stockport_simplified,2022.2.4,Win32,60.24096386,661e456ee6de07e70aa9ef7b,6628df8335cd12580fb24720,,,,,,,,,,,,,,,,,,,,,,,,,,,,,,,,,,,,,,,,,,,,,,,,,,,,,,,,,,,,,B,X,N,o2_image,stimuli/out2.png,stimuli/out1.png,stimuli/correct_out2.png,,,,,,0,2,2,20,1,,,,,,,,,,,,,,,,,,,,,,,,,,,,
