counterbalance_2.started,counterbalance_2.stopped,participant,age,gender,date,expName,psychopyVersion,OS,frameRate,STUDY_ID,SESSION_ID,information_2.started,information_2.stopped,information_loop.thisRepN,information_loop.thisTrialN,information_loop.thisN,information_loop.thisIndex,information_loop.ran,information,consent_2.started,consent_2.stopped,slider_1.response,slider_2.response,slider_3.response,slider_4.response,slider_5.response,slider_6.response,instructions.started,instructions.stopped,task1_instr.thisRepN,task1_instr.thisTrialN,task1_instr.thisN,task1_instr.thisIndex,task1_instr.ran,task1,comprehension1_2.started,comprehension1_2.stopped,comp1_mouse.x,comp1_mouse.y,comp1_mouse.leftButton,comp1_mouse.midButton,comp1_mouse.rightButton,comp1_mouse.time,comp1_mouse.clicked_name,cue_o__trial_2.started,cue_o__trial_2.stopped,order,cue_order,out_order,cue_o_mouse.x,cue_o_mouse.y,cue_o_mouse.leftButton,cue_o_mouse.midButton,cue_o_mouse.rightButton,cue_o_mouse.time,cue_o_mouse.clicked_name,cue_selection_2.started,correct_answer,cue_selection_2.stopped,feedback_2.started,feedback_2.stopped,feedback_loop.thisRepN,feedback_loop.thisTrialN,feedback_loop.thisN,feedback_loop.thisIndex,feedback_loop.ran,stage1_trials.thisRepN,stage1_trials.thisTrialN,stage1_trials.thisN,stage1_trials.thisIndex,stage1_trials.ran,cue1,cue2,cue3,outcome,correct_out,o1_feedback,o2_feedback,stage2_feedback_loop.thisRepN,stage2_feedback_loop.thisTrialN,stage2_feedback_loop.thisN,stage2_feedback_loop.thisIndex,stage2_feedback_loop.ran,stage2_trials.thisRepN,stage2_trials.thisTrialN,stage2_trials.thisN,stage2_trials.thisIndex,stage2_trials.ran,stage3_feedback_loop.thisRepN,stage3_feedback_loop.thisTrialN,stage3_feedback_loop.thisN,stage3_feedback_loop.thisIndex,stage3_feedback_loop.ran,stage3_trials.thisRepN,stage3_trials.thisTrialN,stage3_trials.thisN,stage3_trials.thisIndex,stage3_trials.ran,debrief_2.started,debrief_2.stopped,debrief_loop.thisRepN,debrief_loop.thisTrialN,debrief_loop.thisN,debrief_loop.thisIndex,debrief_loop.ran,debrief_img,compr1_completed.thisRepN,compr1_completed.thisTrialN,compr1_completed.thisN,compr1_completed.thisIndex,compr1_completed.ran,consent_loop.thisRepN,consent_loop.thisTrialN,consent_loop.thisN,consent_loop.thisIndex,consent_loop.ran
0.0003,0.0006,59e795c062637600014a7d3f,33,female,2024-04-24_11h32.33.916,stockport_simplified,2022.2.4,Linux x86_64,59.88023952,661e456ee6de07e70aa9ef7b,6628df8ab8160f08a3f675d0,,,,,,,,,,,,,,,,,,,,,,,,,,,,,,,,,,,,,,,,,,,,,,,,,,,,,,,,,,,,,,,,,,,,,,,,,,,,,,,,,,,,,,,,,,,,,,,,,,,,,,,,,
,,59e795c062637600014a7d3f,33,female,2024-04-24_11h32.33.916,stockport_simplified,2022.2.4,Linux x86_64,59.88023952,661e456ee6de07e70aa9ef7b,6628df8ab8160f08a3f675d0,0.0293,4.908,0,0,0,0,1,instructions/info1.png,,,,,,,,,,,,,,,,,,,,,,,,,,,,,,,,,,,,,,,,,,,,,,,,,,,,,,,,,,,,,,,,,,,,,,,,,,,,,,,,,,,,,,,,,,,,,,,,,
,,59e795c062637600014a7d3f,33,female,2024-04-24_11h32.33.916,stockport_simplified,2022.2.4,Linux x86_64,59.88023952,661e456ee6de07e70aa9ef7b,6628df8ab8160f08a3f675d0,4.9095,6.2272,0,1,1,1,1,instructions/info2.png,,,,,,,,,,,,,,,,,,,,,,,,,,,,,,,,,,,,,,,,,,,,,,,,,,,,,,,,,,,,,,,,,,,,,,,,,,,,,,,,,,,,,,,,,,,,,,,,,
,,59e795c062637600014a7d3f,33,female,2024-04-24_11h32.33.916,stockport_simplified,2022.2.4,Linux x86_64,59.88023952,661e456ee6de07e70aa9ef7b,6628df8ab8160f08a3f675d0,6.2298,8.1079,0,2,2,2,1,instructions/info3.png,,,,,,,,,,,,,,,,,,,,,,,,,,,,,,,,,,,,,,,,,,,,,,,,,,,,,,,,,,,,,,,,,,,,,,,,,,,,,,,,,,,,,,,,,,,,,,,,,
,,59e795c062637600014a7d3f,33,female,2024-04-24_11h32.33.916,stockport_simplified,2022.2.4,Linux x86_64,59.88023952,661e456ee6de07e70aa9ef7b,6628df8ab8160f08a3f675d0,,,,,,,,,8.1092,18.2394,1,1,1,1,1,1,,,,,,,,,,,,,,,,,,,,,,,,,,,,,,,,,,,,,,,,,,,,,,,,,,,,,,,,,,,,,,,,,,,,,,,,,,,,,,,,,,,,,,,,,
,,59e795c062637600014a7d3f,33,female,2024-04-24_11h32.33.916,stockport_simplified,2022.2.4,Linux x86_64,59.88023952,661e456ee6de07e70aa9ef7b,6628df8ab8160f08a3f675d0,,,,,,,,,,,,,,,,,18.2765,34.5385,0,0,0,0,1,instructions/task1_1.png,,,,,,,,,,,,,,,,,,,,,,,,,,,,,,,,,,,,,,,,,,,,,,,,,,,,,,,,,,,,,,,,,,,,,,,,,,,,,,,,,
,,59e795c062637600014a7d3f,33,female,2024-04-24_11h32.33.916,stockport_simplified,2022.2.4,Linux x86_64,59.88023952,661e456ee6de07e70aa9ef7b,6628df8ab8160f08a3f675d0,,,,,,,,,,,,,,,,,34.5404,46.3599,0,1,1,1,1,instructions/task1_2.png,,,,,,,,,,,,,,,,,,,,,,,,,,,,,,,,,,,,,,,,,,,,,,,,,,,,,,,,,,,,,,,,,,,,,,,,,,,,,,,,,
,,59e795c062637600014a7d3f,33,female,2024-04-24_11h32.33.916,stockport_simplified,2022.2.4,Linux x86_64,59.88023952,661e456ee6de07e70aa9ef7b,6628df8ab8160f08a3f675d0,,,,,,,,,,,,,,,,,46.3607,61.1463,0,2,2,2,1,instructions/task1_3.png,,,,,,,,,,,,,,,,,,,,,,,,,,,,,,,,,,,,,,,,,,,,,,,,,,,,,,,,,,,,,,,,,,,,,,,,,,,,,,,,,
,,59e795c062637600014a7d3f,33,female,2024-04-24_11h32.33.916,stockport_simplified,2022.2.4,Linux x86_64,59.88023952,661e456ee6de07e70aa9ef7b,6628df8ab8160f08a3f675d0,,,,,,,,,,,,,,,,,,,,,,,,,61.1486,79.9352,0.336111139,-0.337037051,1,0,0,18.784,comp1_resp1,80.0182,85.0462,"[8,7,4,5,3,2,6,1]","[[0.3,0.2],[-0.3,0.2]]","[[-0.125,-0.2],[0.125,-0.2]]",0.168518561,-0.200925968,1,0,0,4.5101,o2_image,85.084,1,85.5838,85.5844,87.5813,0,0,0,0,1,,,,,,,,,,,,,,,,,,,,,,,,,,,,,,,,,,,,,,,,,,,,,,,,,,
,,59e795c062637600014a7d3f,33,female,2024-04-24_11h32.33.916,stockport_simplified,2022.2.4,Linux x86_64,59.88023952,661e456ee6de07e70aa9ef7b,6628df8ab8160f08a3f675d0,,,,,,,,,,,,,,,,,,,,,,,,,,,,,,,,,,,,,,,,,,,,,,,,,,,,,,,,0,0,0,13,1,B,X,N,o2_image,stimuli/out2.png,stimuli/out1.png,stimuli/correct_out2.png,,,,,,,,,,,,,,,,,,,,,,,,,,,,,,,,,,,,,,
,,59e795c062637600014a7d3f,33,female,2024-04-24_11h32.33.916,stockport_simplified,2022.2.4,Linux x86_64,59.88023952,661e456ee6de07e70aa9ef7b,6628df8ab8160f08a3f675d0,,,,,,,,,,,,,,,,,,,,,,,,,,,,,,,,,,87.5828,90.3132,"[8,7,4,5,3,2,6,1]","[[0.3,0.2],[-0.3,0.2]]","[[0.125,-0.2],[-0.125,-0.2]]",0.123148176,-0.185185185,1,0,0,2.2118,o1_image,90.3498,1,90.8457,90.8457,92.8436,0,0,0,0,1,,,,,,,,,,,,,,,,,,,,,,,,,,,,,,,,,,,,,,,,,,,,,,,,,,
,,59e795c062637600014a7d3f,33,female,2024-04-24_11h32.33.916,stockport_simplified,2022.2.4,Linux x86_64,59.88023952,661e456ee6de07e70aa9ef7b,6628df8ab8160f08a3f675d0,,,,,,,,,,,,,,,,,,,,,,,,,,,,,,,,,,,,,,,,,,,,,,,,,,,,,,,,0,1,1,4,1,A,X,N,o1_image,stimuli/out1.png,stimuli/correct_out1.png,stimuli/out2.png,,,,,,,,,,,,,,,,,,,,,,,,,,,,,,,,,,,,,,
,,59e795c062637600014a7d3f,33,female,2024-04-24_11h32.33.916,stockport_simplified,2022.2.4,Linux x86_64,59.88023952,661e456ee6de07e70aa9ef7b,6628df8ab8160f08a3f675d0,,,,,,,,,,,,,,,,,,,,,,,,,,,,,,,,,,92.8465,96.5404,"[8,7,4,5,3,2,6,1]","[[-0.3,0.2],[0.3,0.2]]","[[0.125,-0.2],[-0.125,-0.2]]",0.150925954,-0.20648151,1,0,0,3.179,o1_image,96.5749,0,97.0733,97.0733,99.0722,0,0,0,0,1,,,,,,,,,,,,,,,,,,,,,,,,,,,,,,,,,,,,,,,,,,,,,,,,,,
,,59e795c062637600014a7d3f,33,female,2024-04-24_11h32.33.916,stockport_simplified,2022.2.4,Linux x86_64,59.88023952,661e456ee6de07e70aa9ef7b,6628df8ab8160f08a3f675d0,,,,,,,,,,,,,,,,,,,,,,,,,,,,,,,,,,,,,,,,,,,,,,,,,,,,,,,,0,2,2,55,1,N,M,D,o2_image,stimuli/out2.png,stimuli/out1.png,stimuli/correct_out2.png,,,,,,,,,,,,,,,,,,,,,,,,,,,,,,,,,,,,,,
,,59e795c062637600014a7d3f,33,female,2024-04-24_11h32.33.916,stockport_simplified,2022.2.4,Linux x86_64,59.88023952,661e456ee6de07e70aa9ef7b,6628df8ab8160f08a3f675d0,,,,,,,,,,,,,,,,,,,,,,,,,,,,,,,,,,99.0747,102.6046,"[8,7,4,5,3,2,6,1]","[[0.3,0.2],[-0.3,0.2]]","[[0.125,-0.2],[-0.125,-0.2]]",0.161111125,-0.225000028,1,0,0,3.0152,o1_image,102.6379,1,103.1348,103.135,105.1331,0,0,0,0,1,,,,,,,,,,,,,,,,,,,,,,,,,,,,,,,,,,,,,,,,,,,,,,,,,,
,,59e795c062637600014a7d3f,33,female,2024-04-24_11h32.33.916,stockport_simplified,2022.2.4,Linux x86_64,59.88023952,661e456ee6de07e70aa9ef7b,6628df8ab8160f08a3f675d0,,,,,,,,,,,,,,,,,,,,,,,,,,,,,,,,,,,,,,,,,,,,,,,,,,,,,,,,0,3,3,37,1,A,Y,N,o1_image,stimuli/out1.png,stimuli/correct_out1.png,stimuli/out2.png,,,,,,,,,,,,,,,,,,,,,,,,,,,,,,,,,,,,,,
,,59e795c062637600014a7d3f,33,female,2024-04-24_11h32.33.916,stockport_simplified,2022.2.4,Linux x86_64,59.88023952,661e456ee6de07e70aa9ef7b,6628df8ab8160f08a3f675d0,,,,,,,,,,,,,,,,,,,,,,,,,,,,,,,,,,105.1341,107.6821,"[8,7,4,5,3,2,6,1]","[[-0.3,0.2],[0.3,0.2]]","[[-0.125,-0.2],[0.125,-0.2]]",-0.087037051,-0.212037051,1,0,0,2.0315,o1_image,107.6853,1,108.1817,108.1819,110.18,0,0,0,0,1,,,,,,,,,,,,,,,,,,,,,,,,,,,,,,,,,,,,,,,,,,,,,,,,,,
,,59e795c062637600014a7d3f,33,female,2024-04-24_11h32.33.916,stockport_simplified,2022.2.4,Linux x86_64,59.88023952,661e456ee6de07e70aa9ef7b,6628df8ab8160f08a3f675d0,,,,,,,,,,,,,,,,,,,,,,,,,,,,,,,,,,,,,,,,,,,,,,,,,,,,,,,,0,4,4,39,1,A,Y,N,o1_image,stimuli/out1.png,stimuli/correct_out1.png,stimuli/out2.png,,,,,,,,,,,,,,,,,,,,,,,,,,,,,,,,,,,,,,
,,59e795c062637600014a7d3f,33,female,2024-04-24_11h32.33.916,stockport_simplified,2022.2.4,Linux x86_64,59.88023952,661e456ee6de07e70aa9ef7b,6628df8ab8160f08a3f675d0,,,,,,,,,,,,,,,,,,,,,,,,,,,,,,,,,,110.182,112.629,"[8,7,4,5,3,2,6,1]","[[-0.3,0.2],[0.3,0.2]]","[[0.125,-0.2],[-0.125,-0.2]]",-0.087962963,-0.219444487,1,0,0,1.9306,o2_image,112.6308,1,113.1271,113.1273,115.1253,0,0,0,0,1,,,,,,,,,,,,,,,,,,,,,,,,,,,,,,,,,,,,,,,,,,,,,,,,,,
,,59e795c062637600014a7d3f,33,female,2024-04-24_11h32.33.916,stockport_simplified,2022.2.4,Linux x86_64,59.88023952,661e456ee6de07e70aa9ef7b,6628df8ab8160f08a3f675d0,,,,,,,,,,,,,,,,,,,,,,,,,,,,,,,,,,,,,,,,,,,,,,,,,,,,,,,,0,5,5,26,1,N,M,D,o2_image,stimuli/out2.png,stimuli/out1.png,stimuli/correct_out2.png,,,,,,,,,,,,,,,,,,,,,,,,,,,,,,,,,,,,,,
,,59e795c062637600014a7d3f,33,female,2024-04-24_11h32.33.916,stockport_simplified,2022.2.4,Linux x86_64,59.88023952,661e456ee6de07e70aa9ef7b,6628df8ab8160f08a3f675d0,,,,,,,,,,,,,,,,,,,,,,,,,,,,,,,,,,115.1262,118.056,"[8,7,4,5,3,2,6,1]","[[0.3,0.2],[-0.3,0.2]]","[[0.125,-0.2],[-0.125,-0.2]]",-0.099074046,-0.218518504,1,0,0,2.4107,o2_image,118.0934,1,118.5889,118.5891,120.5876,0,0,0,0,1,,,,,,,,,,,,,,,,,,,,,,,,,,,,,,,,,,,,,,,,,,,,,,,,,,
,,59e795c062637600014a7d3f,33,female,2024-04-24_11h32.33.916,stockport_simplified,2022.2.4,Linux x86_64,59.88023952,661e456ee6de07e70aa9ef7b,6628df8ab8160f08a3f675d0,,,,,,,,,,,,,,,,,,,,,,,,,,,,,,,,,,,,,,,,,,,,,,,,,,,,,,,,0,6,6,18,1,B,Y,N,o2_image,stimuli/out2.png,stimuli/out1.png,stimuli/correct_out2.png,,,,,,,,,,,,,,,,,,,,,,,,,,,,,,,,,,,,,,
,,59e795c062637600014a7d3f,33,female,2024-04-24_11h32.33.916,stockport_simplified,2022.2.4,Linux x86_64,59.88023952,661e456ee6de07e70aa9ef7b,6628df8ab8160f08a3f675d0,,,,,,,,,,,,,,,,,,,,,,,,,,,,,,,,,,120.5889,125.3335,"[8,7,4,5,3,2,6,1]","[[-0.3,0.2],[0.3,0.2]]","[[0.125,-0.2],[-0.125,-0.2]]",0.10555557,-0.186111097,1,0,0,4.2267,o1_image,125.3684,0,125.8666,125.8667,127.8648,0,0,0,0,1,,,,,,,,,,,,,,,,,,,,,,,,,,,,,,,,,,,,,,,,,,,,,,,,,,
,,59e795c062637600014a7d3f,33,female,2024-04-24_11h32.33.916,stockport_simplified,2022.2.4,Linux x86_64,59.88023952,661e456ee6de07e70aa9ef7b,6628df8ab8160f08a3f675d0,,,,,,,,,,,,,,,,,,,,,,,,,,,,,,,,,,,,,,,,,,,,,,,,,,,,,,,,0,7,7,56,1,N,M,D,o2_image,stimuli/out2.png,stimuli/out1.png,stimuli/correct_out2.png,,,,,,,,,,,,,,,,,,,,,,,,,,,,,,,,,,,,,,
,,59e795c062637600014a7d3f,33,female,2024-04-24_11h32.33.916,stockport_simplified,2022.2.4,Linux x86_64,59.88023952,661e456ee6de07e70aa9ef7b,6628df8ab8160f08a3f675d0,,,,,,,,,,,,,,,,,,,,,,,,,,,,,,,,,,127.8657,131.7958,"[8,7,4,5,3,2,6,1]","[[0.3,0.2],[-0.3,0.2]]","[[-0.125,-0.2],[0.125,-0.2]]",-0.080555527,-0.212962963,1,0,0,3.4132,o1_image,131.8421,0,132.3444,132.3445,134.3424,0,0,0,0,1,,,,,,,,,,,,,,,,,,,,,,,,,,,,,,,,,,,,,,,,,,,,,,,,,,
,,59e795c062637600014a7d3f,33,female,2024-04-24_11h32.33.916,stockport_simplified,2022.2.4,Linux x86_64,59.88023952,661e456ee6de07e70aa9ef7b,6628df8ab8160f08a3f675d0,,,,,,,,,,,,,,,,,,,,,,,,,,,,,,,,,,,,,,,,,,,,,,,,,,,,,,,,0,8,8,48,1,B,Y,N,o2_image,stimuli/out2.png,stimuli/out1.png,stimuli/correct_out2.png,,,,,,,,,,,,,,,,,,,,,,,,,,,,,,,,,,,,,,
,,59e795c062637600014a7d3f,33,female,2024-04-24_11h32.33.916,stockport_simplified,2022.2.4,Linux x86_64,59.88023952,661e456ee6de07e70aa9ef7b,6628df8ab8160f08a3f675d0,,,,,,,,,,,,,,,,,,,,,,,,,,,,,,,,,,134.3435,137.0594,"[8,7,4,5,3,2,6,1]","[[-0.3,0.2],[0.3,0.2]]","[[0.125,-0.2],[-0.125,-0.2]]",0.125925912,-0.199074074,1,0,0,2.1994,o1_image,137.0628,0,137.557,137.5571,139.5575,0,0,0,0,1,,,,,,,,,,,,,,,,,,,,,,,,,,,,,,,,,,,,,,,,,,,,,,,,,,
,,59e795c062637600014a7d3f,33,female,2024-04-24_11h32.33.916,stockport_simplified,2022.2.4,Linux x86_64,59.88023952,661e456ee6de07e70aa9ef7b,6628df8ab8160f08a3f675d0,,,,,,,,,,,,,,,,,,,,,,,,,,,,,,,,,,,,,,,,,,,,,,,,,,,,,,,,0,9,9,25,1,N,M,D,o2_image,stimuli/out2.png,stimuli/out1.png,stimuli/correct_out2.png,,,,,,,,,,,,,,,,,,,,,,,,,,,,,,,,,,,,,,
,,59e795c062637600014a7d3f,33,female,2024-04-24_11h32.33.916,stockport_simplified,2022.2.4,Linux x86_64,59.88023952,661e456ee6de07e70aa9ef7b,6628df8ab8160f08a3f675d0,,,,,,,,,,,,,,,,,,,,,,,,,,,,,,,,,,139.5586,143.2736,"[8,7,4,5,3,2,6,1]","[[0.3,0.2],[-0.3,0.2]]","[[-0.125,-0.2],[0.125,-0.2]]",-0.098148134,-0.220370399,1,0,0,3.2001,o1_image,143.3101,1,143.8014,143.8015,145.8001,0,0,0,0,1,,,,,,,,,,,,,,,,,,,,,,,,,,,,,,,,,,,,,,,,,,,,,,,,,,
,,59e795c062637600014a7d3f,33,female,2024-04-24_11h32.33.916,stockport_simplified,2022.2.4,Linux x86_64,59.88023952,661e456ee6de07e70aa9ef7b,6628df8ab8160f08a3f675d0,,,,,,,,,,,,,,,,,,,,,,,,,,,,,,,,,,,,,,,,,,,,,,,,,,,,,,,,0,10,10,33,1,A,X,N,o1_image,stimuli/out1.png,stimuli/correct_out1.png,stimuli/out2.png,,,,,,,,,,,,,,,,,,,,,,,,,,,,,,,,,,,,,,
,,59e795c062637600014a7d3f,33,female,2024-04-24_11h32.33.916,stockport_simplified,2022.2.4,Linux x86_64,59.88023952,661e456ee6de07e70aa9ef7b,6628df8ab8160f08a3f675d0,,,,,,,,,,,,,,,,,,,,,,,,,,,,,,,,,,145.8014,148.2487,"[8,7,4,5,3,2,6,1]","[[0.3,0.2],[-0.3,0.2]]","[[-0.125,-0.2],[0.125,-0.2]]",0.123148176,-0.19722225,1,0,0,1.9311,o2_image,148.2838,0,148.7816,148.7816,150.7796,0,0,0,0,1,,,,,,,,,,,,,,,,,,,,,,,,,,,,,,,,,,,,,,,,,,,,,,,,,,
,,59e795c062637600014a7d3f,33,female,2024-04-24_11h32.33.916,stockport_simplified,2022.2.4,Linux x86_64,59.88023952,661e456ee6de07e70aa9ef7b,6628df8ab8160f08a3f675d0,,,,,,,,,,,,,,,,,,,,,,,,,,,,,,,,,,,,,,,,,,,,,,,,,,,,,,,,0,11,11,6,1,A,Y,N,o1_image,stimuli/out1.png,stimuli/correct_out1.png,stimuli/out2.png,,,,,,,,,,,,,,,,,,,,,,,,,,,,,,,,,,,,,,
,,59e795c062637600014a7d3f,33,female,2024-04-24_11h32.33.916,stockport_simplified,2022.2.4,Linux x86_64,59.88023952,661e456ee6de07e70aa9ef7b,6628df8ab8160f08a3f675d0,,,,,,,,,,,,,,,,,,,,,,,,,,,,,,,,,,150.7815,153.91,"[8,7,4,5,3,2,6,1]","[[-0.3,0.2],[0.3,0.2]]","[[-0.125,-0.2],[0.125,-0.2]]",0.117592635,-0.202777792,1,0,0,2.6135,o2_image,153.9119,1,154.4095,154.4095,156.4083,0,0,0,0,1,,,,,,,,,,,,,,,,,,,,,,,,,,,,,,,,,,,,,,,,,,,,,,,,,,
,,59e795c062637600014a7d3f,33,female,2024-04-24_11h32.33.916,stockport_simplified,2022.2.4,Linux x86_64,59.88023952,661e456ee6de07e70aa9ef7b,6628df8ab8160f08a3f675d0,,,,,,,,,,,,,,,,,,,,,,,,,,,,,,,,,,,,,,,,,,,,,,,,,,,,,,,,0,12,12,46,1,B,Y,N,o2_image,stimuli/out2.png,stimuli/out1.png,stimuli/correct_out2.png,,,,,,,,,,,,,,,,,,,,,,,,,,,,,,,,,,,,,,
,,59e795c062637600014a7d3f,33,female,2024-04-24_11h32.33.916,stockport_simplified,2022.2.4,Linux x86_64,59.88023952,661e456ee6de07e70aa9ef7b,6628df8ab8160f08a3f675d0,,,,,,,,,,,,,,,,,,,,,,,,,,,,,,,,,,156.4093,158.5236,"[8,7,4,5,3,2,6,1]","[[-0.3,0.2],[0.3,0.2]]","[[0.125,-0.2],[-0.125,-0.2]]",-0.099999958,-0.215740769,1,0,0,1.5963,o2_image,158.5257,0,159.024,159.0241,161.0207,0,0,0,0,1,,,,,,,,,,,,,,,,,,,,,,,,,,,,,,,,,,,,,,,,,,,,,,,,,,
,,59e795c062637600014a7d3f,33,female,2024-04-24_11h32.33.916,stockport_simplified,2022.2.4,Linux x86_64,59.88023952,661e456ee6de07e70aa9ef7b,6628df8ab8160f08a3f675d0,,,,,,,,,,,,,,,,,,,,,,,,,,,,,,,,,,,,,,,,,,,,,,,,,,,,,,,,0,13,13,7,1,A,Y,N,o1_image,stimuli/out1.png,stimuli/correct_out1.png,stimuli/out2.png,,,,,,,,,,,,,,,,,,,,,,,,,,,,,,,,,,,,,,
,,59e795c062637600014a7d3f,33,female,2024-04-24_11h32.33.916,stockport_simplified,2022.2.4,Linux x86_64,59.88023952,661e456ee6de07e70aa9ef7b,6628df8ab8160f08a3f675d0,,,,,,,,,,,,,,,,,,,,,,,,,,,,,,,,,,161.0216,163.2195,"[8,7,4,5,3,2,6,1]","[[-0.3,0.2],[0.3,0.2]]","[[0.125,-0.2],[-0.125,-0.2]]",0.138888889,-0.216666681,1,0,0,1.682,o1_image,163.2213,1,163.719,163.7191,165.7168,0,0,0,0,1,,,,,,,,,,,,,,,,,,,,,,,,,,,,,,,,,,,,,,,,,,,,,,,,,,
,,59e795c062637600014a7d3f,33,female,2024-04-24_11h32.33.916,stockport_simplified,2022.2.4,Linux x86_64,59.88023952,661e456ee6de07e70aa9ef7b,6628df8ab8160f08a3f675d0,,,,,,,,,,,,,,,,,,,,,,,,,,,,,,,,,,,,,,,,,,,,,,,,,,,,,,,,0,14,14,5,1,A,Y,N,o1_image,stimuli/out1.png,stimuli/correct_out1.png,stimuli/out2.png,,,,,,,,,,,,,,,,,,,,,,,,,,,,,,,,,,,,,,
,,59e795c062637600014a7d3f,33,female,2024-04-24_11h32.33.916,stockport_simplified,2022.2.4,Linux x86_64,59.88023952,661e456ee6de07e70aa9ef7b,6628df8ab8160f08a3f675d0,,,,,,,,,,,,,,,,,,,,,,,,,,,,,,,,,,165.7176,168.0322,"[8,7,4,5,3,2,6,1]","[[-0.3,0.2],[0.3,0.2]]","[[0.125,-0.2],[-0.125,-0.2]]",-0.106481481,-0.208333333,1,0,0,1.7967,o2_image,168.0347,0,168.5317,168.5317,170.5322,0,0,0,0,1,,,,,,,,,,,,,,,,,,,,,,,,,,,,,,,,,,,,,,,,,,,,,,,,,,
,,59e795c062637600014a7d3f,33,female,2024-04-24_11h32.33.916,stockport_simplified,2022.2.4,Linux x86_64,59.88023952,661e456ee6de07e70aa9ef7b,6628df8ab8160f08a3f675d0,,,,,,,,,,,,,,,,,,,,,,,,,,,,,,,,,,,,,,,,,,,,,,,,,,,,,,,,0,15,15,31,1,A,X,N,o1_image,stimuli/out1.png,stimuli/correct_out1.png,stimuli/out2.png,,,,,,,,,,,,,,,,,,,,,,,,,,,,,,,,,,,,,,
,,59e795c062637600014a7d3f,33,female,2024-04-24_11h32.33.916,stockport_simplified,2022.2.4,Linux x86_64,59.88023952,661e456ee6de07e70aa9ef7b,6628df8ab8160f08a3f675d0,,,,,,,,,,,,,,,,,,,,,,,,,,,,,,,,,,170.5333,173.1959,"[8,7,4,5,3,2,6,1]","[[-0.3,0.2],[0.3,0.2]]","[[0.125,-0.2],[-0.125,-0.2]]",0.122222265,-0.220370399,1,0,0,2.1468,o1_image,173.198,0,173.6941,173.6941,175.6921,0,0,0,0,1,,,,,,,,,,,,,,,,,,,,,,,,,,,,,,,,,,,,,,,,,,,,,,,,,,
,,59e795c062637600014a7d3f,33,female,2024-04-24_11h32.33.916,stockport_simplified,2022.2.4,Linux x86_64,59.88023952,661e456ee6de07e70aa9ef7b,6628df8ab8160f08a3f675d0,,,,,,,,,,,,,,,,,,,,,,,,,,,,,,,,,,,,,,,,,,,,,,,,,,,,,,,,0,16,16,58,1,N,M,D,o2_image,stimuli/out2.png,stimuli/out1.png,stimuli/correct_out2.png,,,,,,,,,,,,,,,,,,,,,,,,,,,,,,,,,,,,,,
,,59e795c062637600014a7d3f,33,female,2024-04-24_11h32.33.916,stockport_simplified,2022.2.4,Linux x86_64,59.88023952,661e456ee6de07e70aa9ef7b,6628df8ab8160f08a3f675d0,,,,,,,,,,,,,,,,,,,,,,,,,,,,,,,,,,175.6946,177.9579,"[8,7,4,5,3,2,6,1]","[[-0.3,0.2],[0.3,0.2]]","[[0.125,-0.2],[-0.125,-0.2]]",-0.137962977,-0.125,1,0,0,1.748,o2_image,177.9597,1,178.4576,178.4577,180.458,0,0,0,0,1,,,,,,,,,,,,,,,,,,,,,,,,,,,,,,,,,,,,,,,,,,,,,,,,,,
,,59e795c062637600014a7d3f,33,female,2024-04-24_11h32.33.916,stockport_simplified,2022.2.4,Linux x86_64,59.88023952,661e456ee6de07e70aa9ef7b,6628df8ab8160f08a3f675d0,,,,,,,,,,,,,,,,,,,,,,,,,,,,,,,,,,,,,,,,,,,,,,,,,,,,,,,,0,17,17,44,1,B,X,N,o2_image,stimuli/out2.png,stimuli/out1.png,stimuli/correct_out2.png,,,,,,,,,,,,,,,,,,,,,,,,,,,,,,,,,,,,,,
,,59e795c062637600014a7d3f,33,female,2024-04-24_11h32.33.916,stockport_simplified,2022.2.4,Linux x86_64,59.88023952,661e456ee6de07e70aa9ef7b,6628df8ab8160f08a3f675d0,,,,,,,,,,,,,,,,,,,,,,,,,,,,,,,,,,180.4589,182.4364,"[8,7,4,5,3,2,6,1]","[[-0.3,0.2],[0.3,0.2]]","[[-0.125,-0.2],[0.125,-0.2]]",0.097222222,-0.167592578,1,0,0,1.4643,o2_image,182.4382,1,182.9352,182.9353,184.9343,0,0,0,0,1,,,,,,,,,,,,,,,,,,,,,,,,,,,,,,,,,,,,,,,,,,,,,,,,,,
,,59e795c062637600014a7d3f,33,female,2024-04-24_11h32.33.916,stockport_simplified,2022.2.4,Linux x86_64,59.88023952,661e456ee6de07e70aa9ef7b,6628df8ab8160f08a3f675d0,,,,,,,,,,,,,,,,,,,,,,,,,,,,,,,,,,,,,,,,,,,,,,,,,,,,,,,,0,18,18,42,1,B,X,N,o2_image,stimuli/out2.png,stimuli/out1.png,stimuli/correct_out2.png,,,,,,,,,,,,,,,,,,,,,,,,,,,,,,,,,,,,,,
,,59e795c062637600014a7d3f,33,female,2024-04-24_11h32.33.916,stockport_simplified,2022.2.4,Linux x86_64,59.88023952,661e456ee6de07e70aa9ef7b,6628df8ab8160f08a3f675d0,,,,,,,,,,,,,,,,,,,,,,,,,,,,,,,,,,184.9356,187.0329,"[8,7,4,5,3,2,6,1]","[[0.3,0.2],[-0.3,0.2]]","[[-0.125,-0.2],[0.125,-0.2]]",-0.108333305,-0.155555584,1,0,0,1.5808,o1_image,187.0372,1,187.5324,187.5325,189.5319,0,0,0,0,1,,,,,,,,,,,,,,,,,,,,,,,,,,,,,,,,,,,,,,,,,,,,,,,,,,
,,59e795c062637600014a7d3f,33,female,2024-04-24_11h32.33.916,stockport_simplified,2022.2.4,Linux x86_64,59.88023952,661e456ee6de07e70aa9ef7b,6628df8ab8160f08a3f675d0,,,,,,,,,,,,,,,,,,,,,,,,,,,,,,,,,,,,,,,,,,,,,,,,,,,,,,,,0,19,19,8,1,A,Y,N,o1_image,stimuli/out1.png,stimuli/correct_out1.png,stimuli/out2.png,,,,,,,,,,,,,,,,,,,,,,,,,,,,,,,,,,,,,,
,,59e795c062637600014a7d3f,33,female,2024-04-24_11h32.33.916,stockport_simplified,2022.2.4,Linux x86_64,59.88023952,661e456ee6de07e70aa9ef7b,6628df8ab8160f08a3f675d0,,,,,,,,,,,,,,,,,,,,,,,,,,,,,,,,,,189.5328,191.7464,"[8,7,4,5,3,2,6,1]","[[-0.3,0.2],[0.3,0.2]]","[[0.125,-0.2],[-0.125,-0.2]]",-0.115740741,-0.199999986,1,0,0,1.6969,o2_image,191.7514,0,192.245,192.2451,194.244,0,0,0,0,1,,,,,,,,,,,,,,,,,,,,,,,,,,,,,,,,,,,,,,,,,,,,,,,,,,
,,59e795c062637600014a7d3f,33,female,2024-04-24_11h32.33.916,stockport_simplified,2022.2.4,Linux x86_64,59.88023952,661e456ee6de07e70aa9ef7b,6628df8ab8160f08a3f675d0,,,,,,,,,,,,,,,,,,,,,,,,,,,,,,,,,,,,,,,,,,,,,,,,,,,,,,,,0,20,20,3,1,A,X,N,o1_image,stimuli/out1.png,stimuli/correct_out1.png,stimuli/out2.png,,,,,,,,,,,,,,,,,,,,,,,,,,,,,,,,,,,,,,
,,59e795c062637600014a7d3f,33,female,2024-04-24_11h32.33.916,stockport_simplified,2022.2.4,Linux x86_64,59.88023952,661e456ee6de07e70aa9ef7b,6628df8ab8160f08a3f675d0,,,,,,,,,,,,,,,,,,,,,,,,,,,,,,,,,,194.2448,197.5319,"[8,7,4,5,3,2,6,1]","[[-0.3,0.2],[0.3,0.2]]","[[0.125,-0.2],[-0.125,-0.2]]",-0.108333305,-0.213888875,1,0,0,2.7699,o2_image,197.5336,1,198.025,198.0255,200.0218,0,0,0,0,1,,,,,,,,,,,,,,,,,,,,,,,,,,,,,,,,,,,,,,,,,,,,,,,,,,
,,59e795c062637600014a7d3f,33,female,2024-04-24_11h32.33.916,stockport_simplified,2022.2.4,Linux x86_64,59.88023952,661e456ee6de07e70aa9ef7b,6628df8ab8160f08a3f675d0,,,,,,,,,,,,,,,,,,,,,,,,,,,,,,,,,,,,,,,,,,,,,,,,,,,,,,,,0,21,21,49,1,B,Y,N,o2_image,stimuli/out2.png,stimuli/out1.png,stimuli/correct_out2.png,,,,,,,,,,,,,,,,,,,,,,,,,,,,,,,,,,,,,,
,,59e795c062637600014a7d3f,33,female,2024-04-24_11h32.33.916,stockport_simplified,2022.2.4,Linux x86_64,59.88023952,661e456ee6de07e70aa9ef7b,6628df8ab8160f08a3f675d0,,,,,,,,,,,,,,,,,,,,,,,,,,,,,,,,,,200.0226,202.4708,"[8,7,4,5,3,2,6,1]","[[-0.3,0.2],[0.3,0.2]]","[[0.125,-0.2],[-0.125,-0.2]]",-0.088888875,-0.237037023,1,0,0,1.9303,o2_image,202.5059,1,203.0032,203.0032,205.0011,0,0,0,0,1,,,,,,,,,,,,,,,,,,,,,,,,,,,,,,,,,,,,,,,,,,,,,,,,,,
,,59e795c062637600014a7d3f,33,female,2024-04-24_11h32.33.916,stockport_simplified,2022.2.4,Linux x86_64,59.88023952,661e456ee6de07e70aa9ef7b,6628df8ab8160f08a3f675d0,,,,,,,,,,,,,,,,,,,,,,,,,,,,,,,,,,,,,,,,,,,,,,,,,,,,,,,,0,22,22,40,1,B,X,N,o2_image,stimuli/out2.png,stimuli/out1.png,stimuli/correct_out2.png,,,,,,,,,,,,,,,,,,,,,,,,,,,,,,,,,,,,,,
,,59e795c062637600014a7d3f,33,female,2024-04-24_11h32.33.916,stockport_simplified,2022.2.4,Linux x86_64,59.88023952,661e456ee6de07e70aa9ef7b,6628df8ab8160f08a3f675d0,,,,,,,,,,,,,,,,,,,,,,,,,,,,,,,,,,205.0019,207.5162,"[8,7,4,5,3,2,6,1]","[[0.3,0.2],[-0.3,0.2]]","[[0.125,-0.2],[-0.125,-0.2]]",-0.091666681,-0.240740741,1,0,0,1.9961,o2_image,207.5203,0,208.0154,208.0155,210.0146,0,0,0,0,1,,,,,,,,,,,,,,,,,,,,,,,,,,,,,,,,,,,,,,,,,,,,,,,,,,
,,59e795c062637600014a7d3f,33,female,2024-04-24_11h32.33.916,stockport_simplified,2022.2.4,Linux x86_64,59.88023952,661e456ee6de07e70aa9ef7b,6628df8ab8160f08a3f675d0,,,,,,,,,,,,,,,,,,,,,,,,,,,,,,,,,,,,,,,,,,,,,,,,,,,,,,,,0,23,23,9,1,A,Y,N,o1_image,stimuli/out1.png,stimuli/correct_out1.png,stimuli/out2.png,,,,,,,,,,,,,,,,,,,,,,,,,,,,,,,,,,,,,,
,,59e795c062637600014a7d3f,33,female,2024-04-24_11h32.33.916,stockport_simplified,2022.2.4,Linux x86_64,59.88023952,661e456ee6de07e70aa9ef7b,6628df8ab8160f08a3f675d0,,,,,,,,,,,,,,,,,,,,,,,,,,,,,,,,,,210.0155,212.2455,"[8,7,4,5,3,2,6,1]","[[-0.3,0.2],[0.3,0.2]]","[[0.125,-0.2],[-0.125,-0.2]]",-0.099074046,-0.227777764,1,0,0,1.7129,o2_image,212.2855,1,212.778,212.7781,214.7782,0,0,0,0,1,,,,,,,,,,,,,,,,,,,,,,,,,,,,,,,,,,,,,,,,,,,,,,,,,,
,,59e795c062637600014a7d3f,33,female,2024-04-24_11h32.33.916,stockport_simplified,2022.2.4,Linux x86_64,59.88023952,661e456ee6de07e70aa9ef7b,6628df8ab8160f08a3f675d0,,,,,,,,,,,,,,,,,,,,,,,,,,,,,,,,,,,,,,,,,,,,,,,,,,,,,,,,0,24,24,45,1,B,Y,N,o2_image,stimuli/out2.png,stimuli/out1.png,stimuli/correct_out2.png,,,,,,,,,,,,,,,,,,,,,,,,,,,,,,,,,,,,,,
,,59e795c062637600014a7d3f,33,female,2024-04-24_11h32.33.916,stockport_simplified,2022.2.4,Linux x86_64,59.88023952,661e456ee6de07e70aa9ef7b,6628df8ab8160f08a3f675d0,,,,,,,,,,,,,,,,,,,,,,,,,,,,,,,,,,214.7799,217.1587,"[8,7,4,5,3,2,6,1]","[[0.3,0.2],[-0.3,0.2]]","[[0.125,-0.2],[-0.125,-0.2]]",-0.080555527,-0.175925926,1,0,0,1.8656,o2_image,217.1631,1,217.6587,217.6589,219.6562,0,0,0,0,1,,,,,,,,,,,,,,,,,,,,,,,,,,,,,,,,,,,,,,,,,,,,,,,,,,
,,59e795c062637600014a7d3f,33,female,2024-04-24_11h32.33.916,stockport_simplified,2022.2.4,Linux x86_64,59.88023952,661e456ee6de07e70aa9ef7b,6628df8ab8160f08a3f675d0,,,,,,,,,,,,,,,,,,,,,,,,,,,,,,,,,,,,,,,,,,,,,,,,,,,,,,,,0,25,25,15,1,B,Y,N,o2_image,stimuli/out2.png,stimuli/out1.png,stimuli/correct_out2.png,,,,,,,,,,,,,,,,,,,,,,,,,,,,,,,,,,,,,,
,,59e795c062637600014a7d3f,33,female,2024-04-24_11h32.33.916,stockport_simplified,2022.2.4,Linux x86_64,59.88023952,661e456ee6de07e70aa9ef7b,6628df8ab8160f08a3f675d0,,,,,,,,,,,,,,,,,,,,,,,,,,,,,,,,,,219.6576,221.7883,"[8,7,4,5,3,2,6,1]","[[-0.3,0.2],[0.3,0.2]]","[[0.125,-0.2],[-0.125,-0.2]]",-0.112037023,-0.199074074,1,0,0,1.6143,o2_image,221.7918,0,222.2862,222.2863,224.2869,0,0,0,0,1,,,,,,,,,,,,,,,,,,,,,,,,,,,,,,,,,,,,,,,,,,,,,,,,,,
,,59e795c062637600014a7d3f,33,female,2024-04-24_11h32.33.916,stockport_simplified,2022.2.4,Linux x86_64,59.88023952,661e456ee6de07e70aa9ef7b,6628df8ab8160f08a3f675d0,,,,,,,,,,,,,,,,,,,,,,,,,,,,,,,,,,,,,,,,,,,,,,,,,,,,,,,,0,26,26,30,1,A,X,N,o1_image,stimuli/out1.png,stimuli/correct_out1.png,stimuli/out2.png,,,,,,,,,,,,,,,,,,,,,,,,,,,,,,,,,,,,,,
,,59e795c062637600014a7d3f,33,female,2024-04-24_11h32.33.916,stockport_simplified,2022.2.4,Linux x86_64,59.88023952,661e456ee6de07e70aa9ef7b,6628df8ab8160f08a3f675d0,,,,,,,,,,,,,,,,,,,,,,,,,,,,,,,,,,224.2883,226.1507,"[8,7,4,5,3,2,6,1]","[[-0.3,0.2],[0.3,0.2]]","[[0.125,-0.2],[-0.125,-0.2]]",-0.125925912,-0.218518504,1,0,0,1.3473,o2_image,226.1545,1,226.6501,226.6502,228.6517,0,0,0,0,1,,,,,,,,,,,,,,,,,,,,,,,,,,,,,,,,,,,,,,,,,,,,,,,,,,
,,59e795c062637600014a7d3f,33,female,2024-04-24_11h32.33.916,stockport_simplified,2022.2.4,Linux x86_64,59.88023952,661e456ee6de07e70aa9ef7b,6628df8ab8160f08a3f675d0,,,,,,,,,,,,,,,,,,,,,,,,,,,,,,,,,,,,,,,,,,,,,,,,,,,,,,,,0,27,27,47,1,B,Y,N,o2_image,stimuli/out2.png,stimuli/out1.png,stimuli/correct_out2.png,,,,,,,,,,,,,,,,,,,,,,,,,,,,,,,,,,,,,,
,,59e795c062637600014a7d3f,33,female,2024-04-24_11h32.33.916,stockport_simplified,2022.2.4,Linux x86_64,59.88023952,661e456ee6de07e70aa9ef7b,6628df8ab8160f08a3f675d0,,,,,,,,,,,,,,,,,,,,,,,,,,,,,,,,,,228.6525,231.1463,"[8,7,4,5,3,2,6,1]","[[-0.3,0.2],[0.3,0.2]]","[[0.125,-0.2],[-0.125,-0.2]]",0.102777764,-0.212962963,1,0,0,1.9801,o1_image,231.1479,0,231.646,231.646,233.645,0,0,0,0,1,,,,,,,,,,,,,,,,,,,,,,,,,,,,,,,,,,,,,,,,,,,,,,,,,,
,,59e795c062637600014a7d3f,33,female,2024-04-24_11h32.33.916,stockport_simplified,2022.2.4,Linux x86_64,59.88023952,661e456ee6de07e70aa9ef7b,6628df8ab8160f08a3f675d0,,,,,,,,,,,,,,,,,,,,,,,,,,,,,,,,,,,,,,,,,,,,,,,,,,,,,,,,0,28,28,11,1,B,X,N,o2_image,stimuli/out2.png,stimuli/out1.png,stimuli/correct_out2.png,,,,,,,,,,,,,,,,,,,,,,,,,,,,,,,,,,,,,,
,,59e795c062637600014a7d3f,33,female,2024-04-24_11h32.33.916,stockport_simplified,2022.2.4,Linux x86_64,59.88023952,661e456ee6de07e70aa9ef7b,6628df8ab8160f08a3f675d0,,,,,,,,,,,,,,,,,,,,,,,,,,,,,,,,,,233.6466,236.4095,"[8,7,4,5,3,2,6,1]","[[0.3,0.2],[-0.3,0.2]]","[[0.125,-0.2],[-0.125,-0.2]]",0.138888889,-0.20648151,1,0,0,2.2465,o1_image,236.4441,1,236.9434,236.9434,238.9408,0,0,0,0,1,,,,,,,,,,,,,,,,,,,,,,,,,,,,,,,,,,,,,,,,,,,,,,,,,,
,,59e795c062637600014a7d3f,33,female,2024-04-24_11h32.33.916,stockport_simplified,2022.2.4,Linux x86_64,59.88023952,661e456ee6de07e70aa9ef7b,6628df8ab8160f08a3f675d0,,,,,,,,,,,,,,,,,,,,,,,,,,,,,,,,,,,,,,,,,,,,,,,,,,,,,,,,0,29,29,23,1,N,M,C,o1_image,stimuli/out1.png,stimuli/correct_out1.png,stimuli/out2.png,,,,,,,,,,,,,,,,,,,,,,,,,,,,,,,,,,,,,,
,,59e795c062637600014a7d3f,33,female,2024-04-24_11h32.33.916,stockport_simplified,2022.2.4,Linux x86_64,59.88023952,661e456ee6de07e70aa9ef7b,6628df8ab8160f08a3f675d0,,,,,,,,,,,,,,,,,,,,,,,,,,,,,,,,,,238.9418,241.1214,"[8,7,4,5,3,2,6,1]","[[0.3,0.2],[-0.3,0.2]]","[[-0.125,-0.2],[0.125,-0.2]]",0.124074088,-0.210185228,1,0,0,1.6634,o2_image,241.1245,1,241.6215,241.6217,243.6212,0,0,0,0,1,,,,,,,,,,,,,,,,,,,,,,,,,,,,,,,,,,,,,,,,,,,,,,,,,,
,,59e795c062637600014a7d3f,33,female,2024-04-24_11h32.33.916,stockport_simplified,2022.2.4,Linux x86_64,59.88023952,661e456ee6de07e70aa9ef7b,6628df8ab8160f08a3f675d0,,,,,,,,,,,,,,,,,,,,,,,,,,,,,,,,,,,,,,,,,,,,,,,,,,,,,,,,0,30,30,27,1,N,M,D,o2_image,stimuli/out2.png,stimuli/out1.png,stimuli/correct_out2.png,,,,,,,,,,,,,,,,,,,,,,,,,,,,,,,,,,,,,,
,,59e795c062637600014a7d3f,33,female,2024-04-24_11h32.33.916,stockport_simplified,2022.2.4,Linux x86_64,59.88023952,661e456ee6de07e70aa9ef7b,6628df8ab8160f08a3f675d0,,,,,,,,,,,,,,,,,,,,,,,,,,,,,,,,,,243.6224,246.5176,"[8,7,4,5,3,2,6,1]","[[0.3,0.2],[-0.3,0.2]]","[[0.125,-0.2],[-0.125,-0.2]]",-0.076851809,-0.204629616,1,0,0,2.3802,o2_image,246.5549,1,247.0502,247.0502,249.0488,0,0,0,0,1,,,,,,,,,,,,,,,,,,,,,,,,,,,,,,,,,,,,,,,,,,,,,,,,,,
,,59e795c062637600014a7d3f,33,female,2024-04-24_11h32.33.916,stockport_simplified,2022.2.4,Linux x86_64,59.88023952,661e456ee6de07e70aa9ef7b,6628df8ab8160f08a3f675d0,,,,,,,,,,,,,,,,,,,,,,,,,,,,,,,,,,,,,,,,,,,,,,,,,,,,,,,,0,31,31,19,1,B,Y,N,o2_image,stimuli/out2.png,stimuli/out1.png,stimuli/correct_out2.png,,,,,,,,,,,,,,,,,,,,,,,,,,,,,,,,,,,,,,
,,59e795c062637600014a7d3f,33,female,2024-04-24_11h32.33.916,stockport_simplified,2022.2.4,Linux x86_64,59.88023952,661e456ee6de07e70aa9ef7b,6628df8ab8160f08a3f675d0,,,,,,,,,,,,,,,,,,,,,,,,,,,,,,,,,,249.0511,251.9459,"[8,7,4,5,3,2,6,1]","[[0.3,0.2],[-0.3,0.2]]","[[-0.125,-0.2],[0.125,-0.2]]",0.093518504,-0.215740769,1,0,0,2.3763,o2_image,251.9474,0,252.4455,252.4456,254.4436,0,0,0,0,1,,,,,,,,,,,,,,,,,,,,,,,,,,,,,,,,,,,,,,,,,,,,,,,,,,
,,59e795c062637600014a7d3f,33,female,2024-04-24_11h32.33.916,stockport_simplified,2022.2.4,Linux x86_64,59.88023952,661e456ee6de07e70aa9ef7b,6628df8ab8160f08a3f675d0,,,,,,,,,,,,,,,,,,,,,,,,,,,,,,,,,,,,,,,,,,,,,,,,,,,,,,,,0,32,32,22,1,N,M,C,o1_image,stimuli/out1.png,stimuli/correct_out1.png,stimuli/out2.png,,,,,,,,,,,,,,,,,,,,,,,,,,,,,,,,,,,,,,
,,59e795c062637600014a7d3f,33,female,2024-04-24_11h32.33.916,stockport_simplified,2022.2.4,Linux x86_64,59.88023952,661e456ee6de07e70aa9ef7b,6628df8ab8160f08a3f675d0,,,,,,,,,,,,,,,,,,,,,,,,,,,,,,,,,,254.4448,257.6421,"[8,7,4,5,3,2,6,1]","[[-0.3,0.2],[0.3,0.2]]","[[-0.125,-0.2],[0.125,-0.2]]",-0.091666681,-0.20648151,1,0,0,2.6787,o1_image,257.6455,0,258.142,258.1423,260.1391,0,0,0,0,1,,,,,,,,,,,,,,,,,,,,,,,,,,,,,,,,,,,,,,,,,,,,,,,,,,
,,59e795c062637600014a7d3f,33,female,2024-04-24_11h32.33.916,stockport_simplified,2022.2.4,Linux x86_64,59.88023952,661e456ee6de07e70aa9ef7b,6628df8ab8160f08a3f675d0,,,,,,,,,,,,,,,,,,,,,,,,,,,,,,,,,,,,,,,,,,,,,,,,,,,,,,,,0,33,33,16,1,B,Y,N,o2_image,stimuli/out2.png,stimuli/out1.png,stimuli/correct_out2.png,,,,,,,,,,,,,,,,,,,,,,,,,,,,,,,,,,,,,,
,,59e795c062637600014a7d3f,33,female,2024-04-24_11h32.33.916,stockport_simplified,2022.2.4,Linux x86_64,59.88023952,661e456ee6de07e70aa9ef7b,6628df8ab8160f08a3f675d0,,,,,,,,,,,,,,,,,,,,,,,,,,,,,,,,,,260.1425,262.0549,"[8,7,4,5,3,2,6,1]","[[0.3,0.2],[-0.3,0.2]]","[[-0.125,-0.2],[0.125,-0.2]]",0.17777782,-0.185185185,1,0,0,1.3969,o2_image,262.0582,0,262.5539,262.554,264.5529,0,0,0,0,1,,,,,,,,,,,,,,,,,,,,,,,,,,,,,,,,,,,,,,,,,,,,,,,,,,
,,59e795c062637600014a7d3f,33,female,2024-04-24_11h32.33.916,stockport_simplified,2022.2.4,Linux x86_64,59.88023952,661e456ee6de07e70aa9ef7b,6628df8ab8160f08a3f675d0,,,,,,,,,,,,,,,,,,,,,,,,,,,,,,,,,,,,,,,,,,,,,,,,,,,,,,,,0,34,34,36,1,A,Y,N,o1_image,stimuli/out1.png,stimuli/correct_out1.png,stimuli/out2.png,,,,,,,,,,,,,,,,,,,,,,,,,,,,,,,,,,,,,,
,,59e795c062637600014a7d3f,33,female,2024-04-24_11h32.33.916,stockport_simplified,2022.2.4,Linux x86_64,59.88023952,661e456ee6de07e70aa9ef7b,6628df8ab8160f08a3f675d0,,,,,,,,,,,,,,,,,,,,,,,,,,,,,,,,,,264.5542,266.9677,"[8,7,4,5,3,2,6,1]","[[0.3,0.2],[-0.3,0.2]]","[[0.125,-0.2],[-0.125,-0.2]]",-0.095370328,-0.225000028,1,0,0,1.8969,o2_image,266.9706,0,267.4665,267.4666,269.4657,0,0,0,0,1,,,,,,,,,,,,,,,,,,,,,,,,,,,,,,,,,,,,,,,,,,,,,,,,,,
,,59e795c062637600014a7d3f,33,female,2024-04-24_11h32.33.916,stockport_simplified,2022.2.4,Linux x86_64,59.88023952,661e456ee6de07e70aa9ef7b,6628df8ab8160f08a3f675d0,,,,,,,,,,,,,,,,,,,,,,,,,,,,,,,,,,,,,,,,,,,,,,,,,,,,,,,,0,35,35,35,1,A,Y,N,o1_image,stimuli/out1.png,stimuli/correct_out1.png,stimuli/out2.png,,,,,,,,,,,,,,,,,,,,,,,,,,,,,,,,,,,,,,
,,59e795c062637600014a7d3f,33,female,2024-04-24_11h32.33.916,stockport_simplified,2022.2.4,Linux x86_64,59.88023952,661e456ee6de07e70aa9ef7b,6628df8ab8160f08a3f675d0,,,,,,,,,,,,,,,,,,,,,,,,,,,,,,,,,,269.4671,271.3301,"[8,7,4,5,3,2,6,1]","[[-0.3,0.2],[0.3,0.2]]","[[0.125,-0.2],[-0.125,-0.2]]",0.122222265,-0.199074074,1,0,0,1.3482,o1_image,271.3324,1,271.8298,271.8299,273.8281,0,0,0,0,1,,,,,,,,,,,,,,,,,,,,,,,,,,,,,,,,,,,,,,,,,,,,,,,,,,
,,59e795c062637600014a7d3f,33,female,2024-04-24_11h32.33.916,stockport_simplified,2022.2.4,Linux x86_64,59.88023952,661e456ee6de07e70aa9ef7b,6628df8ab8160f08a3f675d0,,,,,,,,,,,,,,,,,,,,,,,,,,,,,,,,,,,,,,,,,,,,,,,,,,,,,,,,0,36,36,2,1,A,X,N,o1_image,stimuli/out1.png,stimuli/correct_out1.png,stimuli/out2.png,,,,,,,,,,,,,,,,,,,,,,,,,,,,,,,,,,,,,,
,,59e795c062637600014a7d3f,33,female,2024-04-24_11h32.33.916,stockport_simplified,2022.2.4,Linux x86_64,59.88023952,661e456ee6de07e70aa9ef7b,6628df8ab8160f08a3f675d0,,,,,,,,,,,,,,,,,,,,,,,,,,,,,,,,,,273.8291,275.5772,"[8,7,4,5,3,2,6,1]","[[-0.3,0.2],[0.3,0.2]]","[[-0.125,-0.2],[0.125,-0.2]]",-0.084259245,-0.235185199,1,0,0,1.23,o1_image,275.5795,0,276.076,276.076,278.0743,0,0,0,0,1,,,,,,,,,,,,,,,,,,,,,,,,,,,,,,,,,,,,,,,,,,,,,,,,,,
,,59e795c062637600014a7d3f,33,female,2024-04-24_11h32.33.916,stockport_simplified,2022.2.4,Linux x86_64,59.88023952,661e456ee6de07e70aa9ef7b,6628df8ab8160f08a3f675d0,,,,,,,,,,,,,,,,,,,,,,,,,,,,,,,,,,,,,,,,,,,,,,,,,,,,,,,,0,37,37,29,1,N,M,D,o2_image,stimuli/out2.png,stimuli/out1.png,stimuli/correct_out2.png,,,,,,,,,,,,,,,,,,,,,,,,,,,,,,,,,,,,,,
,,59e795c062637600014a7d3f,33,female,2024-04-24_11h32.33.916,stockport_simplified,2022.2.4,Linux x86_64,59.88023952,661e456ee6de07e70aa9ef7b,6628df8ab8160f08a3f675d0,,,,,,,,,,,,,,,,,,,,,,,,,,,,,,,,,,278.0763,280.4902,"[8,7,4,5,3,2,6,1]","[[0.3,0.2],[-0.3,0.2]]","[[-0.125,-0.2],[0.125,-0.2]]",-0.119444459,-0.203703704,1,0,0,1.8958,o1_image,280.5235,0,281.0224,281.0231,283.0214,0,0,0,0,1,,,,,,,,,,,,,,,,,,,,,,,,,,,,,,,,,,,,,,,,,,,,,,,,,,
,,59e795c062637600014a7d3f,33,female,2024-04-24_11h32.33.916,stockport_simplified,2022.2.4,Linux x86_64,59.88023952,661e456ee6de07e70aa9ef7b,6628df8ab8160f08a3f675d0,,,,,,,,,,,,,,,,,,,,,,,,,,,,,,,,,,,,,,,,,,,,,,,,,,,,,,,,0,38,38,41,1,B,X,N,o2_image,stimuli/out2.png,stimuli/out1.png,stimuli/correct_out2.png,,,,,,,,,,,,,,,,,,,,,,,,,,,,,,,,,,,,,,
,,59e795c062637600014a7d3f,33,female,2024-04-24_11h32.33.916,stockport_simplified,2022.2.4,Linux x86_64,59.88023952,661e456ee6de07e70aa9ef7b,6628df8ab8160f08a3f675d0,,,,,,,,,,,,,,,,,,,,,,,,,,,,,,,,,,283.0229,285.4053,"[8,7,4,5,3,2,6,1]","[[0.3,0.2],[-0.3,0.2]]","[[0.125,-0.2],[-0.125,-0.2]]",0.150000042,-0.190740727,1,0,0,1.8659,o1_image,285.4072,0,285.9032,285.9035,287.8996,0,0,0,0,1,,,,,,,,,,,,,,,,,,,,,,,,,,,,,,,,,,,,,,,,,,,,,,,,,,
,,59e795c062637600014a7d3f,33,female,2024-04-24_11h32.33.916,stockport_simplified,2022.2.4,Linux x86_64,59.88023952,661e456ee6de07e70aa9ef7b,6628df8ab8160f08a3f675d0,,,,,,,,,,,,,,,,,,,,,,,,,,,,,,,,,,,,,,,,,,,,,,,,,,,,,,,,0,39,39,59,1,N,M,D,o2_image,stimuli/out2.png,stimuli/out1.png,stimuli/correct_out2.png,,,,,,,,,,,,,,,,,,,,,,,,,,,,,,,,,,,,,,
,,59e795c062637600014a7d3f,33,female,2024-04-24_11h32.33.916,stockport_simplified,2022.2.4,Linux x86_64,59.88023952,661e456ee6de07e70aa9ef7b,6628df8ab8160f08a3f675d0,,,,,,,,,,,,,,,,,,,,,,,,,,,,,,,,,,287.9005,290.7305,"[8,7,4,5,3,2,6,1]","[[0.3,0.2],[-0.3,0.2]]","[[-0.125,-0.2],[0.125,-0.2]]",-0.132407365,-0.200925968,1,0,0,2.312,o1_image,290.7645,1,291.2641,291.2642,293.2627,0,0,0,0,1,,,,,,,,,,,,,,,,,,,,,,,,,,,,,,,,,,,,,,,,,,,,,,,,,,
,,59e795c062637600014a7d3f,33,female,2024-04-24_11h32.33.916,stockport_simplified,2022.2.4,Linux x86_64,59.88023952,661e456ee6de07e70aa9ef7b,6628df8ab8160f08a3f675d0,,,,,,,,,,,,,,,,,,,,,,,,,,,,,,,,,,,,,,,,,,,,,,,,,,,,,,,,0,40,40,38,1,A,Y,N,o1_image,stimuli/out1.png,stimuli/correct_out1.png,stimuli/out2.png,,,,,,,,,,,,,,,,,,,,,,,,,,,,,,,,,,,,,,
,,59e795c062637600014a7d3f,33,female,2024-04-24_11h32.33.916,stockport_simplified,2022.2.4,Linux x86_64,59.88023952,661e456ee6de07e70aa9ef7b,6628df8ab8160f08a3f675d0,,,,,,,,,,,,,,,,,,,,,,,,,,,,,,,,,,293.2643,295.7935,"[8,7,4,5,3,2,6,1]","[[-0.3,0.2],[0.3,0.2]]","[[-0.125,-0.2],[0.125,-0.2]]",-0.09629631,-0.232407393,1,0,0,2.0136,o1_image,295.7969,0,296.292,296.292,298.2914,0,0,0,0,1,,,,,,,,,,,,,,,,,,,,,,,,,,,,,,,,,,,,,,,,,,,,,,,,,,
,,59e795c062637600014a7d3f,33,female,2024-04-24_11h32.33.916,stockport_simplified,2022.2.4,Linux x86_64,59.88023952,661e456ee6de07e70aa9ef7b,6628df8ab8160f08a3f675d0,,,,,,,,,,,,,,,,,,,,,,,,,,,,,,,,,,,,,,,,,,,,,,,,,,,,,,,,0,41,41,28,1,N,M,D,o2_image,stimuli/out2.png,stimuli/out1.png,stimuli/correct_out2.png,,,,,,,,,,,,,,,,,,,,,,,,,,,,,,,,,,,,,,
,,59e795c062637600014a7d3f,33,female,2024-04-24_11h32.33.916,stockport_simplified,2022.2.4,Linux x86_64,59.88023952,661e456ee6de07e70aa9ef7b,6628df8ab8160f08a3f675d0,,,,,,,,,,,,,,,,,,,,,,,,,,,,,,,,,,298.2923,300.8075,"[8,7,4,5,3,2,6,1]","[[-0.3,0.2],[0.3,0.2]]","[[0.125,-0.2],[-0.125,-0.2]]",0.125925912,-0.194444444,1,0,0,1.9972,o1_image,300.8404,1,301.3385,301.3385,303.3384,0,0,0,0,1,,,,,,,,,,,,,,,,,,,,,,,,,,,,,,,,,,,,,,,,,,,,,,,,,,
,,59e795c062637600014a7d3f,33,female,2024-04-24_11h32.33.916,stockport_simplified,2022.2.4,Linux x86_64,59.88023952,661e456ee6de07e70aa9ef7b,6628df8ab8160f08a3f675d0,,,,,,,,,,,,,,,,,,,,,,,,,,,,,,,,,,,,,,,,,,,,,,,,,,,,,,,,0,42,42,0,1,A,X,N,o1_image,stimuli/out1.png,stimuli/correct_out1.png,stimuli/out2.png,,,,,,,,,,,,,,,,,,,,,,,,,,,,,,,,,,,,,,
,,59e795c062637600014a7d3f,33,female,2024-04-24_11h32.33.916,stockport_simplified,2022.2.4,Linux x86_64,59.88023952,661e456ee6de07e70aa9ef7b,6628df8ab8160f08a3f675d0,,,,,,,,,,,,,,,,,,,,,,,,,,,,,,,,,,303.3405,305.4518,"[8,7,4,5,3,2,6,1]","[[0.3,0.2],[-0.3,0.2]]","[[0.125,-0.2],[-0.125,-0.2]]",0.116666653,-0.178703732,1,0,0,1.597,o1_image,305.4533,1,305.9513,305.9514,307.9508,0,0,0,0,1,,,,,,,,,,,,,,,,,,,,,,,,,,,,,,,,,,,,,,,,,,,,,,,,,,
,,59e795c062637600014a7d3f,33,female,2024-04-24_11h32.33.916,stockport_simplified,2022.2.4,Linux x86_64,59.88023952,661e456ee6de07e70aa9ef7b,6628df8ab8160f08a3f675d0,,,,,,,,,,,,,,,,,,,,,,,,,,,,,,,,,,,,,,,,,,,,,,,,,,,,,,,,0,43,43,21,1,N,M,C,o1_image,stimuli/out1.png,stimuli/correct_out1.png,stimuli/out2.png,,,,,,,,,,,,,,,,,,,,,,,,,,,,,,,,,,,,,,
,,59e795c062637600014a7d3f,33,female,2024-04-24_11h32.33.916,stockport_simplified,2022.2.4,Linux x86_64,59.88023952,661e456ee6de07e70aa9ef7b,6628df8ab8160f08a3f675d0,,,,,,,,,,,,,,,,,,,,,,,,,,,,,,,,,,307.9532,309.8987,"[8,7,4,5,3,2,6,1]","[[0.3,0.2],[-0.3,0.2]]","[[0.125,-0.2],[-0.125,-0.2]]",0.116666653,-0.203703704,1,0,0,1.4309,o1_image,309.9004,1,310.3981,310.3983,312.3965,0,0,0,0,1,,,,,,,,,,,,,,,,,,,,,,,,,,,,,,,,,,,,,,,,,,,,,,,,,,
,,59e795c062637600014a7d3f,33,female,2024-04-24_11h32.33.916,stockport_simplified,2022.2.4,Linux x86_64,59.88023952,661e456ee6de07e70aa9ef7b,6628df8ab8160f08a3f675d0,,,,,,,,,,,,,,,,,,,,,,,,,,,,,,,,,,,,,,,,,,,,,,,,,,,,,,,,0,44,44,50,1,N,M,C,o1_image,stimuli/out1.png,stimuli/correct_out1.png,stimuli/out2.png,,,,,,,,,,,,,,,,,,,,,,,,,,,,,,,,,,,,,,
,,59e795c062637600014a7d3f,33,female,2024-04-24_11h32.33.916,stockport_simplified,2022.2.4,Linux x86_64,59.88023952,661e456ee6de07e70aa9ef7b,6628df8ab8160f08a3f675d0,,,,,,,,,,,,,,,,,,,,,,,,,,,,,,,,,,312.3973,314.3787,"[8,7,4,5,3,2,6,1]","[[-0.3,0.2],[0.3,0.2]]","[[0.125,-0.2],[-0.125,-0.2]]",0.139814801,-0.185185185,1,0,0,1.466,o1_image,314.381,1,314.8778,314.8779,316.876,0,0,0,0,1,,,,,,,,,,,,,,,,,,,,,,,,,,,,,,,,,,,,,,,,,,,,,,,,,,
,,59e795c062637600014a7d3f,33,female,2024-04-24_11h32.33.916,stockport_simplified,2022.2.4,Linux x86_64,59.88023952,661e456ee6de07e70aa9ef7b,6628df8ab8160f08a3f675d0,,,,,,,,,,,,,,,,,,,,,,,,,,,,,,,,,,,,,,,,,,,,,,,,,,,,,,,,0,45,45,52,1,N,M,C,o1_image,stimuli/out1.png,stimuli/correct_out1.png,stimuli/out2.png,,,,,,,,,,,,,,,,,,,,,,,,,,,,,,,,,,,,,,
,,59e795c062637600014a7d3f,33,female,2024-04-24_11h32.33.916,stockport_simplified,2022.2.4,Linux x86_64,59.88023952,661e456ee6de07e70aa9ef7b,6628df8ab8160f08a3f675d0,,,,,,,,,,,,,,,,,,,,,,,,,,,,,,,,,,316.877,319.5083,"[8,7,4,5,3,2,6,1]","[[-0.3,0.2],[0.3,0.2]]","[[-0.125,-0.2],[0.125,-0.2]]",-0.126851824,-0.194444444,1,0,0,2.1128,o1_image,319.5105,1,320.0065,320.0066,322.0051,0,0,0,0,1,,,,,,,,,,,,,,,,,,,,,,,,,,,,,,,,,,,,,,,,,,,,,,,,,,
,,59e795c062637600014a7d3f,33,female,2024-04-24_11h32.33.916,stockport_simplified,2022.2.4,Linux x86_64,59.88023952,661e456ee6de07e70aa9ef7b,6628df8ab8160f08a3f675d0,,,,,,,,,,,,,,,,,,,,,,,,,,,,,,,,,,,,,,,,,,,,,,,,,,,,,,,,0,46,46,1,1,A,X,N,o1_image,stimuli/out1.png,stimuli/correct_out1.png,stimuli/out2.png,,,,,,,,,,,,,,,,,,,,,,,,,,,,,,,,,,,,,,
,,59e795c062637600014a7d3f,33,female,2024-04-24_11h32.33.916,stockport_simplified,2022.2.4,Linux x86_64,59.88023952,661e456ee6de07e70aa9ef7b,6628df8ab8160f08a3f675d0,,,,,,,,,,,,,,,,,,,,,,,,,,,,,,,,,,322.006,324.7865,"[8,7,4,5,3,2,6,1]","[[0.3,0.2],[-0.3,0.2]]","[[-0.125,-0.2],[0.125,-0.2]]",0.110185199,-0.170370384,1,0,0,2.2633,o2_image,324.8199,0,325.3188,325.319,327.3171,0,0,0,0,1,,,,,,,,,,,,,,,,,,,,,,,,,,,,,,,,,,,,,,,,,,,,,,,,,,
,,59e795c062637600014a7d3f,33,female,2024-04-24_11h32.33.916,stockport_simplified,2022.2.4,Linux x86_64,59.88023952,661e456ee6de07e70aa9ef7b,6628df8ab8160f08a3f675d0,,,,,,,,,,,,,,,,,,,,,,,,,,,,,,,,,,,,,,,,,,,,,,,,,,,,,,,,0,47,47,24,1,N,M,C,o1_image,stimuli/out1.png,stimuli/correct_out1.png,stimuli/out2.png,,,,,,,,,,,,,,,,,,,,,,,,,,,,,,,,,,,,,,
,,59e795c062637600014a7d3f,33,female,2024-04-24_11h32.33.916,stockport_simplified,2022.2.4,Linux x86_64,59.88023952,661e456ee6de07e70aa9ef7b,6628df8ab8160f08a3f675d0,,,,,,,,,,,,,,,,,,,,,,,,,,,,,,,,,,327.3182,329.7995,"[8,7,4,5,3,2,6,1]","[[0.3,0.2],[-0.3,0.2]]","[[-0.125,-0.2],[0.125,-0.2]]",0.137037065,-0.163888931,1,0,0,1.9652,o2_image,329.8014,1,330.298,330.2982,332.2965,0,0,0,0,1,,,,,,,,,,,,,,,,,,,,,,,,,,,,,,,,,,,,,,,,,,,,,,,,,,
,,59e795c062637600014a7d3f,33,female,2024-04-24_11h32.33.916,stockport_simplified,2022.2.4,Linux x86_64,59.88023952,661e456ee6de07e70aa9ef7b,6628df8ab8160f08a3f675d0,,,,,,,,,,,,,,,,,,,,,,,,,,,,,,,,,,,,,,,,,,,,,,,,,,,,,,,,0,48,48,57,1,N,M,D,o2_image,stimuli/out2.png,stimuli/out1.png,stimuli/correct_out2.png,,,,,,,,,,,,,,,,,,,,,,,,,,,,,,,,,,,,,,
,,59e795c062637600014a7d3f,33,female,2024-04-24_11h32.33.916,stockport_simplified,2022.2.4,Linux x86_64,59.88023952,661e456ee6de07e70aa9ef7b,6628df8ab8160f08a3f675d0,,,,,,,,,,,,,,,,,,,,,,,,,,,,,,,,,,332.2981,335.0642,"[8,7,4,5,3,2,6,1]","[[0.3,0.2],[-0.3,0.2]]","[[0.125,-0.2],[-0.125,-0.2]]",-0.083333333,-0.20648151,1,0,0,2.2641,o2_image,335.1021,1,335.5937,335.5939,337.5927,0,0,0,0,1,,,,,,,,,,,,,,,,,,,,,,,,,,,,,,,,,,,,,,,,,,,,,,,,,,
,,59e795c062637600014a7d3f,33,female,2024-04-24_11h32.33.916,stockport_simplified,2022.2.4,Linux x86_64,59.88023952,661e456ee6de07e70aa9ef7b,6628df8ab8160f08a3f675d0,,,,,,,,,,,,,,,,,,,,,,,,,,,,,,,,,,,,,,,,,,,,,,,,,,,,,,,,0,49,49,12,1,B,X,N,o2_image,stimuli/out2.png,stimuli/out1.png,stimuli/correct_out2.png,,,,,,,,,,,,,,,,,,,,,,,,,,,,,,,,,,,,,,
,,59e795c062637600014a7d3f,33,female,2024-04-24_11h32.33.916,stockport_simplified,2022.2.4,Linux x86_64,59.88023952,661e456ee6de07e70aa9ef7b,6628df8ab8160f08a3f675d0,,,,,,,,,,,,,,,,,,,,,,,,,,,,,,,,,,337.5957,339.624,"[8,7,4,5,3,2,6,1]","[[-0.3,0.2],[0.3,0.2]]","[[-0.125,-0.2],[0.125,-0.2]]",0.139814801,-0.209259245,1,0,0,1.5147,o2_image,339.6258,1,340.1234,340.1235,342.1222,0,0,0,0,1,,,,,,,,,,,,,,,,,,,,,,,,,,,,,,,,,,,,,,,,,,,,,,,,,,
,,59e795c062637600014a7d3f,33,female,2024-04-24_11h32.33.916,stockport_simplified,2022.2.4,Linux x86_64,59.88023952,661e456ee6de07e70aa9ef7b,6628df8ab8160f08a3f675d0,,,,,,,,,,,,,,,,,,,,,,,,,,,,,,,,,,,,,,,,,,,,,,,,,,,,,,,,0,50,50,43,1,B,X,N,o2_image,stimuli/out2.png,stimuli/out1.png,stimuli/correct_out2.png,,,,,,,,,,,,,,,,,,,,,,,,,,,,,,,,,,,,,,
,,59e795c062637600014a7d3f,33,female,2024-04-24_11h32.33.916,stockport_simplified,2022.2.4,Linux x86_64,59.88023952,661e456ee6de07e70aa9ef7b,6628df8ab8160f08a3f675d0,,,,,,,,,,,,,,,,,,,,,,,,,,,,,,,,,,342.1232,344.1035,"[8,7,4,5,3,2,6,1]","[[0.3,0.2],[-0.3,0.2]]","[[0.125,-0.2],[-0.125,-0.2]]",0.135185171,-0.205555598,1,0,0,1.4644,o1_image,344.1051,1,344.6029,344.6029,346.602,0,0,0,0,1,,,,,,,,,,,,,,,,,,,,,,,,,,,,,,,,,,,,,,,,,,,,,,,,,,
,,59e795c062637600014a7d3f,33,female,2024-04-24_11h32.33.916,stockport_simplified,2022.2.4,Linux x86_64,59.88023952,661e456ee6de07e70aa9ef7b,6628df8ab8160f08a3f675d0,,,,,,,,,,,,,,,,,,,,,,,,,,,,,,,,,,,,,,,,,,,,,,,,,,,,,,,,0,51,51,34,1,A,X,N,o1_image,stimuli/out1.png,stimuli/correct_out1.png,stimuli/out2.png,,,,,,,,,,,,,,,,,,,,,,,,,,,,,,,,,,,,,,
,,59e795c062637600014a7d3f,33,female,2024-04-24_11h32.33.916,stockport_simplified,2022.2.4,Linux x86_64,59.88023952,661e456ee6de07e70aa9ef7b,6628df8ab8160f08a3f675d0,,,,,,,,,,,,,,,,,,,,,,,,,,,,,,,,,,346.604,350.3154,"[8,7,4,5,3,2,6,1]","[[0.3,0.2],[-0.3,0.2]]","[[0.125,-0.2],[-0.125,-0.2]]",-0.068518533,-0.158333319,1,0,0,3.1961,o2_image,350.3176,0,350.8147,350.8148,352.8133,0,0,0,0,1,,,,,,,,,,,,,,,,,,,,,,,,,,,,,,,,,,,,,,,,,,,,,,,,,,
,,59e795c062637600014a7d3f,33,female,2024-04-24_11h32.33.916,stockport_simplified,2022.2.4,Linux x86_64,59.88023952,661e456ee6de07e70aa9ef7b,6628df8ab8160f08a3f675d0,,,,,,,,,,,,,,,,,,,,,,,,,,,,,,,,,,,,,,,,,,,,,,,,,,,,,,,,0,52,52,53,1,N,M,C,o1_image,stimuli/out1.png,stimuli/correct_out1.png,stimuli/out2.png,,,,,,,,,,,,,,,,,,,,,,,,,,,,,,,,,,,,,,
,,59e795c062637600014a7d3f,33,female,2024-04-24_11h32.33.916,stockport_simplified,2022.2.4,Linux x86_64,59.88023952,661e456ee6de07e70aa9ef7b,6628df8ab8160f08a3f675d0,,,,,,,,,,,,,,,,,,,,,,,,,,,,,,,,,,352.8168,355.178,"[8,7,4,5,3,2,6,1]","[[0.3,0.2],[-0.3,0.2]]","[[-0.125,-0.2],[0.125,-0.2]]",-0.118518476,-0.196296339,1,0,0,1.8467,o1_image,355.1804,0,355.6776,355.6776,357.6758,0,0,0,0,1,,,,,,,,,,,,,,,,,,,,,,,,,,,,,,,,,,,,,,,,,,,,,,,,,,
,,59e795c062637600014a7d3f,33,female,2024-04-24_11h32.33.916,stockport_simplified,2022.2.4,Linux x86_64,59.88023952,661e456ee6de07e70aa9ef7b,6628df8ab8160f08a3f675d0,,,,,,,,,,,,,,,,,,,,,,,,,,,,,,,,,,,,,,,,,,,,,,,,,,,,,,,,0,53,53,10,1,B,X,N,o2_image,stimuli/out2.png,stimuli/out1.png,stimuli/correct_out2.png,,,,,,,,,,,,,,,,,,,,,,,,,,,,,,,,,,,,,,
,,59e795c062637600014a7d3f,33,female,2024-04-24_11h32.33.916,stockport_simplified,2022.2.4,Linux x86_64,59.88023952,661e456ee6de07e70aa9ef7b,6628df8ab8160f08a3f675d0,,,,,,,,,,,,,,,,,,,,,,,,,,,,,,,,,,357.6774,360.1385,"[8,7,4,5,3,2,6,1]","[[-0.3,0.2],[0.3,0.2]]","[[-0.125,-0.2],[0.125,-0.2]]",0.141666695,-0.193518533,1,0,0,1.9456,o2_image,360.1409,0,360.6404,360.6404,362.6383,0,0,0,0,1,,,,,,,,,,,,,,,,,,,,,,,,,,,,,,,,,,,,,,,,,,,,,,,,,,
,,59e795c062637600014a7d3f,33,female,2024-04-24_11h32.33.916,stockport_simplified,2022.2.4,Linux x86_64,59.88023952,661e456ee6de07e70aa9ef7b,6628df8ab8160f08a3f675d0,,,,,,,,,,,,,,,,,,,,,,,,,,,,,,,,,,,,,,,,,,,,,,,,,,,,,,,,0,54,54,54,1,N,M,C,o1_image,stimuli/out1.png,stimuli/correct_out1.png,stimuli/out2.png,,,,,,,,,,,,,,,,,,,,,,,,,,,,,,,,,,,,,,
,,59e795c062637600014a7d3f,33,female,2024-04-24_11h32.33.916,stockport_simplified,2022.2.4,Linux x86_64,59.88023952,661e456ee6de07e70aa9ef7b,6628df8ab8160f08a3f675d0,,,,,,,,,,,,,,,,,,,,,,,,,,,,,,,,,,362.6392,366.3351,"[8,7,4,5,3,2,6,1]","[[-0.3,0.2],[0.3,0.2]]","[[0.125,-0.2],[-0.125,-0.2]]",0.139814801,-0.204629616,1,0,0,3.1786,o1_image,366.3368,0,366.8359,366.8363,368.8335,0,0,0,0,1,,,,,,,,,,,,,,,,,,,,,,,,,,,,,,,,,,,,,,,,,,,,,,,,,,
,,59e795c062637600014a7d3f,33,female,2024-04-24_11h32.33.916,stockport_simplified,2022.2.4,Linux x86_64,59.88023952,661e456ee6de07e70aa9ef7b,6628df8ab8160f08a3f675d0,,,,,,,,,,,,,,,,,,,,,,,,,,,,,,,,,,,,,,,,,,,,,,,,,,,,,,,,0,55,55,17,1,B,Y,N,o2_image,stimuli/out2.png,stimuli/out1.png,stimuli/correct_out2.png,,,,,,,,,,,,,,,,,,,,,,,,,,,,,,,,,,,,,,
,,59e795c062637600014a7d3f,33,female,2024-04-24_11h32.33.916,stockport_simplified,2022.2.4,Linux x86_64,59.88023952,661e456ee6de07e70aa9ef7b,6628df8ab8160f08a3f675d0,,,,,,,,,,,,,,,,,,,,,,,,,,,,,,,,,,368.8358,371.7315,"[8,7,4,5,3,2,6,1]","[[-0.3,0.2],[0.3,0.2]]","[[-0.125,-0.2],[0.125,-0.2]]",-0.154629601,-0.255555541,1,0,0,2.3816,o1_image,371.7345,0,372.2303,372.2304,374.2286,0,0,0,0,1,,,,,,,,,,,,,,,,,,,,,,,,,,,,,,,,,,,,,,,,,,,,,,,,,,
,,59e795c062637600014a7d3f,33,female,2024-04-24_11h32.33.916,stockport_simplified,2022.2.4,Linux x86_64,59.88023952,661e456ee6de07e70aa9ef7b,6628df8ab8160f08a3f675d0,,,,,,,,,,,,,,,,,,,,,,,,,,,,,,,,,,,,,,,,,,,,,,,,,,,,,,,,0,56,56,14,1,B,X,N,o2_image,stimuli/out2.png,stimuli/out1.png,stimuli/correct_out2.png,,,,,,,,,,,,,,,,,,,,,,,,,,,,,,,,,,,,,,
,,59e795c062637600014a7d3f,33,female,2024-04-24_11h32.33.916,stockport_simplified,2022.2.4,Linux x86_64,59.88023952,661e456ee6de07e70aa9ef7b,6628df8ab8160f08a3f675d0,,,,,,,,,,,,,,,,,,,,,,,,,,,,,,,,,,374.2295,377.1428,"[8,7,4,5,3,2,6,1]","[[-0.3,0.2],[0.3,0.2]]","[[-0.125,-0.2],[0.125,-0.2]]",0.10555557,-0.229629658,1,0,0,2.3971,o2_image,377.1767,0,377.6761,377.6762,379.6742,0,0,0,0,1,,,,,,,,,,,,,,,,,,,,,,,,,,,,,,,,,,,,,,,,,,,,,,,,,,
,,59e795c062637600014a7d3f,33,female,2024-04-24_11h32.33.916,stockport_simplified,2022.2.4,Linux x86_64,59.88023952,661e456ee6de07e70aa9ef7b,6628df8ab8160f08a3f675d0,,,,,,,,,,,,,,,,,,,,,,,,,,,,,,,,,,,,,,,,,,,,,,,,,,,,,,,,0,57,57,51,1,N,M,C,o1_image,stimuli/out1.png,stimuli/correct_out1.png,stimuli/out2.png,,,,,,,,,,,,,,,,,,,,,,,,,,,,,,,,,,,,,,
,,59e795c062637600014a7d3f,33,female,2024-04-24_11h32.33.916,stockport_simplified,2022.2.4,Linux x86_64,59.88023952,661e456ee6de07e70aa9ef7b,6628df8ab8160f08a3f675d0,,,,,,,,,,,,,,,,,,,,,,,,,,,,,,,,,,379.6752,381.3421,"[8,7,4,5,3,2,6,1]","[[0.3,0.2],[-0.3,0.2]]","[[-0.125,-0.2],[0.125,-0.2]]",0.080555598,-0.18240745,1,0,0,1.145,o2_image,381.3441,0,381.8397,381.8398,383.8381,0,0,0,0,1,,,,,,,,,,,,,,,,,,,,,,,,,,,,,,,,,,,,,,,,,,,,,,,,,,
,,59e795c062637600014a7d3f,33,female,2024-04-24_11h32.33.916,stockport_simplified,2022.2.4,Linux x86_64,59.88023952,661e456ee6de07e70aa9ef7b,6628df8ab8160f08a3f675d0,,,,,,,,,,,,,,,,,,,,,,,,,,,,,,,,,,,,,,,,,,,,,,,,,,,,,,,,0,58,58,32,1,A,X,N,o1_image,stimuli/out1.png,stimuli/correct_out1.png,stimuli/out2.png,,,,,,,,,,,,,,,,,,,,,,,,,,,,,,,,,,,,,,
,,59e795c062637600014a7d3f,33,female,2024-04-24_11h32.33.916,stockport_simplified,2022.2.4,Linux x86_64,59.88023952,661e456ee6de07e70aa9ef7b,6628df8ab8160f08a3f675d0,,,,,,,,,,,,,,,,,,,,,,,,,,,,,,,,,,383.8391,387.6688,"[8,7,4,5,3,2,6,1]","[[-0.3,0.2],[0.3,0.2]]","[[0.125,-0.2],[-0.125,-0.2]]",-0.176851838,-0.169444473,1,0,0,3.3127,o2_image,387.7072,0,388.2007,388.2007,390.199,0,0,0,0,1,,,,,,,,,,,,,,,,,,,,,,,,,,,,,,,,,,,,,,,,,,,,,,,,,,
,,59e795c062637600014a7d3f,33,female,2024-04-24_11h32.33.916,stockport_simplified,2022.2.4,Linux x86_64,59.88023952,661e456ee6de07e70aa9ef7b,6628df8ab8160f08a3f675d0,,,,,,,,,,,,,,,,,,,,,,,,,,,,,,,,,,,,,,,,,,,,,,,,,,,,,,,,0,59,59,20,1,N,M,C,o1_image,stimuli/out1.png,stimuli/correct_out1.png,stimuli/out2.png,,,,,,,,,,,,,,,,,,,,,,,,,,,,,,,,,,,,,,
,,59e795c062637600014a7d3f,33,female,2024-04-24_11h32.33.916,stockport_simplified,2022.2.4,Linux x86_64,59.88023952,661e456ee6de07e70aa9ef7b,6628df8ab8160f08a3f675d0,,,,,,,,,,,,,,,,,,,,,,,,,,,,,,,,,,390.1998,391.332,"[8,7,4,5,3,2,6,1]","[[-0.3,0.2],[0.3,0.2]]","[[-0.125,-0.2],[0.125,-0.2]]",-0.103703675,-0.258333347,1,0,0,0.6156,o1_image,391.3347,1,391.8315,391.8316,393.8301,0,0,0,0,1,,,,,,,,,,,,,,,,,,,,,,,,,,,,,,,,,,,,,,,,,,,,,,,,,,
,,59e795c062637600014a7d3f,33,female,2024-04-24_11h32.33.916,stockport_simplified,2022.2.4,Linux x86_64,59.88023952,661e456ee6de07e70aa9ef7b,6628df8ab8160f08a3f675d0,,,,,,,,,,,,,,,,,,,,,,,,,,,,,,,,,,,,,,,,,,,,,,,,,,,,,,,,1,0,60,2,1,A,X,N,o1_image,stimuli/out1.png,stimuli/correct_out1.png,stimuli/out2.png,,,,,,,,,,,,,,,,,,,,,,,,,,,,,,,,,,,,,,
,,59e795c062637600014a7d3f,33,female,2024-04-24_11h32.33.916,stockport_simplified,2022.2.4,Linux x86_64,59.88023952,661e456ee6de07e70aa9ef7b,6628df8ab8160f08a3f675d0,,,,,,,,,,,,,,,,,,,,,,,,,,,,,,,,,,393.8315,395.4952,"[8,7,4,5,3,2,6,1]","[[-0.3,0.2],[0.3,0.2]]","[[0.125,-0.2],[-0.125,-0.2]]",0.09629631,-0.187962991,1,0,0,1.1493,o1_image,395.4981,1,395.9947,395.9947,397.993,0,0,0,0,1,,,,,,,,,,,,,,,,,,,,,,,,,,,,,,,,,,,,,,,,,,,,,,,,,,
,,59e795c062637600014a7d3f,33,female,2024-04-24_11h32.33.916,stockport_simplified,2022.2.4,Linux x86_64,59.88023952,661e456ee6de07e70aa9ef7b,6628df8ab8160f08a3f675d0,,,,,,,,,,,,,,,,,,,,,,,,,,,,,,,,,,,,,,,,,,,,,,,,,,,,,,,,1,1,61,3,1,A,X,N,o1_image,stimuli/out1.png,stimuli/correct_out1.png,stimuli/out2.png,,,,,,,,,,,,,,,,,,,,,,,,,,,,,,,,,,,,,,
,,59e795c062637600014a7d3f,33,female,2024-04-24_11h32.33.916,stockport_simplified,2022.2.4,Linux x86_64,59.88023952,661e456ee6de07e70aa9ef7b,6628df8ab8160f08a3f675d0,,,,,,,,,,,,,,,,,,,,,,,,,,,,,,,,,,397.9943,400.6571,"[8,7,4,5,3,2,6,1]","[[-0.3,0.2],[0.3,0.2]]","[[0.125,-0.2],[-0.125,-0.2]]",0.154629672,-0.204629616,1,0,0,2.1462,o1_image,400.6886,0,401.1907,401.1908,403.1882,0,0,0,0,1,,,,,,,,,,,,,,,,,,,,,,,,,,,,,,,,,,,,,,,,,,,,,,,,,,
,,59e795c062637600014a7d3f,33,female,2024-04-24_11h32.33.916,stockport_simplified,2022.2.4,Linux x86_64,59.88023952,661e456ee6de07e70aa9ef7b,6628df8ab8160f08a3f675d0,,,,,,,,,,,,,,,,,,,,,,,,,,,,,,,,,,,,,,,,,,,,,,,,,,,,,,,,1,2,62,12,1,B,X,N,o2_image,stimuli/out2.png,stimuli/out1.png,stimuli/correct_out2.png,,,,,,,,,,,,,,,,,,,,,,,,,,,,,,,,,,,,,,
,,59e795c062637600014a7d3f,33,female,2024-04-24_11h32.33.916,stockport_simplified,2022.2.4,Linux x86_64,59.88023952,661e456ee6de07e70aa9ef7b,6628df8ab8160f08a3f675d0,,,,,,,,,,,,,,,,,,,,,,,,,,,,,,,,,,403.1892,405.6029,"[8,7,4,5,3,2,6,1]","[[-0.3,0.2],[0.3,0.2]]","[[0.125,-0.2],[-0.125,-0.2]]",-0.076851809,-0.23055557,1,0,0,1.8967,o2_image,405.6044,0,406.1026,406.1028,408.1009,0,0,0,0,1,,,,,,,,,,,,,,,,,,,,,,,,,,,,,,,,,,,,,,,,,,,,,,,,,,
,,59e795c062637600014a7d3f,33,female,2024-04-24_11h32.33.916,stockport_simplified,2022.2.4,Linux x86_64,59.88023952,661e456ee6de07e70aa9ef7b,6628df8ab8160f08a3f675d0,,,,,,,,,,,,,,,,,,,,,,,,,,,,,,,,,,,,,,,,,,,,,,,,,,,,,,,,1,3,63,5,1,A,Y,N,o1_image,stimuli/out1.png,stimuli/correct_out1.png,stimuli/out2.png,,,,,,,,,,,,,,,,,,,,,,,,,,,,,,,,,,,,,,
,,59e795c062637600014a7d3f,33,female,2024-04-24_11h32.33.916,stockport_simplified,2022.2.4,Linux x86_64,59.88023952,661e456ee6de07e70aa9ef7b,6628df8ab8160f08a3f675d0,,,,,,,,,,,,,,,,,,,,,,,,,,,,,,,,,,408.1018,410.7324,"[8,7,4,5,3,2,6,1]","[[-0.3,0.2],[0.3,0.2]]","[[-0.125,-0.2],[0.125,-0.2]]",-0.097222222,-0.23055557,1,0,0,2.1149,o1_image,410.7713,1,411.2647,411.2648,413.2639,0,0,0,0,1,,,,,,,,,,,,,,,,,,,,,,,,,,,,,,,,,,,,,,,,,,,,,,,,,,
,,59e795c062637600014a7d3f,33,female,2024-04-24_11h32.33.916,stockport_simplified,2022.2.4,Linux x86_64,59.88023952,661e456ee6de07e70aa9ef7b,6628df8ab8160f08a3f675d0,,,,,,,,,,,,,,,,,,,,,,,,,,,,,,,,,,,,,,,,,,,,,,,,,,,,,,,,1,4,64,9,1,A,Y,N,o1_image,stimuli/out1.png,stimuli/correct_out1.png,stimuli/out2.png,,,,,,,,,,,,,,,,,,,,,,,,,,,,,,,,,,,,,,
,,59e795c062637600014a7d3f,33,female,2024-04-24_11h32.33.916,stockport_simplified,2022.2.4,Linux x86_64,59.88023952,661e456ee6de07e70aa9ef7b,6628df8ab8160f08a3f675d0,,,,,,,,,,,,,,,,,,,,,,,,,,,,,,,,,,413.2651,414.7965,"[8,7,4,5,3,2,6,1]","[[0.3,0.2],[-0.3,0.2]]","[[-0.125,-0.2],[0.125,-0.2]]",-0.087037051,-0.219444487,1,0,0,1.0168,o1_image,414.7993,1,415.2953,415.2953,417.2938,0,0,0,0,1,,,,,,,,,,,,,,,,,,,,,,,,,,,,,,,,,,,,,,,,,,,,,,,,,,
,,59e795c062637600014a7d3f,33,female,2024-04-24_11h32.33.916,stockport_simplified,2022.2.4,Linux x86_64,59.88023952,661e456ee6de07e70aa9ef7b,6628df8ab8160f08a3f675d0,,,,,,,,,,,,,,,,,,,,,,,,,,,,,,,,,,,,,,,,,,,,,,,,,,,,,,,,1,5,65,6,1,A,Y,N,o1_image,stimuli/out1.png,stimuli/correct_out1.png,stimuli/out2.png,,,,,,,,,,,,,,,,,,,,,,,,,,,,,,,,,,,,,,
,,59e795c062637600014a7d3f,33,female,2024-04-24_11h32.33.916,stockport_simplified,2022.2.4,Linux x86_64,59.88023952,661e456ee6de07e70aa9ef7b,6628df8ab8160f08a3f675d0,,,,,,,,,,,,,,,,,,,,,,,,,,,,,,,,,,417.2961,418.9923,"[8,7,4,5,3,2,6,1]","[[-0.3,0.2],[0.3,0.2]]","[[-0.125,-0.2],[0.125,-0.2]]",0.117592635,-0.225000028,1,0,0,1.1798,o2_image,418.9947,1,419.4914,419.4915,421.4909,0,0,0,0,1,,,,,,,,,,,,,,,,,,,,,,,,,,,,,,,,,,,,,,,,,,,,,,,,,,
,,59e795c062637600014a7d3f,33,female,2024-04-24_11h32.33.916,stockport_simplified,2022.2.4,Linux x86_64,59.88023952,661e456ee6de07e70aa9ef7b,6628df8ab8160f08a3f675d0,,,,,,,,,,,,,,,,,,,,,,,,,,,,,,,,,,,,,,,,,,,,,,,,,,,,,,,,1,6,66,57,1,N,M,D,o2_image,stimuli/out2.png,stimuli/out1.png,stimuli/correct_out2.png,,,,,,,,,,,,,,,,,,,,,,,,,,,,,,,,,,,,,,
,,59e795c062637600014a7d3f,33,female,2024-04-24_11h32.33.916,stockport_simplified,2022.2.4,Linux x86_64,59.88023952,661e456ee6de07e70aa9ef7b,6628df8ab8160f08a3f675d0,,,,,,,,,,,,,,,,,,,,,,,,,,,,,,,,,,421.4919,423.2552,"[8,7,4,5,3,2,6,1]","[[0.3,0.2],[-0.3,0.2]]","[[-0.125,-0.2],[0.125,-0.2]]",0.086111139,-0.204629616,1,0,0,1.2488,o2_image,423.2569,1,423.755,423.755,425.7529,0,0,0,0,1,,,,,,,,,,,,,,,,,,,,,,,,,,,,,,,,,,,,,,,,,,,,,,,,,,
,,59e795c062637600014a7d3f,33,female,2024-04-24_11h32.33.916,stockport_simplified,2022.2.4,Linux x86_64,59.88023952,661e456ee6de07e70aa9ef7b,6628df8ab8160f08a3f675d0,,,,,,,,,,,,,,,,,,,,,,,,,,,,,,,,,,,,,,,,,,,,,,,,,,,,,,,,1,7,67,29,1,N,M,D,o2_image,stimuli/out2.png,stimuli/out1.png,stimuli/correct_out2.png,,,,,,,,,,,,,,,,,,,,,,,,,,,,,,,,,,,,,,
,,59e795c062637600014a7d3f,33,female,2024-04-24_11h32.33.916,stockport_simplified,2022.2.4,Linux x86_64,59.88023952,661e456ee6de07e70aa9ef7b,6628df8ab8160f08a3f675d0,,,,,,,,,,,,,,,,,,,,,,,,,,,,,,,,,,425.754,427.4364,"[8,7,4,5,3,2,6,1]","[[-0.3,0.2],[0.3,0.2]]","[[0.125,-0.2],[-0.125,-0.2]]",-0.06759255,-0.204629616,1,0,0,1.1655,o2_image,427.4385,0,427.9343,427.9344,429.9329,0,0,0,0,1,,,,,,,,,,,,,,,,,,,,,,,,,,,,,,,,,,,,,,,,,,,,,,,,,,
,,59e795c062637600014a7d3f,33,female,2024-04-24_11h32.33.916,stockport_simplified,2022.2.4,Linux x86_64,59.88023952,661e456ee6de07e70aa9ef7b,6628df8ab8160f08a3f675d0,,,,,,,,,,,,,,,,,,,,,,,,,,,,,,,,,,,,,,,,,,,,,,,,,,,,,,,,1,8,68,39,1,A,Y,N,o1_image,stimuli/out1.png,stimuli/correct_out1.png,stimuli/out2.png,,,,,,,,,,,,,,,,,,,,,,,,,,,,,,,,,,,,,,
,,59e795c062637600014a7d3f,33,female,2024-04-24_11h32.33.916,stockport_simplified,2022.2.4,Linux x86_64,59.88023952,661e456ee6de07e70aa9ef7b,6628df8ab8160f08a3f675d0,,,,,,,,,,,,,,,,,,,,,,,,,,,,,,,,,,429.934,431.9311,"[8,7,4,5,3,2,6,1]","[[-0.3,0.2],[0.3,0.2]]","[[-0.125,-0.2],[0.125,-0.2]]",-0.084259245,-0.225000028,1,0,0,1.4814,o1_image,431.935,0,432.4308,432.4309,434.4291,0,0,0,0,1,,,,,,,,,,,,,,,,,,,,,,,,,,,,,,,,,,,,,,,,,,,,,,,,,,
,,59e795c062637600014a7d3f,33,female,2024-04-24_11h32.33.916,stockport_simplified,2022.2.4,Linux x86_64,59.88023952,661e456ee6de07e70aa9ef7b,6628df8ab8160f08a3f675d0,,,,,,,,,,,,,,,,,,,,,,,,,,,,,,,,,,,,,,,,,,,,,,,,,,,,,,,,1,9,69,16,1,B,Y,N,o2_image,stimuli/out2.png,stimuli/out1.png,stimuli/correct_out2.png,,,,,,,,,,,,,,,,,,,,,,,,,,,,,,,,,,,,,,
,,59e795c062637600014a7d3f,33,female,2024-04-24_11h32.33.916,stockport_simplified,2022.2.4,Linux x86_64,59.88023952,661e456ee6de07e70aa9ef7b,6628df8ab8160f08a3f675d0,,,,,,,,,,,,,,,,,,,,,,,,,,,,,,,,,,434.4308,436.3942,"[8,7,4,5,3,2,6,1]","[[-0.3,0.2],[0.3,0.2]]","[[-0.125,-0.2],[0.125,-0.2]]",0.100000028,-0.212962963,1,0,0,1.4482,o2_image,436.3957,0,436.8941,436.8942,438.8923,0,0,0,0,1,,,,,,,,,,,,,,,,,,,,,,,,,,,,,,,,,,,,,,,,,,,,,,,,,,
,,59e795c062637600014a7d3f,33,female,2024-04-24_11h32.33.916,stockport_simplified,2022.2.4,Linux x86_64,59.88023952,661e456ee6de07e70aa9ef7b,6628df8ab8160f08a3f675d0,,,,,,,,,,,,,,,,,,,,,,,,,,,,,,,,,,,,,,,,,,,,,,,,,,,,,,,,1,10,70,20,1,N,M,C,o1_image,stimuli/out1.png,stimuli/correct_out1.png,stimuli/out2.png,,,,,,,,,,,,,,,,,,,,,,,,,,,,,,,,,,,,,,
,,59e795c062637600014a7d3f,33,female,2024-04-24_11h32.33.916,stockport_simplified,2022.2.4,Linux x86_64,59.88023952,661e456ee6de07e70aa9ef7b,6628df8ab8160f08a3f675d0,,,,,,,,,,,,,,,,,,,,,,,,,,,,,,,,,,438.8935,440.6583,"[8,7,4,5,3,2,6,1]","[[-0.3,0.2],[0.3,0.2]]","[[0.125,-0.2],[-0.125,-0.2]]",-0.108333305,-0.211111139,1,0,0,1.2478,o2_image,440.6602,0,441.1587,441.1588,443.1555,0,0,0,0,1,,,,,,,,,,,,,,,,,,,,,,,,,,,,,,,,,,,,,,,,,,,,,,,,,,
,,59e795c062637600014a7d3f,33,female,2024-04-24_11h32.33.916,stockport_simplified,2022.2.4,Linux x86_64,59.88023952,661e456ee6de07e70aa9ef7b,6628df8ab8160f08a3f675d0,,,,,,,,,,,,,,,,,,,,,,,,,,,,,,,,,,,,,,,,,,,,,,,,,,,,,,,,1,11,71,8,1,A,Y,N,o1_image,stimuli/out1.png,stimuli/correct_out1.png,stimuli/out2.png,,,,,,,,,,,,,,,,,,,,,,,,,,,,,,,,,,,,,,
,,59e795c062637600014a7d3f,33,female,2024-04-24_11h32.33.916,stockport_simplified,2022.2.4,Linux x86_64,59.88023952,661e456ee6de07e70aa9ef7b,6628df8ab8160f08a3f675d0,,,,,,,,,,,,,,,,,,,,,,,,,,,,,,,,,,443.1564,445.1537,"[8,7,4,5,3,2,6,1]","[[-0.3,0.2],[0.3,0.2]]","[[-0.125,-0.2],[0.125,-0.2]]",0.119444459,-0.193518533,1,0,0,1.4778,o2_image,445.1563,1,445.6533,445.6535,447.6539,0,0,0,0,1,,,,,,,,,,,,,,,,,,,,,,,,,,,,,,,,,,,,,,,,,,,,,,,,,,
,,59e795c062637600014a7d3f,33,female,2024-04-24_11h32.33.916,stockport_simplified,2022.2.4,Linux x86_64,59.88023952,661e456ee6de07e70aa9ef7b,6628df8ab8160f08a3f675d0,,,,,,,,,,,,,,,,,,,,,,,,,,,,,,,,,,,,,,,,,,,,,,,,,,,,,,,,1,12,72,42,1,B,X,N,o2_image,stimuli/out2.png,stimuli/out1.png,stimuli/correct_out2.png,,,,,,,,,,,,,,,,,,,,,,,,,,,,,,,,,,,,,,
,,59e795c062637600014a7d3f,33,female,2024-04-24_11h32.33.916,stockport_simplified,2022.2.4,Linux x86_64,59.88023952,661e456ee6de07e70aa9ef7b,6628df8ab8160f08a3f675d0,,,,,,,,,,,,,,,,,,,,,,,,,,,,,,,,,,447.6548,449.552,"[8,7,4,5,3,2,6,1]","[[-0.3,0.2],[0.3,0.2]]","[[0.125,-0.2],[-0.125,-0.2]]",-0.107407393,-0.233333376,1,0,0,1.3827,o2_image,449.5534,0,450.0493,450.0494,452.0491,0,0,0,0,1,,,,,,,,,,,,,,,,,,,,,,,,,,,,,,,,,,,,,,,,,,,,,,,,,,
,,59e795c062637600014a7d3f,33,female,2024-04-24_11h32.33.916,stockport_simplified,2022.2.4,Linux x86_64,59.88023952,661e456ee6de07e70aa9ef7b,6628df8ab8160f08a3f675d0,,,,,,,,,,,,,,,,,,,,,,,,,,,,,,,,,,,,,,,,,,,,,,,,,,,,,,,,1,13,73,7,1,A,Y,N,o1_image,stimuli/out1.png,stimuli/correct_out1.png,stimuli/out2.png,,,,,,,,,,,,,,,,,,,,,,,,,,,,,,,,,,,,,,
,,59e795c062637600014a7d3f,33,female,2024-04-24_11h32.33.916,stockport_simplified,2022.2.4,Linux x86_64,59.88023952,661e456ee6de07e70aa9ef7b,6628df8ab8160f08a3f675d0,,,,,,,,,,,,,,,,,,,,,,,,,,,,,,,,,,452.052,455.1462,"[8,7,4,5,3,2,6,1]","[[-0.3,0.2],[0.3,0.2]]","[[-0.125,-0.2],[0.125,-0.2]]",0.103703746,-0.145370413,1,0,0,2.5801,o2_image,455.1812,1,455.6786,455.6787,457.6773,0,0,0,0,1,,,,,,,,,,,,,,,,,,,,,,,,,,,,,,,,,,,,,,,,,,,,,,,,,,
,,59e795c062637600014a7d3f,33,female,2024-04-24_11h32.33.916,stockport_simplified,2022.2.4,Linux x86_64,59.88023952,661e456ee6de07e70aa9ef7b,6628df8ab8160f08a3f675d0,,,,,,,,,,,,,,,,,,,,,,,,,,,,,,,,,,,,,,,,,,,,,,,,,,,,,,,,1,14,74,10,1,B,X,N,o2_image,stimuli/out2.png,stimuli/out1.png,stimuli/correct_out2.png,,,,,,,,,,,,,,,,,,,,,,,,,,,,,,,,,,,,,,
,,59e795c062637600014a7d3f,33,female,2024-04-24_11h32.33.916,stockport_simplified,2022.2.4,Linux x86_64,59.88023952,661e456ee6de07e70aa9ef7b,6628df8ab8160f08a3f675d0,,,,,,,,,,,,,,,,,,,,,,,,,,,,,,,,,,457.6784,459.5109,"[8,7,4,5,3,2,6,1]","[[0.3,0.2],[-0.3,0.2]]","[[0.125,-0.2],[-0.125,-0.2]]",-0.068518533,-0.213888875,1,0,0,1.3164,o2_image,459.5141,0,460.0087,460.0088,462.0066,0,0,0,0,1,,,,,,,,,,,,,,,,,,,,,,,,,,,,,,,,,,,,,,,,,,,,,,,,,,
,,59e795c062637600014a7d3f,33,female,2024-04-24_11h32.33.916,stockport_simplified,2022.2.4,Linux x86_64,59.88023952,661e456ee6de07e70aa9ef7b,6628df8ab8160f08a3f675d0,,,,,,,,,,,,,,,,,,,,,,,,,,,,,,,,,,,,,,,,,,,,,,,,,,,,,,,,1,15,75,35,1,A,Y,N,o1_image,stimuli/out1.png,stimuli/correct_out1.png,stimuli/out2.png,,,,,,,,,,,,,,,,,,,,,,,,,,,,,,,,,,,,,,
,,59e795c062637600014a7d3f,33,female,2024-04-24_11h32.33.916,stockport_simplified,2022.2.4,Linux x86_64,59.88023952,661e456ee6de07e70aa9ef7b,6628df8ab8160f08a3f675d0,,,,,,,,,,,,,,,,,,,,,,,,,,,,,,,,,,462.0095,463.8717,"[8,7,4,5,3,2,6,1]","[[0.3,0.2],[-0.3,0.2]]","[[0.125,-0.2],[-0.125,-0.2]]",0.088888875,-0.170370384,1,0,0,1.3463,o1_image,463.8746,1,464.372,464.3721,466.3698,0,0,0,0,1,,,,,,,,,,,,,,,,,,,,,,,,,,,,,,,,,,,,,,,,,,,,,,,,,,
,,59e795c062637600014a7d3f,33,female,2024-04-24_11h32.33.916,stockport_simplified,2022.2.4,Linux x86_64,59.88023952,661e456ee6de07e70aa9ef7b,6628df8ab8160f08a3f675d0,,,,,,,,,,,,,,,,,,,,,,,,,,,,,,,,,,,,,,,,,,,,,,,,,,,,,,,,1,16,76,50,1,N,M,C,o1_image,stimuli/out1.png,stimuli/correct_out1.png,stimuli/out2.png,,,,,,,,,,,,,,,,,,,,,,,,,,,,,,,,,,,,,,
,,59e795c062637600014a7d3f,33,female,2024-04-24_11h32.33.916,stockport_simplified,2022.2.4,Linux x86_64,59.88023952,661e456ee6de07e70aa9ef7b,6628df8ab8160f08a3f675d0,,,,,,,,,,,,,,,,,,,,,,,,,,,,,,,,,,466.371,468.0037,"[8,7,4,5,3,2,6,1]","[[-0.3,0.2],[0.3,0.2]]","[[-0.125,-0.2],[0.125,-0.2]]",-0.099074046,-0.210185228,1,0,0,1.1156,o1_image,468.0066,0,468.5018,468.5019,470.5014,0,0,0,0,1,,,,,,,,,,,,,,,,,,,,,,,,,,,,,,,,,,,,,,,,,,,,,,,,,,
,,59e795c062637600014a7d3f,33,female,2024-04-24_11h32.33.916,stockport_simplified,2022.2.4,Linux x86_64,59.88023952,661e456ee6de07e70aa9ef7b,6628df8ab8160f08a3f675d0,,,,,,,,,,,,,,,,,,,,,,,,,,,,,,,,,,,,,,,,,,,,,,,,,,,,,,,,1,17,77,28,1,N,M,D,o2_image,stimuli/out2.png,stimuli/out1.png,stimuli/correct_out2.png,,,,,,,,,,,,,,,,,,,,,,,,,,,,,,,,,,,,,,
,,59e795c062637600014a7d3f,33,female,2024-04-24_11h32.33.916,stockport_simplified,2022.2.4,Linux x86_64,59.88023952,661e456ee6de07e70aa9ef7b,6628df8ab8160f08a3f675d0,,,,,,,,,,,,,,,,,,,,,,,,,,,,,,,,,,470.5043,472.5479,"[8,7,4,5,3,2,6,1]","[[-0.3,0.2],[0.3,0.2]]","[[0.125,-0.2],[-0.125,-0.2]]",0.138888889,-0.199074074,1,0,0,1.5306,o1_image,472.5494,0,473.0473,473.0474,475.0467,0,0,0,0,1,,,,,,,,,,,,,,,,,,,,,,,,,,,,,,,,,,,,,,,,,,,,,,,,,,
,,59e795c062637600014a7d3f,33,female,2024-04-24_11h32.33.916,stockport_simplified,2022.2.4,Linux x86_64,59.88023952,661e456ee6de07e70aa9ef7b,6628df8ab8160f08a3f675d0,,,,,,,,,,,,,,,,,,,,,,,,,,,,,,,,,,,,,,,,,,,,,,,,,,,,,,,,1,18,78,49,1,B,Y,N,o2_image,stimuli/out2.png,stimuli/out1.png,stimuli/correct_out2.png,,,,,,,,,,,,,,,,,,,,,,,,,,,,,,,,,,,,,,
,,59e795c062637600014a7d3f,33,female,2024-04-24_11h32.33.916,stockport_simplified,2022.2.4,Linux x86_64,59.88023952,661e456ee6de07e70aa9ef7b,6628df8ab8160f08a3f675d0,,,,,,,,,,,,,,,,,,,,,,,,,,,,,,,,,,475.0489,477.6105,"[8,7,4,5,3,2,6,1]","[[-0.3,0.2],[0.3,0.2]]","[[0.125,-0.2],[-0.125,-0.2]]",0.106481481,-0.175000014,1,0,0,2.0478,o1_image,477.6125,0,478.1102,478.1102,480.1083,0,0,0,0,1,,,,,,,,,,,,,,,,,,,,,,,,,,,,,,,,,,,,,,,,,,,,,,,,,,
,,59e795c062637600014a7d3f,33,female,2024-04-24_11h32.33.916,stockport_simplified,2022.2.4,Linux x86_64,59.88023952,661e456ee6de07e70aa9ef7b,6628df8ab8160f08a3f675d0,,,,,,,,,,,,,,,,,,,,,,,,,,,,,,,,,,,,,,,,,,,,,,,,,,,,,,,,1,19,79,15,1,B,Y,N,o2_image,stimuli/out2.png,stimuli/out1.png,stimuli/correct_out2.png,,,,,,,,,,,,,,,,,,,,,,,,,,,,,,,,,,,,,,
,,59e795c062637600014a7d3f,33,female,2024-04-24_11h32.33.916,stockport_simplified,2022.2.4,Linux x86_64,59.88023952,661e456ee6de07e70aa9ef7b,6628df8ab8160f08a3f675d0,,,,,,,,,,,,,,,,,,,,,,,,,,,,,,,,,,480.1092,482.0255,"[8,7,4,5,3,2,6,1]","[[0.3,0.2],[-0.3,0.2]]","[[0.125,-0.2],[-0.125,-0.2]]",-0.047222208,-0.238888917,1,0,0,1.4007,o2_image,482.0281,1,482.5246,482.5246,484.5322,0,0,0,0,1,,,,,,,,,,,,,,,,,,,,,,,,,,,,,,,,,,,,,,,,,,,,,,,,,,
,,59e795c062637600014a7d3f,33,female,2024-04-24_11h32.33.916,stockport_simplified,2022.2.4,Linux x86_64,59.88023952,661e456ee6de07e70aa9ef7b,6628df8ab8160f08a3f675d0,,,,,,,,,,,,,,,,,,,,,,,,,,,,,,,,,,,,,,,,,,,,,,,,,,,,,,,,1,20,80,18,1,B,Y,N,o2_image,stimuli/out2.png,stimuli/out1.png,stimuli/correct_out2.png,,,,,,,,,,,,,,,,,,,,,,,,,,,,,,,,,,,,,,
,,59e795c062637600014a7d3f,33,female,2024-04-24_11h32.33.916,stockport_simplified,2022.2.4,Linux x86_64,59.88023952,661e456ee6de07e70aa9ef7b,6628df8ab8160f08a3f675d0,,,,,,,,,,,,,,,,,,,,,,,,,,,,,,,,,,484.5332,486.9028,"[8,7,4,5,3,2,6,1]","[[-0.3,0.2],[0.3,0.2]]","[[0.125,-0.2],[-0.125,-0.2]]",0.090740769,-0.157407407,1,0,0,1.8628,o1_image,486.9356,1,487.4354,487.4355,489.434,0,0,0,0,1,,,,,,,,,,,,,,,,,,,,,,,,,,,,,,,,,,,,,,,,,,,,,,,,,,
,,59e795c062637600014a7d3f,33,female,2024-04-24_11h32.33.916,stockport_simplified,2022.2.4,Linux x86_64,59.88023952,661e456ee6de07e70aa9ef7b,6628df8ab8160f08a3f675d0,,,,,,,,,,,,,,,,,,,,,,,,,,,,,,,,,,,,,,,,,,,,,,,,,,,,,,,,1,21,81,21,1,N,M,C,o1_image,stimuli/out1.png,stimuli/correct_out1.png,stimuli/out2.png,,,,,,,,,,,,,,,,,,,,,,,,,,,,,,,,,,,,,,
,,59e795c062637600014a7d3f,33,female,2024-04-24_11h32.33.916,stockport_simplified,2022.2.4,Linux x86_64,59.88023952,661e456ee6de07e70aa9ef7b,6628df8ab8160f08a3f675d0,,,,,,,,,,,,,,,,,,,,,,,,,,,,,,,,,,489.4347,491.7192,"[8,7,4,5,3,2,6,1]","[[0.3,0.2],[-0.3,0.2]]","[[-0.125,-0.2],[0.125,-0.2]]",0.14444443,-0.20648151,1,0,0,1.7665,o2_image,491.7206,0,492.215,492.215,494.2131,0,0,0,0,1,,,,,,,,,,,,,,,,,,,,,,,,,,,,,,,,,,,,,,,,,,,,,,,,,,
,,59e795c062637600014a7d3f,33,female,2024-04-24_11h32.33.916,stockport_simplified,2022.2.4,Linux x86_64,59.88023952,661e456ee6de07e70aa9ef7b,6628df8ab8160f08a3f675d0,,,,,,,,,,,,,,,,,,,,,,,,,,,,,,,,,,,,,,,,,,,,,,,,,,,,,,,,1,22,82,0,1,A,X,N,o1_image,stimuli/out1.png,stimuli/correct_out1.png,stimuli/out2.png,,,,,,,,,,,,,,,,,,,,,,,,,,,,,,,,,,,,,,
,,59e795c062637600014a7d3f,33,female,2024-04-24_11h32.33.916,stockport_simplified,2022.2.4,Linux x86_64,59.88023952,661e456ee6de07e70aa9ef7b,6628df8ab8160f08a3f675d0,,,,,,,,,,,,,,,,,,,,,,,,,,,,,,,,,,494.2139,495.5291,"[8,7,4,5,3,2,6,1]","[[0.3,0.2],[-0.3,0.2]]","[[0.125,-0.2],[-0.125,-0.2]]",0.122222265,-0.202777792,1,0,0,0.7981,o1_image,495.5305,0,496.0391,496.0392,498.0272,0,0,0,0,1,,,,,,,,,,,,,,,,,,,,,,,,,,,,,,,,,,,,,,,,,,,,,,,,,,
,,59e795c062637600014a7d3f,33,female,2024-04-24_11h32.33.916,stockport_simplified,2022.2.4,Linux x86_64,59.88023952,661e456ee6de07e70aa9ef7b,6628df8ab8160f08a3f675d0,,,,,,,,,,,,,,,,,,,,,,,,,,,,,,,,,,,,,,,,,,,,,,,,,,,,,,,,1,23,83,11,1,B,X,N,o2_image,stimuli/out2.png,stimuli/out1.png,stimuli/correct_out2.png,,,,,,,,,,,,,,,,,,,,,,,,,,,,,,,,,,,,,,
,,59e795c062637600014a7d3f,33,female,2024-04-24_11h32.33.916,stockport_simplified,2022.2.4,Linux x86_64,59.88023952,661e456ee6de07e70aa9ef7b,6628df8ab8160f08a3f675d0,,,,,,,,,,,,,,,,,,,,,,,,,,,,,,,,,,498.0281,500.2924,"[8,7,4,5,3,2,6,1]","[[0.3,0.2],[-0.3,0.2]]","[[-0.125,-0.2],[0.125,-0.2]]",0.118518547,-0.176851838,1,0,0,1.7462,o2_image,500.2947,0,500.7915,500.7917,502.7894,0,0,0,0,1,,,,,,,,,,,,,,,,,,,,,,,,,,,,,,,,,,,,,,,,,,,,,,,,,,
,,59e795c062637600014a7d3f,33,female,2024-04-24_11h32.33.916,stockport_simplified,2022.2.4,Linux x86_64,59.88023952,661e456ee6de07e70aa9ef7b,6628df8ab8160f08a3f675d0,,,,,,,,,,,,,,,,,,,,,,,,,,,,,,,,,,,,,,,,,,,,,,,,,,,,,,,,1,24,84,53,1,N,M,C,o1_image,stimuli/out1.png,stimuli/correct_out1.png,stimuli/out2.png,,,,,,,,,,,,,,,,,,,,,,,,,,,,,,,,,,,,,,
,,59e795c062637600014a7d3f,33,female,2024-04-24_11h32.33.916,stockport_simplified,2022.2.4,Linux x86_64,59.88023952,661e456ee6de07e70aa9ef7b,6628df8ab8160f08a3f675d0,,,,,,,,,,,,,,,,,,,,,,,,,,,,,,,,,,502.7903,504.7047,"[8,7,4,5,3,2,6,1]","[[-0.3,0.2],[0.3,0.2]]","[[0.125,-0.2],[-0.125,-0.2]]",-0.06759255,-0.236111111,1,0,0,1.3971,o2_image,504.7094,0,505.2047,505.2048,507.2031,0,0,0,0,1,,,,,,,,,,,,,,,,,,,,,,,,,,,,,,,,,,,,,,,,,,,,,,,,,,
,,59e795c062637600014a7d3f,33,female,2024-04-24_11h32.33.916,stockport_simplified,2022.2.4,Linux x86_64,59.88023952,661e456ee6de07e70aa9ef7b,6628df8ab8160f08a3f675d0,,,,,,,,,,,,,,,,,,,,,,,,,,,,,,,,,,,,,,,,,,,,,,,,,,,,,,,,1,25,85,32,1,A,X,N,o1_image,stimuli/out1.png,stimuli/correct_out1.png,stimuli/out2.png,,,,,,,,,,,,,,,,,,,,,,,,,,,,,,,,,,,,,,
,,59e795c062637600014a7d3f,33,female,2024-04-24_11h32.33.916,stockport_simplified,2022.2.4,Linux x86_64,59.88023952,661e456ee6de07e70aa9ef7b,6628df8ab8160f08a3f675d0,,,,,,,,,,,,,,,,,,,,,,,,,,,,,,,,,,507.2046,509.068,"[8,7,4,5,3,2,6,1]","[[-0.3,0.2],[0.3,0.2]]","[[-0.125,-0.2],[0.125,-0.2]]",-0.069444444,-0.212962963,1,0,0,1.3467,o1_image,509.0714,1,509.5676,509.5677,511.5661,0,0,0,0,1,,,,,,,,,,,,,,,,,,,,,,,,,,,,,,,,,,,,,,,,,,,,,,,,,,
,,59e795c062637600014a7d3f,33,female,2024-04-24_11h32.33.916,stockport_simplified,2022.2.4,Linux x86_64,59.88023952,661e456ee6de07e70aa9ef7b,6628df8ab8160f08a3f675d0,,,,,,,,,,,,,,,,,,,,,,,,,,,,,,,,,,,,,,,,,,,,,,,,,,,,,,,,1,26,86,23,1,N,M,C,o1_image,stimuli/out1.png,stimuli/correct_out1.png,stimuli/out2.png,,,,,,,,,,,,,,,,,,,,,,,,,,,,,,,,,,,,,,
,,59e795c062637600014a7d3f,33,female,2024-04-24_11h32.33.916,stockport_simplified,2022.2.4,Linux x86_64,59.88023952,661e456ee6de07e70aa9ef7b,6628df8ab8160f08a3f675d0,,,,,,,,,,,,,,,,,,,,,,,,,,,,,,,,,,511.5673,513.449,"[8,7,4,5,3,2,6,1]","[[-0.3,0.2],[0.3,0.2]]","[[-0.125,-0.2],[0.125,-0.2]]",-0.127777735,-0.235185199,1,0,0,1.3658,o1_image,513.4526,1,513.9469,513.9471,515.9455,0,0,0,0,1,,,,,,,,,,,,,,,,,,,,,,,,,,,,,,,,,,,,,,,,,,,,,,,,,,
,,59e795c062637600014a7d3f,33,female,2024-04-24_11h32.33.916,stockport_simplified,2022.2.4,Linux x86_64,59.88023952,661e456ee6de07e70aa9ef7b,6628df8ab8160f08a3f675d0,,,,,,,,,,,,,,,,,,,,,,,,,,,,,,,,,,,,,,,,,,,,,,,,,,,,,,,,1,27,87,4,1,A,X,N,o1_image,stimuli/out1.png,stimuli/correct_out1.png,stimuli/out2.png,,,,,,,,,,,,,,,,,,,,,,,,,,,,,,,,,,,,,,
,,59e795c062637600014a7d3f,33,female,2024-04-24_11h32.33.916,stockport_simplified,2022.2.4,Linux x86_64,59.88023952,661e456ee6de07e70aa9ef7b,6628df8ab8160f08a3f675d0,,,,,,,,,,,,,,,,,,,,,,,,,,,,,,,,,,515.9464,517.8277,"[8,7,4,5,3,2,6,1]","[[-0.3,0.2],[0.3,0.2]]","[[0.125,-0.2],[-0.125,-0.2]]",0.093518504,-0.176851838,1,0,0,1.3633,o1_image,517.8297,0,518.3272,518.3273,520.3251,0,0,0,0,1,,,,,,,,,,,,,,,,,,,,,,,,,,,,,,,,,,,,,,,,,,,,,,,,,,
,,59e795c062637600014a7d3f,33,female,2024-04-24_11h32.33.916,stockport_simplified,2022.2.4,Linux x86_64,59.88023952,661e456ee6de07e70aa9ef7b,6628df8ab8160f08a3f675d0,,,,,,,,,,,,,,,,,,,,,,,,,,,,,,,,,,,,,,,,,,,,,,,,,,,,,,,,1,28,88,56,1,N,M,D,o2_image,stimuli/out2.png,stimuli/out1.png,stimuli/correct_out2.png,,,,,,,,,,,,,,,,,,,,,,,,,,,,,,,,,,,,,,
,,59e795c062637600014a7d3f,33,female,2024-04-24_11h32.33.916,stockport_simplified,2022.2.4,Linux x86_64,59.88023952,661e456ee6de07e70aa9ef7b,6628df8ab8160f08a3f675d0,,,,,,,,,,,,,,,,,,,,,,,,,,,,,,,,,,520.326,521.8424,"[8,7,4,5,3,2,6,1]","[[0.3,0.2],[-0.3,0.2]]","[[-0.125,-0.2],[0.125,-0.2]]",0.113888917,-0.158333319,1,0,0,1.0004,o2_image,521.8441,0,522.3406,522.3407,524.3389,0,0,0,0,1,,,,,,,,,,,,,,,,,,,,,,,,,,,,,,,,,,,,,,,,,,,,,,,,,,
,,59e795c062637600014a7d3f,33,female,2024-04-24_11h32.33.916,stockport_simplified,2022.2.4,Linux x86_64,59.88023952,661e456ee6de07e70aa9ef7b,6628df8ab8160f08a3f675d0,,,,,,,,,,,,,,,,,,,,,,,,,,,,,,,,,,,,,,,,,,,,,,,,,,,,,,,,1,29,89,51,1,N,M,C,o1_image,stimuli/out1.png,stimuli/correct_out1.png,stimuli/out2.png,,,,,,,,,,,,,,,,,,,,,,,,,,,,,,,,,,,,,,
,,59e795c062637600014a7d3f,33,female,2024-04-24_11h32.33.916,stockport_simplified,2022.2.4,Linux x86_64,59.88023952,661e456ee6de07e70aa9ef7b,6628df8ab8160f08a3f675d0,,,,,,,,,,,,,,,,,,,,,,,,,,,,,,,,,,524.34,526.0872,"[8,7,4,5,3,2,6,1]","[[0.3,0.2],[-0.3,0.2]]","[[-0.125,-0.2],[0.125,-0.2]]",-0.080555527,-0.227777764,1,0,0,1.232,o1_image,526.0886,1,526.5874,526.5875,528.5852,0,0,0,0,1,,,,,,,,,,,,,,,,,,,,,,,,,,,,,,,,,,,,,,,,,,,,,,,,,,
,,59e795c062637600014a7d3f,33,female,2024-04-24_11h32.33.916,stockport_simplified,2022.2.4,Linux x86_64,59.88023952,661e456ee6de07e70aa9ef7b,6628df8ab8160f08a3f675d0,,,,,,,,,,,,,,,,,,,,,,,,,,,,,,,,,,,,,,,,,,,,,,,,,,,,,,,,1,30,90,52,1,N,M,C,o1_image,stimuli/out1.png,stimuli/correct_out1.png,stimuli/out2.png,,,,,,,,,,,,,,,,,,,,,,,,,,,,,,,,,,,,,,
,,59e795c062637600014a7d3f,33,female,2024-04-24_11h32.33.916,stockport_simplified,2022.2.4,Linux x86_64,59.88023952,661e456ee6de07e70aa9ef7b,6628df8ab8160f08a3f675d0,,,,,,,,,,,,,,,,,,,,,,,,,,,,,,,,,,528.586,531.1682,"[8,7,4,5,3,2,6,1]","[[-0.3,0.2],[0.3,0.2]]","[[-0.125,-0.2],[0.125,-0.2]]",-0.078703704,-0.23055557,1,0,0,2.0657,o1_image,531.2071,0,531.6993,531.6994,533.6982,0,0,0,0,1,,,,,,,,,,,,,,,,,,,,,,,,,,,,,,,,,,,,,,,,,,,,,,,,,,
,,59e795c062637600014a7d3f,33,female,2024-04-24_11h32.33.916,stockport_simplified,2022.2.4,Linux x86_64,59.88023952,661e456ee6de07e70aa9ef7b,6628df8ab8160f08a3f675d0,,,,,,,,,,,,,,,,,,,,,,,,,,,,,,,,,,,,,,,,,,,,,,,,,,,,,,,,1,31,91,59,1,N,M,D,o2_image,stimuli/out2.png,stimuli/out1.png,stimuli/correct_out2.png,,,,,,,,,,,,,,,,,,,,,,,,,,,,,,,,,,,,,,
,,59e795c062637600014a7d3f,33,female,2024-04-24_11h32.33.916,stockport_simplified,2022.2.4,Linux x86_64,59.88023952,661e456ee6de07e70aa9ef7b,6628df8ab8160f08a3f675d0,,,,,,,,,,,,,,,,,,,,,,,,,,,,,,,,,,533.6993,535.6133,"[8,7,4,5,3,2,6,1]","[[-0.3,0.2],[0.3,0.2]]","[[0.125,-0.2],[-0.125,-0.2]]",0.086111139,-0.162962949,1,0,0,1.3971,o1_image,535.6165,0,536.113,536.1131,538.1116,0,0,0,0,1,,,,,,,,,,,,,,,,,,,,,,,,,,,,,,,,,,,,,,,,,,,,,,,,,,
,,59e795c062637600014a7d3f,33,female,2024-04-24_11h32.33.916,stockport_simplified,2022.2.4,Linux x86_64,59.88023952,661e456ee6de07e70aa9ef7b,6628df8ab8160f08a3f675d0,,,,,,,,,,,,,,,,,,,,,,,,,,,,,,,,,,,,,,,,,,,,,,,,,,,,,,,,1,32,92,19,1,B,Y,N,o2_image,stimuli/out2.png,stimuli/out1.png,stimuli/correct_out2.png,,,,,,,,,,,,,,,,,,,,,,,,,,,,,,,,,,,,,,
,,59e795c062637600014a7d3f,33,female,2024-04-24_11h32.33.916,stockport_simplified,2022.2.4,Linux x86_64,59.88023952,661e456ee6de07e70aa9ef7b,6628df8ab8160f08a3f675d0,,,,,,,,,,,,,,,,,,,,,,,,,,,,,,,,,,538.1125,539.9271,"[8,7,4,5,3,2,6,1]","[[-0.3,0.2],[0.3,0.2]]","[[0.125,-0.2],[-0.125,-0.2]]",0.134259259,-0.174074102,1,0,0,1.295,o1_image,539.9305,1,540.427,540.427,542.4242,0,0,0,0,1,,,,,,,,,,,,,,,,,,,,,,,,,,,,,,,,,,,,,,,,,,,,,,,,,,
,,59e795c062637600014a7d3f,33,female,2024-04-24_11h32.33.916,stockport_simplified,2022.2.4,Linux x86_64,59.88023952,661e456ee6de07e70aa9ef7b,6628df8ab8160f08a3f675d0,,,,,,,,,,,,,,,,,,,,,,,,,,,,,,,,,,,,,,,,,,,,,,,,,,,,,,,,1,33,93,38,1,A,Y,N,o1_image,stimuli/out1.png,stimuli/correct_out1.png,stimuli/out2.png,,,,,,,,,,,,,,,,,,,,,,,,,,,,,,,,,,,,,,
,,59e795c062637600014a7d3f,33,female,2024-04-24_11h32.33.916,stockport_simplified,2022.2.4,Linux x86_64,59.88023952,661e456ee6de07e70aa9ef7b,6628df8ab8160f08a3f675d0,,,,,,,,,,,,,,,,,,,,,,,,,,,,,,,,,,542.4262,544.9059,"[8,7,4,5,3,2,6,1]","[[-0.3,0.2],[0.3,0.2]]","[[0.125,-0.2],[-0.125,-0.2]]",-0.087962963,-0.22129631,1,0,0,1.9646,o2_image,544.9389,0,545.4379,545.4379,547.4372,0,0,0,0,1,,,,,,,,,,,,,,,,,,,,,,,,,,,,,,,,,,,,,,,,,,,,,,,,,,
,,59e795c062637600014a7d3f,33,female,2024-04-24_11h32.33.916,stockport_simplified,2022.2.4,Linux x86_64,59.88023952,661e456ee6de07e70aa9ef7b,6628df8ab8160f08a3f675d0,,,,,,,,,,,,,,,,,,,,,,,,,,,,,,,,,,,,,,,,,,,,,,,,,,,,,,,,1,34,94,33,1,A,X,N,o1_image,stimuli/out1.png,stimuli/correct_out1.png,stimuli/out2.png,,,,,,,,,,,,,,,,,,,,,,,,,,,,,,,,,,,,,,
,,59e795c062637600014a7d3f,33,female,2024-04-24_11h32.33.916,stockport_simplified,2022.2.4,Linux x86_64,59.88023952,661e456ee6de07e70aa9ef7b,6628df8ab8160f08a3f675d0,,,,,,,,,,,,,,,,,,,,,,,,,,,,,,,,,,547.4382,549.6682,"[8,7,4,5,3,2,6,1]","[[-0.3,0.2],[0.3,0.2]]","[[0.125,-0.2],[-0.125,-0.2]]",0.140740783,-0.210185228,1,0,0,1.7143,o1_image,549.6721,1,550.1676,550.1676,552.1658,0,0,0,0,1,,,,,,,,,,,,,,,,,,,,,,,,,,,,,,,,,,,,,,,,,,,,,,,,,,
,,59e795c062637600014a7d3f,33,female,2024-04-24_11h32.33.916,stockport_simplified,2022.2.4,Linux x86_64,59.88023952,661e456ee6de07e70aa9ef7b,6628df8ab8160f08a3f675d0,,,,,,,,,,,,,,,,,,,,,,,,,,,,,,,,,,,,,,,,,,,,,,,,,,,,,,,,1,35,95,36,1,A,Y,N,o1_image,stimuli/out1.png,stimuli/correct_out1.png,stimuli/out2.png,,,,,,,,,,,,,,,,,,,,,,,,,,,,,,,,,,,,,,
,,59e795c062637600014a7d3f,33,female,2024-04-24_11h32.33.916,stockport_simplified,2022.2.4,Linux x86_64,59.88023952,661e456ee6de07e70aa9ef7b,6628df8ab8160f08a3f675d0,,,,,,,,,,,,,,,,,,,,,,,,,,,,,,,,,,552.1683,553.7314,"[8,7,4,5,3,2,6,1]","[[-0.3,0.2],[0.3,0.2]]","[[0.125,-0.2],[-0.125,-0.2]]",-0.074999986,-0.20648151,1,0,0,1.0481,o2_image,553.7332,1,554.2306,554.2306,556.2298,0,0,0,0,1,,,,,,,,,,,,,,,,,,,,,,,,,,,,,,,,,,,,,,,,,,,,,,,,,,
,,59e795c062637600014a7d3f,33,female,2024-04-24_11h32.33.916,stockport_simplified,2022.2.4,Linux x86_64,59.88023952,661e456ee6de07e70aa9ef7b,6628df8ab8160f08a3f675d0,,,,,,,,,,,,,,,,,,,,,,,,,,,,,,,,,,,,,,,,,,,,,,,,,,,,,,,,1,36,96,58,1,N,M,D,o2_image,stimuli/out2.png,stimuli/out1.png,stimuli/correct_out2.png,,,,,,,,,,,,,,,,,,,,,,,,,,,,,,,,,,,,,,
,,59e795c062637600014a7d3f,33,female,2024-04-24_11h32.33.916,stockport_simplified,2022.2.4,Linux x86_64,59.88023952,661e456ee6de07e70aa9ef7b,6628df8ab8160f08a3f675d0,,,,,,,,,,,,,,,,,,,,,,,,,,,,,,,,,,556.2308,558.3771,"[8,7,4,5,3,2,6,1]","[[0.3,0.2],[-0.3,0.2]]","[[0.125,-0.2],[-0.125,-0.2]]",0.171296296,-0.271296325,1,0,0,1.631,o1_image,558.3787,0,558.8775,558.8775,560.8757,0,0,0,0,1,,,,,,,,,,,,,,,,,,,,,,,,,,,,,,,,,,,,,,,,,,,,,,,,,,
,,59e795c062637600014a7d3f,33,female,2024-04-24_11h32.33.916,stockport_simplified,2022.2.4,Linux x86_64,59.88023952,661e456ee6de07e70aa9ef7b,6628df8ab8160f08a3f675d0,,,,,,,,,,,,,,,,,,,,,,,,,,,,,,,,,,,,,,,,,,,,,,,,,,,,,,,,1,37,97,47,1,B,Y,N,o2_image,stimuli/out2.png,stimuli/out1.png,stimuli/correct_out2.png,,,,,,,,,,,,,,,,,,,,,,,,,,,,,,,,,,,,,,
,,59e795c062637600014a7d3f,33,female,2024-04-24_11h32.33.916,stockport_simplified,2022.2.4,Linux x86_64,59.88023952,661e456ee6de07e70aa9ef7b,6628df8ab8160f08a3f675d0,,,,,,,,,,,,,,,,,,,,,,,,,,,,,,,,,,560.8775,562.4241,"[8,7,4,5,3,2,6,1]","[[-0.3,0.2],[0.3,0.2]]","[[0.125,-0.2],[-0.125,-0.2]]",-0.091666681,-0.238888917,1,0,0,1.0321,o2_image,562.4286,1,562.9246,562.9246,564.9223,0,0,0,0,1,,,,,,,,,,,,,,,,,,,,,,,,,,,,,,,,,,,,,,,,,,,,,,,,,,
,,59e795c062637600014a7d3f,33,female,2024-04-24_11h32.33.916,stockport_simplified,2022.2.4,Linux x86_64,59.88023952,661e456ee6de07e70aa9ef7b,6628df8ab8160f08a3f675d0,,,,,,,,,,,,,,,,,,,,,,,,,,,,,,,,,,,,,,,,,,,,,,,,,,,,,,,,1,38,98,43,1,B,X,N,o2_image,stimuli/out2.png,stimuli/out1.png,stimuli/correct_out2.png,,,,,,,,,,,,,,,,,,,,,,,,,,,,,,,,,,,,,,
,,59e795c062637600014a7d3f,33,female,2024-04-24_11h32.33.916,stockport_simplified,2022.2.4,Linux x86_64,59.88023952,661e456ee6de07e70aa9ef7b,6628df8ab8160f08a3f675d0,,,,,,,,,,,,,,,,,,,,,,,,,,,,,,,,,,564.9261,567.089,"[8,7,4,5,3,2,6,1]","[[0.3,0.2],[-0.3,0.2]]","[[-0.125,-0.2],[0.125,-0.2]]",0.165740755,-0.215740769,1,0,0,1.6499,o2_image,567.091,0,567.5864,567.5864,569.5853,0,0,0,0,1,,,,,,,,,,,,,,,,,,,,,,,,,,,,,,,,,,,,,,,,,,,,,,,,,,
,,59e795c062637600014a7d3f,33,female,2024-04-24_11h32.33.916,stockport_simplified,2022.2.4,Linux x86_64,59.88023952,661e456ee6de07e70aa9ef7b,6628df8ab8160f08a3f675d0,,,,,,,,,,,,,,,,,,,,,,,,,,,,,,,,,,,,,,,,,,,,,,,,,,,,,,,,1,39,99,37,1,A,Y,N,o1_image,stimuli/out1.png,stimuli/correct_out1.png,stimuli/out2.png,,,,,,,,,,,,,,,,,,,,,,,,,,,,,,,,,,,,,,
,,59e795c062637600014a7d3f,33,female,2024-04-24_11h32.33.916,stockport_simplified,2022.2.4,Linux x86_64,59.88023952,661e456ee6de07e70aa9ef7b,6628df8ab8160f08a3f675d0,,,,,,,,,,,,,,,,,,,,,,,,,,,,,,,,,,569.5866,570.9003,"[8,7,4,5,3,2,6,1]","[[-0.3,0.2],[0.3,0.2]]","[[0.125,-0.2],[-0.125,-0.2]]",-0.077777792,-0.211111139,1,0,0,0.7986,o2_image,570.9019,0,571.4002,571.4002,573.3986,0,0,0,0,1,,,,,,,,,,,,,,,,,,,,,,,,,,,,,,,,,,,,,,,,,,,,,,,,,,
,,59e795c062637600014a7d3f,33,female,2024-04-24_11h32.33.916,stockport_simplified,2022.2.4,Linux x86_64,59.88023952,661e456ee6de07e70aa9ef7b,6628df8ab8160f08a3f675d0,,,,,,,,,,,,,,,,,,,,,,,,,,,,,,,,,,,,,,,,,,,,,,,,,,,,,,,,1,40,100,30,1,A,X,N,o1_image,stimuli/out1.png,stimuli/correct_out1.png,stimuli/out2.png,,,,,,,,,,,,,,,,,,,,,,,,,,,,,,,,,,,,,,
,,59e795c062637600014a7d3f,33,female,2024-04-24_11h32.33.916,stockport_simplified,2022.2.4,Linux x86_64,59.88023952,661e456ee6de07e70aa9ef7b,6628df8ab8160f08a3f675d0,,,,,,,,,,,,,,,,,,,,,,,,,,,,,,,,,,573.4008,575.3966,"[8,7,4,5,3,2,6,1]","[[0.3,0.2],[-0.3,0.2]]","[[-0.125,-0.2],[0.125,-0.2]]",0.126851894,-0.190740727,1,0,0,1.4812,o2_image,575.3986,1,575.8968,575.8968,577.8952,0,0,0,0,1,,,,,,,,,,,,,,,,,,,,,,,,,,,,,,,,,,,,,,,,,,,,,,,,,,
,,59e795c062637600014a7d3f,33,female,2024-04-24_11h32.33.916,stockport_simplified,2022.2.4,Linux x86_64,59.88023952,661e456ee6de07e70aa9ef7b,6628df8ab8160f08a3f675d0,,,,,,,,,,,,,,,,,,,,,,,,,,,,,,,,,,,,,,,,,,,,,,,,,,,,,,,,1,41,101,41,1,B,X,N,o2_image,stimuli/out2.png,stimuli/out1.png,stimuli/correct_out2.png,,,,,,,,,,,,,,,,,,,,,,,,,,,,,,,,,,,,,,
,,59e795c062637600014a7d3f,33,female,2024-04-24_11h32.33.916,stockport_simplified,2022.2.4,Linux x86_64,59.88023952,661e456ee6de07e70aa9ef7b,6628df8ab8160f08a3f675d0,,,,,,,,,,,,,,,,,,,,,,,,,,,,,,,,,,577.897,579.8764,"[8,7,4,5,3,2,6,1]","[[-0.3,0.2],[0.3,0.2]]","[[-0.125,-0.2],[0.125,-0.2]]",0.138888889,-0.162037037,1,0,0,1.4648,o2_image,579.8788,0,580.376,580.376,582.3743,0,0,0,0,1,,,,,,,,,,,,,,,,,,,,,,,,,,,,,,,,,,,,,,,,,,,,,,,,,,
,,59e795c062637600014a7d3f,33,female,2024-04-24_11h32.33.916,stockport_simplified,2022.2.4,Linux x86_64,59.88023952,661e456ee6de07e70aa9ef7b,6628df8ab8160f08a3f675d0,,,,,,,,,,,,,,,,,,,,,,,,,,,,,,,,,,,,,,,,,,,,,,,,,,,,,,,,1,42,102,34,1,A,X,N,o1_image,stimuli/out1.png,stimuli/correct_out1.png,stimuli/out2.png,,,,,,,,,,,,,,,,,,,,,,,,,,,,,,,,,,,,,,
,,59e795c062637600014a7d3f,33,female,2024-04-24_11h32.33.916,stockport_simplified,2022.2.4,Linux x86_64,59.88023952,661e456ee6de07e70aa9ef7b,6628df8ab8160f08a3f675d0,,,,,,,,,,,,,,,,,,,,,,,,,,,,,,,,,,582.3752,584.5558,"[8,7,4,5,3,2,6,1]","[[0.3,0.2],[-0.3,0.2]]","[[-0.125,-0.2],[0.125,-0.2]]",-0.140740712,-0.200925968,1,0,0,1.6642,o1_image,584.56,0,585.0552,585.0553,587.0544,0,0,0,0,1,,,,,,,,,,,,,,,,,,,,,,,,,,,,,,,,,,,,,,,,,,,,,,,,,,
,,59e795c062637600014a7d3f,33,female,2024-04-24_11h32.33.916,stockport_simplified,2022.2.4,Linux x86_64,59.88023952,661e456ee6de07e70aa9ef7b,6628df8ab8160f08a3f675d0,,,,,,,,,,,,,,,,,,,,,,,,,,,,,,,,,,,,,,,,,,,,,,,,,,,,,,,,1,43,103,46,1,B,Y,N,o2_image,stimuli/out2.png,stimuli/out1.png,stimuli/correct_out2.png,,,,,,,,,,,,,,,,,,,,,,,,,,,,,,,,,,,,,,
,,59e795c062637600014a7d3f,33,female,2024-04-24_11h32.33.916,stockport_simplified,2022.2.4,Linux x86_64,59.88023952,661e456ee6de07e70aa9ef7b,6628df8ab8160f08a3f675d0,,,,,,,,,,,,,,,,,,,,,,,,,,,,,,,,,,587.0555,588.753,"[8,7,4,5,3,2,6,1]","[[-0.3,0.2],[0.3,0.2]]","[[0.125,-0.2],[-0.125,-0.2]]",0.083333333,-0.155555584,1,0,0,1.1813,o1_image,588.7557,0,589.2531,589.2531,591.2504,0,0,0,0,1,,,,,,,,,,,,,,,,,,,,,,,,,,,,,,,,,,,,,,,,,,,,,,,,,,
,,59e795c062637600014a7d3f,33,female,2024-04-24_11h32.33.916,stockport_simplified,2022.2.4,Linux x86_64,59.88023952,661e456ee6de07e70aa9ef7b,6628df8ab8160f08a3f675d0,,,,,,,,,,,,,,,,,,,,,,,,,,,,,,,,,,,,,,,,,,,,,,,,,,,,,,,,1,44,104,55,1,N,M,D,o2_image,stimuli/out2.png,stimuli/out1.png,stimuli/correct_out2.png,,,,,,,,,,,,,,,,,,,,,,,,,,,,,,,,,,,,,,
,,59e795c062637600014a7d3f,33,female,2024-04-24_11h32.33.916,stockport_simplified,2022.2.4,Linux x86_64,59.88023952,661e456ee6de07e70aa9ef7b,6628df8ab8160f08a3f675d0,,,,,,,,,,,,,,,,,,,,,,,,,,,,,,,,,,591.2513,592.982,"[8,7,4,5,3,2,6,1]","[[0.3,0.2],[-0.3,0.2]]","[[-0.125,-0.2],[0.125,-0.2]]",0.124074088,-0.220370399,1,0,0,1.2149,o2_image,592.984,1,593.4816,593.4816,595.4822,0,0,0,0,1,,,,,,,,,,,,,,,,,,,,,,,,,,,,,,,,,,,,,,,,,,,,,,,,,,
,,59e795c062637600014a7d3f,33,female,2024-04-24_11h32.33.916,stockport_simplified,2022.2.4,Linux x86_64,59.88023952,661e456ee6de07e70aa9ef7b,6628df8ab8160f08a3f675d0,,,,,,,,,,,,,,,,,,,,,,,,,,,,,,,,,,,,,,,,,,,,,,,,,,,,,,,,1,45,105,27,1,N,M,D,o2_image,stimuli/out2.png,stimuli/out1.png,stimuli/correct_out2.png,,,,,,,,,,,,,,,,,,,,,,,,,,,,,,,,,,,,,,
,,59e795c062637600014a7d3f,33,female,2024-04-24_11h32.33.916,stockport_simplified,2022.2.4,Linux x86_64,59.88023952,661e456ee6de07e70aa9ef7b,6628df8ab8160f08a3f675d0,,,,,,,,,,,,,,,,,,,,,,,,,,,,,,,,,,595.4833,597.8627,"[8,7,4,5,3,2,6,1]","[[0.3,0.2],[-0.3,0.2]]","[[-0.125,-0.2],[0.125,-0.2]]",-0.091666681,-0.217592593,1,0,0,1.8647,o1_image,597.8652,1,598.361,598.3611,600.3599,0,0,0,0,1,,,,,,,,,,,,,,,,,,,,,,,,,,,,,,,,,,,,,,,,,,,,,,,,,,
,,59e795c062637600014a7d3f,33,female,2024-04-24_11h32.33.916,stockport_simplified,2022.2.4,Linux x86_64,59.88023952,661e456ee6de07e70aa9ef7b,6628df8ab8160f08a3f675d0,,,,,,,,,,,,,,,,,,,,,,,,,,,,,,,,,,,,,,,,,,,,,,,,,,,,,,,,1,46,106,31,1,A,X,N,o1_image,stimuli/out1.png,stimuli/correct_out1.png,stimuli/out2.png,,,,,,,,,,,,,,,,,,,,,,,,,,,,,,,,,,,,,,
,,59e795c062637600014a7d3f,33,female,2024-04-24_11h32.33.916,stockport_simplified,2022.2.4,Linux x86_64,59.88023952,661e456ee6de07e70aa9ef7b,6628df8ab8160f08a3f675d0,,,,,,,,,,,,,,,,,,,,,,,,,,,,,,,,,,600.3613,602.4751,"[8,7,4,5,3,2,6,1]","[[0.3,0.2],[-0.3,0.2]]","[[-0.125,-0.2],[0.125,-0.2]]",-0.079629616,-0.253703718,1,0,0,1.5979,o1_image,602.4766,1,602.9739,602.974,604.9723,0,0,0,0,1,,,,,,,,,,,,,,,,,,,,,,,,,,,,,,,,,,,,,,,,,,,,,,,,,,
,,59e795c062637600014a7d3f,33,female,2024-04-24_11h32.33.916,stockport_simplified,2022.2.4,Linux x86_64,59.88023952,661e456ee6de07e70aa9ef7b,6628df8ab8160f08a3f675d0,,,,,,,,,,,,,,,,,,,,,,,,,,,,,,,,,,,,,,,,,,,,,,,,,,,,,,,,1,47,107,24,1,N,M,C,o1_image,stimuli/out1.png,stimuli/correct_out1.png,stimuli/out2.png,,,,,,,,,,,,,,,,,,,,,,,,,,,,,,,,,,,,,,
,,59e795c062637600014a7d3f,33,female,2024-04-24_11h32.33.916,stockport_simplified,2022.2.4,Linux x86_64,59.88023952,661e456ee6de07e70aa9ef7b,6628df8ab8160f08a3f675d0,,,,,,,,,,,,,,,,,,,,,,,,,,,,,,,,,,604.9731,606.5879,"[8,7,4,5,3,2,6,1]","[[-0.3,0.2],[0.3,0.2]]","[[0.125,-0.2],[-0.125,-0.2]]",-0.076851809,-0.241666653,1,0,0,1.0977,o2_image,606.5909,1,607.0871,607.0882,609.0855,0,0,0,0,1,,,,,,,,,,,,,,,,,,,,,,,,,,,,,,,,,,,,,,,,,,,,,,,,,,
,,59e795c062637600014a7d3f,33,female,2024-04-24_11h32.33.916,stockport_simplified,2022.2.4,Linux x86_64,59.88023952,661e456ee6de07e70aa9ef7b,6628df8ab8160f08a3f675d0,,,,,,,,,,,,,,,,,,,,,,,,,,,,,,,,,,,,,,,,,,,,,,,,,,,,,,,,1,48,108,40,1,B,X,N,o2_image,stimuli/out2.png,stimuli/out1.png,stimuli/correct_out2.png,,,,,,,,,,,,,,,,,,,,,,,,,,,,,,,,,,,,,,
,,59e795c062637600014a7d3f,33,female,2024-04-24_11h32.33.916,stockport_simplified,2022.2.4,Linux x86_64,59.88023952,661e456ee6de07e70aa9ef7b,6628df8ab8160f08a3f675d0,,,,,,,,,,,,,,,,,,,,,,,,,,,,,,,,,,609.0876,611.434,"[8,7,4,5,3,2,6,1]","[[-0.3,0.2],[0.3,0.2]]","[[-0.125,-0.2],[0.125,-0.2]]",0.085185228,-0.168518561,1,0,0,1.8309,o2_image,611.4355,1,611.9331,611.9331,613.9316,0,0,0,0,1,,,,,,,,,,,,,,,,,,,,,,,,,,,,,,,,,,,,,,,,,,,,,,,,,,
,,59e795c062637600014a7d3f,33,female,2024-04-24_11h32.33.916,stockport_simplified,2022.2.4,Linux x86_64,59.88023952,661e456ee6de07e70aa9ef7b,6628df8ab8160f08a3f675d0,,,,,,,,,,,,,,,,,,,,,,,,,,,,,,,,,,,,,,,,,,,,,,,,,,,,,,,,1,49,109,25,1,N,M,D,o2_image,stimuli/out2.png,stimuli/out1.png,stimuli/correct_out2.png,,,,,,,,,,,,,,,,,,,,,,,,,,,,,,,,,,,,,,
,,59e795c062637600014a7d3f,33,female,2024-04-24_11h32.33.916,stockport_simplified,2022.2.4,Linux x86_64,59.88023952,661e456ee6de07e70aa9ef7b,6628df8ab8160f08a3f675d0,,,,,,,,,,,,,,,,,,,,,,,,,,,,,,,,,,613.9324,615.6151,"[8,7,4,5,3,2,6,1]","[[0.3,0.2],[-0.3,0.2]]","[[-0.125,-0.2],[0.125,-0.2]]",0.087037051,-0.156481496,1,0,0,1.181,o2_image,615.6176,1,616.1133,616.1133,618.112,0,0,0,0,1,,,,,,,,,,,,,,,,,,,,,,,,,,,,,,,,,,,,,,,,,,,,,,,,,,
,,59e795c062637600014a7d3f,33,female,2024-04-24_11h32.33.916,stockport_simplified,2022.2.4,Linux x86_64,59.88023952,661e456ee6de07e70aa9ef7b,6628df8ab8160f08a3f675d0,,,,,,,,,,,,,,,,,,,,,,,,,,,,,,,,,,,,,,,,,,,,,,,,,,,,,,,,1,50,110,14,1,B,X,N,o2_image,stimuli/out2.png,stimuli/out1.png,stimuli/correct_out2.png,,,,,,,,,,,,,,,,,,,,,,,,,,,,,,,,,,,,,,
,,59e795c062637600014a7d3f,33,female,2024-04-24_11h32.33.916,stockport_simplified,2022.2.4,Linux x86_64,59.88023952,661e456ee6de07e70aa9ef7b,6628df8ab8160f08a3f675d0,,,,,,,,,,,,,,,,,,,,,,,,,,,,,,,,,,618.1128,619.86,"[8,7,4,5,3,2,6,1]","[[0.3,0.2],[-0.3,0.2]]","[[-0.125,-0.2],[0.125,-0.2]]",-0.086111069,-0.249074088,1,0,0,1.2313,o1_image,619.8616,0,620.36,620.3601,622.3579,0,0,0,0,1,,,,,,,,,,,,,,,,,,,,,,,,,,,,,,,,,,,,,,,,,,,,,,,,,,
,,59e795c062637600014a7d3f,33,female,2024-04-24_11h32.33.916,stockport_simplified,2022.2.4,Linux x86_64,59.88023952,661e456ee6de07e70aa9ef7b,6628df8ab8160f08a3f675d0,,,,,,,,,,,,,,,,,,,,,,,,,,,,,,,,,,,,,,,,,,,,,,,,,,,,,,,,1,51,111,45,1,B,Y,N,o2_image,stimuli/out2.png,stimuli/out1.png,stimuli/correct_out2.png,,,,,,,,,,,,,,,,,,,,,,,,,,,,,,,,,,,,,,
,,59e795c062637600014a7d3f,33,female,2024-04-24_11h32.33.916,stockport_simplified,2022.2.4,Linux x86_64,59.88023952,661e456ee6de07e70aa9ef7b,6628df8ab8160f08a3f675d0,,,,,,,,,,,,,,,,,,,,,,,,,,,,,,,,,,622.3587,625.1227,"[8,7,4,5,3,2,6,1]","[[-0.3,0.2],[0.3,0.2]]","[[-0.125,-0.2],[0.125,-0.2]]",-0.079629616,-0.207407422,1,0,0,2.247,o1_image,625.1587,0,625.6553,625.6553,627.6537,0,0,0,0,1,,,,,,,,,,,,,,,,,,,,,,,,,,,,,,,,,,,,,,,,,,,,,,,,,,
,,59e795c062637600014a7d3f,33,female,2024-04-24_11h32.33.916,stockport_simplified,2022.2.4,Linux x86_64,59.88023952,661e456ee6de07e70aa9ef7b,6628df8ab8160f08a3f675d0,,,,,,,,,,,,,,,,,,,,,,,,,,,,,,,,,,,,,,,,,,,,,,,,,,,,,,,,1,52,112,26,1,N,M,D,o2_image,stimuli/out2.png,stimuli/out1.png,stimuli/correct_out2.png,,,,,,,,,,,,,,,,,,,,,,,,,,,,,,,,,,,,,,
,,59e795c062637600014a7d3f,33,female,2024-04-24_11h32.33.916,stockport_simplified,2022.2.4,Linux x86_64,59.88023952,661e456ee6de07e70aa9ef7b,6628df8ab8160f08a3f675d0,,,,,,,,,,,,,,,,,,,,,,,,,,,,,,,,,,627.6548,629.6354,"[8,7,4,5,3,2,6,1]","[[-0.3,0.2],[0.3,0.2]]","[[0.125,-0.2],[-0.125,-0.2]]",0.104629658,-0.193518533,1,0,0,1.463,o1_image,629.6376,0,630.1349,630.135,632.1336,0,0,0,0,1,,,,,,,,,,,,,,,,,,,,,,,,,,,,,,,,,,,,,,,,,,,,,,,,,,
,,59e795c062637600014a7d3f,33,female,2024-04-24_11h32.33.916,stockport_simplified,2022.2.4,Linux x86_64,59.88023952,661e456ee6de07e70aa9ef7b,6628df8ab8160f08a3f675d0,,,,,,,,,,,,,,,,,,,,,,,,,,,,,,,,,,,,,,,,,,,,,,,,,,,,,,,,1,53,113,48,1,B,Y,N,o2_image,stimuli/out2.png,stimuli/out1.png,stimuli/correct_out2.png,,,,,,,,,,,,,,,,,,,,,,,,,,,,,,,,,,,,,,
,,59e795c062637600014a7d3f,33,female,2024-04-24_11h32.33.916,stockport_simplified,2022.2.4,Linux x86_64,59.88023952,661e456ee6de07e70aa9ef7b,6628df8ab8160f08a3f675d0,,,,,,,,,,,,,,,,,,,,,,,,,,,,,,,,,,632.135,634.1987,"[8,7,4,5,3,2,6,1]","[[0.3,0.2],[-0.3,0.2]]","[[0.125,-0.2],[-0.125,-0.2]]",0.091666681,-0.193518533,1,0,0,1.5485,o1_image,634.2003,1,634.6977,634.6977,636.6963,0,0,0,0,1,,,,,,,,,,,,,,,,,,,,,,,,,,,,,,,,,,,,,,,,,,,,,,,,,,
,,59e795c062637600014a7d3f,33,female,2024-04-24_11h32.33.916,stockport_simplified,2022.2.4,Linux x86_64,59.88023952,661e456ee6de07e70aa9ef7b,6628df8ab8160f08a3f675d0,,,,,,,,,,,,,,,,,,,,,,,,,,,,,,,,,,,,,,,,,,,,,,,,,,,,,,,,1,54,114,1,1,A,X,N,o1_image,stimuli/out1.png,stimuli/correct_out1.png,stimuli/out2.png,,,,,,,,,,,,,,,,,,,,,,,,,,,,,,,,,,,,,,
,,59e795c062637600014a7d3f,33,female,2024-04-24_11h32.33.916,stockport_simplified,2022.2.4,Linux x86_64,59.88023952,661e456ee6de07e70aa9ef7b,6628df8ab8160f08a3f675d0,,,,,,,,,,,,,,,,,,,,,,,,,,,,,,,,,,636.6975,638.4448,"[8,7,4,5,3,2,6,1]","[[0.3,0.2],[-0.3,0.2]]","[[0.125,-0.2],[-0.125,-0.2]]",0.086111139,-0.194444444,1,0,0,1.2302,o1_image,638.4465,1,638.9461,638.9462,640.9426,0,0,0,0,1,,,,,,,,,,,,,,,,,,,,,,,,,,,,,,,,,,,,,,,,,,,,,,,,,,
,,59e795c062637600014a7d3f,33,female,2024-04-24_11h32.33.916,stockport_simplified,2022.2.4,Linux x86_64,59.88023952,661e456ee6de07e70aa9ef7b,6628df8ab8160f08a3f675d0,,,,,,,,,,,,,,,,,,,,,,,,,,,,,,,,,,,,,,,,,,,,,,,,,,,,,,,,1,55,115,22,1,N,M,C,o1_image,stimuli/out1.png,stimuli/correct_out1.png,stimuli/out2.png,,,,,,,,,,,,,,,,,,,,,,,,,,,,,,,,,,,,,,
,,59e795c062637600014a7d3f,33,female,2024-04-24_11h32.33.916,stockport_simplified,2022.2.4,Linux x86_64,59.88023952,661e456ee6de07e70aa9ef7b,6628df8ab8160f08a3f675d0,,,,,,,,,,,,,,,,,,,,,,,,,,,,,,,,,,640.9438,642.2585,"[8,7,4,5,3,2,6,1]","[[-0.3,0.2],[0.3,0.2]]","[[0.125,-0.2],[-0.125,-0.2]]",0.140740783,-0.199999986,1,0,0,0.7993,o1_image,642.2632,1,642.7578,642.7584,644.757,0,0,0,0,1,,,,,,,,,,,,,,,,,,,,,,,,,,,,,,,,,,,,,,,,,,,,,,,,,,
,,59e795c062637600014a7d3f,33,female,2024-04-24_11h32.33.916,stockport_simplified,2022.2.4,Linux x86_64,59.88023952,661e456ee6de07e70aa9ef7b,6628df8ab8160f08a3f675d0,,,,,,,,,,,,,,,,,,,,,,,,,,,,,,,,,,,,,,,,,,,,,,,,,,,,,,,,1,56,116,54,1,N,M,C,o1_image,stimuli/out1.png,stimuli/correct_out1.png,stimuli/out2.png,,,,,,,,,,,,,,,,,,,,,,,,,,,,,,,,,,,,,,
,,59e795c062637600014a7d3f,33,female,2024-04-24_11h32.33.916,stockport_simplified,2022.2.4,Linux x86_64,59.88023952,661e456ee6de07e70aa9ef7b,6628df8ab8160f08a3f675d0,,,,,,,,,,,,,,,,,,,,,,,,,,,,,,,,,,644.758,646.5539,"[8,7,4,5,3,2,6,1]","[[0.3,0.2],[-0.3,0.2]]","[[-0.125,-0.2],[0.125,-0.2]]",-0.110185199,-0.262037065,1,0,0,1.2798,o1_image,646.5544,0,647.0546,647.0546,649.0533,0,0,0,0,1,,,,,,,,,,,,,,,,,,,,,,,,,,,,,,,,,,,,,,,,,,,,,,,,,,
,,59e795c062637600014a7d3f,33,female,2024-04-24_11h32.33.916,stockport_simplified,2022.2.4,Linux x86_64,59.88023952,661e456ee6de07e70aa9ef7b,6628df8ab8160f08a3f675d0,,,,,,,,,,,,,,,,,,,,,,,,,,,,,,,,,,,,,,,,,,,,,,,,,,,,,,,,1,57,117,17,1,B,Y,N,o2_image,stimuli/out2.png,stimuli/out1.png,stimuli/correct_out2.png,,,,,,,,,,,,,,,,,,,,,,,,,,,,,,,,,,,,,,
,,59e795c062637600014a7d3f,33,female,2024-04-24_11h32.33.916,stockport_simplified,2022.2.4,Linux x86_64,59.88023952,661e456ee6de07e70aa9ef7b,6628df8ab8160f08a3f675d0,,,,,,,,,,,,,,,,,,,,,,,,,,,,,,,,,,649.0542,650.7682,"[8,7,4,5,3,2,6,1]","[[0.3,0.2],[-0.3,0.2]]","[[0.125,-0.2],[-0.125,-0.2]]",-0.080555527,-0.229629658,1,0,0,1.1974,o2_image,650.7718,1,651.268,651.268,653.2764,0,0,0,0,1,,,,,,,,,,,,,,,,,,,,,,,,,,,,,,,,,,,,,,,,,,,,,,,,,,
,,59e795c062637600014a7d3f,33,female,2024-04-24_11h32.33.916,stockport_simplified,2022.2.4,Linux x86_64,59.88023952,661e456ee6de07e70aa9ef7b,6628df8ab8160f08a3f675d0,,,,,,,,,,,,,,,,,,,,,,,,,,,,,,,,,,,,,,,,,,,,,,,,,,,,,,,,1,58,118,13,1,B,X,N,o2_image,stimuli/out2.png,stimuli/out1.png,stimuli/correct_out2.png,,,,,,,,,,,,,,,,,,,,,,,,,,,,,,,,,,,,,,
,,59e795c062637600014a7d3f,33,female,2024-04-24_11h32.33.916,stockport_simplified,2022.2.4,Linux x86_64,59.88023952,661e456ee6de07e70aa9ef7b,6628df8ab8160f08a3f675d0,,,,,,,,,,,,,,,,,,,,,,,,,,,,,,,,,,653.2794,655.3311,"[8,7,4,5,3,2,6,1]","[[-0.3,0.2],[0.3,0.2]]","[[-0.125,-0.2],[0.125,-0.2]]",-0.060185185,-0.210185228,1,0,0,1.5469,o1_image,655.3326,0,655.8308,655.8309,657.8287,0,0,0,0,1,,,,,,,,,,,,,,,,,,,,,,,,,,,,,,,,,,,,,,,,,,,,,,,,,,
,,59e795c062637600014a7d3f,33,female,2024-04-24_11h32.33.916,stockport_simplified,2022.2.4,Linux x86_64,59.88023952,661e456ee6de07e70aa9ef7b,6628df8ab8160f08a3f675d0,,,,,,,,,,,,,,,,,,,,,,,,,,,,,,,,,,,,,,,,,,,,,,,,,,,,,,,,1,59,119,44,1,B,X,N,o2_image,stimuli/out2.png,stimuli/out1.png,stimuli/correct_out2.png,,,,,,,,,,,,,,,,,,,,,,,,,,,,,,,,,,,,,,
,,59e795c062637600014a7d3f,33,female,2024-04-24_11h32.33.916,stockport_simplified,2022.2.4,Linux x86_64,59.88023952,661e456ee6de07e70aa9ef7b,6628df8ab8160f08a3f675d0,,,,,,,,,,,,,,,,,,,,,,,,,,,,,,,,,,657.8816,659.2776,"[8,7,4,5,3,2,6,1]","[[0.3,0.2],[-0.3,0.2]]","[[-0.125,-0.2],[0.125,-0.2]]",0.119444459,-0.214814857,1,0,0,0.8816,o2_image,659.2813,1,659.7776,659.778,661.7765,,,,,,,,,,,,,,,,,,0,0,0,0,1,,,,,,,,,,,,,,,,,,,,,,,,,,,,,,,,,
,,59e795c062637600014a7d3f,33,female,2024-04-24_11h32.33.916,stockport_simplified,2022.2.4,Linux x86_64,59.88023952,661e456ee6de07e70aa9ef7b,6628df8ab8160f08a3f675d0,,,,,,,,,,,,,,,,,,,,,,,,,,,,,,,,,,,,,,,,,,,,,,,,,,,,,,,,,,,,,B,Y,N,o2_image,stimuli/out2.png,stimuli/out1.png,stimuli/correct_out2.png,,,,,,0,0,0,37,1,,,,,,,,,,,,,,,,,,,,,,,,,,,,
,,59e795c062637600014a7d3f,33,female,2024-04-24_11h32.33.916,stockport_simplified,2022.2.4,Linux x86_64,59.88023952,661e456ee6de07e70aa9ef7b,6628df8ab8160f08a3f675d0,,,,,,,,,,,,,,,,,,,,,,,,,,,,,,,,,,661.7781,663.4075,"[8,7,4,5,3,2,6,1]","[[-0.3,0.2],[0.3,0.2]]","[[0.125,-0.2],[-0.125,-0.2]]",0.127777806,-0.183333362,1,0,0,1.1142,o1_image,663.4113,0,663.9075,663.9076,665.906,,,,,,,,,,,,,,,,,,0,0,0,0,1,,,,,,,,,,,,,,,,,,,,,,,,,,,,,,,,,
