counterbalance_2.started,counterbalance_2.stopped,participant,age,gender,date,expName,psychopyVersion,OS,frameRate,STUDY_ID,SESSION_ID,information_2.started,information_2.stopped,information_loop.thisRepN,information_loop.thisTrialN,information_loop.thisN,information_loop.thisIndex,information_loop.ran,information,consent_2.started,consent_2.stopped,slider_1.response,slider_2.response,slider_3.response,slider_4.response,slider_5.response,slider_6.response,instructions.started,instructions.stopped,task1_instr.thisRepN,task1_instr.thisTrialN,task1_instr.thisN,task1_instr.thisIndex,task1_instr.ran,task1,comprehension1_2.started,comprehension1_2.stopped,comp1_mouse.x,comp1_mouse.y,comp1_mouse.leftButton,comp1_mouse.midButton,comp1_mouse.rightButton,comp1_mouse.time,comp1_mouse.clicked_name,cue_o__trial_2.started,cue_o__trial_2.stopped,order,cue_order,out_order,cue_o_mouse.x,cue_o_mouse.y,cue_o_mouse.leftButton,cue_o_mouse.midButton,cue_o_mouse.rightButton,cue_o_mouse.time,cue_o_mouse.clicked_name,cue_selection_2.started,correct_answer,cue_selection_2.stopped,feedback_2.started,feedback_2.stopped,feedback_loop.thisRepN,feedback_loop.thisTrialN,feedback_loop.thisN,feedback_loop.thisIndex,feedback_loop.ran,stage1_trials.thisRepN,stage1_trials.thisTrialN,stage1_trials.thisN,stage1_trials.thisIndex,stage1_trials.ran,cue1,cue2,cue3,outcome,correct_out,o1_feedback,o2_feedback,stage2_feedback_loop.thisRepN,stage2_feedback_loop.thisTrialN,stage2_feedback_loop.thisN,stage2_feedback_loop.thisIndex,stage2_feedback_loop.ran,stage2_trials.thisRepN,stage2_trials.thisTrialN,stage2_trials.thisN,stage2_trials.thisIndex,stage2_trials.ran,stage3_feedback_loop.thisRepN,stage3_feedback_loop.thisTrialN,stage3_feedback_loop.thisN,stage3_feedback_loop.thisIndex,stage3_feedback_loop.ran,stage3_trials.thisRepN,stage3_trials.thisTrialN,stage3_trials.thisN,stage3_trials.thisIndex,stage3_trials.ran,debrief_2.started,debrief_2.stopped,debrief_loop.thisRepN,debrief_loop.thisTrialN,debrief_loop.thisN,debrief_loop.thisIndex,debrief_loop.ran,debrief_img,compr1_completed.thisRepN,compr1_completed.thisTrialN,compr1_completed.thisN,compr1_completed.thisIndex,compr1_completed.ran,consent_loop.thisRepN,consent_loop.thisTrialN,consent_loop.thisN,consent_loop.thisIndex,consent_loop.ran
0.0005,0.0009,659960b8a6b2c5c5a910dcf2,30,female,2024-04-19_13h37.30.164,stockport_simplified,2022.2.4,Win32,59.52380952,661e456ee6de07e70aa9ef7b,66229da4c253f2e6160966c6,,,,,,,,,,,,,,,,,,,,,,,,,,,,,,,,,,,,,,,,,,,,,,,,,,,,,,,,,,,,,,,,,,,,,,,,,,,,,,,,,,,,,,,,,,,,,,,,,,,,,,,,,
,,659960b8a6b2c5c5a910dcf2,30,female,2024-04-19_13h37.30.164,stockport_simplified,2022.2.4,Win32,59.52380952,661e456ee6de07e70aa9ef7b,66229da4c253f2e6160966c6,0.0313,24.1339,0,0,0,0,1,instructions/info1.png,,,,,,,,,,,,,,,,,,,,,,,,,,,,,,,,,,,,,,,,,,,,,,,,,,,,,,,,,,,,,,,,,,,,,,,,,,,,,,,,,,,,,,,,,,,,,,,,,
,,659960b8a6b2c5c5a910dcf2,30,female,2024-04-19_13h37.30.164,stockport_simplified,2022.2.4,Win32,59.52380952,661e456ee6de07e70aa9ef7b,66229da4c253f2e6160966c6,24.1355,43.8128,0,1,1,1,1,instructions/info2.png,,,,,,,,,,,,,,,,,,,,,,,,,,,,,,,,,,,,,,,,,,,,,,,,,,,,,,,,,,,,,,,,,,,,,,,,,,,,,,,,,,,,,,,,,,,,,,,,,
,,659960b8a6b2c5c5a910dcf2,30,female,2024-04-19_13h37.30.164,stockport_simplified,2022.2.4,Win32,59.52380952,661e456ee6de07e70aa9ef7b,66229da4c253f2e6160966c6,43.8137,50.2448,0,2,2,2,1,instructions/info3.png,,,,,,,,,,,,,,,,,,,,,,,,,,,,,,,,,,,,,,,,,,,,,,,,,,,,,,,,,,,,,,,,,,,,,,,,,,,,,,,,,,,,,,,,,,,,,,,,,
,,659960b8a6b2c5c5a910dcf2,30,female,2024-04-19_13h37.30.164,stockport_simplified,2022.2.4,Win32,59.52380952,661e456ee6de07e70aa9ef7b,66229da4c253f2e6160966c6,,,,,,,,,50.2778,71.7484,1,1,1,1,1,1,,,,,,,,,,,,,,,,,,,,,,,,,,,,,,,,,,,,,,,,,,,,,,,,,,,,,,,,,,,,,,,,,,,,,,,,,,,,,,,,,,,,,,,,,
,,659960b8a6b2c5c5a910dcf2,30,female,2024-04-19_13h37.30.164,stockport_simplified,2022.2.4,Win32,59.52380952,661e456ee6de07e70aa9ef7b,66229da4c253f2e6160966c6,,,,,,,,,,,,,,,,,71.7842,92.3201,0,0,0,0,1,instructions/task1_1.png,,,,,,,,,,,,,,,,,,,,,,,,,,,,,,,,,,,,,,,,,,,,,,,,,,,,,,,,,,,,,,,,,,,,,,,,,,,,,,,,,
,,659960b8a6b2c5c5a910dcf2,30,female,2024-04-19_13h37.30.164,stockport_simplified,2022.2.4,Win32,59.52380952,661e456ee6de07e70aa9ef7b,66229da4c253f2e6160966c6,,,,,,,,,,,,,,,,,92.3536,108.1647,0,1,1,1,1,instructions/task1_2.png,,,,,,,,,,,,,,,,,,,,,,,,,,,,,,,,,,,,,,,,,,,,,,,,,,,,,,,,,,,,,,,,,,,,,,,,,,,,,,,,,
,,659960b8a6b2c5c5a910dcf2,30,female,2024-04-19_13h37.30.164,stockport_simplified,2022.2.4,Win32,59.52380952,661e456ee6de07e70aa9ef7b,66229da4c253f2e6160966c6,,,,,,,,,,,,,,,,,108.1979,125.1978,0,2,2,2,1,instructions/task1_3.png,,,,,,,,,,,,,,,,,,,,,,,,,,,,,,,,,,,,,,,,,,,,,,,,,,,,,,,,,,,,,,,,,,,,,,,,,,,,,,,,,
,,659960b8a6b2c5c5a910dcf2,30,female,2024-04-19_13h37.30.164,stockport_simplified,2022.2.4,Win32,59.52380952,661e456ee6de07e70aa9ef7b,66229da4c253f2e6160966c6,,,,,,,,,,,,,,,,,,,,,,,,,125.2002,156.522,0.300000085,-0.323148162,1,0,0,31.3196,comp1_resp1,156.5892,161.9008,"[6,1,3,7,8,5,4,2]","[[-0.3,0.2],[0.3,0.2]]","[[0.125,-0.2],[-0.125,-0.2]]",0.141666695,-0.181481467,1,0,0,4.8028,o1_image,161.9359,0,162.4312,162.4317,164.4338,0,0,0,0,1,,,,,,,,,,,,,,,,,,,,,,,,,,,,,,,,,,,,,,,,,,,,,,,,,,
,,659960b8a6b2c5c5a910dcf2,30,female,2024-04-19_13h37.30.164,stockport_simplified,2022.2.4,Win32,59.52380952,661e456ee6de07e70aa9ef7b,66229da4c253f2e6160966c6,,,,,,,,,,,,,,,,,,,,,,,,,,,,,,,,,,,,,,,,,,,,,,,,,,,,,,,,0,0,0,46,1,B,Y,N,o2_image,stimuli/out2.png,stimuli/out1.png,stimuli/correct_out2.png,,,,,,,,,,,,,,,,,,,,,,,,,,,,,,,,,,,,,,
,,659960b8a6b2c5c5a910dcf2,30,female,2024-04-19_13h37.30.164,stockport_simplified,2022.2.4,Win32,59.52380952,661e456ee6de07e70aa9ef7b,66229da4c253f2e6160966c6,,,,,,,,,,,,,,,,,,,,,,,,,,,,,,,,,,164.4355,168.9151,"[6,1,3,7,8,5,4,2]","[[0.3,0.2],[-0.3,0.2]]","[[0.125,-0.2],[-0.125,-0.2]]",0.150000042,-0.188888903,1,0,0,3.9632,o1_image,168.9476,1,169.4476,169.4477,171.4644,0,0,0,0,1,,,,,,,,,,,,,,,,,,,,,,,,,,,,,,,,,,,,,,,,,,,,,,,,,,
,,659960b8a6b2c5c5a910dcf2,30,female,2024-04-19_13h37.30.164,stockport_simplified,2022.2.4,Win32,59.52380952,661e456ee6de07e70aa9ef7b,66229da4c253f2e6160966c6,,,,,,,,,,,,,,,,,,,,,,,,,,,,,,,,,,,,,,,,,,,,,,,,,,,,,,,,0,1,1,22,1,N,M,C,o1_image,stimuli/out1.png,stimuli/correct_out1.png,stimuli/out2.png,,,,,,,,,,,,,,,,,,,,,,,,,,,,,,,,,,,,,,
,,659960b8a6b2c5c5a910dcf2,30,female,2024-04-19_13h37.30.164,stockport_simplified,2022.2.4,Win32,59.52380952,661e456ee6de07e70aa9ef7b,66229da4c253f2e6160966c6,,,,,,,,,,,,,,,,,,,,,,,,,,,,,,,,,,171.4655,175.8008,"[6,1,3,7,8,5,4,2]","[[0.3,0.2],[-0.3,0.2]]","[[0.125,-0.2],[-0.125,-0.2]]",-0.083333333,-0.175000014,1,0,0,3.8321,o2_image,175.8308,1,176.3315,176.3316,178.3342,0,0,0,0,1,,,,,,,,,,,,,,,,,,,,,,,,,,,,,,,,,,,,,,,,,,,,,,,,,,
,,659960b8a6b2c5c5a910dcf2,30,female,2024-04-19_13h37.30.164,stockport_simplified,2022.2.4,Win32,59.52380952,661e456ee6de07e70aa9ef7b,66229da4c253f2e6160966c6,,,,,,,,,,,,,,,,,,,,,,,,,,,,,,,,,,,,,,,,,,,,,,,,,,,,,,,,0,2,2,13,1,B,X,N,o2_image,stimuli/out2.png,stimuli/out1.png,stimuli/correct_out2.png,,,,,,,,,,,,,,,,,,,,,,,,,,,,,,,,,,,,,,
,,659960b8a6b2c5c5a910dcf2,30,female,2024-04-19_13h37.30.164,stockport_simplified,2022.2.4,Win32,59.52380952,661e456ee6de07e70aa9ef7b,66229da4c253f2e6160966c6,,,,,,,,,,,,,,,,,,,,,,,,,,,,,,,,,,178.3354,181.4659,"[6,1,3,7,8,5,4,2]","[[-0.3,0.2],[0.3,0.2]]","[[0.125,-0.2],[-0.125,-0.2]]",0.111111111,-0.19722225,1,0,0,2.6174,o1_image,181.4985,1,181.9907,181.9909,183.9891,0,0,0,0,1,,,,,,,,,,,,,,,,,,,,,,,,,,,,,,,,,,,,,,,,,,,,,,,,,,
,,659960b8a6b2c5c5a910dcf2,30,female,2024-04-19_13h37.30.164,stockport_simplified,2022.2.4,Win32,59.52380952,661e456ee6de07e70aa9ef7b,66229da4c253f2e6160966c6,,,,,,,,,,,,,,,,,,,,,,,,,,,,,,,,,,,,,,,,,,,,,,,,,,,,,,,,0,3,3,39,1,A,Y,N,o1_image,stimuli/out1.png,stimuli/correct_out1.png,stimuli/out2.png,,,,,,,,,,,,,,,,,,,,,,,,,,,,,,,,,,,,,,
,,659960b8a6b2c5c5a910dcf2,30,female,2024-04-19_13h37.30.164,stockport_simplified,2022.2.4,Win32,59.52380952,661e456ee6de07e70aa9ef7b,66229da4c253f2e6160966c6,,,,,,,,,,,,,,,,,,,,,,,,,,,,,,,,,,183.9902,187.3512,"[6,1,3,7,8,5,4,2]","[[-0.3,0.2],[0.3,0.2]]","[[-0.125,-0.2],[0.125,-0.2]]",0.137037065,-0.178703732,1,0,0,2.8524,o2_image,187.3864,1,187.8841,187.8841,189.8848,0,0,0,0,1,,,,,,,,,,,,,,,,,,,,,,,,,,,,,,,,,,,,,,,,,,,,,,,,,,
,,659960b8a6b2c5c5a910dcf2,30,female,2024-04-19_13h37.30.164,stockport_simplified,2022.2.4,Win32,59.52380952,661e456ee6de07e70aa9ef7b,66229da4c253f2e6160966c6,,,,,,,,,,,,,,,,,,,,,,,,,,,,,,,,,,,,,,,,,,,,,,,,,,,,,,,,0,4,4,41,1,B,X,N,o2_image,stimuli/out2.png,stimuli/out1.png,stimuli/correct_out2.png,,,,,,,,,,,,,,,,,,,,,,,,,,,,,,,,,,,,,,
,,659960b8a6b2c5c5a910dcf2,30,female,2024-04-19_13h37.30.164,stockport_simplified,2022.2.4,Win32,59.52380952,661e456ee6de07e70aa9ef7b,66229da4c253f2e6160966c6,,,,,,,,,,,,,,,,,,,,,,,,,,,,,,,,,,189.8858,192.8837,"[6,1,3,7,8,5,4,2]","[[-0.3,0.2],[0.3,0.2]]","[[0.125,-0.2],[-0.125,-0.2]]",0.118518547,-0.22592594,1,0,0,2.4799,o1_image,192.9162,0,193.4083,193.4084,195.4015,0,0,0,0,1,,,,,,,,,,,,,,,,,,,,,,,,,,,,,,,,,,,,,,,,,,,,,,,,,,
,,659960b8a6b2c5c5a910dcf2,30,female,2024-04-19_13h37.30.164,stockport_simplified,2022.2.4,Win32,59.52380952,661e456ee6de07e70aa9ef7b,66229da4c253f2e6160966c6,,,,,,,,,,,,,,,,,,,,,,,,,,,,,,,,,,,,,,,,,,,,,,,,,,,,,,,,0,5,5,56,1,N,M,D,o2_image,stimuli/out2.png,stimuli/out1.png,stimuli/correct_out2.png,,,,,,,,,,,,,,,,,,,,,,,,,,,,,,,,,,,,,,
,,659960b8a6b2c5c5a910dcf2,30,female,2024-04-19_13h37.30.164,stockport_simplified,2022.2.4,Win32,59.52380952,661e456ee6de07e70aa9ef7b,66229da4c253f2e6160966c6,,,,,,,,,,,,,,,,,,,,,,,,,,,,,,,,,,195.4028,199.1668,"[6,1,3,7,8,5,4,2]","[[0.3,0.2],[-0.3,0.2]]","[[0.125,-0.2],[-0.125,-0.2]]",-0.113888847,-0.174074102,1,0,0,3.2472,o2_image,199.1995,1,199.7,199.7001,201.7019,0,0,0,0,1,,,,,,,,,,,,,,,,,,,,,,,,,,,,,,,,,,,,,,,,,,,,,,,,,,
,,659960b8a6b2c5c5a910dcf2,30,female,2024-04-19_13h37.30.164,stockport_simplified,2022.2.4,Win32,59.52380952,661e456ee6de07e70aa9ef7b,66229da4c253f2e6160966c6,,,,,,,,,,,,,,,,,,,,,,,,,,,,,,,,,,,,,,,,,,,,,,,,,,,,,,,,0,6,6,11,1,B,X,N,o2_image,stimuli/out2.png,stimuli/out1.png,stimuli/correct_out2.png,,,,,,,,,,,,,,,,,,,,,,,,,,,,,,,,,,,,,,
,,659960b8a6b2c5c5a910dcf2,30,female,2024-04-19_13h37.30.164,stockport_simplified,2022.2.4,Win32,59.52380952,661e456ee6de07e70aa9ef7b,66229da4c253f2e6160966c6,,,,,,,,,,,,,,,,,,,,,,,,,,,,,,,,,,201.703,204.0838,"[6,1,3,7,8,5,4,2]","[[0.3,0.2],[-0.3,0.2]]","[[-0.125,-0.2],[0.125,-0.2]]",0.137037065,-0.185185185,1,0,0,1.8643,o2_image,204.0859,1,204.5828,204.5829,206.5855,0,0,0,0,1,,,,,,,,,,,,,,,,,,,,,,,,,,,,,,,,,,,,,,,,,,,,,,,,,,
,,659960b8a6b2c5c5a910dcf2,30,female,2024-04-19_13h37.30.164,stockport_simplified,2022.2.4,Win32,59.52380952,661e456ee6de07e70aa9ef7b,66229da4c253f2e6160966c6,,,,,,,,,,,,,,,,,,,,,,,,,,,,,,,,,,,,,,,,,,,,,,,,,,,,,,,,0,7,7,42,1,B,X,N,o2_image,stimuli/out2.png,stimuli/out1.png,stimuli/correct_out2.png,,,,,,,,,,,,,,,,,,,,,,,,,,,,,,,,,,,,,,
,,659960b8a6b2c5c5a910dcf2,30,female,2024-04-19_13h37.30.164,stockport_simplified,2022.2.4,Win32,59.52380952,661e456ee6de07e70aa9ef7b,66229da4c253f2e6160966c6,,,,,,,,,,,,,,,,,,,,,,,,,,,,,,,,,,206.5865,209.1859,"[6,1,3,7,8,5,4,2]","[[0.3,0.2],[-0.3,0.2]]","[[-0.125,-0.2],[0.125,-0.2]]",-0.14907406,-0.216666681,1,0,0,2.0827,o1_image,209.2187,1,209.7267,209.7267,211.7191,0,0,0,0,1,,,,,,,,,,,,,,,,,,,,,,,,,,,,,,,,,,,,,,,,,,,,,,,,,,
,,659960b8a6b2c5c5a910dcf2,30,female,2024-04-19_13h37.30.164,stockport_simplified,2022.2.4,Win32,59.52380952,661e456ee6de07e70aa9ef7b,66229da4c253f2e6160966c6,,,,,,,,,,,,,,,,,,,,,,,,,,,,,,,,,,,,,,,,,,,,,,,,,,,,,,,,0,8,8,33,1,A,X,N,o1_image,stimuli/out1.png,stimuli/correct_out1.png,stimuli/out2.png,,,,,,,,,,,,,,,,,,,,,,,,,,,,,,,,,,,,,,
,,659960b8a6b2c5c5a910dcf2,30,female,2024-04-19_13h37.30.164,stockport_simplified,2022.2.4,Win32,59.52380952,661e456ee6de07e70aa9ef7b,66229da4c253f2e6160966c6,,,,,,,,,,,,,,,,,,,,,,,,,,,,,,,,,,211.7201,215.1194,"[6,1,3,7,8,5,4,2]","[[-0.3,0.2],[0.3,0.2]]","[[0.125,-0.2],[-0.125,-0.2]]",0.071296339,-0.184259273,1,0,0,2.8821,o1_image,215.1521,0,215.6526,215.6528,217.6555,0,0,0,0,1,,,,,,,,,,,,,,,,,,,,,,,,,,,,,,,,,,,,,,,,,,,,,,,,,,
,,659960b8a6b2c5c5a910dcf2,30,female,2024-04-19_13h37.30.164,stockport_simplified,2022.2.4,Win32,59.52380952,661e456ee6de07e70aa9ef7b,66229da4c253f2e6160966c6,,,,,,,,,,,,,,,,,,,,,,,,,,,,,,,,,,,,,,,,,,,,,,,,,,,,,,,,0,9,9,48,1,B,Y,N,o2_image,stimuli/out2.png,stimuli/out1.png,stimuli/correct_out2.png,,,,,,,,,,,,,,,,,,,,,,,,,,,,,,,,,,,,,,
,,659960b8a6b2c5c5a910dcf2,30,female,2024-04-19_13h37.30.164,stockport_simplified,2022.2.4,Win32,59.52380952,661e456ee6de07e70aa9ef7b,66229da4c253f2e6160966c6,,,,,,,,,,,,,,,,,,,,,,,,,,,,,,,,,,217.6567,220.5838,"[6,1,3,7,8,5,4,2]","[[-0.3,0.2],[0.3,0.2]]","[[-0.125,-0.2],[0.125,-0.2]]",0.124074088,-0.218518504,1,0,0,2.4002,o2_image,220.5866,0,221.0861,221.0862,223.0749,0,0,0,0,1,,,,,,,,,,,,,,,,,,,,,,,,,,,,,,,,,,,,,,,,,,,,,,,,,,
,,659960b8a6b2c5c5a910dcf2,30,female,2024-04-19_13h37.30.164,stockport_simplified,2022.2.4,Win32,59.52380952,661e456ee6de07e70aa9ef7b,66229da4c253f2e6160966c6,,,,,,,,,,,,,,,,,,,,,,,,,,,,,,,,,,,,,,,,,,,,,,,,,,,,,,,,0,10,10,37,1,A,Y,N,o1_image,stimuli/out1.png,stimuli/correct_out1.png,stimuli/out2.png,,,,,,,,,,,,,,,,,,,,,,,,,,,,,,,,,,,,,,
,,659960b8a6b2c5c5a910dcf2,30,female,2024-04-19_13h37.30.164,stockport_simplified,2022.2.4,Win32,59.52380952,661e456ee6de07e70aa9ef7b,66229da4c253f2e6160966c6,,,,,,,,,,,,,,,,,,,,,,,,,,,,,,,,,,223.0761,226.119,"[6,1,3,7,8,5,4,2]","[[-0.3,0.2],[0.3,0.2]]","[[0.125,-0.2],[-0.125,-0.2]]",0.10092594,-0.173148191,1,0,0,2.5308,o1_image,226.1208,0,226.6101,226.6102,228.6032,0,0,0,0,1,,,,,,,,,,,,,,,,,,,,,,,,,,,,,,,,,,,,,,,,,,,,,,,,,,
,,659960b8a6b2c5c5a910dcf2,30,female,2024-04-19_13h37.30.164,stockport_simplified,2022.2.4,Win32,59.52380952,661e456ee6de07e70aa9ef7b,66229da4c253f2e6160966c6,,,,,,,,,,,,,,,,,,,,,,,,,,,,,,,,,,,,,,,,,,,,,,,,,,,,,,,,0,11,11,12,1,B,X,N,o2_image,stimuli/out2.png,stimuli/out1.png,stimuli/correct_out2.png,,,,,,,,,,,,,,,,,,,,,,,,,,,,,,,,,,,,,,
,,659960b8a6b2c5c5a910dcf2,30,female,2024-04-19_13h37.30.164,stockport_simplified,2022.2.4,Win32,59.52380952,661e456ee6de07e70aa9ef7b,66229da4c253f2e6160966c6,,,,,,,,,,,,,,,,,,,,,,,,,,,,,,,,,,228.6042,230.7852,"[6,1,3,7,8,5,4,2]","[[0.3,0.2],[-0.3,0.2]]","[[0.125,-0.2],[-0.125,-0.2]]",0.112963005,-0.178703732,1,0,0,1.6644,o1_image,230.7878,0,231.2785,231.2785,233.2677,0,0,0,0,1,,,,,,,,,,,,,,,,,,,,,,,,,,,,,,,,,,,,,,,,,,,,,,,,,,
,,659960b8a6b2c5c5a910dcf2,30,female,2024-04-19_13h37.30.164,stockport_simplified,2022.2.4,Win32,59.52380952,661e456ee6de07e70aa9ef7b,66229da4c253f2e6160966c6,,,,,,,,,,,,,,,,,,,,,,,,,,,,,,,,,,,,,,,,,,,,,,,,,,,,,,,,0,12,12,16,1,B,Y,N,o2_image,stimuli/out2.png,stimuli/out1.png,stimuli/correct_out2.png,,,,,,,,,,,,,,,,,,,,,,,,,,,,,,,,,,,,,,
,,659960b8a6b2c5c5a910dcf2,30,female,2024-04-19_13h37.30.164,stockport_simplified,2022.2.4,Win32,59.52380952,661e456ee6de07e70aa9ef7b,66229da4c253f2e6160966c6,,,,,,,,,,,,,,,,,,,,,,,,,,,,,,,,,,233.2687,235.1577,"[6,1,3,7,8,5,4,2]","[[-0.3,0.2],[0.3,0.2]]","[[0.125,-0.2],[-0.125,-0.2]]",-0.093518504,-0.184259273,1,0,0,1.387,o2_image,235.1594,1,235.6539,235.654,237.6538,0,0,0,0,1,,,,,,,,,,,,,,,,,,,,,,,,,,,,,,,,,,,,,,,,,,,,,,,,,,
,,659960b8a6b2c5c5a910dcf2,30,female,2024-04-19_13h37.30.164,stockport_simplified,2022.2.4,Win32,59.52380952,661e456ee6de07e70aa9ef7b,66229da4c253f2e6160966c6,,,,,,,,,,,,,,,,,,,,,,,,,,,,,,,,,,,,,,,,,,,,,,,,,,,,,,,,0,13,13,15,1,B,Y,N,o2_image,stimuli/out2.png,stimuli/out1.png,stimuli/correct_out2.png,,,,,,,,,,,,,,,,,,,,,,,,,,,,,,,,,,,,,,
,,659960b8a6b2c5c5a910dcf2,30,female,2024-04-19_13h37.30.164,stockport_simplified,2022.2.4,Win32,59.52380952,661e456ee6de07e70aa9ef7b,66229da4c253f2e6160966c6,,,,,,,,,,,,,,,,,,,,,,,,,,,,,,,,,,237.6549,239.4384,"[6,1,3,7,8,5,4,2]","[[-0.3,0.2],[0.3,0.2]]","[[0.125,-0.2],[-0.125,-0.2]]",-0.112037023,-0.190740727,1,0,0,1.2666,o2_image,239.4401,0,239.9372,239.9373,241.9374,0,0,0,0,1,,,,,,,,,,,,,,,,,,,,,,,,,,,,,,,,,,,,,,,,,,,,,,,,,,
,,659960b8a6b2c5c5a910dcf2,30,female,2024-04-19_13h37.30.164,stockport_simplified,2022.2.4,Win32,59.52380952,661e456ee6de07e70aa9ef7b,66229da4c253f2e6160966c6,,,,,,,,,,,,,,,,,,,,,,,,,,,,,,,,,,,,,,,,,,,,,,,,,,,,,,,,0,14,14,3,1,A,X,N,o1_image,stimuli/out1.png,stimuli/correct_out1.png,stimuli/out2.png,,,,,,,,,,,,,,,,,,,,,,,,,,,,,,,,,,,,,,
,,659960b8a6b2c5c5a910dcf2,30,female,2024-04-19_13h37.30.164,stockport_simplified,2022.2.4,Win32,59.52380952,661e456ee6de07e70aa9ef7b,66229da4c253f2e6160966c6,,,,,,,,,,,,,,,,,,,,,,,,,,,,,,,,,,241.9384,244.2542,"[6,1,3,7,8,5,4,2]","[[0.3,0.2],[-0.3,0.2]]","[[-0.125,-0.2],[0.125,-0.2]]",0.091666681,-0.173148191,1,0,0,1.798,o2_image,244.2562,0,244.7542,244.7542,246.7443,0,0,0,0,1,,,,,,,,,,,,,,,,,,,,,,,,,,,,,,,,,,,,,,,,,,,,,,,,,,
,,659960b8a6b2c5c5a910dcf2,30,female,2024-04-19_13h37.30.164,stockport_simplified,2022.2.4,Win32,59.52380952,661e456ee6de07e70aa9ef7b,66229da4c253f2e6160966c6,,,,,,,,,,,,,,,,,,,,,,,,,,,,,,,,,,,,,,,,,,,,,,,,,,,,,,,,0,15,15,24,1,N,M,C,o1_image,stimuli/out1.png,stimuli/correct_out1.png,stimuli/out2.png,,,,,,,,,,,,,,,,,,,,,,,,,,,,,,,,,,,,,,
,,659960b8a6b2c5c5a910dcf2,30,female,2024-04-19_13h37.30.164,stockport_simplified,2022.2.4,Win32,59.52380952,661e456ee6de07e70aa9ef7b,66229da4c253f2e6160966c6,,,,,,,,,,,,,,,,,,,,,,,,,,,,,,,,,,246.7453,249.3438,"[6,1,3,7,8,5,4,2]","[[-0.3,0.2],[0.3,0.2]]","[[-0.125,-0.2],[0.125,-0.2]]",0.107407393,-0.170370384,1,0,0,2.0914,o2_image,249.376,1,249.8725,249.8726,251.8852,0,0,0,0,1,,,,,,,,,,,,,,,,,,,,,,,,,,,,,,,,,,,,,,,,,,,,,,,,,,
,,659960b8a6b2c5c5a910dcf2,30,female,2024-04-19_13h37.30.164,stockport_simplified,2022.2.4,Win32,59.52380952,661e456ee6de07e70aa9ef7b,66229da4c253f2e6160966c6,,,,,,,,,,,,,,,,,,,,,,,,,,,,,,,,,,,,,,,,,,,,,,,,,,,,,,,,0,16,16,28,1,N,M,D,o2_image,stimuli/out2.png,stimuli/out1.png,stimuli/correct_out2.png,,,,,,,,,,,,,,,,,,,,,,,,,,,,,,,,,,,,,,
,,659960b8a6b2c5c5a910dcf2,30,female,2024-04-19_13h37.30.164,stockport_simplified,2022.2.4,Win32,59.52380952,661e456ee6de07e70aa9ef7b,66229da4c253f2e6160966c6,,,,,,,,,,,,,,,,,,,,,,,,,,,,,,,,,,251.8862,254.3634,"[6,1,3,7,8,5,4,2]","[[0.3,0.2],[-0.3,0.2]]","[[-0.125,-0.2],[0.125,-0.2]]",0.147222236,-0.181481467,1,0,0,1.9739,o2_image,254.3655,0,254.8548,254.8548,256.8524,0,0,0,0,1,,,,,,,,,,,,,,,,,,,,,,,,,,,,,,,,,,,,,,,,,,,,,,,,,,
,,659960b8a6b2c5c5a910dcf2,30,female,2024-04-19_13h37.30.164,stockport_simplified,2022.2.4,Win32,59.52380952,661e456ee6de07e70aa9ef7b,66229da4c253f2e6160966c6,,,,,,,,,,,,,,,,,,,,,,,,,,,,,,,,,,,,,,,,,,,,,,,,,,,,,,,,0,17,17,32,1,A,X,N,o1_image,stimuli/out1.png,stimuli/correct_out1.png,stimuli/out2.png,,,,,,,,,,,,,,,,,,,,,,,,,,,,,,,,,,,,,,
,,659960b8a6b2c5c5a910dcf2,30,female,2024-04-19_13h37.30.164,stockport_simplified,2022.2.4,Win32,59.52380952,661e456ee6de07e70aa9ef7b,66229da4c253f2e6160966c6,,,,,,,,,,,,,,,,,,,,,,,,,,,,,,,,,,256.8541,259.9394,"[6,1,3,7,8,5,4,2]","[[-0.3,0.2],[0.3,0.2]]","[[0.125,-0.2],[-0.125,-0.2]]",-0.088888875,-0.187962991,1,0,0,2.5751,o2_image,259.9719,1,260.4691,260.4692,262.4718,0,0,0,0,1,,,,,,,,,,,,,,,,,,,,,,,,,,,,,,,,,,,,,,,,,,,,,,,,,,
,,659960b8a6b2c5c5a910dcf2,30,female,2024-04-19_13h37.30.164,stockport_simplified,2022.2.4,Win32,59.52380952,661e456ee6de07e70aa9ef7b,66229da4c253f2e6160966c6,,,,,,,,,,,,,,,,,,,,,,,,,,,,,,,,,,,,,,,,,,,,,,,,,,,,,,,,0,18,18,59,1,N,M,D,o2_image,stimuli/out2.png,stimuli/out1.png,stimuli/correct_out2.png,,,,,,,,,,,,,,,,,,,,,,,,,,,,,,,,,,,,,,
,,659960b8a6b2c5c5a910dcf2,30,female,2024-04-19_13h37.30.164,stockport_simplified,2022.2.4,Win32,59.52380952,661e456ee6de07e70aa9ef7b,66229da4c253f2e6160966c6,,,,,,,,,,,,,,,,,,,,,,,,,,,,,,,,,,262.4728,264.7389,"[6,1,3,7,8,5,4,2]","[[-0.3,0.2],[0.3,0.2]]","[[0.125,-0.2],[-0.125,-0.2]]",-0.113888847,-0.203703704,1,0,0,1.7496,o2_image,264.7408,0,265.2302,265.2303,267.2221,0,0,0,0,1,,,,,,,,,,,,,,,,,,,,,,,,,,,,,,,,,,,,,,,,,,,,,,,,,,
,,659960b8a6b2c5c5a910dcf2,30,female,2024-04-19_13h37.30.164,stockport_simplified,2022.2.4,Win32,59.52380952,661e456ee6de07e70aa9ef7b,66229da4c253f2e6160966c6,,,,,,,,,,,,,,,,,,,,,,,,,,,,,,,,,,,,,,,,,,,,,,,,,,,,,,,,0,19,19,54,1,N,M,C,o1_image,stimuli/out1.png,stimuli/correct_out1.png,stimuli/out2.png,,,,,,,,,,,,,,,,,,,,,,,,,,,,,,,,,,,,,,
,,659960b8a6b2c5c5a910dcf2,30,female,2024-04-19_13h37.30.164,stockport_simplified,2022.2.4,Win32,59.52380952,661e456ee6de07e70aa9ef7b,66229da4c253f2e6160966c6,,,,,,,,,,,,,,,,,,,,,,,,,,,,,,,,,,267.2231,270.3278,"[6,1,3,7,8,5,4,2]","[[0.3,0.2],[-0.3,0.2]]","[[-0.125,-0.2],[0.125,-0.2]]",-0.10555557,-0.22592594,1,0,0,2.5887,o1_image,270.3603,1,270.8596,270.8597,272.8531,0,0,0,0,1,,,,,,,,,,,,,,,,,,,,,,,,,,,,,,,,,,,,,,,,,,,,,,,,,,
,,659960b8a6b2c5c5a910dcf2,30,female,2024-04-19_13h37.30.164,stockport_simplified,2022.2.4,Win32,59.52380952,661e456ee6de07e70aa9ef7b,66229da4c253f2e6160966c6,,,,,,,,,,,,,,,,,,,,,,,,,,,,,,,,,,,,,,,,,,,,,,,,,,,,,,,,0,20,20,50,1,N,M,C,o1_image,stimuli/out1.png,stimuli/correct_out1.png,stimuli/out2.png,,,,,,,,,,,,,,,,,,,,,,,,,,,,,,,,,,,,,,
,,659960b8a6b2c5c5a910dcf2,30,female,2024-04-19_13h37.30.164,stockport_simplified,2022.2.4,Win32,59.52380952,661e456ee6de07e70aa9ef7b,66229da4c253f2e6160966c6,,,,,,,,,,,,,,,,,,,,,,,,,,,,,,,,,,272.854,275.1225,"[6,1,3,7,8,5,4,2]","[[-0.3,0.2],[0.3,0.2]]","[[0.125,-0.2],[-0.125,-0.2]]",-0.114814829,-0.173148191,1,0,0,1.7658,o2_image,275.1245,1,275.6226,275.6226,277.6202,0,0,0,0,1,,,,,,,,,,,,,,,,,,,,,,,,,,,,,,,,,,,,,,,,,,,,,,,,,,
,,659960b8a6b2c5c5a910dcf2,30,female,2024-04-19_13h37.30.164,stockport_simplified,2022.2.4,Win32,59.52380952,661e456ee6de07e70aa9ef7b,66229da4c253f2e6160966c6,,,,,,,,,,,,,,,,,,,,,,,,,,,,,,,,,,,,,,,,,,,,,,,,,,,,,,,,0,21,21,26,1,N,M,D,o2_image,stimuli/out2.png,stimuli/out1.png,stimuli/correct_out2.png,,,,,,,,,,,,,,,,,,,,,,,,,,,,,,,,,,,,,,
,,659960b8a6b2c5c5a910dcf2,30,female,2024-04-19_13h37.30.164,stockport_simplified,2022.2.4,Win32,59.52380952,661e456ee6de07e70aa9ef7b,66229da4c253f2e6160966c6,,,,,,,,,,,,,,,,,,,,,,,,,,,,,,,,,,277.6211,280.5547,"[6,1,3,7,8,5,4,2]","[[-0.3,0.2],[0.3,0.2]]","[[-0.125,-0.2],[0.125,-0.2]]",0.131481524,-0.196296339,1,0,0,2.4301,o2_image,280.5569,1,281.0535,281.0536,283.0539,0,0,0,0,1,,,,,,,,,,,,,,,,,,,,,,,,,,,,,,,,,,,,,,,,,,,,,,,,,,
,,659960b8a6b2c5c5a910dcf2,30,female,2024-04-19_13h37.30.164,stockport_simplified,2022.2.4,Win32,59.52380952,661e456ee6de07e70aa9ef7b,66229da4c253f2e6160966c6,,,,,,,,,,,,,,,,,,,,,,,,,,,,,,,,,,,,,,,,,,,,,,,,,,,,,,,,0,22,22,47,1,B,Y,N,o2_image,stimuli/out2.png,stimuli/out1.png,stimuli/correct_out2.png,,,,,,,,,,,,,,,,,,,,,,,,,,,,,,,,,,,,,,
,,659960b8a6b2c5c5a910dcf2,30,female,2024-04-19_13h37.30.164,stockport_simplified,2022.2.4,Win32,59.52380952,661e456ee6de07e70aa9ef7b,66229da4c253f2e6160966c6,,,,,,,,,,,,,,,,,,,,,,,,,,,,,,,,,,283.0548,285.3719,"[6,1,3,7,8,5,4,2]","[[-0.3,0.2],[0.3,0.2]]","[[-0.125,-0.2],[0.125,-0.2]]",-0.112962935,-0.207407422,1,0,0,1.8006,o1_image,285.3737,1,285.8703,285.8704,287.8731,0,0,0,0,1,,,,,,,,,,,,,,,,,,,,,,,,,,,,,,,,,,,,,,,,,,,,,,,,,,
,,659960b8a6b2c5c5a910dcf2,30,female,2024-04-19_13h37.30.164,stockport_simplified,2022.2.4,Win32,59.52380952,661e456ee6de07e70aa9ef7b,66229da4c253f2e6160966c6,,,,,,,,,,,,,,,,,,,,,,,,,,,,,,,,,,,,,,,,,,,,,,,,,,,,,,,,0,23,23,20,1,N,M,C,o1_image,stimuli/out1.png,stimuli/correct_out1.png,stimuli/out2.png,,,,,,,,,,,,,,,,,,,,,,,,,,,,,,,,,,,,,,
,,659960b8a6b2c5c5a910dcf2,30,female,2024-04-19_13h37.30.164,stockport_simplified,2022.2.4,Win32,59.52380952,661e456ee6de07e70aa9ef7b,66229da4c253f2e6160966c6,,,,,,,,,,,,,,,,,,,,,,,,,,,,,,,,,,287.8741,290.9384,"[6,1,3,7,8,5,4,2]","[[-0.3,0.2],[0.3,0.2]]","[[-0.125,-0.2],[0.125,-0.2]]",0.074999986,-0.202777792,1,0,0,2.5472,o2_image,290.9407,1,291.44,291.44,293.4402,0,0,0,0,1,,,,,,,,,,,,,,,,,,,,,,,,,,,,,,,,,,,,,,,,,,,,,,,,,,
,,659960b8a6b2c5c5a910dcf2,30,female,2024-04-19_13h37.30.164,stockport_simplified,2022.2.4,Win32,59.52380952,661e456ee6de07e70aa9ef7b,66229da4c253f2e6160966c6,,,,,,,,,,,,,,,,,,,,,,,,,,,,,,,,,,,,,,,,,,,,,,,,,,,,,,,,0,24,24,17,1,B,Y,N,o2_image,stimuli/out2.png,stimuli/out1.png,stimuli/correct_out2.png,,,,,,,,,,,,,,,,,,,,,,,,,,,,,,,,,,,,,,
,,659960b8a6b2c5c5a910dcf2,30,female,2024-04-19_13h37.30.164,stockport_simplified,2022.2.4,Win32,59.52380952,661e456ee6de07e70aa9ef7b,66229da4c253f2e6160966c6,,,,,,,,,,,,,,,,,,,,,,,,,,,,,,,,,,293.4413,295.6076,"[6,1,3,7,8,5,4,2]","[[-0.3,0.2],[0.3,0.2]]","[[0.125,-0.2],[-0.125,-0.2]]",-0.118518476,-0.20185188,1,0,0,1.6505,o2_image,295.6403,1,296.1402,296.1403,298.1227,0,0,0,0,1,,,,,,,,,,,,,,,,,,,,,,,,,,,,,,,,,,,,,,,,,,,,,,,,,,
,,659960b8a6b2c5c5a910dcf2,30,female,2024-04-19_13h37.30.164,stockport_simplified,2022.2.4,Win32,59.52380952,661e456ee6de07e70aa9ef7b,66229da4c253f2e6160966c6,,,,,,,,,,,,,,,,,,,,,,,,,,,,,,,,,,,,,,,,,,,,,,,,,,,,,,,,0,25,25,19,1,B,Y,N,o2_image,stimuli/out2.png,stimuli/out1.png,stimuli/correct_out2.png,,,,,,,,,,,,,,,,,,,,,,,,,,,,,,,,,,,,,,
,,659960b8a6b2c5c5a910dcf2,30,female,2024-04-19_13h37.30.164,stockport_simplified,2022.2.4,Win32,59.52380952,661e456ee6de07e70aa9ef7b,66229da4c253f2e6160966c6,,,,,,,,,,,,,,,,,,,,,,,,,,,,,,,,,,298.1233,300.4772,"[6,1,3,7,8,5,4,2]","[[0.3,0.2],[-0.3,0.2]]","[[-0.125,-0.2],[0.125,-0.2]]",0.125,-0.17777782,1,0,0,1.8148,o2_image,300.4783,0,300.9767,300.9767,302.9742,0,0,0,0,1,,,,,,,,,,,,,,,,,,,,,,,,,,,,,,,,,,,,,,,,,,,,,,,,,,
,,659960b8a6b2c5c5a910dcf2,30,female,2024-04-19_13h37.30.164,stockport_simplified,2022.2.4,Win32,59.52380952,661e456ee6de07e70aa9ef7b,66229da4c253f2e6160966c6,,,,,,,,,,,,,,,,,,,,,,,,,,,,,,,,,,,,,,,,,,,,,,,,,,,,,,,,0,26,26,9,1,A,Y,N,o1_image,stimuli/out1.png,stimuli/correct_out1.png,stimuli/out2.png,,,,,,,,,,,,,,,,,,,,,,,,,,,,,,,,,,,,,,
,,659960b8a6b2c5c5a910dcf2,30,female,2024-04-19_13h37.30.164,stockport_simplified,2022.2.4,Win32,59.52380952,661e456ee6de07e70aa9ef7b,66229da4c253f2e6160966c6,,,,,,,,,,,,,,,,,,,,,,,,,,,,,,,,,,302.9754,305.8338,"[6,1,3,7,8,5,4,2]","[[0.3,0.2],[-0.3,0.2]]","[[0.125,-0.2],[-0.125,-0.2]]",-0.093518504,-0.173148191,1,0,0,2.3419,o2_image,305.8663,1,306.3575,306.3576,308.3473,0,0,0,0,1,,,,,,,,,,,,,,,,,,,,,,,,,,,,,,,,,,,,,,,,,,,,,,,,,,
,,659960b8a6b2c5c5a910dcf2,30,female,2024-04-19_13h37.30.164,stockport_simplified,2022.2.4,Win32,59.52380952,661e456ee6de07e70aa9ef7b,66229da4c253f2e6160966c6,,,,,,,,,,,,,,,,,,,,,,,,,,,,,,,,,,,,,,,,,,,,,,,,,,,,,,,,0,27,27,10,1,B,X,N,o2_image,stimuli/out2.png,stimuli/out1.png,stimuli/correct_out2.png,,,,,,,,,,,,,,,,,,,,,,,,,,,,,,,,,,,,,,
,,659960b8a6b2c5c5a910dcf2,30,female,2024-04-19_13h37.30.164,stockport_simplified,2022.2.4,Win32,59.52380952,661e456ee6de07e70aa9ef7b,66229da4c253f2e6160966c6,,,,,,,,,,,,,,,,,,,,,,,,,,,,,,,,,,308.3483,310.3394,"[6,1,3,7,8,5,4,2]","[[0.3,0.2],[-0.3,0.2]]","[[-0.125,-0.2],[0.125,-0.2]]",0.122222265,-0.18240745,1,0,0,1.4808,o2_image,310.3418,1,310.841,310.8411,312.8412,0,0,0,0,1,,,,,,,,,,,,,,,,,,,,,,,,,,,,,,,,,,,,,,,,,,,,,,,,,,
,,659960b8a6b2c5c5a910dcf2,30,female,2024-04-19_13h37.30.164,stockport_simplified,2022.2.4,Win32,59.52380952,661e456ee6de07e70aa9ef7b,66229da4c253f2e6160966c6,,,,,,,,,,,,,,,,,,,,,,,,,,,,,,,,,,,,,,,,,,,,,,,,,,,,,,,,0,28,28,49,1,B,Y,N,o2_image,stimuli/out2.png,stimuli/out1.png,stimuli/correct_out2.png,,,,,,,,,,,,,,,,,,,,,,,,,,,,,,,,,,,,,,
,,659960b8a6b2c5c5a910dcf2,30,female,2024-04-19_13h37.30.164,stockport_simplified,2022.2.4,Win32,59.52380952,661e456ee6de07e70aa9ef7b,66229da4c253f2e6160966c6,,,,,,,,,,,,,,,,,,,,,,,,,,,,,,,,,,312.8422,315.45,"[6,1,3,7,8,5,4,2]","[[-0.3,0.2],[0.3,0.2]]","[[0.125,-0.2],[-0.125,-0.2]]",0.07685188,-0.186111097,1,0,0,2.0907,o1_image,315.4521,1,315.9413,315.9414,317.9414,0,0,0,0,1,,,,,,,,,,,,,,,,,,,,,,,,,,,,,,,,,,,,,,,,,,,,,,,,,,
,,659960b8a6b2c5c5a910dcf2,30,female,2024-04-19_13h37.30.164,stockport_simplified,2022.2.4,Win32,59.52380952,661e456ee6de07e70aa9ef7b,66229da4c253f2e6160966c6,,,,,,,,,,,,,,,,,,,,,,,,,,,,,,,,,,,,,,,,,,,,,,,,,,,,,,,,0,29,29,31,1,A,X,N,o1_image,stimuli/out1.png,stimuli/correct_out1.png,stimuli/out2.png,,,,,,,,,,,,,,,,,,,,,,,,,,,,,,,,,,,,,,
,,659960b8a6b2c5c5a910dcf2,30,female,2024-04-19_13h37.30.164,stockport_simplified,2022.2.4,Win32,59.52380952,661e456ee6de07e70aa9ef7b,66229da4c253f2e6160966c6,,,,,,,,,,,,,,,,,,,,,,,,,,,,,,,,,,317.9427,320.1748,"[6,1,3,7,8,5,4,2]","[[-0.3,0.2],[0.3,0.2]]","[[0.125,-0.2],[-0.125,-0.2]]",-0.131481453,-0.195370356,1,0,0,1.7159,o2_image,320.1769,1,320.6748,320.6749,322.675,0,0,0,0,1,,,,,,,,,,,,,,,,,,,,,,,,,,,,,,,,,,,,,,,,,,,,,,,,,,
,,659960b8a6b2c5c5a910dcf2,30,female,2024-04-19_13h37.30.164,stockport_simplified,2022.2.4,Win32,59.52380952,661e456ee6de07e70aa9ef7b,66229da4c253f2e6160966c6,,,,,,,,,,,,,,,,,,,,,,,,,,,,,,,,,,,,,,,,,,,,,,,,,,,,,,,,0,30,30,40,1,B,X,N,o2_image,stimuli/out2.png,stimuli/out1.png,stimuli/correct_out2.png,,,,,,,,,,,,,,,,,,,,,,,,,,,,,,,,,,,,,,
,,659960b8a6b2c5c5a910dcf2,30,female,2024-04-19_13h37.30.164,stockport_simplified,2022.2.4,Win32,59.52380952,661e456ee6de07e70aa9ef7b,66229da4c253f2e6160966c6,,,,,,,,,,,,,,,,,,,,,,,,,,,,,,,,,,322.676,324.7586,"[6,1,3,7,8,5,4,2]","[[-0.3,0.2],[0.3,0.2]]","[[0.125,-0.2],[-0.125,-0.2]]",0.124074088,-0.169444473,1,0,0,1.5655,o1_image,324.7603,1,325.2585,325.2586,327.2586,0,0,0,0,1,,,,,,,,,,,,,,,,,,,,,,,,,,,,,,,,,,,,,,,,,,,,,,,,,,
,,659960b8a6b2c5c5a910dcf2,30,female,2024-04-19_13h37.30.164,stockport_simplified,2022.2.4,Win32,59.52380952,661e456ee6de07e70aa9ef7b,66229da4c253f2e6160966c6,,,,,,,,,,,,,,,,,,,,,,,,,,,,,,,,,,,,,,,,,,,,,,,,,,,,,,,,0,31,31,52,1,N,M,C,o1_image,stimuli/out1.png,stimuli/correct_out1.png,stimuli/out2.png,,,,,,,,,,,,,,,,,,,,,,,,,,,,,,,,,,,,,,
,,659960b8a6b2c5c5a910dcf2,30,female,2024-04-19_13h37.30.164,stockport_simplified,2022.2.4,Win32,59.52380952,661e456ee6de07e70aa9ef7b,66229da4c253f2e6160966c6,,,,,,,,,,,,,,,,,,,,,,,,,,,,,,,,,,327.2596,329.1403,"[6,1,3,7,8,5,4,2]","[[0.3,0.2],[-0.3,0.2]]","[[0.125,-0.2],[-0.125,-0.2]]",-0.124074088,-0.188888903,1,0,0,1.3641,o2_image,329.1424,1,329.6415,329.6415,331.6337,0,0,0,0,1,,,,,,,,,,,,,,,,,,,,,,,,,,,,,,,,,,,,,,,,,,,,,,,,,,
,,659960b8a6b2c5c5a910dcf2,30,female,2024-04-19_13h37.30.164,stockport_simplified,2022.2.4,Win32,59.52380952,661e456ee6de07e70aa9ef7b,66229da4c253f2e6160966c6,,,,,,,,,,,,,,,,,,,,,,,,,,,,,,,,,,,,,,,,,,,,,,,,,,,,,,,,0,32,32,27,1,N,M,D,o2_image,stimuli/out2.png,stimuli/out1.png,stimuli/correct_out2.png,,,,,,,,,,,,,,,,,,,,,,,,,,,,,,,,,,,,,,
,,659960b8a6b2c5c5a910dcf2,30,female,2024-04-19_13h37.30.164,stockport_simplified,2022.2.4,Win32,59.52380952,661e456ee6de07e70aa9ef7b,66229da4c253f2e6160966c6,,,,,,,,,,,,,,,,,,,,,,,,,,,,,,,,,,331.6348,334.2611,"[6,1,3,7,8,5,4,2]","[[0.3,0.2],[-0.3,0.2]]","[[0.125,-0.2],[-0.125,-0.2]]",0.143518519,-0.17777782,1,0,0,2.1174,o1_image,334.2929,1,334.7895,334.7896,336.7925,0,0,0,0,1,,,,,,,,,,,,,,,,,,,,,,,,,,,,,,,,,,,,,,,,,,,,,,,,,,
,,659960b8a6b2c5c5a910dcf2,30,female,2024-04-19_13h37.30.164,stockport_simplified,2022.2.4,Win32,59.52380952,661e456ee6de07e70aa9ef7b,66229da4c253f2e6160966c6,,,,,,,,,,,,,,,,,,,,,,,,,,,,,,,,,,,,,,,,,,,,,,,,,,,,,,,,0,33,33,4,1,A,X,N,o1_image,stimuli/out1.png,stimuli/correct_out1.png,stimuli/out2.png,,,,,,,,,,,,,,,,,,,,,,,,,,,,,,,,,,,,,,
,,659960b8a6b2c5c5a910dcf2,30,female,2024-04-19_13h37.30.164,stockport_simplified,2022.2.4,Win32,59.52380952,661e456ee6de07e70aa9ef7b,66229da4c253f2e6160966c6,,,,,,,,,,,,,,,,,,,,,,,,,,,,,,,,,,336.7935,338.9743,"[6,1,3,7,8,5,4,2]","[[0.3,0.2],[-0.3,0.2]]","[[0.125,-0.2],[-0.125,-0.2]]",-0.112037023,-0.167592578,1,0,0,1.664,o2_image,338.9763,1,339.4841,339.4842,341.476,0,0,0,0,1,,,,,,,,,,,,,,,,,,,,,,,,,,,,,,,,,,,,,,,,,,,,,,,,,,
,,659960b8a6b2c5c5a910dcf2,30,female,2024-04-19_13h37.30.164,stockport_simplified,2022.2.4,Win32,59.52380952,661e456ee6de07e70aa9ef7b,66229da4c253f2e6160966c6,,,,,,,,,,,,,,,,,,,,,,,,,,,,,,,,,,,,,,,,,,,,,,,,,,,,,,,,0,34,34,45,1,B,Y,N,o2_image,stimuli/out2.png,stimuli/out1.png,stimuli/correct_out2.png,,,,,,,,,,,,,,,,,,,,,,,,,,,,,,,,,,,,,,
,,659960b8a6b2c5c5a910dcf2,30,female,2024-04-19_13h37.30.164,stockport_simplified,2022.2.4,Win32,59.52380952,661e456ee6de07e70aa9ef7b,66229da4c253f2e6160966c6,,,,,,,,,,,,,,,,,,,,,,,,,,,,,,,,,,341.477,344.5791,"[6,1,3,7,8,5,4,2]","[[0.3,0.2],[-0.3,0.2]]","[[-0.125,-0.2],[0.125,-0.2]]",0.110185199,-0.174074102,1,0,0,2.5849,o2_image,344.6113,1,345.107,345.107,347.1097,0,0,0,0,1,,,,,,,,,,,,,,,,,,,,,,,,,,,,,,,,,,,,,,,,,,,,,,,,,,
,,659960b8a6b2c5c5a910dcf2,30,female,2024-04-19_13h37.30.164,stockport_simplified,2022.2.4,Win32,59.52380952,661e456ee6de07e70aa9ef7b,66229da4c253f2e6160966c6,,,,,,,,,,,,,,,,,,,,,,,,,,,,,,,,,,,,,,,,,,,,,,,,,,,,,,,,0,35,35,25,1,N,M,D,o2_image,stimuli/out2.png,stimuli/out1.png,stimuli/correct_out2.png,,,,,,,,,,,,,,,,,,,,,,,,,,,,,,,,,,,,,,
,,659960b8a6b2c5c5a910dcf2,30,female,2024-04-19_13h37.30.164,stockport_simplified,2022.2.4,Win32,59.52380952,661e456ee6de07e70aa9ef7b,66229da4c253f2e6160966c6,,,,,,,,,,,,,,,,,,,,,,,,,,,,,,,,,,347.1106,349.3247,"[6,1,3,7,8,5,4,2]","[[-0.3,0.2],[0.3,0.2]]","[[0.125,-0.2],[-0.125,-0.2]]",-0.112037023,-0.194444444,1,0,0,1.708,o2_image,349.327,1,349.8149,349.8149,351.8101,0,0,0,0,1,,,,,,,,,,,,,,,,,,,,,,,,,,,,,,,,,,,,,,,,,,,,,,,,,,
,,659960b8a6b2c5c5a910dcf2,30,female,2024-04-19_13h37.30.164,stockport_simplified,2022.2.4,Win32,59.52380952,661e456ee6de07e70aa9ef7b,66229da4c253f2e6160966c6,,,,,,,,,,,,,,,,,,,,,,,,,,,,,,,,,,,,,,,,,,,,,,,,,,,,,,,,0,36,36,55,1,N,M,D,o2_image,stimuli/out2.png,stimuli/out1.png,stimuli/correct_out2.png,,,,,,,,,,,,,,,,,,,,,,,,,,,,,,,,,,,,,,
,,659960b8a6b2c5c5a910dcf2,30,female,2024-04-19_13h37.30.164,stockport_simplified,2022.2.4,Win32,59.52380952,661e456ee6de07e70aa9ef7b,66229da4c253f2e6160966c6,,,,,,,,,,,,,,,,,,,,,,,,,,,,,,,,,,351.811,353.5841,"[6,1,3,7,8,5,4,2]","[[0.3,0.2],[-0.3,0.2]]","[[0.125,-0.2],[-0.125,-0.2]]",0.090740769,-0.237963005,1,0,0,1.2562,o1_image,353.5858,1,354.0742,354.0743,356.0767,0,0,0,0,1,,,,,,,,,,,,,,,,,,,,,,,,,,,,,,,,,,,,,,,,,,,,,,,,,,
,,659960b8a6b2c5c5a910dcf2,30,female,2024-04-19_13h37.30.164,stockport_simplified,2022.2.4,Win32,59.52380952,661e456ee6de07e70aa9ef7b,66229da4c253f2e6160966c6,,,,,,,,,,,,,,,,,,,,,,,,,,,,,,,,,,,,,,,,,,,,,,,,,,,,,,,,0,37,37,21,1,N,M,C,o1_image,stimuli/out1.png,stimuli/correct_out1.png,stimuli/out2.png,,,,,,,,,,,,,,,,,,,,,,,,,,,,,,,,,,,,,,
,,659960b8a6b2c5c5a910dcf2,30,female,2024-04-19_13h37.30.164,stockport_simplified,2022.2.4,Win32,59.52380952,661e456ee6de07e70aa9ef7b,66229da4c253f2e6160966c6,,,,,,,,,,,,,,,,,,,,,,,,,,,,,,,,,,356.0777,358.677,"[6,1,3,7,8,5,4,2]","[[0.3,0.2],[-0.3,0.2]]","[[0.125,-0.2],[-0.125,-0.2]]",0.10092594,-0.167592578,1,0,0,2.0823,o1_image,358.6789,1,359.177,359.177,361.1801,0,0,0,0,1,,,,,,,,,,,,,,,,,,,,,,,,,,,,,,,,,,,,,,,,,,,,,,,,,,
,,659960b8a6b2c5c5a910dcf2,30,female,2024-04-19_13h37.30.164,stockport_simplified,2022.2.4,Win32,59.52380952,661e456ee6de07e70aa9ef7b,66229da4c253f2e6160966c6,,,,,,,,,,,,,,,,,,,,,,,,,,,,,,,,,,,,,,,,,,,,,,,,,,,,,,,,0,38,38,38,1,A,Y,N,o1_image,stimuli/out1.png,stimuli/correct_out1.png,stimuli/out2.png,,,,,,,,,,,,,,,,,,,,,,,,,,,,,,,,,,,,,,
,,659960b8a6b2c5c5a910dcf2,30,female,2024-04-19_13h37.30.164,stockport_simplified,2022.2.4,Win32,59.52380952,661e456ee6de07e70aa9ef7b,66229da4c253f2e6160966c6,,,,,,,,,,,,,,,,,,,,,,,,,,,,,,,,,,361.181,363.0604,"[6,1,3,7,8,5,4,2]","[[-0.3,0.2],[0.3,0.2]]","[[-0.125,-0.2],[0.125,-0.2]]",-0.098148134,-0.171296296,1,0,0,1.3658,o1_image,363.0622,1,363.5581,363.5582,365.558,0,0,0,0,1,,,,,,,,,,,,,,,,,,,,,,,,,,,,,,,,,,,,,,,,,,,,,,,,,,
,,659960b8a6b2c5c5a910dcf2,30,female,2024-04-19_13h37.30.164,stockport_simplified,2022.2.4,Win32,59.52380952,661e456ee6de07e70aa9ef7b,66229da4c253f2e6160966c6,,,,,,,,,,,,,,,,,,,,,,,,,,,,,,,,,,,,,,,,,,,,,,,,,,,,,,,,0,39,39,34,1,A,X,N,o1_image,stimuli/out1.png,stimuli/correct_out1.png,stimuli/out2.png,,,,,,,,,,,,,,,,,,,,,,,,,,,,,,,,,,,,,,
,,659960b8a6b2c5c5a910dcf2,30,female,2024-04-19_13h37.30.164,stockport_simplified,2022.2.4,Win32,59.52380952,661e456ee6de07e70aa9ef7b,66229da4c253f2e6160966c6,,,,,,,,,,,,,,,,,,,,,,,,,,,,,,,,,,365.559,367.6924,"[6,1,3,7,8,5,4,2]","[[0.3,0.2],[-0.3,0.2]]","[[-0.125,-0.2],[0.125,-0.2]]",-0.106481481,-0.217592593,1,0,0,1.6305,o1_image,367.6945,1,368.1913,368.1914,370.194,0,0,0,0,1,,,,,,,,,,,,,,,,,,,,,,,,,,,,,,,,,,,,,,,,,,,,,,,,,,
,,659960b8a6b2c5c5a910dcf2,30,female,2024-04-19_13h37.30.164,stockport_simplified,2022.2.4,Win32,59.52380952,661e456ee6de07e70aa9ef7b,66229da4c253f2e6160966c6,,,,,,,,,,,,,,,,,,,,,,,,,,,,,,,,,,,,,,,,,,,,,,,,,,,,,,,,0,40,40,23,1,N,M,C,o1_image,stimuli/out1.png,stimuli/correct_out1.png,stimuli/out2.png,,,,,,,,,,,,,,,,,,,,,,,,,,,,,,,,,,,,,,
,,659960b8a6b2c5c5a910dcf2,30,female,2024-04-19_13h37.30.164,stockport_simplified,2022.2.4,Win32,59.52380952,661e456ee6de07e70aa9ef7b,66229da4c253f2e6160966c6,,,,,,,,,,,,,,,,,,,,,,,,,,,,,,,,,,370.1951,372.111,"[6,1,3,7,8,5,4,2]","[[-0.3,0.2],[0.3,0.2]]","[[0.125,-0.2],[-0.125,-0.2]]",0.15370369,-0.196296339,1,0,0,1.3995,o1_image,372.113,1,372.611,372.6111,374.6112,0,0,0,0,1,,,,,,,,,,,,,,,,,,,,,,,,,,,,,,,,,,,,,,,,,,,,,,,,,,
,,659960b8a6b2c5c5a910dcf2,30,female,2024-04-19_13h37.30.164,stockport_simplified,2022.2.4,Win32,59.52380952,661e456ee6de07e70aa9ef7b,66229da4c253f2e6160966c6,,,,,,,,,,,,,,,,,,,,,,,,,,,,,,,,,,,,,,,,,,,,,,,,,,,,,,,,0,41,41,53,1,N,M,C,o1_image,stimuli/out1.png,stimuli/correct_out1.png,stimuli/out2.png,,,,,,,,,,,,,,,,,,,,,,,,,,,,,,,,,,,,,,
,,659960b8a6b2c5c5a910dcf2,30,female,2024-04-19_13h37.30.164,stockport_simplified,2022.2.4,Win32,59.52380952,661e456ee6de07e70aa9ef7b,66229da4c253f2e6160966c6,,,,,,,,,,,,,,,,,,,,,,,,,,,,,,,,,,374.6122,377.0431,"[6,1,3,7,8,5,4,2]","[[0.3,0.2],[-0.3,0.2]]","[[0.125,-0.2],[-0.125,-0.2]]",-0.137962977,-0.19722225,1,0,0,1.9139,o2_image,377.0453,0,377.5445,377.5446,379.5419,0,0,0,0,1,,,,,,,,,,,,,,,,,,,,,,,,,,,,,,,,,,,,,,,,,,,,,,,,,,
,,659960b8a6b2c5c5a910dcf2,30,female,2024-04-19_13h37.30.164,stockport_simplified,2022.2.4,Win32,59.52380952,661e456ee6de07e70aa9ef7b,66229da4c253f2e6160966c6,,,,,,,,,,,,,,,,,,,,,,,,,,,,,,,,,,,,,,,,,,,,,,,,,,,,,,,,0,42,42,2,1,A,X,N,o1_image,stimuli/out1.png,stimuli/correct_out1.png,stimuli/out2.png,,,,,,,,,,,,,,,,,,,,,,,,,,,,,,,,,,,,,,
,,659960b8a6b2c5c5a910dcf2,30,female,2024-04-19_13h37.30.164,stockport_simplified,2022.2.4,Win32,59.52380952,661e456ee6de07e70aa9ef7b,66229da4c253f2e6160966c6,,,,,,,,,,,,,,,,,,,,,,,,,,,,,,,,,,379.543,382.9768,"[6,1,3,7,8,5,4,2]","[[-0.3,0.2],[0.3,0.2]]","[[0.125,-0.2],[-0.125,-0.2]]",-0.141666624,-0.175000014,1,0,0,2.9313,o2_image,383.01,0,383.5064,383.5065,385.495,0,0,0,0,1,,,,,,,,,,,,,,,,,,,,,,,,,,,,,,,,,,,,,,,,,,,,,,,,,,
,,659960b8a6b2c5c5a910dcf2,30,female,2024-04-19_13h37.30.164,stockport_simplified,2022.2.4,Win32,59.52380952,661e456ee6de07e70aa9ef7b,66229da4c253f2e6160966c6,,,,,,,,,,,,,,,,,,,,,,,,,,,,,,,,,,,,,,,,,,,,,,,,,,,,,,,,0,43,43,36,1,A,Y,N,o1_image,stimuli/out1.png,stimuli/correct_out1.png,stimuli/out2.png,,,,,,,,,,,,,,,,,,,,,,,,,,,,,,,,,,,,,,
,,659960b8a6b2c5c5a910dcf2,30,female,2024-04-19_13h37.30.164,stockport_simplified,2022.2.4,Win32,59.52380952,661e456ee6de07e70aa9ef7b,66229da4c253f2e6160966c6,,,,,,,,,,,,,,,,,,,,,,,,,,,,,,,,,,385.4962,387.6267,"[6,1,3,7,8,5,4,2]","[[0.3,0.2],[-0.3,0.2]]","[[-0.125,-0.2],[0.125,-0.2]]",-0.10555557,-0.205555598,1,0,0,1.6236,o1_image,387.6289,1,388.1258,388.1259,390.1286,0,0,0,0,1,,,,,,,,,,,,,,,,,,,,,,,,,,,,,,,,,,,,,,,,,,,,,,,,,,
,,659960b8a6b2c5c5a910dcf2,30,female,2024-04-19_13h37.30.164,stockport_simplified,2022.2.4,Win32,59.52380952,661e456ee6de07e70aa9ef7b,66229da4c253f2e6160966c6,,,,,,,,,,,,,,,,,,,,,,,,,,,,,,,,,,,,,,,,,,,,,,,,,,,,,,,,0,44,44,5,1,A,Y,N,o1_image,stimuli/out1.png,stimuli/correct_out1.png,stimuli/out2.png,,,,,,,,,,,,,,,,,,,,,,,,,,,,,,,,,,,,,,
,,659960b8a6b2c5c5a910dcf2,30,female,2024-04-19_13h37.30.164,stockport_simplified,2022.2.4,Win32,59.52380952,661e456ee6de07e70aa9ef7b,66229da4c253f2e6160966c6,,,,,,,,,,,,,,,,,,,,,,,,,,,,,,,,,,390.1295,392.2955,"[6,1,3,7,8,5,4,2]","[[-0.3,0.2],[0.3,0.2]]","[[-0.125,-0.2],[0.125,-0.2]]",0.112963005,-0.242592635,1,0,0,1.6488,o2_image,392.2976,1,392.7954,392.7956,394.7955,0,0,0,0,1,,,,,,,,,,,,,,,,,,,,,,,,,,,,,,,,,,,,,,,,,,,,,,,,,,
,,659960b8a6b2c5c5a910dcf2,30,female,2024-04-19_13h37.30.164,stockport_simplified,2022.2.4,Win32,59.52380952,661e456ee6de07e70aa9ef7b,66229da4c253f2e6160966c6,,,,,,,,,,,,,,,,,,,,,,,,,,,,,,,,,,,,,,,,,,,,,,,,,,,,,,,,0,45,45,57,1,N,M,D,o2_image,stimuli/out2.png,stimuli/out1.png,stimuli/correct_out2.png,,,,,,,,,,,,,,,,,,,,,,,,,,,,,,,,,,,,,,
,,659960b8a6b2c5c5a910dcf2,30,female,2024-04-19_13h37.30.164,stockport_simplified,2022.2.4,Win32,59.52380952,661e456ee6de07e70aa9ef7b,66229da4c253f2e6160966c6,,,,,,,,,,,,,,,,,,,,,,,,,,,,,,,,,,394.7966,396.6608,"[6,1,3,7,8,5,4,2]","[[-0.3,0.2],[0.3,0.2]]","[[0.125,-0.2],[-0.125,-0.2]]",0.143518519,-0.150000042,1,0,0,1.3478,o1_image,396.6628,1,397.1623,397.1623,399.1625,0,0,0,0,1,,,,,,,,,,,,,,,,,,,,,,,,,,,,,,,,,,,,,,,,,,,,,,,,,,
,,659960b8a6b2c5c5a910dcf2,30,female,2024-04-19_13h37.30.164,stockport_simplified,2022.2.4,Win32,59.52380952,661e456ee6de07e70aa9ef7b,66229da4c253f2e6160966c6,,,,,,,,,,,,,,,,,,,,,,,,,,,,,,,,,,,,,,,,,,,,,,,,,,,,,,,,0,46,46,51,1,N,M,C,o1_image,stimuli/out1.png,stimuli/correct_out1.png,stimuli/out2.png,,,,,,,,,,,,,,,,,,,,,,,,,,,,,,,,,,,,,,
,,659960b8a6b2c5c5a910dcf2,30,female,2024-04-19_13h37.30.164,stockport_simplified,2022.2.4,Win32,59.52380952,661e456ee6de07e70aa9ef7b,66229da4c253f2e6160966c6,,,,,,,,,,,,,,,,,,,,,,,,,,,,,,,,,,399.1635,401.4957,"[6,1,3,7,8,5,4,2]","[[0.3,0.2],[-0.3,0.2]]","[[-0.125,-0.2],[0.125,-0.2]]",-0.104629587,-0.200925968,1,0,0,1.8154,o1_image,401.4976,0,401.9934,401.9934,403.9959,0,0,0,0,1,,,,,,,,,,,,,,,,,,,,,,,,,,,,,,,,,,,,,,,,,,,,,,,,,,
,,659960b8a6b2c5c5a910dcf2,30,female,2024-04-19_13h37.30.164,stockport_simplified,2022.2.4,Win32,59.52380952,661e456ee6de07e70aa9ef7b,66229da4c253f2e6160966c6,,,,,,,,,,,,,,,,,,,,,,,,,,,,,,,,,,,,,,,,,,,,,,,,,,,,,,,,0,47,47,44,1,B,X,N,o2_image,stimuli/out2.png,stimuli/out1.png,stimuli/correct_out2.png,,,,,,,,,,,,,,,,,,,,,,,,,,,,,,,,,,,,,,
,,659960b8a6b2c5c5a910dcf2,30,female,2024-04-19_13h37.30.164,stockport_simplified,2022.2.4,Win32,59.52380952,661e456ee6de07e70aa9ef7b,66229da4c253f2e6160966c6,,,,,,,,,,,,,,,,,,,,,,,,,,,,,,,,,,403.997,408.4614,"[6,1,3,7,8,5,4,2]","[[-0.3,0.2],[0.3,0.2]]","[[0.125,-0.2],[-0.125,-0.2]]",0.095370399,-0.193518533,1,0,0,3.9478,o1_image,408.4934,1,408.9963,408.9963,410.9963,0,0,0,0,1,,,,,,,,,,,,,,,,,,,,,,,,,,,,,,,,,,,,,,,,,,,,,,,,,,
,,659960b8a6b2c5c5a910dcf2,30,female,2024-04-19_13h37.30.164,stockport_simplified,2022.2.4,Win32,59.52380952,661e456ee6de07e70aa9ef7b,66229da4c253f2e6160966c6,,,,,,,,,,,,,,,,,,,,,,,,,,,,,,,,,,,,,,,,,,,,,,,,,,,,,,,,0,48,48,0,1,A,X,N,o1_image,stimuli/out1.png,stimuli/correct_out1.png,stimuli/out2.png,,,,,,,,,,,,,,,,,,,,,,,,,,,,,,,,,,,,,,
,,659960b8a6b2c5c5a910dcf2,30,female,2024-04-19_13h37.30.164,stockport_simplified,2022.2.4,Win32,59.52380952,661e456ee6de07e70aa9ef7b,66229da4c253f2e6160966c6,,,,,,,,,,,,,,,,,,,,,,,,,,,,,,,,,,410.9972,413.5132,"[6,1,3,7,8,5,4,2]","[[0.3,0.2],[-0.3,0.2]]","[[-0.125,-0.2],[0.125,-0.2]]",0.09629631,-0.176851838,1,0,0,1.9857,o2_image,413.515,1,414.0133,414.0134,416.0134,0,0,0,0,1,,,,,,,,,,,,,,,,,,,,,,,,,,,,,,,,,,,,,,,,,,,,,,,,,,
,,659960b8a6b2c5c5a910dcf2,30,female,2024-04-19_13h37.30.164,stockport_simplified,2022.2.4,Win32,59.52380952,661e456ee6de07e70aa9ef7b,66229da4c253f2e6160966c6,,,,,,,,,,,,,,,,,,,,,,,,,,,,,,,,,,,,,,,,,,,,,,,,,,,,,,,,0,49,49,18,1,B,Y,N,o2_image,stimuli/out2.png,stimuli/out1.png,stimuli/correct_out2.png,,,,,,,,,,,,,,,,,,,,,,,,,,,,,,,,,,,,,,
,,659960b8a6b2c5c5a910dcf2,30,female,2024-04-19_13h37.30.164,stockport_simplified,2022.2.4,Win32,59.52380952,661e456ee6de07e70aa9ef7b,66229da4c253f2e6160966c6,,,,,,,,,,,,,,,,,,,,,,,,,,,,,,,,,,416.0145,418.9238,"[6,1,3,7,8,5,4,2]","[[0.3,0.2],[-0.3,0.2]]","[[0.125,-0.2],[-0.125,-0.2]]",0.112037023,-0.244444459,1,0,0,2.393,o1_image,418.9548,1,419.4443,419.4444,421.447,0,0,0,0,1,,,,,,,,,,,,,,,,,,,,,,,,,,,,,,,,,,,,,,,,,,,,,,,,,,
,,659960b8a6b2c5c5a910dcf2,30,female,2024-04-19_13h37.30.164,stockport_simplified,2022.2.4,Win32,59.52380952,661e456ee6de07e70aa9ef7b,66229da4c253f2e6160966c6,,,,,,,,,,,,,,,,,,,,,,,,,,,,,,,,,,,,,,,,,,,,,,,,,,,,,,,,0,50,50,30,1,A,X,N,o1_image,stimuli/out1.png,stimuli/correct_out1.png,stimuli/out2.png,,,,,,,,,,,,,,,,,,,,,,,,,,,,,,,,,,,,,,
,,659960b8a6b2c5c5a910dcf2,30,female,2024-04-19_13h37.30.164,stockport_simplified,2022.2.4,Win32,59.52380952,661e456ee6de07e70aa9ef7b,66229da4c253f2e6160966c6,,,,,,,,,,,,,,,,,,,,,,,,,,,,,,,,,,421.448,423.7969,"[6,1,3,7,8,5,4,2]","[[0.3,0.2],[-0.3,0.2]]","[[-0.125,-0.2],[0.125,-0.2]]",0.126851894,-0.20648151,1,0,0,1.8325,o2_image,423.799,0,424.2946,424.2947,426.2972,0,0,0,0,1,,,,,,,,,,,,,,,,,,,,,,,,,,,,,,,,,,,,,,,,,,,,,,,,,,
,,659960b8a6b2c5c5a910dcf2,30,female,2024-04-19_13h37.30.164,stockport_simplified,2022.2.4,Win32,59.52380952,661e456ee6de07e70aa9ef7b,66229da4c253f2e6160966c6,,,,,,,,,,,,,,,,,,,,,,,,,,,,,,,,,,,,,,,,,,,,,,,,,,,,,,,,0,51,51,7,1,A,Y,N,o1_image,stimuli/out1.png,stimuli/correct_out1.png,stimuli/out2.png,,,,,,,,,,,,,,,,,,,,,,,,,,,,,,,,,,,,,,
,,659960b8a6b2c5c5a910dcf2,30,female,2024-04-19_13h37.30.164,stockport_simplified,2022.2.4,Win32,59.52380952,661e456ee6de07e70aa9ef7b,66229da4c253f2e6160966c6,,,,,,,,,,,,,,,,,,,,,,,,,,,,,,,,,,426.2982,428.7972,"[6,1,3,7,8,5,4,2]","[[0.3,0.2],[-0.3,0.2]]","[[0.125,-0.2],[-0.125,-0.2]]",-0.087037051,-0.191666709,1,0,0,1.9827,o2_image,428.8297,0,429.3282,429.3283,431.331,0,0,0,0,1,,,,,,,,,,,,,,,,,,,,,,,,,,,,,,,,,,,,,,,,,,,,,,,,,,
,,659960b8a6b2c5c5a910dcf2,30,female,2024-04-19_13h37.30.164,stockport_simplified,2022.2.4,Win32,59.52380952,661e456ee6de07e70aa9ef7b,66229da4c253f2e6160966c6,,,,,,,,,,,,,,,,,,,,,,,,,,,,,,,,,,,,,,,,,,,,,,,,,,,,,,,,0,52,52,35,1,A,Y,N,o1_image,stimuli/out1.png,stimuli/correct_out1.png,stimuli/out2.png,,,,,,,,,,,,,,,,,,,,,,,,,,,,,,,,,,,,,,
,,659960b8a6b2c5c5a910dcf2,30,female,2024-04-19_13h37.30.164,stockport_simplified,2022.2.4,Win32,59.52380952,661e456ee6de07e70aa9ef7b,66229da4c253f2e6160966c6,,,,,,,,,,,,,,,,,,,,,,,,,,,,,,,,,,431.332,434.2493,"[6,1,3,7,8,5,4,2]","[[-0.3,0.2],[0.3,0.2]]","[[0.125,-0.2],[-0.125,-0.2]]",0.124074088,-0.18240745,1,0,0,2.4014,o1_image,434.251,1,434.7616,434.7617,436.7644,0,0,0,0,1,,,,,,,,,,,,,,,,,,,,,,,,,,,,,,,,,,,,,,,,,,,,,,,,,,
,,659960b8a6b2c5c5a910dcf2,30,female,2024-04-19_13h37.30.164,stockport_simplified,2022.2.4,Win32,59.52380952,661e456ee6de07e70aa9ef7b,66229da4c253f2e6160966c6,,,,,,,,,,,,,,,,,,,,,,,,,,,,,,,,,,,,,,,,,,,,,,,,,,,,,,,,0,53,53,8,1,A,Y,N,o1_image,stimuli/out1.png,stimuli/correct_out1.png,stimuli/out2.png,,,,,,,,,,,,,,,,,,,,,,,,,,,,,,,,,,,,,,
,,659960b8a6b2c5c5a910dcf2,30,female,2024-04-19_13h37.30.164,stockport_simplified,2022.2.4,Win32,59.52380952,661e456ee6de07e70aa9ef7b,66229da4c253f2e6160966c6,,,,,,,,,,,,,,,,,,,,,,,,,,,,,,,,,,436.7654,439.7478,"[6,1,3,7,8,5,4,2]","[[-0.3,0.2],[0.3,0.2]]","[[0.125,-0.2],[-0.125,-0.2]]",-0.116666653,-0.192592621,1,0,0,2.4656,o2_image,439.7499,1,440.2453,440.2454,442.2481,0,0,0,0,1,,,,,,,,,,,,,,,,,,,,,,,,,,,,,,,,,,,,,,,,,,,,,,,,,,
,,659960b8a6b2c5c5a910dcf2,30,female,2024-04-19_13h37.30.164,stockport_simplified,2022.2.4,Win32,59.52380952,661e456ee6de07e70aa9ef7b,66229da4c253f2e6160966c6,,,,,,,,,,,,,,,,,,,,,,,,,,,,,,,,,,,,,,,,,,,,,,,,,,,,,,,,0,54,54,58,1,N,M,D,o2_image,stimuli/out2.png,stimuli/out1.png,stimuli/correct_out2.png,,,,,,,,,,,,,,,,,,,,,,,,,,,,,,,,,,,,,,
,,659960b8a6b2c5c5a910dcf2,30,female,2024-04-19_13h37.30.164,stockport_simplified,2022.2.4,Win32,59.52380952,661e456ee6de07e70aa9ef7b,66229da4c253f2e6160966c6,,,,,,,,,,,,,,,,,,,,,,,,,,,,,,,,,,442.2492,444.3316,"[6,1,3,7,8,5,4,2]","[[0.3,0.2],[-0.3,0.2]]","[[0.125,-0.2],[-0.125,-0.2]]",-0.138888889,-0.171296296,1,0,0,1.5658,o2_image,444.3335,0,444.8359,444.836,446.8316,0,0,0,0,1,,,,,,,,,,,,,,,,,,,,,,,,,,,,,,,,,,,,,,,,,,,,,,,,,,
,,659960b8a6b2c5c5a910dcf2,30,female,2024-04-19_13h37.30.164,stockport_simplified,2022.2.4,Win32,59.52380952,661e456ee6de07e70aa9ef7b,66229da4c253f2e6160966c6,,,,,,,,,,,,,,,,,,,,,,,,,,,,,,,,,,,,,,,,,,,,,,,,,,,,,,,,0,55,55,6,1,A,Y,N,o1_image,stimuli/out1.png,stimuli/correct_out1.png,stimuli/out2.png,,,,,,,,,,,,,,,,,,,,,,,,,,,,,,,,,,,,,,
,,659960b8a6b2c5c5a910dcf2,30,female,2024-04-19_13h37.30.164,stockport_simplified,2022.2.4,Win32,59.52380952,661e456ee6de07e70aa9ef7b,66229da4c253f2e6160966c6,,,,,,,,,,,,,,,,,,,,,,,,,,,,,,,,,,446.8329,449.4984,"[6,1,3,7,8,5,4,2]","[[0.3,0.2],[-0.3,0.2]]","[[0.125,-0.2],[-0.125,-0.2]]",-0.124074088,-0.194444444,1,0,0,2.1489,o2_image,449.5005,1,450.0025,450.0025,451.9985,0,0,0,0,1,,,,,,,,,,,,,,,,,,,,,,,,,,,,,,,,,,,,,,,,,,,,,,,,,,
,,659960b8a6b2c5c5a910dcf2,30,female,2024-04-19_13h37.30.164,stockport_simplified,2022.2.4,Win32,59.52380952,661e456ee6de07e70aa9ef7b,66229da4c253f2e6160966c6,,,,,,,,,,,,,,,,,,,,,,,,,,,,,,,,,,,,,,,,,,,,,,,,,,,,,,,,0,56,56,14,1,B,X,N,o2_image,stimuli/out2.png,stimuli/out1.png,stimuli/correct_out2.png,,,,,,,,,,,,,,,,,,,,,,,,,,,,,,,,,,,,,,
,,659960b8a6b2c5c5a910dcf2,30,female,2024-04-19_13h37.30.164,stockport_simplified,2022.2.4,Win32,59.52380952,661e456ee6de07e70aa9ef7b,66229da4c253f2e6160966c6,,,,,,,,,,,,,,,,,,,,,,,,,,,,,,,,,,451.9995,455.1988,"[6,1,3,7,8,5,4,2]","[[-0.3,0.2],[0.3,0.2]]","[[-0.125,-0.2],[0.125,-0.2]]",0.126851894,-0.175000014,1,0,0,2.6829,o2_image,455.2315,0,455.732,455.732,457.7204,0,0,0,0,1,,,,,,,,,,,,,,,,,,,,,,,,,,,,,,,,,,,,,,,,,,,,,,,,,,
,,659960b8a6b2c5c5a910dcf2,30,female,2024-04-19_13h37.30.164,stockport_simplified,2022.2.4,Win32,59.52380952,661e456ee6de07e70aa9ef7b,66229da4c253f2e6160966c6,,,,,,,,,,,,,,,,,,,,,,,,,,,,,,,,,,,,,,,,,,,,,,,,,,,,,,,,0,57,57,1,1,A,X,N,o1_image,stimuli/out1.png,stimuli/correct_out1.png,stimuli/out2.png,,,,,,,,,,,,,,,,,,,,,,,,,,,,,,,,,,,,,,
,,659960b8a6b2c5c5a910dcf2,30,female,2024-04-19_13h37.30.164,stockport_simplified,2022.2.4,Win32,59.52380952,661e456ee6de07e70aa9ef7b,66229da4c253f2e6160966c6,,,,,,,,,,,,,,,,,,,,,,,,,,,,,,,,,,457.7216,460.4175,"[6,1,3,7,8,5,4,2]","[[-0.3,0.2],[0.3,0.2]]","[[-0.125,-0.2],[0.125,-0.2]]",0.12037037,-0.195370356,1,0,0,2.1847,o2_image,460.4192,1,460.9156,460.9157,462.9159,0,0,0,0,1,,,,,,,,,,,,,,,,,,,,,,,,,,,,,,,,,,,,,,,,,,,,,,,,,,
,,659960b8a6b2c5c5a910dcf2,30,female,2024-04-19_13h37.30.164,stockport_simplified,2022.2.4,Win32,59.52380952,661e456ee6de07e70aa9ef7b,66229da4c253f2e6160966c6,,,,,,,,,,,,,,,,,,,,,,,,,,,,,,,,,,,,,,,,,,,,,,,,,,,,,,,,0,58,58,43,1,B,X,N,o2_image,stimuli/out2.png,stimuli/out1.png,stimuli/correct_out2.png,,,,,,,,,,,,,,,,,,,,,,,,,,,,,,,,,,,,,,
,,659960b8a6b2c5c5a910dcf2,30,female,2024-04-19_13h37.30.164,stockport_simplified,2022.2.4,Win32,59.52380952,661e456ee6de07e70aa9ef7b,66229da4c253f2e6160966c6,,,,,,,,,,,,,,,,,,,,,,,,,,,,,,,,,,462.9169,465.5827,"[6,1,3,7,8,5,4,2]","[[0.3,0.2],[-0.3,0.2]]","[[0.125,-0.2],[-0.125,-0.2]]",-0.098148134,-0.193518533,1,0,0,2.1484,o2_image,465.5844,1,466.08,466.0801,468.0827,0,0,0,0,1,,,,,,,,,,,,,,,,,,,,,,,,,,,,,,,,,,,,,,,,,,,,,,,,,,
,,659960b8a6b2c5c5a910dcf2,30,female,2024-04-19_13h37.30.164,stockport_simplified,2022.2.4,Win32,59.52380952,661e456ee6de07e70aa9ef7b,66229da4c253f2e6160966c6,,,,,,,,,,,,,,,,,,,,,,,,,,,,,,,,,,,,,,,,,,,,,,,,,,,,,,,,0,59,59,29,1,N,M,D,o2_image,stimuli/out2.png,stimuli/out1.png,stimuli/correct_out2.png,,,,,,,,,,,,,,,,,,,,,,,,,,,,,,,,,,,,,,
,,659960b8a6b2c5c5a910dcf2,30,female,2024-04-19_13h37.30.164,stockport_simplified,2022.2.4,Win32,59.52380952,661e456ee6de07e70aa9ef7b,66229da4c253f2e6160966c6,,,,,,,,,,,,,,,,,,,,,,,,,,,,,,,,,,468.0838,470.0829,"[6,1,3,7,8,5,4,2]","[[-0.3,0.2],[0.3,0.2]]","[[0.125,-0.2],[-0.125,-0.2]]",0.114814829,-0.198148162,1,0,0,1.4826,o1_image,470.0847,1,470.5829,470.583,472.5803,0,0,0,0,1,,,,,,,,,,,,,,,,,,,,,,,,,,,,,,,,,,,,,,,,,,,,,,,,,,
,,659960b8a6b2c5c5a910dcf2,30,female,2024-04-19_13h37.30.164,stockport_simplified,2022.2.4,Win32,59.52380952,661e456ee6de07e70aa9ef7b,66229da4c253f2e6160966c6,,,,,,,,,,,,,,,,,,,,,,,,,,,,,,,,,,,,,,,,,,,,,,,,,,,,,,,,1,0,60,20,1,N,M,C,o1_image,stimuli/out1.png,stimuli/correct_out1.png,stimuli/out2.png,,,,,,,,,,,,,,,,,,,,,,,,,,,,,,,,,,,,,,
,,659960b8a6b2c5c5a910dcf2,30,female,2024-04-19_13h37.30.164,stockport_simplified,2022.2.4,Win32,59.52380952,661e456ee6de07e70aa9ef7b,66229da4c253f2e6160966c6,,,,,,,,,,,,,,,,,,,,,,,,,,,,,,,,,,472.5812,474.9203,"[6,1,3,7,8,5,4,2]","[[0.3,0.2],[-0.3,0.2]]","[[0.125,-0.2],[-0.125,-0.2]]",0.112037023,-0.19722225,1,0,0,1.8369,o1_image,474.9219,1,475.4204,475.4205,477.4186,0,0,0,0,1,,,,,,,,,,,,,,,,,,,,,,,,,,,,,,,,,,,,,,,,,,,,,,,,,,
,,659960b8a6b2c5c5a910dcf2,30,female,2024-04-19_13h37.30.164,stockport_simplified,2022.2.4,Win32,59.52380952,661e456ee6de07e70aa9ef7b,66229da4c253f2e6160966c6,,,,,,,,,,,,,,,,,,,,,,,,,,,,,,,,,,,,,,,,,,,,,,,,,,,,,,,,1,1,61,21,1,N,M,C,o1_image,stimuli/out1.png,stimuli/correct_out1.png,stimuli/out2.png,,,,,,,,,,,,,,,,,,,,,,,,,,,,,,,,,,,,,,
,,659960b8a6b2c5c5a910dcf2,30,female,2024-04-19_13h37.30.164,stockport_simplified,2022.2.4,Win32,59.52380952,661e456ee6de07e70aa9ef7b,66229da4c253f2e6160966c6,,,,,,,,,,,,,,,,,,,,,,,,,,,,,,,,,,477.4196,479.7833,"[6,1,3,7,8,5,4,2]","[[-0.3,0.2],[0.3,0.2]]","[[-0.125,-0.2],[0.125,-0.2]]",-0.104629587,-0.19722225,1,0,0,1.8476,o1_image,479.785,1,480.2809,480.281,482.2836,0,0,0,0,1,,,,,,,,,,,,,,,,,,,,,,,,,,,,,,,,,,,,,,,,,,,,,,,,,,
,,659960b8a6b2c5c5a910dcf2,30,female,2024-04-19_13h37.30.164,stockport_simplified,2022.2.4,Win32,59.52380952,661e456ee6de07e70aa9ef7b,66229da4c253f2e6160966c6,,,,,,,,,,,,,,,,,,,,,,,,,,,,,,,,,,,,,,,,,,,,,,,,,,,,,,,,1,2,62,31,1,A,X,N,o1_image,stimuli/out1.png,stimuli/correct_out1.png,stimuli/out2.png,,,,,,,,,,,,,,,,,,,,,,,,,,,,,,,,,,,,,,
,,659960b8a6b2c5c5a910dcf2,30,female,2024-04-19_13h37.30.164,stockport_simplified,2022.2.4,Win32,59.52380952,661e456ee6de07e70aa9ef7b,66229da4c253f2e6160966c6,,,,,,,,,,,,,,,,,,,,,,,,,,,,,,,,,,482.2847,485.1178,"[6,1,3,7,8,5,4,2]","[[0.3,0.2],[-0.3,0.2]]","[[-0.125,-0.2],[0.125,-0.2]]",-0.104629587,-0.217592593,1,0,0,2.3032,o1_image,485.1504,1,485.6504,485.6505,487.6504,0,0,0,0,1,,,,,,,,,,,,,,,,,,,,,,,,,,,,,,,,,,,,,,,,,,,,,,,,,,
,,659960b8a6b2c5c5a910dcf2,30,female,2024-04-19_13h37.30.164,stockport_simplified,2022.2.4,Win32,59.52380952,661e456ee6de07e70aa9ef7b,66229da4c253f2e6160966c6,,,,,,,,,,,,,,,,,,,,,,,,,,,,,,,,,,,,,,,,,,,,,,,,,,,,,,,,1,3,63,22,1,N,M,C,o1_image,stimuli/out1.png,stimuli/correct_out1.png,stimuli/out2.png,,,,,,,,,,,,,,,,,,,,,,,,,,,,,,,,,,,,,,
,,659960b8a6b2c5c5a910dcf2,30,female,2024-04-19_13h37.30.164,stockport_simplified,2022.2.4,Win32,59.52380952,661e456ee6de07e70aa9ef7b,66229da4c253f2e6160966c6,,,,,,,,,,,,,,,,,,,,,,,,,,,,,,,,,,487.6514,492.6844,"[6,1,3,7,8,5,4,2]","[[-0.3,0.2],[0.3,0.2]]","[[-0.125,-0.2],[0.125,-0.2]]",0.088888875,-0.226851852,1,0,0,4.5166,o2_image,492.7172,1,493.2175,493.2176,495.2175,0,0,0,0,1,,,,,,,,,,,,,,,,,,,,,,,,,,,,,,,,,,,,,,,,,,,,,,,,,,
,,659960b8a6b2c5c5a910dcf2,30,female,2024-04-19_13h37.30.164,stockport_simplified,2022.2.4,Win32,59.52380952,661e456ee6de07e70aa9ef7b,66229da4c253f2e6160966c6,,,,,,,,,,,,,,,,,,,,,,,,,,,,,,,,,,,,,,,,,,,,,,,,,,,,,,,,1,4,64,29,1,N,M,D,o2_image,stimuli/out2.png,stimuli/out1.png,stimuli/correct_out2.png,,,,,,,,,,,,,,,,,,,,,,,,,,,,,,,,,,,,,,
,,659960b8a6b2c5c5a910dcf2,30,female,2024-04-19_13h37.30.164,stockport_simplified,2022.2.4,Win32,59.52380952,661e456ee6de07e70aa9ef7b,66229da4c253f2e6160966c6,,,,,,,,,,,,,,,,,,,,,,,,,,,,,,,,,,495.2185,497.518,"[6,1,3,7,8,5,4,2]","[[0.3,0.2],[-0.3,0.2]]","[[0.125,-0.2],[-0.125,-0.2]]",-0.099074046,-0.174074102,1,0,0,1.7832,o2_image,497.5201,1,498.0178,498.0179,500.0151,0,0,0,0,1,,,,,,,,,,,,,,,,,,,,,,,,,,,,,,,,,,,,,,,,,,,,,,,,,,
,,659960b8a6b2c5c5a910dcf2,30,female,2024-04-19_13h37.30.164,stockport_simplified,2022.2.4,Win32,59.52380952,661e456ee6de07e70aa9ef7b,66229da4c253f2e6160966c6,,,,,,,,,,,,,,,,,,,,,,,,,,,,,,,,,,,,,,,,,,,,,,,,,,,,,,,,1,5,65,26,1,N,M,D,o2_image,stimuli/out2.png,stimuli/out1.png,stimuli/correct_out2.png,,,,,,,,,,,,,,,,,,,,,,,,,,,,,,,,,,,,,,
,,659960b8a6b2c5c5a910dcf2,30,female,2024-04-19_13h37.30.164,stockport_simplified,2022.2.4,Win32,59.52380952,661e456ee6de07e70aa9ef7b,66229da4c253f2e6160966c6,,,,,,,,,,,,,,,,,,,,,,,,,,,,,,,,,,500.0163,503.0164,"[6,1,3,7,8,5,4,2]","[[-0.3,0.2],[0.3,0.2]]","[[0.125,-0.2],[-0.125,-0.2]]",0.09629631,-0.180555556,1,0,0,2.4975,o1_image,503.0188,0,503.5179,503.518,505.5181,0,0,0,0,1,,,,,,,,,,,,,,,,,,,,,,,,,,,,,,,,,,,,,,,,,,,,,,,,,,
,,659960b8a6b2c5c5a910dcf2,30,female,2024-04-19_13h37.30.164,stockport_simplified,2022.2.4,Win32,59.52380952,661e456ee6de07e70aa9ef7b,66229da4c253f2e6160966c6,,,,,,,,,,,,,,,,,,,,,,,,,,,,,,,,,,,,,,,,,,,,,,,,,,,,,,,,1,6,66,10,1,B,X,N,o2_image,stimuli/out2.png,stimuli/out1.png,stimuli/correct_out2.png,,,,,,,,,,,,,,,,,,,,,,,,,,,,,,,,,,,,,,
,,659960b8a6b2c5c5a910dcf2,30,female,2024-04-19_13h37.30.164,stockport_simplified,2022.2.4,Win32,59.52380952,661e456ee6de07e70aa9ef7b,66229da4c253f2e6160966c6,,,,,,,,,,,,,,,,,,,,,,,,,,,,,,,,,,505.519,507.4331,"[6,1,3,7,8,5,4,2]","[[-0.3,0.2],[0.3,0.2]]","[[-0.125,-0.2],[0.125,-0.2]]",0.137037065,-0.168518561,1,0,0,1.3848,o2_image,507.4353,1,507.9378,507.9379,509.9351,0,0,0,0,1,,,,,,,,,,,,,,,,,,,,,,,,,,,,,,,,,,,,,,,,,,,,,,,,,,
,,659960b8a6b2c5c5a910dcf2,30,female,2024-04-19_13h37.30.164,stockport_simplified,2022.2.4,Win32,59.52380952,661e456ee6de07e70aa9ef7b,66229da4c253f2e6160966c6,,,,,,,,,,,,,,,,,,,,,,,,,,,,,,,,,,,,,,,,,,,,,,,,,,,,,,,,1,7,67,40,1,B,X,N,o2_image,stimuli/out2.png,stimuli/out1.png,stimuli/correct_out2.png,,,,,,,,,,,,,,,,,,,,,,,,,,,,,,,,,,,,,,
,,659960b8a6b2c5c5a910dcf2,30,female,2024-04-19_13h37.30.164,stockport_simplified,2022.2.4,Win32,59.52380952,661e456ee6de07e70aa9ef7b,66229da4c253f2e6160966c6,,,,,,,,,,,,,,,,,,,,,,,,,,,,,,,,,,509.9362,512.0687,"[6,1,3,7,8,5,4,2]","[[-0.3,0.2],[0.3,0.2]]","[[-0.125,-0.2],[0.125,-0.2]]",-0.121296282,-0.202777792,1,0,0,1.6158,o1_image,512.0709,1,512.5685,512.5686,514.5686,0,0,0,0,1,,,,,,,,,,,,,,,,,,,,,,,,,,,,,,,,,,,,,,,,,,,,,,,,,,
,,659960b8a6b2c5c5a910dcf2,30,female,2024-04-19_13h37.30.164,stockport_simplified,2022.2.4,Win32,59.52380952,661e456ee6de07e70aa9ef7b,66229da4c253f2e6160966c6,,,,,,,,,,,,,,,,,,,,,,,,,,,,,,,,,,,,,,,,,,,,,,,,,,,,,,,,1,8,68,35,1,A,Y,N,o1_image,stimuli/out1.png,stimuli/correct_out1.png,stimuli/out2.png,,,,,,,,,,,,,,,,,,,,,,,,,,,,,,,,,,,,,,
,,659960b8a6b2c5c5a910dcf2,30,female,2024-04-19_13h37.30.164,stockport_simplified,2022.2.4,Win32,59.52380952,661e456ee6de07e70aa9ef7b,66229da4c253f2e6160966c6,,,,,,,,,,,,,,,,,,,,,,,,,,,,,,,,,,514.5699,517.1506,"[6,1,3,7,8,5,4,2]","[[0.3,0.2],[-0.3,0.2]]","[[0.125,-0.2],[-0.125,-0.2]]",-0.081481439,-0.18240745,1,0,0,2.0643,o2_image,517.1532,1,517.6596,517.6597,519.6494,0,0,0,0,1,,,,,,,,,,,,,,,,,,,,,,,,,,,,,,,,,,,,,,,,,,,,,,,,,,
,,659960b8a6b2c5c5a910dcf2,30,female,2024-04-19_13h37.30.164,stockport_simplified,2022.2.4,Win32,59.52380952,661e456ee6de07e70aa9ef7b,66229da4c253f2e6160966c6,,,,,,,,,,,,,,,,,,,,,,,,,,,,,,,,,,,,,,,,,,,,,,,,,,,,,,,,1,9,69,42,1,B,X,N,o2_image,stimuli/out2.png,stimuli/out1.png,stimuli/correct_out2.png,,,,,,,,,,,,,,,,,,,,,,,,,,,,,,,,,,,,,,
,,659960b8a6b2c5c5a910dcf2,30,female,2024-04-19_13h37.30.164,stockport_simplified,2022.2.4,Win32,59.52380952,661e456ee6de07e70aa9ef7b,66229da4c253f2e6160966c6,,,,,,,,,,,,,,,,,,,,,,,,,,,,,,,,,,519.6503,522.295,"[6,1,3,7,8,5,4,2]","[[0.3,0.2],[-0.3,0.2]]","[[0.125,-0.2],[-0.125,-0.2]]",0.130555541,-0.198148162,1,0,0,2.1421,o1_image,522.2966,0,522.7938,522.7938,524.7858,0,0,0,0,1,,,,,,,,,,,,,,,,,,,,,,,,,,,,,,,,,,,,,,,,,,,,,,,,,,
,,659960b8a6b2c5c5a910dcf2,30,female,2024-04-19_13h37.30.164,stockport_simplified,2022.2.4,Win32,59.52380952,661e456ee6de07e70aa9ef7b,66229da4c253f2e6160966c6,,,,,,,,,,,,,,,,,,,,,,,,,,,,,,,,,,,,,,,,,,,,,,,,,,,,,,,,1,10,70,15,1,B,Y,N,o2_image,stimuli/out2.png,stimuli/out1.png,stimuli/correct_out2.png,,,,,,,,,,,,,,,,,,,,,,,,,,,,,,,,,,,,,,
,,659960b8a6b2c5c5a910dcf2,30,female,2024-04-19_13h37.30.164,stockport_simplified,2022.2.4,Win32,59.52380952,661e456ee6de07e70aa9ef7b,66229da4c253f2e6160966c6,,,,,,,,,,,,,,,,,,,,,,,,,,,,,,,,,,524.7869,526.6177,"[6,1,3,7,8,5,4,2]","[[0.3,0.2],[-0.3,0.2]]","[[0.125,-0.2],[-0.125,-0.2]]",-0.104629587,-0.20185188,1,0,0,1.3147,o2_image,526.6199,0,527.1195,527.1196,529.1194,0,0,0,0,1,,,,,,,,,,,,,,,,,,,,,,,,,,,,,,,,,,,,,,,,,,,,,,,,,,
,,659960b8a6b2c5c5a910dcf2,30,female,2024-04-19_13h37.30.164,stockport_simplified,2022.2.4,Win32,59.52380952,661e456ee6de07e70aa9ef7b,66229da4c253f2e6160966c6,,,,,,,,,,,,,,,,,,,,,,,,,,,,,,,,,,,,,,,,,,,,,,,,,,,,,,,,1,11,71,38,1,A,Y,N,o1_image,stimuli/out1.png,stimuli/correct_out1.png,stimuli/out2.png,,,,,,,,,,,,,,,,,,,,,,,,,,,,,,,,,,,,,,
,,659960b8a6b2c5c5a910dcf2,30,female,2024-04-19_13h37.30.164,stockport_simplified,2022.2.4,Win32,59.52380952,661e456ee6de07e70aa9ef7b,66229da4c253f2e6160966c6,,,,,,,,,,,,,,,,,,,,,,,,,,,,,,,,,,529.1203,531.5614,"[6,1,3,7,8,5,4,2]","[[0.3,0.2],[-0.3,0.2]]","[[-0.125,-0.2],[0.125,-0.2]]",0.069444444,-0.214814857,1,0,0,1.9246,o2_image,531.5939,0,532.0862,532.0862,534.0863,0,0,0,0,1,,,,,,,,,,,,,,,,,,,,,,,,,,,,,,,,,,,,,,,,,,,,,,,,,,
,,659960b8a6b2c5c5a910dcf2,30,female,2024-04-19_13h37.30.164,stockport_simplified,2022.2.4,Win32,59.52380952,661e456ee6de07e70aa9ef7b,66229da4c253f2e6160966c6,,,,,,,,,,,,,,,,,,,,,,,,,,,,,,,,,,,,,,,,,,,,,,,,,,,,,,,,1,12,72,33,1,A,X,N,o1_image,stimuli/out1.png,stimuli/correct_out1.png,stimuli/out2.png,,,,,,,,,,,,,,,,,,,,,,,,,,,,,,,,,,,,,,
,,659960b8a6b2c5c5a910dcf2,30,female,2024-04-19_13h37.30.164,stockport_simplified,2022.2.4,Win32,59.52380952,661e456ee6de07e70aa9ef7b,66229da4c253f2e6160966c6,,,,,,,,,,,,,,,,,,,,,,,,,,,,,,,,,,534.0873,536.2869,"[6,1,3,7,8,5,4,2]","[[0.3,0.2],[-0.3,0.2]]","[[0.125,-0.2],[-0.125,-0.2]]",0.109259288,-0.229629658,1,0,0,1.6824,o1_image,536.2885,1,536.7838,536.7838,538.8006,0,0,0,0,1,,,,,,,,,,,,,,,,,,,,,,,,,,,,,,,,,,,,,,,,,,,,,,,,,,
,,659960b8a6b2c5c5a910dcf2,30,female,2024-04-19_13h37.30.164,stockport_simplified,2022.2.4,Win32,59.52380952,661e456ee6de07e70aa9ef7b,66229da4c253f2e6160966c6,,,,,,,,,,,,,,,,,,,,,,,,,,,,,,,,,,,,,,,,,,,,,,,,,,,,,,,,1,13,73,53,1,N,M,C,o1_image,stimuli/out1.png,stimuli/correct_out1.png,stimuli/out2.png,,,,,,,,,,,,,,,,,,,,,,,,,,,,,,,,,,,,,,
,,659960b8a6b2c5c5a910dcf2,30,female,2024-04-19_13h37.30.164,stockport_simplified,2022.2.4,Win32,59.52380952,661e456ee6de07e70aa9ef7b,66229da4c253f2e6160966c6,,,,,,,,,,,,,,,,,,,,,,,,,,,,,,,,,,538.8017,540.9685,"[6,1,3,7,8,5,4,2]","[[0.3,0.2],[-0.3,0.2]]","[[-0.125,-0.2],[0.125,-0.2]]",-0.108333305,-0.20648151,1,0,0,1.664,o1_image,540.9706,0,541.4673,541.4674,543.4675,0,0,0,0,1,,,,,,,,,,,,,,,,,,,,,,,,,,,,,,,,,,,,,,,,,,,,,,,,,,
,,659960b8a6b2c5c5a910dcf2,30,female,2024-04-19_13h37.30.164,stockport_simplified,2022.2.4,Win32,59.52380952,661e456ee6de07e70aa9ef7b,66229da4c253f2e6160966c6,,,,,,,,,,,,,,,,,,,,,,,,,,,,,,,,,,,,,,,,,,,,,,,,,,,,,,,,1,14,74,13,1,B,X,N,o2_image,stimuli/out2.png,stimuli/out1.png,stimuli/correct_out2.png,,,,,,,,,,,,,,,,,,,,,,,,,,,,,,,,,,,,,,
,,659960b8a6b2c5c5a910dcf2,30,female,2024-04-19_13h37.30.164,stockport_simplified,2022.2.4,Win32,59.52380952,661e456ee6de07e70aa9ef7b,66229da4c253f2e6160966c6,,,,,,,,,,,,,,,,,,,,,,,,,,,,,,,,,,543.4686,545.6372,"[6,1,3,7,8,5,4,2]","[[0.3,0.2],[-0.3,0.2]]","[[-0.125,-0.2],[0.125,-0.2]]",-0.10092594,-0.209259245,1,0,0,1.6658,o1_image,545.6393,1,546.1369,546.137,548.137,0,0,0,0,1,,,,,,,,,,,,,,,,,,,,,,,,,,,,,,,,,,,,,,,,,,,,,,,,,,
,,659960b8a6b2c5c5a910dcf2,30,female,2024-04-19_13h37.30.164,stockport_simplified,2022.2.4,Win32,59.52380952,661e456ee6de07e70aa9ef7b,66229da4c253f2e6160966c6,,,,,,,,,,,,,,,,,,,,,,,,,,,,,,,,,,,,,,,,,,,,,,,,,,,,,,,,1,15,75,52,1,N,M,C,o1_image,stimuli/out1.png,stimuli/correct_out1.png,stimuli/out2.png,,,,,,,,,,,,,,,,,,,,,,,,,,,,,,,,,,,,,,
,,659960b8a6b2c5c5a910dcf2,30,female,2024-04-19_13h37.30.164,stockport_simplified,2022.2.4,Win32,59.52380952,661e456ee6de07e70aa9ef7b,66229da4c253f2e6160966c6,,,,,,,,,,,,,,,,,,,,,,,,,,,,,,,,,,548.138,550.754,"[6,1,3,7,8,5,4,2]","[[0.3,0.2],[-0.3,0.2]]","[[-0.125,-0.2],[0.125,-0.2]]",0.114814829,-0.189814815,1,0,0,2.0979,o2_image,550.7559,1,551.2539,551.254,553.2549,0,0,0,0,1,,,,,,,,,,,,,,,,,,,,,,,,,,,,,,,,,,,,,,,,,,,,,,,,,,
,,659960b8a6b2c5c5a910dcf2,30,female,2024-04-19_13h37.30.164,stockport_simplified,2022.2.4,Win32,59.52380952,661e456ee6de07e70aa9ef7b,66229da4c253f2e6160966c6,,,,,,,,,,,,,,,,,,,,,,,,,,,,,,,,,,,,,,,,,,,,,,,,,,,,,,,,1,16,76,12,1,B,X,N,o2_image,stimuli/out2.png,stimuli/out1.png,stimuli/correct_out2.png,,,,,,,,,,,,,,,,,,,,,,,,,,,,,,,,,,,,,,
,,659960b8a6b2c5c5a910dcf2,30,female,2024-04-19_13h37.30.164,stockport_simplified,2022.2.4,Win32,59.52380952,661e456ee6de07e70aa9ef7b,66229da4c253f2e6160966c6,,,,,,,,,,,,,,,,,,,,,,,,,,,,,,,,,,553.256,555.6271,"[6,1,3,7,8,5,4,2]","[[0.3,0.2],[-0.3,0.2]]","[[-0.125,-0.2],[0.125,-0.2]]",0.125925912,-0.199074074,1,0,0,1.8553,o2_image,555.6596,0,556.1541,556.1542,558.1543,0,0,0,0,1,,,,,,,,,,,,,,,,,,,,,,,,,,,,,,,,,,,,,,,,,,,,,,,,,,
,,659960b8a6b2c5c5a910dcf2,30,female,2024-04-19_13h37.30.164,stockport_simplified,2022.2.4,Win32,59.52380952,661e456ee6de07e70aa9ef7b,66229da4c253f2e6160966c6,,,,,,,,,,,,,,,,,,,,,,,,,,,,,,,,,,,,,,,,,,,,,,,,,,,,,,,,1,17,77,3,1,A,X,N,o1_image,stimuli/out1.png,stimuli/correct_out1.png,stimuli/out2.png,,,,,,,,,,,,,,,,,,,,,,,,,,,,,,,,,,,,,,
,,659960b8a6b2c5c5a910dcf2,30,female,2024-04-19_13h37.30.164,stockport_simplified,2022.2.4,Win32,59.52380952,661e456ee6de07e70aa9ef7b,66229da4c253f2e6160966c6,,,,,,,,,,,,,,,,,,,,,,,,,,,,,,,,,,558.1553,560.3693,"[6,1,3,7,8,5,4,2]","[[0.3,0.2],[-0.3,0.2]]","[[0.125,-0.2],[-0.125,-0.2]]",-0.091666681,-0.158333319,1,0,0,1.6972,o2_image,560.3717,1,560.8685,560.8685,562.8712,0,0,0,0,1,,,,,,,,,,,,,,,,,,,,,,,,,,,,,,,,,,,,,,,,,,,,,,,,,,
,,659960b8a6b2c5c5a910dcf2,30,female,2024-04-19_13h37.30.164,stockport_simplified,2022.2.4,Win32,59.52380952,661e456ee6de07e70aa9ef7b,66229da4c253f2e6160966c6,,,,,,,,,,,,,,,,,,,,,,,,,,,,,,,,,,,,,,,,,,,,,,,,,,,,,,,,1,18,78,16,1,B,Y,N,o2_image,stimuli/out2.png,stimuli/out1.png,stimuli/correct_out2.png,,,,,,,,,,,,,,,,,,,,,,,,,,,,,,,,,,,,,,
,,659960b8a6b2c5c5a910dcf2,30,female,2024-04-19_13h37.30.164,stockport_simplified,2022.2.4,Win32,59.52380952,661e456ee6de07e70aa9ef7b,66229da4c253f2e6160966c6,,,,,,,,,,,,,,,,,,,,,,,,,,,,,,,,,,562.8722,564.6907,"[6,1,3,7,8,5,4,2]","[[0.3,0.2],[-0.3,0.2]]","[[0.125,-0.2],[-0.125,-0.2]]",-0.124074088,-0.189814815,1,0,0,1.3022,o2_image,564.6922,0,565.1942,565.1943,567.1881,0,0,0,0,1,,,,,,,,,,,,,,,,,,,,,,,,,,,,,,,,,,,,,,,,,,,,,,,,,,
,,659960b8a6b2c5c5a910dcf2,30,female,2024-04-19_13h37.30.164,stockport_simplified,2022.2.4,Win32,59.52380952,661e456ee6de07e70aa9ef7b,66229da4c253f2e6160966c6,,,,,,,,,,,,,,,,,,,,,,,,,,,,,,,,,,,,,,,,,,,,,,,,,,,,,,,,1,19,79,5,1,A,Y,N,o1_image,stimuli/out1.png,stimuli/correct_out1.png,stimuli/out2.png,,,,,,,,,,,,,,,,,,,,,,,,,,,,,,,,,,,,,,
,,659960b8a6b2c5c5a910dcf2,30,female,2024-04-19_13h37.30.164,stockport_simplified,2022.2.4,Win32,59.52380952,661e456ee6de07e70aa9ef7b,66229da4c253f2e6160966c6,,,,,,,,,,,,,,,,,,,,,,,,,,,,,,,,,,567.1892,569.6035,"[6,1,3,7,8,5,4,2]","[[-0.3,0.2],[0.3,0.2]]","[[-0.125,-0.2],[0.125,-0.2]]",0.10555557,-0.187962991,1,0,0,1.8972,o2_image,569.6058,1,570.1047,570.1049,572.105,0,0,0,0,1,,,,,,,,,,,,,,,,,,,,,,,,,,,,,,,,,,,,,,,,,,,,,,,,,,
,,659960b8a6b2c5c5a910dcf2,30,female,2024-04-19_13h37.30.164,stockport_simplified,2022.2.4,Win32,59.52380952,661e456ee6de07e70aa9ef7b,66229da4c253f2e6160966c6,,,,,,,,,,,,,,,,,,,,,,,,,,,,,,,,,,,,,,,,,,,,,,,,,,,,,,,,1,20,80,56,1,N,M,D,o2_image,stimuli/out2.png,stimuli/out1.png,stimuli/correct_out2.png,,,,,,,,,,,,,,,,,,,,,,,,,,,,,,,,,,,,,,
,,659960b8a6b2c5c5a910dcf2,30,female,2024-04-19_13h37.30.164,stockport_simplified,2022.2.4,Win32,59.52380952,661e456ee6de07e70aa9ef7b,66229da4c253f2e6160966c6,,,,,,,,,,,,,,,,,,,,,,,,,,,,,,,,,,572.1061,574.2536,"[6,1,3,7,8,5,4,2]","[[0.3,0.2],[-0.3,0.2]]","[[0.125,-0.2],[-0.125,-0.2]]",0.113888917,-0.189814815,1,0,0,1.631,o1_image,574.2557,1,574.7552,574.7553,576.7555,0,0,0,0,1,,,,,,,,,,,,,,,,,,,,,,,,,,,,,,,,,,,,,,,,,,,,,,,,,,
,,659960b8a6b2c5c5a910dcf2,30,female,2024-04-19_13h37.30.164,stockport_simplified,2022.2.4,Win32,59.52380952,661e456ee6de07e70aa9ef7b,66229da4c253f2e6160966c6,,,,,,,,,,,,,,,,,,,,,,,,,,,,,,,,,,,,,,,,,,,,,,,,,,,,,,,,1,21,81,24,1,N,M,C,o1_image,stimuli/out1.png,stimuli/correct_out1.png,stimuli/out2.png,,,,,,,,,,,,,,,,,,,,,,,,,,,,,,,,,,,,,,
,,659960b8a6b2c5c5a910dcf2,30,female,2024-04-19_13h37.30.164,stockport_simplified,2022.2.4,Win32,59.52380952,661e456ee6de07e70aa9ef7b,66229da4c253f2e6160966c6,,,,,,,,,,,,,,,,,,,,,,,,,,,,,,,,,,576.7566,578.9721,"[6,1,3,7,8,5,4,2]","[[-0.3,0.2],[0.3,0.2]]","[[0.125,-0.2],[-0.125,-0.2]]",-0.106481481,-0.161111125,1,0,0,1.6993,o2_image,578.9741,0,579.4722,579.4723,581.4722,0,0,0,0,1,,,,,,,,,,,,,,,,,,,,,,,,,,,,,,,,,,,,,,,,,,,,,,,,,,
,,659960b8a6b2c5c5a910dcf2,30,female,2024-04-19_13h37.30.164,stockport_simplified,2022.2.4,Win32,59.52380952,661e456ee6de07e70aa9ef7b,66229da4c253f2e6160966c6,,,,,,,,,,,,,,,,,,,,,,,,,,,,,,,,,,,,,,,,,,,,,,,,,,,,,,,,1,22,82,0,1,A,X,N,o1_image,stimuli/out1.png,stimuli/correct_out1.png,stimuli/out2.png,,,,,,,,,,,,,,,,,,,,,,,,,,,,,,,,,,,,,,
,,659960b8a6b2c5c5a910dcf2,30,female,2024-04-19_13h37.30.164,stockport_simplified,2022.2.4,Win32,59.52380952,661e456ee6de07e70aa9ef7b,66229da4c253f2e6160966c6,,,,,,,,,,,,,,,,,,,,,,,,,,,,,,,,,,581.4732,583.3224,"[6,1,3,7,8,5,4,2]","[[-0.3,0.2],[0.3,0.2]]","[[-0.125,-0.2],[0.125,-0.2]]",0.077777792,-0.211111139,1,0,0,1.3329,o2_image,583.3244,0,583.8225,583.8226,585.8199,0,0,0,0,1,,,,,,,,,,,,,,,,,,,,,,,,,,,,,,,,,,,,,,,,,,,,,,,,,,
,,659960b8a6b2c5c5a910dcf2,30,female,2024-04-19_13h37.30.164,stockport_simplified,2022.2.4,Win32,59.52380952,661e456ee6de07e70aa9ef7b,66229da4c253f2e6160966c6,,,,,,,,,,,,,,,,,,,,,,,,,,,,,,,,,,,,,,,,,,,,,,,,,,,,,,,,1,23,83,9,1,A,Y,N,o1_image,stimuli/out1.png,stimuli/correct_out1.png,stimuli/out2.png,,,,,,,,,,,,,,,,,,,,,,,,,,,,,,,,,,,,,,
,,659960b8a6b2c5c5a910dcf2,30,female,2024-04-19_13h37.30.164,stockport_simplified,2022.2.4,Win32,59.52380952,661e456ee6de07e70aa9ef7b,66229da4c253f2e6160966c6,,,,,,,,,,,,,,,,,,,,,,,,,,,,,,,,,,585.8208,588.1392,"[6,1,3,7,8,5,4,2]","[[0.3,0.2],[-0.3,0.2]]","[[-0.125,-0.2],[0.125,-0.2]]",0.108333376,-0.218518504,1,0,0,1.8122,o2_image,588.141,1,588.6392,588.6393,590.6393,0,0,0,0,1,,,,,,,,,,,,,,,,,,,,,,,,,,,,,,,,,,,,,,,,,,,,,,,,,,
,,659960b8a6b2c5c5a910dcf2,30,female,2024-04-19_13h37.30.164,stockport_simplified,2022.2.4,Win32,59.52380952,661e456ee6de07e70aa9ef7b,66229da4c253f2e6160966c6,,,,,,,,,,,,,,,,,,,,,,,,,,,,,,,,,,,,,,,,,,,,,,,,,,,,,,,,1,24,84,19,1,B,Y,N,o2_image,stimuli/out2.png,stimuli/out1.png,stimuli/correct_out2.png,,,,,,,,,,,,,,,,,,,,,,,,,,,,,,,,,,,,,,
,,659960b8a6b2c5c5a910dcf2,30,female,2024-04-19_13h37.30.164,stockport_simplified,2022.2.4,Win32,59.52380952,661e456ee6de07e70aa9ef7b,66229da4c253f2e6160966c6,,,,,,,,,,,,,,,,,,,,,,,,,,,,,,,,,,590.6403,593.5064,"[6,1,3,7,8,5,4,2]","[[0.3,0.2],[-0.3,0.2]]","[[0.125,-0.2],[-0.125,-0.2]]",-0.092592593,-0.185185185,1,0,0,2.3491,o2_image,593.5082,1,594.0072,594.0073,596.0205,0,0,0,0,1,,,,,,,,,,,,,,,,,,,,,,,,,,,,,,,,,,,,,,,,,,,,,,,,,,
,,659960b8a6b2c5c5a910dcf2,30,female,2024-04-19_13h37.30.164,stockport_simplified,2022.2.4,Win32,59.52380952,661e456ee6de07e70aa9ef7b,66229da4c253f2e6160966c6,,,,,,,,,,,,,,,,,,,,,,,,,,,,,,,,,,,,,,,,,,,,,,,,,,,,,,,,1,25,85,57,1,N,M,D,o2_image,stimuli/out2.png,stimuli/out1.png,stimuli/correct_out2.png,,,,,,,,,,,,,,,,,,,,,,,,,,,,,,,,,,,,,,
,,659960b8a6b2c5c5a910dcf2,30,female,2024-04-19_13h37.30.164,stockport_simplified,2022.2.4,Win32,59.52380952,661e456ee6de07e70aa9ef7b,66229da4c253f2e6160966c6,,,,,,,,,,,,,,,,,,,,,,,,,,,,,,,,,,596.0214,598.2231,"[6,1,3,7,8,5,4,2]","[[0.3,0.2],[-0.3,0.2]]","[[0.125,-0.2],[-0.125,-0.2]]",-0.12037037,-0.20185188,1,0,0,1.6991,o2_image,598.2249,1,598.7207,598.7207,600.7131,0,0,0,0,1,,,,,,,,,,,,,,,,,,,,,,,,,,,,,,,,,,,,,,,,,,,,,,,,,,
,,659960b8a6b2c5c5a910dcf2,30,female,2024-04-19_13h37.30.164,stockport_simplified,2022.2.4,Win32,59.52380952,661e456ee6de07e70aa9ef7b,66229da4c253f2e6160966c6,,,,,,,,,,,,,,,,,,,,,,,,,,,,,,,,,,,,,,,,,,,,,,,,,,,,,,,,1,26,86,49,1,B,Y,N,o2_image,stimuli/out2.png,stimuli/out1.png,stimuli/correct_out2.png,,,,,,,,,,,,,,,,,,,,,,,,,,,,,,,,,,,,,,
,,659960b8a6b2c5c5a910dcf2,30,female,2024-04-19_13h37.30.164,stockport_simplified,2022.2.4,Win32,59.52380952,661e456ee6de07e70aa9ef7b,66229da4c253f2e6160966c6,,,,,,,,,,,,,,,,,,,,,,,,,,,,,,,,,,600.7142,602.7901,"[6,1,3,7,8,5,4,2]","[[-0.3,0.2],[0.3,0.2]]","[[-0.125,-0.2],[0.125,-0.2]]",0.119444459,-0.199999986,1,0,0,1.5665,o2_image,602.7921,1,603.2815,603.2815,605.2858,0,0,0,0,1,,,,,,,,,,,,,,,,,,,,,,,,,,,,,,,,,,,,,,,,,,,,,,,,,,
,,659960b8a6b2c5c5a910dcf2,30,female,2024-04-19_13h37.30.164,stockport_simplified,2022.2.4,Win32,59.52380952,661e456ee6de07e70aa9ef7b,66229da4c253f2e6160966c6,,,,,,,,,,,,,,,,,,,,,,,,,,,,,,,,,,,,,,,,,,,,,,,,,,,,,,,,1,27,87,48,1,B,Y,N,o2_image,stimuli/out2.png,stimuli/out1.png,stimuli/correct_out2.png,,,,,,,,,,,,,,,,,,,,,,,,,,,,,,,,,,,,,,
,,659960b8a6b2c5c5a910dcf2,30,female,2024-04-19_13h37.30.164,stockport_simplified,2022.2.4,Win32,59.52380952,661e456ee6de07e70aa9ef7b,66229da4c253f2e6160966c6,,,,,,,,,,,,,,,,,,,,,,,,,,,,,,,,,,605.2868,607.2722,"[6,1,3,7,8,5,4,2]","[[0.3,0.2],[-0.3,0.2]]","[[-0.125,-0.2],[0.125,-0.2]]",0.166666667,-0.186111097,1,0,0,1.4816,o2_image,607.2743,1,607.7712,607.7712,609.7713,0,0,0,0,1,,,,,,,,,,,,,,,,,,,,,,,,,,,,,,,,,,,,,,,,,,,,,,,,,,
,,659960b8a6b2c5c5a910dcf2,30,female,2024-04-19_13h37.30.164,stockport_simplified,2022.2.4,Win32,59.52380952,661e456ee6de07e70aa9ef7b,66229da4c253f2e6160966c6,,,,,,,,,,,,,,,,,,,,,,,,,,,,,,,,,,,,,,,,,,,,,,,,,,,,,,,,1,28,88,47,1,B,Y,N,o2_image,stimuli/out2.png,stimuli/out1.png,stimuli/correct_out2.png,,,,,,,,,,,,,,,,,,,,,,,,,,,,,,,,,,,,,,
,,659960b8a6b2c5c5a910dcf2,30,female,2024-04-19_13h37.30.164,stockport_simplified,2022.2.4,Win32,59.52380952,661e456ee6de07e70aa9ef7b,66229da4c253f2e6160966c6,,,,,,,,,,,,,,,,,,,,,,,,,,,,,,,,,,609.7728,611.7073,"[6,1,3,7,8,5,4,2]","[[0.3,0.2],[-0.3,0.2]]","[[-0.125,-0.2],[0.125,-0.2]]",0.140740783,-0.187962991,1,0,0,1.4328,o2_image,611.709,0,612.2047,612.2048,614.2071,0,0,0,0,1,,,,,,,,,,,,,,,,,,,,,,,,,,,,,,,,,,,,,,,,,,,,,,,,,,
,,659960b8a6b2c5c5a910dcf2,30,female,2024-04-19_13h37.30.164,stockport_simplified,2022.2.4,Win32,59.52380952,661e456ee6de07e70aa9ef7b,66229da4c253f2e6160966c6,,,,,,,,,,,,,,,,,,,,,,,,,,,,,,,,,,,,,,,,,,,,,,,,,,,,,,,,1,29,89,8,1,A,Y,N,o1_image,stimuli/out1.png,stimuli/correct_out1.png,stimuli/out2.png,,,,,,,,,,,,,,,,,,,,,,,,,,,,,,,,,,,,,,
,,659960b8a6b2c5c5a910dcf2,30,female,2024-04-19_13h37.30.164,stockport_simplified,2022.2.4,Win32,59.52380952,661e456ee6de07e70aa9ef7b,66229da4c253f2e6160966c6,,,,,,,,,,,,,,,,,,,,,,,,,,,,,,,,,,614.2082,616.3058,"[6,1,3,7,8,5,4,2]","[[0.3,0.2],[-0.3,0.2]]","[[-0.125,-0.2],[0.125,-0.2]]",-0.099074046,-0.205555598,1,0,0,1.5816,o1_image,616.3078,1,616.8224,616.8224,618.8242,0,0,0,0,1,,,,,,,,,,,,,,,,,,,,,,,,,,,,,,,,,,,,,,,,,,,,,,,,,,
,,659960b8a6b2c5c5a910dcf2,30,female,2024-04-19_13h37.30.164,stockport_simplified,2022.2.4,Win32,59.52380952,661e456ee6de07e70aa9ef7b,66229da4c253f2e6160966c6,,,,,,,,,,,,,,,,,,,,,,,,,,,,,,,,,,,,,,,,,,,,,,,,,,,,,,,,1,30,90,6,1,A,Y,N,o1_image,stimuli/out1.png,stimuli/correct_out1.png,stimuli/out2.png,,,,,,,,,,,,,,,,,,,,,,,,,,,,,,,,,,,,,,
,,659960b8a6b2c5c5a910dcf2,30,female,2024-04-19_13h37.30.164,stockport_simplified,2022.2.4,Win32,59.52380952,661e456ee6de07e70aa9ef7b,66229da4c253f2e6160966c6,,,,,,,,,,,,,,,,,,,,,,,,,,,,,,,,,,618.8252,621.456,"[6,1,3,7,8,5,4,2]","[[0.3,0.2],[-0.3,0.2]]","[[-0.125,-0.2],[0.125,-0.2]]",0.12037037,-0.196296339,1,0,0,2.1146,o2_image,621.4584,1,621.9577,621.9577,623.9578,0,0,0,0,1,,,,,,,,,,,,,,,,,,,,,,,,,,,,,,,,,,,,,,,,,,,,,,,,,,
,,659960b8a6b2c5c5a910dcf2,30,female,2024-04-19_13h37.30.164,stockport_simplified,2022.2.4,Win32,59.52380952,661e456ee6de07e70aa9ef7b,66229da4c253f2e6160966c6,,,,,,,,,,,,,,,,,,,,,,,,,,,,,,,,,,,,,,,,,,,,,,,,,,,,,,,,1,31,91,17,1,B,Y,N,o2_image,stimuli/out2.png,stimuli/out1.png,stimuli/correct_out2.png,,,,,,,,,,,,,,,,,,,,,,,,,,,,,,,,,,,,,,
,,659960b8a6b2c5c5a910dcf2,30,female,2024-04-19_13h37.30.164,stockport_simplified,2022.2.4,Win32,59.52380952,661e456ee6de07e70aa9ef7b,66229da4c253f2e6160966c6,,,,,,,,,,,,,,,,,,,,,,,,,,,,,,,,,,623.9587,628.8081,"[6,1,3,7,8,5,4,2]","[[-0.3,0.2],[0.3,0.2]]","[[-0.125,-0.2],[0.125,-0.2]]",0.100000028,-0.181481467,1,0,0,4.3326,o2_image,628.8413,1,629.3414,629.3415,631.3415,0,0,0,0,1,,,,,,,,,,,,,,,,,,,,,,,,,,,,,,,,,,,,,,,,,,,,,,,,,,
,,659960b8a6b2c5c5a910dcf2,30,female,2024-04-19_13h37.30.164,stockport_simplified,2022.2.4,Win32,59.52380952,661e456ee6de07e70aa9ef7b,66229da4c253f2e6160966c6,,,,,,,,,,,,,,,,,,,,,,,,,,,,,,,,,,,,,,,,,,,,,,,,,,,,,,,,1,32,92,55,1,N,M,D,o2_image,stimuli/out2.png,stimuli/out1.png,stimuli/correct_out2.png,,,,,,,,,,,,,,,,,,,,,,,,,,,,,,,,,,,,,,
,,659960b8a6b2c5c5a910dcf2,30,female,2024-04-19_13h37.30.164,stockport_simplified,2022.2.4,Win32,59.52380952,661e456ee6de07e70aa9ef7b,66229da4c253f2e6160966c6,,,,,,,,,,,,,,,,,,,,,,,,,,,,,,,,,,631.3426,634.5249,"[6,1,3,7,8,5,4,2]","[[0.3,0.2],[-0.3,0.2]]","[[0.125,-0.2],[-0.125,-0.2]]",0.122222265,-0.222222222,1,0,0,2.6652,o1_image,634.5574,0,635.0557,635.0557,637.0584,0,0,0,0,1,,,,,,,,,,,,,,,,,,,,,,,,,,,,,,,,,,,,,,,,,,,,,,,,,,
,,659960b8a6b2c5c5a910dcf2,30,female,2024-04-19_13h37.30.164,stockport_simplified,2022.2.4,Win32,59.52380952,661e456ee6de07e70aa9ef7b,66229da4c253f2e6160966c6,,,,,,,,,,,,,,,,,,,,,,,,,,,,,,,,,,,,,,,,,,,,,,,,,,,,,,,,1,33,93,18,1,B,Y,N,o2_image,stimuli/out2.png,stimuli/out1.png,stimuli/correct_out2.png,,,,,,,,,,,,,,,,,,,,,,,,,,,,,,,,,,,,,,
,,659960b8a6b2c5c5a910dcf2,30,female,2024-04-19_13h37.30.164,stockport_simplified,2022.2.4,Win32,59.52380952,661e456ee6de07e70aa9ef7b,66229da4c253f2e6160966c6,,,,,,,,,,,,,,,,,,,,,,,,,,,,,,,,,,637.0594,639.8755,"[6,1,3,7,8,5,4,2]","[[0.3,0.2],[-0.3,0.2]]","[[-0.125,-0.2],[0.125,-0.2]]",-0.082407422,-0.181481467,1,0,0,2.2997,o1_image,639.8773,1,640.3752,640.3754,642.3754,0,0,0,0,1,,,,,,,,,,,,,,,,,,,,,,,,,,,,,,,,,,,,,,,,,,,,,,,,,,
,,659960b8a6b2c5c5a910dcf2,30,female,2024-04-19_13h37.30.164,stockport_simplified,2022.2.4,Win32,59.52380952,661e456ee6de07e70aa9ef7b,66229da4c253f2e6160966c6,,,,,,,,,,,,,,,,,,,,,,,,,,,,,,,,,,,,,,,,,,,,,,,,,,,,,,,,1,34,94,39,1,A,Y,N,o1_image,stimuli/out1.png,stimuli/correct_out1.png,stimuli/out2.png,,,,,,,,,,,,,,,,,,,,,,,,,,,,,,,,,,,,,,
,,659960b8a6b2c5c5a910dcf2,30,female,2024-04-19_13h37.30.164,stockport_simplified,2022.2.4,Win32,59.52380952,661e456ee6de07e70aa9ef7b,66229da4c253f2e6160966c6,,,,,,,,,,,,,,,,,,,,,,,,,,,,,,,,,,642.3767,645.7755,"[6,1,3,7,8,5,4,2]","[[0.3,0.2],[-0.3,0.2]]","[[0.125,-0.2],[-0.125,-0.2]]",0.103703746,-0.199999986,1,0,0,2.8821,o1_image,645.7776,0,646.273,646.2731,648.2618,0,0,0,0,1,,,,,,,,,,,,,,,,,,,,,,,,,,,,,,,,,,,,,,,,,,,,,,,,,,
,,659960b8a6b2c5c5a910dcf2,30,female,2024-04-19_13h37.30.164,stockport_simplified,2022.2.4,Win32,59.52380952,661e456ee6de07e70aa9ef7b,66229da4c253f2e6160966c6,,,,,,,,,,,,,,,,,,,,,,,,,,,,,,,,,,,,,,,,,,,,,,,,,,,,,,,,1,35,95,44,1,B,X,N,o2_image,stimuli/out2.png,stimuli/out1.png,stimuli/correct_out2.png,,,,,,,,,,,,,,,,,,,,,,,,,,,,,,,,,,,,,,
,,659960b8a6b2c5c5a910dcf2,30,female,2024-04-19_13h37.30.164,stockport_simplified,2022.2.4,Win32,59.52380952,661e456ee6de07e70aa9ef7b,66229da4c253f2e6160966c6,,,,,,,,,,,,,,,,,,,,,,,,,,,,,,,,,,648.2629,650.7244,"[6,1,3,7,8,5,4,2]","[[0.3,0.2],[-0.3,0.2]]","[[-0.125,-0.2],[0.125,-0.2]]",-0.117592564,-0.208333333,1,0,0,1.9466,o1_image,650.7264,1,651.2265,651.2266,653.226,0,0,0,0,1,,,,,,,,,,,,,,,,,,,,,,,,,,,,,,,,,,,,,,,,,,,,,,,,,,
,,659960b8a6b2c5c5a910dcf2,30,female,2024-04-19_13h37.30.164,stockport_simplified,2022.2.4,Win32,59.52380952,661e456ee6de07e70aa9ef7b,66229da4c253f2e6160966c6,,,,,,,,,,,,,,,,,,,,,,,,,,,,,,,,,,,,,,,,,,,,,,,,,,,,,,,,1,36,96,51,1,N,M,C,o1_image,stimuli/out1.png,stimuli/correct_out1.png,stimuli/out2.png,,,,,,,,,,,,,,,,,,,,,,,,,,,,,,,,,,,,,,
,,659960b8a6b2c5c5a910dcf2,30,female,2024-04-19_13h37.30.164,stockport_simplified,2022.2.4,Win32,59.52380952,661e456ee6de07e70aa9ef7b,66229da4c253f2e6160966c6,,,,,,,,,,,,,,,,,,,,,,,,,,,,,,,,,,653.227,656.6078,"[6,1,3,7,8,5,4,2]","[[-0.3,0.2],[0.3,0.2]]","[[-0.125,-0.2],[0.125,-0.2]]",0.103703746,-0.162962949,1,0,0,2.8639,o2_image,656.6398,0,657.1402,657.1403,659.143,0,0,0,0,1,,,,,,,,,,,,,,,,,,,,,,,,,,,,,,,,,,,,,,,,,,,,,,,,,,
,,659960b8a6b2c5c5a910dcf2,30,female,2024-04-19_13h37.30.164,stockport_simplified,2022.2.4,Win32,59.52380952,661e456ee6de07e70aa9ef7b,66229da4c253f2e6160966c6,,,,,,,,,,,,,,,,,,,,,,,,,,,,,,,,,,,,,,,,,,,,,,,,,,,,,,,,1,37,97,4,1,A,X,N,o1_image,stimuli/out1.png,stimuli/correct_out1.png,stimuli/out2.png,,,,,,,,,,,,,,,,,,,,,,,,,,,,,,,,,,,,,,
,,659960b8a6b2c5c5a910dcf2,30,female,2024-04-19_13h37.30.164,stockport_simplified,2022.2.4,Win32,59.52380952,661e456ee6de07e70aa9ef7b,66229da4c253f2e6160966c6,,,,,,,,,,,,,,,,,,,,,,,,,,,,,,,,,,659.144,662.4014,"[6,1,3,7,8,5,4,2]","[[0.3,0.2],[-0.3,0.2]]","[[0.125,-0.2],[-0.125,-0.2]]",-0.119444459,-0.184259273,1,0,0,2.7409,o2_image,662.4338,0,662.9266,662.9266,664.9266,0,0,0,0,1,,,,,,,,,,,,,,,,,,,,,,,,,,,,,,,,,,,,,,,,,,,,,,,,,,
,,659960b8a6b2c5c5a910dcf2,30,female,2024-04-19_13h37.30.164,stockport_simplified,2022.2.4,Win32,59.52380952,661e456ee6de07e70aa9ef7b,66229da4c253f2e6160966c6,,,,,,,,,,,,,,,,,,,,,,,,,,,,,,,,,,,,,,,,,,,,,,,,,,,,,,,,1,38,98,7,1,A,Y,N,o1_image,stimuli/out1.png,stimuli/correct_out1.png,stimuli/out2.png,,,,,,,,,,,,,,,,,,,,,,,,,,,,,,,,,,,,,,
,,659960b8a6b2c5c5a910dcf2,30,female,2024-04-19_13h37.30.164,stockport_simplified,2022.2.4,Win32,59.52380952,661e456ee6de07e70aa9ef7b,66229da4c253f2e6160966c6,,,,,,,,,,,,,,,,,,,,,,,,,,,,,,,,,,664.9276,667.1101,"[6,1,3,7,8,5,4,2]","[[-0.3,0.2],[0.3,0.2]]","[[0.125,-0.2],[-0.125,-0.2]]",0.095370399,-0.166666667,1,0,0,1.6659,o1_image,667.112,1,667.61,667.6101,669.6102,0,0,0,0,1,,,,,,,,,,,,,,,,,,,,,,,,,,,,,,,,,,,,,,,,,,,,,,,,,,
,,659960b8a6b2c5c5a910dcf2,30,female,2024-04-19_13h37.30.164,stockport_simplified,2022.2.4,Win32,59.52380952,661e456ee6de07e70aa9ef7b,66229da4c253f2e6160966c6,,,,,,,,,,,,,,,,,,,,,,,,,,,,,,,,,,,,,,,,,,,,,,,,,,,,,,,,1,39,99,23,1,N,M,C,o1_image,stimuli/out1.png,stimuli/correct_out1.png,stimuli/out2.png,,,,,,,,,,,,,,,,,,,,,,,,,,,,,,,,,,,,,,
,,659960b8a6b2c5c5a910dcf2,30,female,2024-04-19_13h37.30.164,stockport_simplified,2022.2.4,Win32,59.52380952,661e456ee6de07e70aa9ef7b,66229da4c253f2e6160966c6,,,,,,,,,,,,,,,,,,,,,,,,,,,,,,,,,,669.6112,673.3754,"[6,1,3,7,8,5,4,2]","[[-0.3,0.2],[0.3,0.2]]","[[0.125,-0.2],[-0.125,-0.2]]",0.110185199,-0.192592621,1,0,0,3.2474,o1_image,673.4071,1,673.9103,673.9104,675.9105,0,0,0,0,1,,,,,,,,,,,,,,,,,,,,,,,,,,,,,,,,,,,,,,,,,,,,,,,,,,
,,659960b8a6b2c5c5a910dcf2,30,female,2024-04-19_13h37.30.164,stockport_simplified,2022.2.4,Win32,59.52380952,661e456ee6de07e70aa9ef7b,66229da4c253f2e6160966c6,,,,,,,,,,,,,,,,,,,,,,,,,,,,,,,,,,,,,,,,,,,,,,,,,,,,,,,,1,40,100,32,1,A,X,N,o1_image,stimuli/out1.png,stimuli/correct_out1.png,stimuli/out2.png,,,,,,,,,,,,,,,,,,,,,,,,,,,,,,,,,,,,,,
,,659960b8a6b2c5c5a910dcf2,30,female,2024-04-19_13h37.30.164,stockport_simplified,2022.2.4,Win32,59.52380952,661e456ee6de07e70aa9ef7b,66229da4c253f2e6160966c6,,,,,,,,,,,,,,,,,,,,,,,,,,,,,,,,,,675.9115,678.3591,"[6,1,3,7,8,5,4,2]","[[-0.3,0.2],[0.3,0.2]]","[[-0.125,-0.2],[0.125,-0.2]]",0.121296282,-0.209259245,1,0,0,1.9306,o2_image,678.3615,1,678.8606,678.8607,680.8608,0,0,0,0,1,,,,,,,,,,,,,,,,,,,,,,,,,,,,,,,,,,,,,,,,,,,,,,,,,,
,,659960b8a6b2c5c5a910dcf2,30,female,2024-04-19_13h37.30.164,stockport_simplified,2022.2.4,Win32,59.52380952,661e456ee6de07e70aa9ef7b,66229da4c253f2e6160966c6,,,,,,,,,,,,,,,,,,,,,,,,,,,,,,,,,,,,,,,,,,,,,,,,,,,,,,,,1,41,101,25,1,N,M,D,o2_image,stimuli/out2.png,stimuli/out1.png,stimuli/correct_out2.png,,,,,,,,,,,,,,,,,,,,,,,,,,,,,,,,,,,,,,
,,659960b8a6b2c5c5a910dcf2,30,female,2024-04-19_13h37.30.164,stockport_simplified,2022.2.4,Win32,59.52380952,661e456ee6de07e70aa9ef7b,66229da4c253f2e6160966c6,,,,,,,,,,,,,,,,,,,,,,,,,,,,,,,,,,680.8621,683.5109,"[6,1,3,7,8,5,4,2]","[[0.3,0.2],[-0.3,0.2]]","[[0.125,-0.2],[-0.125,-0.2]]",-0.081481439,-0.179629644,1,0,0,2.1329,o2_image,683.5128,1,684.011,684.0111,686.011,0,0,0,0,1,,,,,,,,,,,,,,,,,,,,,,,,,,,,,,,,,,,,,,,,,,,,,,,,,,
,,659960b8a6b2c5c5a910dcf2,30,female,2024-04-19_13h37.30.164,stockport_simplified,2022.2.4,Win32,59.52380952,661e456ee6de07e70aa9ef7b,66229da4c253f2e6160966c6,,,,,,,,,,,,,,,,,,,,,,,,,,,,,,,,,,,,,,,,,,,,,,,,,,,,,,,,1,42,102,28,1,N,M,D,o2_image,stimuli/out2.png,stimuli/out1.png,stimuli/correct_out2.png,,,,,,,,,,,,,,,,,,,,,,,,,,,,,,,,,,,,,,
,,659960b8a6b2c5c5a910dcf2,30,female,2024-04-19_13h37.30.164,stockport_simplified,2022.2.4,Win32,59.52380952,661e456ee6de07e70aa9ef7b,66229da4c253f2e6160966c6,,,,,,,,,,,,,,,,,,,,,,,,,,,,,,,,,,686.0122,689.378,"[6,1,3,7,8,5,4,2]","[[0.3,0.2],[-0.3,0.2]]","[[-0.125,-0.2],[0.125,-0.2]]",0.09629631,-0.198148162,1,0,0,2.8492,o2_image,689.4098,0,689.9113,689.9113,691.9113,0,0,0,0,1,,,,,,,,,,,,,,,,,,,,,,,,,,,,,,,,,,,,,,,,,,,,,,,,,,
,,659960b8a6b2c5c5a910dcf2,30,female,2024-04-19_13h37.30.164,stockport_simplified,2022.2.4,Win32,59.52380952,661e456ee6de07e70aa9ef7b,66229da4c253f2e6160966c6,,,,,,,,,,,,,,,,,,,,,,,,,,,,,,,,,,,,,,,,,,,,,,,,,,,,,,,,1,43,103,1,1,A,X,N,o1_image,stimuli/out1.png,stimuli/correct_out1.png,stimuli/out2.png,,,,,,,,,,,,,,,,,,,,,,,,,,,,,,,,,,,,,,
,,659960b8a6b2c5c5a910dcf2,30,female,2024-04-19_13h37.30.164,stockport_simplified,2022.2.4,Win32,59.52380952,661e456ee6de07e70aa9ef7b,66229da4c253f2e6160966c6,,,,,,,,,,,,,,,,,,,,,,,,,,,,,,,,,,691.9123,694.2615,"[6,1,3,7,8,5,4,2]","[[-0.3,0.2],[0.3,0.2]]","[[-0.125,-0.2],[0.125,-0.2]]",-0.143518519,-0.172222208,1,0,0,1.8323,o1_image,694.2633,1,694.7617,694.7617,696.7615,0,0,0,0,1,,,,,,,,,,,,,,,,,,,,,,,,,,,,,,,,,,,,,,,,,,,,,,,,,,
,,659960b8a6b2c5c5a910dcf2,30,female,2024-04-19_13h37.30.164,stockport_simplified,2022.2.4,Win32,59.52380952,661e456ee6de07e70aa9ef7b,66229da4c253f2e6160966c6,,,,,,,,,,,,,,,,,,,,,,,,,,,,,,,,,,,,,,,,,,,,,,,,,,,,,,,,1,44,104,54,1,N,M,C,o1_image,stimuli/out1.png,stimuli/correct_out1.png,stimuli/out2.png,,,,,,,,,,,,,,,,,,,,,,,,,,,,,,,,,,,,,,
,,659960b8a6b2c5c5a910dcf2,30,female,2024-04-19_13h37.30.164,stockport_simplified,2022.2.4,Win32,59.52380952,661e456ee6de07e70aa9ef7b,66229da4c253f2e6160966c6,,,,,,,,,,,,,,,,,,,,,,,,,,,,,,,,,,696.7626,699.8454,"[6,1,3,7,8,5,4,2]","[[-0.3,0.2],[0.3,0.2]]","[[0.125,-0.2],[-0.125,-0.2]]",-0.143518519,-0.172222208,1,0,0,2.5655,o2_image,699.8472,1,700.3425,700.3426,702.3346,0,0,0,0,1,,,,,,,,,,,,,,,,,,,,,,,,,,,,,,,,,,,,,,,,,,,,,,,,,,
,,659960b8a6b2c5c5a910dcf2,30,female,2024-04-19_13h37.30.164,stockport_simplified,2022.2.4,Win32,59.52380952,661e456ee6de07e70aa9ef7b,66229da4c253f2e6160966c6,,,,,,,,,,,,,,,,,,,,,,,,,,,,,,,,,,,,,,,,,,,,,,,,,,,,,,,,1,45,105,14,1,B,X,N,o2_image,stimuli/out2.png,stimuli/out1.png,stimuli/correct_out2.png,,,,,,,,,,,,,,,,,,,,,,,,,,,,,,,,,,,,,,
,,659960b8a6b2c5c5a910dcf2,30,female,2024-04-19_13h37.30.164,stockport_simplified,2022.2.4,Win32,59.52380952,661e456ee6de07e70aa9ef7b,66229da4c253f2e6160966c6,,,,,,,,,,,,,,,,,,,,,,,,,,,,,,,,,,702.3357,706.829,"[6,1,3,7,8,5,4,2]","[[-0.3,0.2],[0.3,0.2]]","[[0.125,-0.2],[-0.125,-0.2]]",0.114814829,-0.183333362,1,0,0,3.983,o1_image,706.8619,1,707.3596,707.3596,709.3622,0,0,0,0,1,,,,,,,,,,,,,,,,,,,,,,,,,,,,,,,,,,,,,,,,,,,,,,,,,,
,,659960b8a6b2c5c5a910dcf2,30,female,2024-04-19_13h37.30.164,stockport_simplified,2022.2.4,Win32,59.52380952,661e456ee6de07e70aa9ef7b,66229da4c253f2e6160966c6,,,,,,,,,,,,,,,,,,,,,,,,,,,,,,,,,,,,,,,,,,,,,,,,,,,,,,,,1,46,106,37,1,A,Y,N,o1_image,stimuli/out1.png,stimuli/correct_out1.png,stimuli/out2.png,,,,,,,,,,,,,,,,,,,,,,,,,,,,,,,,,,,,,,
,,659960b8a6b2c5c5a910dcf2,30,female,2024-04-19_13h37.30.164,stockport_simplified,2022.2.4,Win32,59.52380952,661e456ee6de07e70aa9ef7b,66229da4c253f2e6160966c6,,,,,,,,,,,,,,,,,,,,,,,,,,,,,,,,,,709.3632,712.6611,"[6,1,3,7,8,5,4,2]","[[0.3,0.2],[-0.3,0.2]]","[[-0.125,-0.2],[0.125,-0.2]]",0.12037037,-0.173148191,1,0,0,2.7676,o2_image,712.6635,1,713.1599,713.1599,715.1625,0,0,0,0,1,,,,,,,,,,,,,,,,,,,,,,,,,,,,,,,,,,,,,,,,,,,,,,,,,,
,,659960b8a6b2c5c5a910dcf2,30,female,2024-04-19_13h37.30.164,stockport_simplified,2022.2.4,Win32,59.52380952,661e456ee6de07e70aa9ef7b,66229da4c253f2e6160966c6,,,,,,,,,,,,,,,,,,,,,,,,,,,,,,,,,,,,,,,,,,,,,,,,,,,,,,,,1,47,107,27,1,N,M,D,o2_image,stimuli/out2.png,stimuli/out1.png,stimuli/correct_out2.png,,,,,,,,,,,,,,,,,,,,,,,,,,,,,,,,,,,,,,
,,659960b8a6b2c5c5a910dcf2,30,female,2024-04-19_13h37.30.164,stockport_simplified,2022.2.4,Win32,59.52380952,661e456ee6de07e70aa9ef7b,66229da4c253f2e6160966c6,,,,,,,,,,,,,,,,,,,,,,,,,,,,,,,,,,715.1636,719.1137,"[6,1,3,7,8,5,4,2]","[[-0.3,0.2],[0.3,0.2]]","[[0.125,-0.2],[-0.125,-0.2]]",0.119444459,-0.196296339,1,0,0,3.4327,o1_image,719.1465,1,719.6363,719.6365,721.6296,0,0,0,0,1,,,,,,,,,,,,,,,,,,,,,,,,,,,,,,,,,,,,,,,,,,,,,,,,,,
,,659960b8a6b2c5c5a910dcf2,30,female,2024-04-19_13h37.30.164,stockport_simplified,2022.2.4,Win32,59.52380952,661e456ee6de07e70aa9ef7b,66229da4c253f2e6160966c6,,,,,,,,,,,,,,,,,,,,,,,,,,,,,,,,,,,,,,,,,,,,,,,,,,,,,,,,1,48,108,30,1,A,X,N,o1_image,stimuli/out1.png,stimuli/correct_out1.png,stimuli/out2.png,,,,,,,,,,,,,,,,,,,,,,,,,,,,,,,,,,,,,,
,,659960b8a6b2c5c5a910dcf2,30,female,2024-04-19_13h37.30.164,stockport_simplified,2022.2.4,Win32,59.52380952,661e456ee6de07e70aa9ef7b,66229da4c253f2e6160966c6,,,,,,,,,,,,,,,,,,,,,,,,,,,,,,,,,,721.6308,728.8633,"[6,1,3,7,8,5,4,2]","[[0.3,0.2],[-0.3,0.2]]","[[-0.125,-0.2],[0.125,-0.2]]",0.146296325,-0.183333362,1,0,0,6.716,o2_image,728.8977,1,729.3941,729.3941,731.3831,0,0,0,0,1,,,,,,,,,,,,,,,,,,,,,,,,,,,,,,,,,,,,,,,,,,,,,,,,,,
,,659960b8a6b2c5c5a910dcf2,30,female,2024-04-19_13h37.30.164,stockport_simplified,2022.2.4,Win32,59.52380952,661e456ee6de07e70aa9ef7b,66229da4c253f2e6160966c6,,,,,,,,,,,,,,,,,,,,,,,,,,,,,,,,,,,,,,,,,,,,,,,,,,,,,,,,1,49,109,46,1,B,Y,N,o2_image,stimuli/out2.png,stimuli/out1.png,stimuli/correct_out2.png,,,,,,,,,,,,,,,,,,,,,,,,,,,,,,,,,,,,,,
,,659960b8a6b2c5c5a910dcf2,30,female,2024-04-19_13h37.30.164,stockport_simplified,2022.2.4,Win32,59.52380952,661e456ee6de07e70aa9ef7b,66229da4c253f2e6160966c6,,,,,,,,,,,,,,,,,,,,,,,,,,,,,,,,,,731.3842,735.9094,"[6,1,3,7,8,5,4,2]","[[-0.3,0.2],[0.3,0.2]]","[[0.125,-0.2],[-0.125,-0.2]]",-0.101851852,-0.202777792,1,0,0,3.9986,o2_image,735.9426,1,736.4471,736.4472,738.4471,0,0,0,0,1,,,,,,,,,,,,,,,,,,,,,,,,,,,,,,,,,,,,,,,,,,,,,,,,,,
,,659960b8a6b2c5c5a910dcf2,30,female,2024-04-19_13h37.30.164,stockport_simplified,2022.2.4,Win32,59.52380952,661e456ee6de07e70aa9ef7b,66229da4c253f2e6160966c6,,,,,,,,,,,,,,,,,,,,,,,,,,,,,,,,,,,,,,,,,,,,,,,,,,,,,,,,1,50,110,45,1,B,Y,N,o2_image,stimuli/out2.png,stimuli/out1.png,stimuli/correct_out2.png,,,,,,,,,,,,,,,,,,,,,,,,,,,,,,,,,,,,,,
,,659960b8a6b2c5c5a910dcf2,30,female,2024-04-19_13h37.30.164,stockport_simplified,2022.2.4,Win32,59.52380952,661e456ee6de07e70aa9ef7b,66229da4c253f2e6160966c6,,,,,,,,,,,,,,,,,,,,,,,,,,,,,,,,,,738.4481,740.6456,"[6,1,3,7,8,5,4,2]","[[0.3,0.2],[-0.3,0.2]]","[[0.125,-0.2],[-0.125,-0.2]]",0.131481524,-0.150000042,1,0,0,1.6804,o1_image,740.6478,1,741.1499,741.1499,743.1476,0,0,0,0,1,,,,,,,,,,,,,,,,,,,,,,,,,,,,,,,,,,,,,,,,,,,,,,,,,,
,,659960b8a6b2c5c5a910dcf2,30,female,2024-04-19_13h37.30.164,stockport_simplified,2022.2.4,Win32,59.52380952,661e456ee6de07e70aa9ef7b,66229da4c253f2e6160966c6,,,,,,,,,,,,,,,,,,,,,,,,,,,,,,,,,,,,,,,,,,,,,,,,,,,,,,,,1,51,111,50,1,N,M,C,o1_image,stimuli/out1.png,stimuli/correct_out1.png,stimuli/out2.png,,,,,,,,,,,,,,,,,,,,,,,,,,,,,,,,,,,,,,
,,659960b8a6b2c5c5a910dcf2,30,female,2024-04-19_13h37.30.164,stockport_simplified,2022.2.4,Win32,59.52380952,661e456ee6de07e70aa9ef7b,66229da4c253f2e6160966c6,,,,,,,,,,,,,,,,,,,,,,,,,,,,,,,,,,743.1486,745.982,"[6,1,3,7,8,5,4,2]","[[-0.3,0.2],[0.3,0.2]]","[[-0.125,-0.2],[0.125,-0.2]]",0.14907406,-0.162962949,1,0,0,2.3167,o2_image,745.9837,1,746.4811,746.4812,748.481,0,0,0,0,1,,,,,,,,,,,,,,,,,,,,,,,,,,,,,,,,,,,,,,,,,,,,,,,,,,
,,659960b8a6b2c5c5a910dcf2,30,female,2024-04-19_13h37.30.164,stockport_simplified,2022.2.4,Win32,59.52380952,661e456ee6de07e70aa9ef7b,66229da4c253f2e6160966c6,,,,,,,,,,,,,,,,,,,,,,,,,,,,,,,,,,,,,,,,,,,,,,,,,,,,,,,,1,52,112,59,1,N,M,D,o2_image,stimuli/out2.png,stimuli/out1.png,stimuli/correct_out2.png,,,,,,,,,,,,,,,,,,,,,,,,,,,,,,,,,,,,,,
,,659960b8a6b2c5c5a910dcf2,30,female,2024-04-19_13h37.30.164,stockport_simplified,2022.2.4,Win32,59.52380952,661e456ee6de07e70aa9ef7b,66229da4c253f2e6160966c6,,,,,,,,,,,,,,,,,,,,,,,,,,,,,,,,,,748.4819,752.0896,"[6,1,3,7,8,5,4,2]","[[0.3,0.2],[-0.3,0.2]]","[[-0.125,-0.2],[0.125,-0.2]]",-0.099074046,-0.137962977,1,0,0,3.091,o1_image,752.1224,1,752.6146,752.6147,754.6149,0,0,0,0,1,,,,,,,,,,,,,,,,,,,,,,,,,,,,,,,,,,,,,,,,,,,,,,,,,,
,,659960b8a6b2c5c5a910dcf2,30,female,2024-04-19_13h37.30.164,stockport_simplified,2022.2.4,Win32,59.52380952,661e456ee6de07e70aa9ef7b,66229da4c253f2e6160966c6,,,,,,,,,,,,,,,,,,,,,,,,,,,,,,,,,,,,,,,,,,,,,,,,,,,,,,,,1,53,113,36,1,A,Y,N,o1_image,stimuli/out1.png,stimuli/correct_out1.png,stimuli/out2.png,,,,,,,,,,,,,,,,,,,,,,,,,,,,,,,,,,,,,,
,,659960b8a6b2c5c5a910dcf2,30,female,2024-04-19_13h37.30.164,stockport_simplified,2022.2.4,Win32,59.52380952,661e456ee6de07e70aa9ef7b,66229da4c253f2e6160966c6,,,,,,,,,,,,,,,,,,,,,,,,,,,,,,,,,,754.6158,757.4212,"[6,1,3,7,8,5,4,2]","[[-0.3,0.2],[0.3,0.2]]","[[-0.125,-0.2],[0.125,-0.2]]",0.071296339,-0.224074116,1,0,0,2.2892,o2_image,757.4534,0,757.9482,757.9484,759.9484,0,0,0,0,1,,,,,,,,,,,,,,,,,,,,,,,,,,,,,,,,,,,,,,,,,,,,,,,,,,
,,659960b8a6b2c5c5a910dcf2,30,female,2024-04-19_13h37.30.164,stockport_simplified,2022.2.4,Win32,59.52380952,661e456ee6de07e70aa9ef7b,66229da4c253f2e6160966c6,,,,,,,,,,,,,,,,,,,,,,,,,,,,,,,,,,,,,,,,,,,,,,,,,,,,,,,,1,54,114,34,1,A,X,N,o1_image,stimuli/out1.png,stimuli/correct_out1.png,stimuli/out2.png,,,,,,,,,,,,,,,,,,,,,,,,,,,,,,,,,,,,,,
,,659960b8a6b2c5c5a910dcf2,30,female,2024-04-19_13h37.30.164,stockport_simplified,2022.2.4,Win32,59.52380952,661e456ee6de07e70aa9ef7b,66229da4c253f2e6160966c6,,,,,,,,,,,,,,,,,,,,,,,,,,,,,,,,,,759.9493,762.8654,"[6,1,3,7,8,5,4,2]","[[0.3,0.2],[-0.3,0.2]]","[[-0.125,-0.2],[0.125,-0.2]]",-0.12037037,-0.18240745,1,0,0,2.3998,o1_image,762.8671,0,763.3793,763.3794,765.3819,0,0,0,0,1,,,,,,,,,,,,,,,,,,,,,,,,,,,,,,,,,,,,,,,,,,,,,,,,,,
,,659960b8a6b2c5c5a910dcf2,30,female,2024-04-19_13h37.30.164,stockport_simplified,2022.2.4,Win32,59.52380952,661e456ee6de07e70aa9ef7b,66229da4c253f2e6160966c6,,,,,,,,,,,,,,,,,,,,,,,,,,,,,,,,,,,,,,,,,,,,,,,,,,,,,,,,1,55,115,11,1,B,X,N,o2_image,stimuli/out2.png,stimuli/out1.png,stimuli/correct_out2.png,,,,,,,,,,,,,,,,,,,,,,,,,,,,,,,,,,,,,,
,,659960b8a6b2c5c5a910dcf2,30,female,2024-04-19_13h37.30.164,stockport_simplified,2022.2.4,Win32,59.52380952,661e456ee6de07e70aa9ef7b,66229da4c253f2e6160966c6,,,,,,,,,,,,,,,,,,,,,,,,,,,,,,,,,,765.3828,768.5882,"[6,1,3,7,8,5,4,2]","[[-0.3,0.2],[0.3,0.2]]","[[0.125,-0.2],[-0.125,-0.2]]",-0.121296282,-0.213888875,1,0,0,2.6888,o2_image,768.5898,0,769.0794,769.0795,771.0823,0,0,0,0,1,,,,,,,,,,,,,,,,,,,,,,,,,,,,,,,,,,,,,,,,,,,,,,,,,,
,,659960b8a6b2c5c5a910dcf2,30,female,2024-04-19_13h37.30.164,stockport_simplified,2022.2.4,Win32,59.52380952,661e456ee6de07e70aa9ef7b,66229da4c253f2e6160966c6,,,,,,,,,,,,,,,,,,,,,,,,,,,,,,,,,,,,,,,,,,,,,,,,,,,,,,,,1,56,116,2,1,A,X,N,o1_image,stimuli/out1.png,stimuli/correct_out1.png,stimuli/out2.png,,,,,,,,,,,,,,,,,,,,,,,,,,,,,,,,,,,,,,
,,659960b8a6b2c5c5a910dcf2,30,female,2024-04-19_13h37.30.164,stockport_simplified,2022.2.4,Win32,59.52380952,661e456ee6de07e70aa9ef7b,66229da4c253f2e6160966c6,,,,,,,,,,,,,,,,,,,,,,,,,,,,,,,,,,771.0833,774.8474,"[6,1,3,7,8,5,4,2]","[[-0.3,0.2],[0.3,0.2]]","[[-0.125,-0.2],[0.125,-0.2]]",-0.09629631,-0.22129631,1,0,0,3.2477,o1_image,774.8793,0,775.3826,775.3826,777.3826,0,0,0,0,1,,,,,,,,,,,,,,,,,,,,,,,,,,,,,,,,,,,,,,,,,,,,,,,,,,
,,659960b8a6b2c5c5a910dcf2,30,female,2024-04-19_13h37.30.164,stockport_simplified,2022.2.4,Win32,59.52380952,661e456ee6de07e70aa9ef7b,66229da4c253f2e6160966c6,,,,,,,,,,,,,,,,,,,,,,,,,,,,,,,,,,,,,,,,,,,,,,,,,,,,,,,,1,57,117,43,1,B,X,N,o2_image,stimuli/out2.png,stimuli/out1.png,stimuli/correct_out2.png,,,,,,,,,,,,,,,,,,,,,,,,,,,,,,,,,,,,,,
,,659960b8a6b2c5c5a910dcf2,30,female,2024-04-19_13h37.30.164,stockport_simplified,2022.2.4,Win32,59.52380952,661e456ee6de07e70aa9ef7b,66229da4c253f2e6160966c6,,,,,,,,,,,,,,,,,,,,,,,,,,,,,,,,,,777.3837,780.5078,"[6,1,3,7,8,5,4,2]","[[0.3,0.2],[-0.3,0.2]]","[[-0.125,-0.2],[0.125,-0.2]]",0.122222265,-0.185185185,1,0,0,2.6082,o2_image,780.5094,1,781.0139,781.014,783.0163,0,0,0,0,1,,,,,,,,,,,,,,,,,,,,,,,,,,,,,,,,,,,,,,,,,,,,,,,,,,
,,659960b8a6b2c5c5a910dcf2,30,female,2024-04-19_13h37.30.164,stockport_simplified,2022.2.4,Win32,59.52380952,661e456ee6de07e70aa9ef7b,66229da4c253f2e6160966c6,,,,,,,,,,,,,,,,,,,,,,,,,,,,,,,,,,,,,,,,,,,,,,,,,,,,,,,,1,58,118,41,1,B,X,N,o2_image,stimuli/out2.png,stimuli/out1.png,stimuli/correct_out2.png,,,,,,,,,,,,,,,,,,,,,,,,,,,,,,,,,,,,,,
,,659960b8a6b2c5c5a910dcf2,30,female,2024-04-19_13h37.30.164,stockport_simplified,2022.2.4,Win32,59.52380952,661e456ee6de07e70aa9ef7b,66229da4c253f2e6160966c6,,,,,,,,,,,,,,,,,,,,,,,,,,,,,,,,,,783.0172,785.7164,"[6,1,3,7,8,5,4,2]","[[0.3,0.2],[-0.3,0.2]]","[[0.125,-0.2],[-0.125,-0.2]]",-0.10555557,-0.193518533,1,0,0,2.1822,o2_image,785.7493,1,786.2411,786.2412,788.2332,0,0,0,0,1,,,,,,,,,,,,,,,,,,,,,,,,,,,,,,,,,,,,,,,,,,,,,,,,,,
,,659960b8a6b2c5c5a910dcf2,30,female,2024-04-19_13h37.30.164,stockport_simplified,2022.2.4,Win32,59.52380952,661e456ee6de07e70aa9ef7b,66229da4c253f2e6160966c6,,,,,,,,,,,,,,,,,,,,,,,,,,,,,,,,,,,,,,,,,,,,,,,,,,,,,,,,1,59,119,58,1,N,M,D,o2_image,stimuli/out2.png,stimuli/out1.png,stimuli/correct_out2.png,,,,,,,,,,,,,,,,,,,,,,,,,,,,,,,,,,,,,,
,,659960b8a6b2c5c5a910dcf2,30,female,2024-04-19_13h37.30.164,stockport_simplified,2022.2.4,Win32,59.52380952,661e456ee6de07e70aa9ef7b,66229da4c253f2e6160966c6,,,,,,,,,,,,,,,,,,,,,,,,,,,,,,,,,,788.2823,790.617,"[6,1,3,7,8,5,4,2]","[[-0.3,0.2],[0.3,0.2]]","[[-0.125,-0.2],[0.125,-0.2]]",-0.12962963,-0.194444444,1,0,0,1.8328,o1_image,790.6195,1,791.114,791.1141,793.1168,,,,,,,,,,,,,,,,,,0,0,0,0,1,,,,,,,,,,,,,,,,,,,,,,,,,,,,,,,,,
,,659960b8a6b2c5c5a910dcf2,30,female,2024-04-19_13h37.30.164,stockport_simplified,2022.2.4,Win32,59.52380952,661e456ee6de07e70aa9ef7b,66229da4c253f2e6160966c6,,,,,,,,,,,,,,,,,,,,,,,,,,,,,,,,,,,,,,,,,,,,,,,,,,,,,,,,,,,,,N,M,C,o1_image,stimuli/out1.png,stimuli/correct_out1.png,stimuli/out2.png,,,,,,0,0,0,45,1,,,,,,,,,,,,,,,,,,,,,,,,,,,,
,,659960b8a6b2c5c5a910dcf2,30,female,2024-04-19_13h37.30.164,stockport_simplified,2022.2.4,Win32,59.52380952,661e456ee6de07e70aa9ef7b,66229da4c253f2e6160966c6,,,,,,,,,,,,,,,,,,,,,,,,,,,,,,,,,,793.1187,797.9171,"[6,1,3,7,8,5,4,2]","[[-0.3,0.2],[0.3,0.2]]","[[-0.125,-0.2],[0.125,-0.2]]",0.079629616,-0.207407422,1,0,0,4.2827,o2_image,797.9505,1,798.4476,798.4477,800.4505,,,,,,,,,,,,,,,,,,0,0,0,0,1,,,,,,,,,,,,,,,,,,,,,,,,,,,,,,,,,
,,659960b8a6b2c5c5a910dcf2,30,female,2024-04-19_13h37.30.164,stockport_simplified,2022.2.4,Win32,59.52380952,661e456ee6de07e70aa9ef7b,66229da4c253f2e6160966c6,,,,,,,,,,,,,,,,,,,,,,,,,,,,,,,,,,,,,,,,,,,,,,,,,,,,,,,,,,,,,B,Y,N,o2_image,stimuli/out2.png,stimuli/out1.png,stimuli/correct_out2.png,,,,,,0,1,1,38,1,,,,,,,,,,,,,,,,,,,,,,,,,,,,
,,659960b8a6b2c5c5a910dcf2,30,female,2024-04-19_13h37.30.164,stockport_simplified,2022.2.4,Win32,59.52380952,661e456ee6de07e70aa9ef7b,66229da4c253f2e6160966c6,,,,,,,,,,,,,,,,,,,,,,,,,,,,,,,,,,800.4515,803.2324,"[6,1,3,7,8,5,4,2]","[[0.3,0.2],[-0.3,0.2]]","[[0.125,-0.2],[-0.125,-0.2]]",0.126851894,-0.205555598,1,0,0,2.2644,o1_image,803.2349,1,803.7341,803.7341,805.7224,,,,,,,,,,,,,,,,,,0,0,0,0,1,,,,,,,,,,,,,,,,,,,,,,,,,,,,,,,,,
,,659960b8a6b2c5c5a910dcf2,30,female,2024-04-19_13h37.30.164,stockport_simplified,2022.2.4,Win32,59.52380952,661e456ee6de07e70aa9ef7b,66229da4c253f2e6160966c6,,,,,,,,,,,,,,,,,,,,,,,,,,,,,,,,,,,,,,,,,,,,,,,,,,,,,,,,,,,,,A,Y,N,o1_image,stimuli/out1.png,stimuli/correct_out1.png,stimuli/out2.png,,,,,,0,2,2,12,1,,,,,,,,,,,,,,,,,,,,,,,,,,,,
,,659960b8a6b2c5c5a910dcf2,30,female,2024-04-19_13h37.30.164,stockport_simplified,2022.2.4,Win32,59.52380952,661e456ee6de07e70aa9ef7b,66229da4c253f2e6160966c6,,,,,,,,,,,,,,,,,,,,,,,,,,,,,,,,,,805.7235,810.1009,"[6,1,3,7,8,5,4,2]","[[-0.3,0.2],[0.3,0.2]]","[[0.125,-0.2],[-0.125,-0.2]]",-0.117592564,-0.193518533,1,0,0,3.866,o2_image,810.1329,1,810.6319,810.632,812.6345,,,,,,,,,,,,,,,,,,0,0,0,0,1,,,,,,,,,,,,,,,,,,,,,,,,,,,,,,,,,
