counterbalance_2.started,counterbalance_2.stopped,participant,age,gender,date,expName,psychopyVersion,OS,frameRate,STUDY_ID,SESSION_ID,information_2.started,information_2.stopped,information_loop.thisRepN,information_loop.thisTrialN,information_loop.thisN,information_loop.thisIndex,information_loop.ran,information,consent_2.started,consent_2.stopped,slider_1.response,slider_2.response,slider_3.response,slider_4.response,slider_5.response,slider_6.response,instructions.started,instructions.stopped,task1_instr.thisRepN,task1_instr.thisTrialN,task1_instr.thisN,task1_instr.thisIndex,task1_instr.ran,task1,comprehension1_2.started,comprehension1_2.stopped,comp1_mouse.x,comp1_mouse.y,comp1_mouse.leftButton,comp1_mouse.midButton,comp1_mouse.rightButton,comp1_mouse.time,comp1_mouse.clicked_name,cue_o__trial_2.started,cue_o__trial_2.stopped,order,cue_order,out_order,cue_o_mouse.x,cue_o_mouse.y,cue_o_mouse.leftButton,cue_o_mouse.midButton,cue_o_mouse.rightButton,cue_o_mouse.time,cue_o_mouse.clicked_name,cue_selection_2.started,correct_answer,cue_selection_2.stopped,feedback_2.started,feedback_2.stopped,feedback_loop.thisRepN,feedback_loop.thisTrialN,feedback_loop.thisN,feedback_loop.thisIndex,feedback_loop.ran,stage1_trials.thisRepN,stage1_trials.thisTrialN,stage1_trials.thisN,stage1_trials.thisIndex,stage1_trials.ran,cue1,cue2,cue3,outcome,correct_out,o1_feedback,o2_feedback,stage2_feedback_loop.thisRepN,stage2_feedback_loop.thisTrialN,stage2_feedback_loop.thisN,stage2_feedback_loop.thisIndex,stage2_feedback_loop.ran,stage2_trials.thisRepN,stage2_trials.thisTrialN,stage2_trials.thisN,stage2_trials.thisIndex,stage2_trials.ran,stage3_feedback_loop.thisRepN,stage3_feedback_loop.thisTrialN,stage3_feedback_loop.thisN,stage3_feedback_loop.thisIndex,stage3_feedback_loop.ran,stage3_trials.thisRepN,stage3_trials.thisTrialN,stage3_trials.thisN,stage3_trials.thisIndex,stage3_trials.ran,debrief_2.started,debrief_2.stopped,debrief_loop.thisRepN,debrief_loop.thisTrialN,debrief_loop.thisN,debrief_loop.thisIndex,debrief_loop.ran,debrief_img,compr1_completed.thisRepN,compr1_completed.thisTrialN,compr1_completed.thisN,compr1_completed.thisIndex,compr1_completed.ran,consent_loop.thisRepN,consent_loop.thisTrialN,consent_loop.thisN,consent_loop.thisIndex,consent_loop.ran
0.0005,0.0015,5b278c153a20420001efd41b,46,female,2024-04-19_17h37.32.958,stockport_simplified,2022.2.4,MacIntel,60.60606061,661e456ee6de07e70aa9ef7b,66229da778e355f7ac8acefe,,,,,,,,,,,,,,,,,,,,,,,,,,,,,,,,,,,,,,,,,,,,,,,,,,,,,,,,,,,,,,,,,,,,,,,,,,,,,,,,,,,,,,,,,,,,,,,,,,,,,,,,,
,,5b278c153a20420001efd41b,46,female,2024-04-19_17h37.32.958,stockport_simplified,2022.2.4,MacIntel,60.60606061,661e456ee6de07e70aa9ef7b,66229da778e355f7ac8acefe,0.0775,20.8738,0,0,0,0,1,instructions/info1.png,,,,,,,,,,,,,,,,,,,,,,,,,,,,,,,,,,,,,,,,,,,,,,,,,,,,,,,,,,,,,,,,,,,,,,,,,,,,,,,,,,,,,,,,,,,,,,,,,
,,5b278c153a20420001efd41b,46,female,2024-04-19_17h37.32.958,stockport_simplified,2022.2.4,MacIntel,60.60606061,661e456ee6de07e70aa9ef7b,66229da778e355f7ac8acefe,20.8747,33.4395,0,1,1,1,1,instructions/info2.png,,,,,,,,,,,,,,,,,,,,,,,,,,,,,,,,,,,,,,,,,,,,,,,,,,,,,,,,,,,,,,,,,,,,,,,,,,,,,,,,,,,,,,,,,,,,,,,,,
,,5b278c153a20420001efd41b,46,female,2024-04-19_17h37.32.958,stockport_simplified,2022.2.4,MacIntel,60.60606061,661e456ee6de07e70aa9ef7b,66229da778e355f7ac8acefe,33.4399,46.9926,0,2,2,2,1,instructions/info3.png,,,,,,,,,,,,,,,,,,,,,,,,,,,,,,,,,,,,,,,,,,,,,,,,,,,,,,,,,,,,,,,,,,,,,,,,,,,,,,,,,,,,,,,,,,,,,,,,,
,,5b278c153a20420001efd41b,46,female,2024-04-19_17h37.32.958,stockport_simplified,2022.2.4,MacIntel,60.60606061,661e456ee6de07e70aa9ef7b,66229da778e355f7ac8acefe,,,,,,,,,46.9932,81.8195,1,1,1,1,1,1,,,,,,,,,,,,,,,,,,,,,,,,,,,,,,,,,,,,,,,,,,,,,,,,,,,,,,,,,,,,,,,,,,,,,,,,,,,,,,,,,,,,,,,,,
,,5b278c153a20420001efd41b,46,female,2024-04-19_17h37.32.958,stockport_simplified,2022.2.4,MacIntel,60.60606061,661e456ee6de07e70aa9ef7b,66229da778e355f7ac8acefe,,,,,,,,,,,,,,,,,81.8475,103.5612,0,0,0,0,1,instructions/task1_1.png,,,,,,,,,,,,,,,,,,,,,,,,,,,,,,,,,,,,,,,,,,,,,,,,,,,,,,,,,,,,,,,,,,,,,,,,,,,,,,,,,
,,5b278c153a20420001efd41b,46,female,2024-04-19_17h37.32.958,stockport_simplified,2022.2.4,MacIntel,60.60606061,661e456ee6de07e70aa9ef7b,66229da778e355f7ac8acefe,,,,,,,,,,,,,,,,,103.5737,127.9254,0,1,1,1,1,instructions/task1_2.png,,,,,,,,,,,,,,,,,,,,,,,,,,,,,,,,,,,,,,,,,,,,,,,,,,,,,,,,,,,,,,,,,,,,,,,,,,,,,,,,,
,,5b278c153a20420001efd41b,46,female,2024-04-19_17h37.32.958,stockport_simplified,2022.2.4,MacIntel,60.60606061,661e456ee6de07e70aa9ef7b,66229da778e355f7ac8acefe,,,,,,,,,,,,,,,,,127.9405,146.8093,0,2,2,2,1,instructions/task1_3.png,,,,,,,,,,,,,,,,,,,,,,,,,,,,,,,,,,,,,,,,,,,,,,,,,,,,,,,,,,,,,,,,,,,,,,,,,,,,,,,,,
,,5b278c153a20420001efd41b,46,female,2024-04-19_17h37.32.958,stockport_simplified,2022.2.4,MacIntel,60.60606061,661e456ee6de07e70aa9ef7b,66229da778e355f7ac8acefe,,,,,,,,,,,,,,,,,,,,,,,,,146.8416,168.9681,0.215761041,-0.323308648,1,0,0,22.1257,comp1_resp1,168.996,173.0798,"[7,1,2,8,3,5,4,6]","[[-0.3,0.2],[0.3,0.2]]","[[-0.125,-0.2],[0.125,-0.2]]",-0.104684448,-0.235097114,1,0,0,3.5755,o1_image,173.1126,1,173.6145,173.6147,175.6028,0,0,0,0,1,,,,,,,,,,,,,,,,,,,,,,,,,,,,,,,,,,,,,,,,,,,,,,,,,,
,,5b278c153a20420001efd41b,46,female,2024-04-19_17h37.32.958,stockport_simplified,2022.2.4,MacIntel,60.60606061,661e456ee6de07e70aa9ef7b,66229da778e355f7ac8acefe,,,,,,,,,,,,,,,,,,,,,,,,,,,,,,,,,,,,,,,,,,,,,,,,,,,,,,,,0,0,0,1,1,A,X,N,o1_image,stimuli/out1.png,stimuli/correct_out1.png,stimuli/out2.png,,,,,,,,,,,,,,,,,,,,,,,,,,,,,,,,,,,,,,
,,5b278c153a20420001efd41b,46,female,2024-04-19_17h37.32.958,stockport_simplified,2022.2.4,MacIntel,60.60606061,661e456ee6de07e70aa9ef7b,66229da778e355f7ac8acefe,,,,,,,,,,,,,,,,,,,,,,,,,,,,,,,,,,175.6035,178.0421,"[7,1,2,8,3,5,4,6]","[[0.3,0.2],[-0.3,0.2]]","[[0.125,-0.2],[-0.125,-0.2]]",0.125421482,-0.234032932,1,0,0,1.9372,o1_image,178.0428,0,178.5435,178.5436,180.5326,0,0,0,0,1,,,,,,,,,,,,,,,,,,,,,,,,,,,,,,,,,,,,,,,,,,,,,,,,,,
,,5b278c153a20420001efd41b,46,female,2024-04-19_17h37.32.958,stockport_simplified,2022.2.4,MacIntel,60.60606061,661e456ee6de07e70aa9ef7b,66229da778e355f7ac8acefe,,,,,,,,,,,,,,,,,,,,,,,,,,,,,,,,,,,,,,,,,,,,,,,,,,,,,,,,0,1,1,28,1,N,M,D,o2_image,stimuli/out2.png,stimuli/out1.png,stimuli/correct_out2.png,,,,,,,,,,,,,,,,,,,,,,,,,,,,,,,,,,,,,,
,,5b278c153a20420001efd41b,46,female,2024-04-19_17h37.32.958,stockport_simplified,2022.2.4,MacIntel,60.60606061,661e456ee6de07e70aa9ef7b,66229da778e355f7ac8acefe,,,,,,,,,,,,,,,,,,,,,,,,,,,,,,,,,,180.5331,183.407,"[7,1,2,8,3,5,4,6]","[[-0.3,0.2],[0.3,0.2]]","[[0.125,-0.2],[-0.125,-0.2]]",0.116819458,-0.220204468,1,0,0,2.3562,o1_image,183.4207,1,183.9249,183.925,185.9138,0,0,0,0,1,,,,,,,,,,,,,,,,,,,,,,,,,,,,,,,,,,,,,,,,,,,,,,,,,,
,,5b278c153a20420001efd41b,46,female,2024-04-19_17h37.32.958,stockport_simplified,2022.2.4,MacIntel,60.60606061,661e456ee6de07e70aa9ef7b,66229da778e355f7ac8acefe,,,,,,,,,,,,,,,,,,,,,,,,,,,,,,,,,,,,,,,,,,,,,,,,,,,,,,,,0,2,2,54,1,N,M,C,o1_image,stimuli/out1.png,stimuli/correct_out1.png,stimuli/out2.png,,,,,,,,,,,,,,,,,,,,,,,,,,,,,,,,,,,,,,
,,5b278c153a20420001efd41b,46,female,2024-04-19_17h37.32.958,stockport_simplified,2022.2.4,MacIntel,60.60606061,661e456ee6de07e70aa9ef7b,66229da778e355f7ac8acefe,,,,,,,,,,,,,,,,,,,,,,,,,,,,,,,,,,185.9143,190.4748,"[7,1,2,8,3,5,4,6]","[[0.3,0.2],[-0.3,0.2]]","[[-0.125,-0.2],[0.125,-0.2]]",-0.11089464,-0.191164144,1,0,0,4.043,o1_image,190.4893,1,190.9938,190.9938,192.9824,0,0,0,0,1,,,,,,,,,,,,,,,,,,,,,,,,,,,,,,,,,,,,,,,,,,,,,,,,,,
,,5b278c153a20420001efd41b,46,female,2024-04-19_17h37.32.958,stockport_simplified,2022.2.4,MacIntel,60.60606061,661e456ee6de07e70aa9ef7b,66229da778e355f7ac8acefe,,,,,,,,,,,,,,,,,,,,,,,,,,,,,,,,,,,,,,,,,,,,,,,,,,,,,,,,0,3,3,9,1,A,Y,N,o1_image,stimuli/out1.png,stimuli/correct_out1.png,stimuli/out2.png,,,,,,,,,,,,,,,,,,,,,,,,,,,,,,,,,,,,,,
,,5b278c153a20420001efd41b,46,female,2024-04-19_17h37.32.958,stockport_simplified,2022.2.4,MacIntel,60.60606061,661e456ee6de07e70aa9ef7b,66229da778e355f7ac8acefe,,,,,,,,,,,,,,,,,,,,,,,,,,,,,,,,,,192.9829,195.3054,"[7,1,2,8,3,5,4,6]","[[0.3,0.2],[-0.3,0.2]]","[[-0.125,-0.2],[0.125,-0.2]]",0.117776015,-0.219973416,1,0,0,1.8219,o2_image,195.3203,1,195.8233,195.8234,197.812,0,0,0,0,1,,,,,,,,,,,,,,,,,,,,,,,,,,,,,,,,,,,,,,,,,,,,,,,,,,
,,5b278c153a20420001efd41b,46,female,2024-04-19_17h37.32.958,stockport_simplified,2022.2.4,MacIntel,60.60606061,661e456ee6de07e70aa9ef7b,66229da778e355f7ac8acefe,,,,,,,,,,,,,,,,,,,,,,,,,,,,,,,,,,,,,,,,,,,,,,,,,,,,,,,,0,4,4,56,1,N,M,D,o2_image,stimuli/out2.png,stimuli/out1.png,stimuli/correct_out2.png,,,,,,,,,,,,,,,,,,,,,,,,,,,,,,,,,,,,,,
,,5b278c153a20420001efd41b,46,female,2024-04-19_17h37.32.958,stockport_simplified,2022.2.4,MacIntel,60.60606061,661e456ee6de07e70aa9ef7b,66229da778e355f7ac8acefe,,,,,,,,,,,,,,,,,,,,,,,,,,,,,,,,,,197.8125,200.0509,"[7,1,2,8,3,5,4,6]","[[0.3,0.2],[-0.3,0.2]]","[[0.125,-0.2],[-0.125,-0.2]]",0.127995945,-0.186577081,1,0,0,1.7369,o1_image,200.0519,0,200.5527,200.5527,202.5407,0,0,0,0,1,,,,,,,,,,,,,,,,,,,,,,,,,,,,,,,,,,,,,,,,,,,,,,,,,,
,,5b278c153a20420001efd41b,46,female,2024-04-19_17h37.32.958,stockport_simplified,2022.2.4,MacIntel,60.60606061,661e456ee6de07e70aa9ef7b,66229da778e355f7ac8acefe,,,,,,,,,,,,,,,,,,,,,,,,,,,,,,,,,,,,,,,,,,,,,,,,,,,,,,,,0,5,5,10,1,B,X,N,o2_image,stimuli/out2.png,stimuli/out1.png,stimuli/correct_out2.png,,,,,,,,,,,,,,,,,,,,,,,,,,,,,,,,,,,,,,
,,5b278c153a20420001efd41b,46,female,2024-04-19_17h37.32.958,stockport_simplified,2022.2.4,MacIntel,60.60606061,661e456ee6de07e70aa9ef7b,66229da778e355f7ac8acefe,,,,,,,,,,,,,,,,,,,,,,,,,,,,,,,,,,202.5411,206.8865,"[7,1,2,8,3,5,4,6]","[[0.3,0.2],[-0.3,0.2]]","[[-0.125,-0.2],[0.125,-0.2]]",-0.099362861,-0.177126397,1,0,0,3.8428,o1_image,206.902,1,207.4044,207.4044,209.3929,0,0,0,0,1,,,,,,,,,,,,,,,,,,,,,,,,,,,,,,,,,,,,,,,,,,,,,,,,,,
,,5b278c153a20420001efd41b,46,female,2024-04-19_17h37.32.958,stockport_simplified,2022.2.4,MacIntel,60.60606061,661e456ee6de07e70aa9ef7b,66229da778e355f7ac8acefe,,,,,,,,,,,,,,,,,,,,,,,,,,,,,,,,,,,,,,,,,,,,,,,,,,,,,,,,0,6,6,52,1,N,M,C,o1_image,stimuli/out1.png,stimuli/correct_out1.png,stimuli/out2.png,,,,,,,,,,,,,,,,,,,,,,,,,,,,,,,,,,,,,,
,,5b278c153a20420001efd41b,46,female,2024-04-19_17h37.32.958,stockport_simplified,2022.2.4,MacIntel,60.60606061,661e456ee6de07e70aa9ef7b,66229da778e355f7ac8acefe,,,,,,,,,,,,,,,,,,,,,,,,,,,,,,,,,,209.3934,212.1993,"[7,1,2,8,3,5,4,6]","[[0.3,0.2],[-0.3,0.2]]","[[-0.125,-0.2],[0.125,-0.2]]",0.125924683,-0.221281196,1,0,0,2.3045,o2_image,212.2001,1,212.7016,212.7016,214.6904,0,0,0,0,1,,,,,,,,,,,,,,,,,,,,,,,,,,,,,,,,,,,,,,,,,,,,,,,,,,
,,5b278c153a20420001efd41b,46,female,2024-04-19_17h37.32.958,stockport_simplified,2022.2.4,MacIntel,60.60606061,661e456ee6de07e70aa9ef7b,66229da778e355f7ac8acefe,,,,,,,,,,,,,,,,,,,,,,,,,,,,,,,,,,,,,,,,,,,,,,,,,,,,,,,,0,7,7,26,1,N,M,D,o2_image,stimuli/out2.png,stimuli/out1.png,stimuli/correct_out2.png,,,,,,,,,,,,,,,,,,,,,,,,,,,,,,,,,,,,,,
,,5b278c153a20420001efd41b,46,female,2024-04-19_17h37.32.958,stockport_simplified,2022.2.4,MacIntel,60.60606061,661e456ee6de07e70aa9ef7b,66229da778e355f7ac8acefe,,,,,,,,,,,,,,,,,,,,,,,,,,,,,,,,,,214.6908,218.0489,"[7,1,2,8,3,5,4,6]","[[0.3,0.2],[-0.3,0.2]]","[[0.125,-0.2],[-0.125,-0.2]]",0.125924683,-0.221281196,1,0,0,2.8569,o1_image,218.0622,1,218.5511,218.5511,220.5395,0,0,0,0,1,,,,,,,,,,,,,,,,,,,,,,,,,,,,,,,,,,,,,,,,,,,,,,,,,,
,,5b278c153a20420001efd41b,46,female,2024-04-19_17h37.32.958,stockport_simplified,2022.2.4,MacIntel,60.60606061,661e456ee6de07e70aa9ef7b,66229da778e355f7ac8acefe,,,,,,,,,,,,,,,,,,,,,,,,,,,,,,,,,,,,,,,,,,,,,,,,,,,,,,,,0,8,8,23,1,N,M,C,o1_image,stimuli/out1.png,stimuli/correct_out1.png,stimuli/out2.png,,,,,,,,,,,,,,,,,,,,,,,,,,,,,,,,,,,,,,
,,5b278c153a20420001efd41b,46,female,2024-04-19_17h37.32.958,stockport_simplified,2022.2.4,MacIntel,60.60606061,661e456ee6de07e70aa9ef7b,66229da778e355f7ac8acefe,,,,,,,,,,,,,,,,,,,,,,,,,,,,,,,,,,220.5401,223.6638,"[7,1,2,8,3,5,4,6]","[[0.3,0.2],[-0.3,0.2]]","[[0.125,-0.2],[-0.125,-0.2]]",-0.113715481,-0.22664483,1,0,0,2.622,o2_image,223.6766,1,224.1657,224.1657,226.1543,0,0,0,0,1,,,,,,,,,,,,,,,,,,,,,,,,,,,,,,,,,,,,,,,,,,,,,,,,,,
,,5b278c153a20420001efd41b,46,female,2024-04-19_17h37.32.958,stockport_simplified,2022.2.4,MacIntel,60.60606061,661e456ee6de07e70aa9ef7b,66229da778e355f7ac8acefe,,,,,,,,,,,,,,,,,,,,,,,,,,,,,,,,,,,,,,,,,,,,,,,,,,,,,,,,0,9,9,16,1,B,Y,N,o2_image,stimuli/out2.png,stimuli/out1.png,stimuli/correct_out2.png,,,,,,,,,,,,,,,,,,,,,,,,,,,,,,,,,,,,,,
,,5b278c153a20420001efd41b,46,female,2024-04-19_17h37.32.958,stockport_simplified,2022.2.4,MacIntel,60.60606061,661e456ee6de07e70aa9ef7b,66229da778e355f7ac8acefe,,,,,,,,,,,,,,,,,,,,,,,,,,,,,,,,,,226.1548,228.4597,"[7,1,2,8,3,5,4,6]","[[0.3,0.2],[-0.3,0.2]]","[[0.125,-0.2],[-0.125,-0.2]]",-0.113715481,-0.22664483,1,0,0,1.8036,o2_image,228.4604,0,228.9611,228.9612,230.95,0,0,0,0,1,,,,,,,,,,,,,,,,,,,,,,,,,,,,,,,,,,,,,,,,,,,,,,,,,,
,,5b278c153a20420001efd41b,46,female,2024-04-19_17h37.32.958,stockport_simplified,2022.2.4,MacIntel,60.60606061,661e456ee6de07e70aa9ef7b,66229da778e355f7ac8acefe,,,,,,,,,,,,,,,,,,,,,,,,,,,,,,,,,,,,,,,,,,,,,,,,,,,,,,,,0,10,10,5,1,A,Y,N,o1_image,stimuli/out1.png,stimuli/correct_out1.png,stimuli/out2.png,,,,,,,,,,,,,,,,,,,,,,,,,,,,,,,,,,,,,,
,,5b278c153a20420001efd41b,46,female,2024-04-19_17h37.32.958,stockport_simplified,2022.2.4,MacIntel,60.60606061,661e456ee6de07e70aa9ef7b,66229da778e355f7ac8acefe,,,,,,,,,,,,,,,,,,,,,,,,,,,,,,,,,,230.9505,234.1759,"[7,1,2,8,3,5,4,6]","[[-0.3,0.2],[0.3,0.2]]","[[0.125,-0.2],[-0.125,-0.2]]",-0.113124797,-0.227530857,1,0,0,2.7237,o2_image,234.1909,1,234.6939,234.6939,236.6825,0,0,0,0,1,,,,,,,,,,,,,,,,,,,,,,,,,,,,,,,,,,,,,,,,,,,,,,,,,,
,,5b278c153a20420001efd41b,46,female,2024-04-19_17h37.32.958,stockport_simplified,2022.2.4,MacIntel,60.60606061,661e456ee6de07e70aa9ef7b,66229da778e355f7ac8acefe,,,,,,,,,,,,,,,,,,,,,,,,,,,,,,,,,,,,,,,,,,,,,,,,,,,,,,,,0,11,11,43,1,B,X,N,o2_image,stimuli/out2.png,stimuli/out1.png,stimuli/correct_out2.png,,,,,,,,,,,,,,,,,,,,,,,,,,,,,,,,,,,,,,
,,5b278c153a20420001efd41b,46,female,2024-04-19_17h37.32.958,stockport_simplified,2022.2.4,MacIntel,60.60606061,661e456ee6de07e70aa9ef7b,66229da778e355f7ac8acefe,,,,,,,,,,,,,,,,,,,,,,,,,,,,,,,,,,236.6828,241.4621,"[7,1,2,8,3,5,4,6]","[[0.3,0.2],[-0.3,0.2]]","[[-0.125,-0.2],[0.125,-0.2]]",0.128905029,-0.232299669,1,0,0,4.2621,o2_image,241.4758,1,241.9797,241.9798,243.9685,0,0,0,0,1,,,,,,,,,,,,,,,,,,,,,,,,,,,,,,,,,,,,,,,,,,,,,,,,,,
,,5b278c153a20420001efd41b,46,female,2024-04-19_17h37.32.958,stockport_simplified,2022.2.4,MacIntel,60.60606061,661e456ee6de07e70aa9ef7b,66229da778e355f7ac8acefe,,,,,,,,,,,,,,,,,,,,,,,,,,,,,,,,,,,,,,,,,,,,,,,,,,,,,,,,0,12,12,46,1,B,Y,N,o2_image,stimuli/out2.png,stimuli/out1.png,stimuli/correct_out2.png,,,,,,,,,,,,,,,,,,,,,,,,,,,,,,,,,,,,,,
,,5b278c153a20420001efd41b,46,female,2024-04-19_17h37.32.958,stockport_simplified,2022.2.4,MacIntel,60.60606061,661e456ee6de07e70aa9ef7b,66229da778e355f7ac8acefe,,,,,,,,,,,,,,,,,,,,,,,,,,,,,,,,,,243.969,246.9431,"[7,1,2,8,3,5,4,6]","[[-0.3,0.2],[0.3,0.2]]","[[0.125,-0.2],[-0.125,-0.2]]",0.128905029,-0.232299669,1,0,0,2.4731,o1_image,246.9438,0,247.4446,247.4446,249.4331,0,0,0,0,1,,,,,,,,,,,,,,,,,,,,,,,,,,,,,,,,,,,,,,,,,,,,,,,,,,
,,5b278c153a20420001efd41b,46,female,2024-04-19_17h37.32.958,stockport_simplified,2022.2.4,MacIntel,60.60606061,661e456ee6de07e70aa9ef7b,66229da778e355f7ac8acefe,,,,,,,,,,,,,,,,,,,,,,,,,,,,,,,,,,,,,,,,,,,,,,,,,,,,,,,,0,13,13,19,1,B,Y,N,o2_image,stimuli/out2.png,stimuli/out1.png,stimuli/correct_out2.png,,,,,,,,,,,,,,,,,,,,,,,,,,,,,,,,,,,,,,
,,5b278c153a20420001efd41b,46,female,2024-04-19_17h37.32.958,stockport_simplified,2022.2.4,MacIntel,60.60606061,661e456ee6de07e70aa9ef7b,66229da778e355f7ac8acefe,,,,,,,,,,,,,,,,,,,,,,,,,,,,,,,,,,249.4335,253.277,"[7,1,2,8,3,5,4,6]","[[-0.3,0.2],[0.3,0.2]]","[[-0.125,-0.2],[0.125,-0.2]]",0.089299113,-0.189992133,1,0,0,3.342,o2_image,253.29,1,253.7783,253.7783,255.7666,0,0,0,0,1,,,,,,,,,,,,,,,,,,,,,,,,,,,,,,,,,,,,,,,,,,,,,,,,,,
,,5b278c153a20420001efd41b,46,female,2024-04-19_17h37.32.958,stockport_simplified,2022.2.4,MacIntel,60.60606061,661e456ee6de07e70aa9ef7b,66229da778e355f7ac8acefe,,,,,,,,,,,,,,,,,,,,,,,,,,,,,,,,,,,,,,,,,,,,,,,,,,,,,,,,0,14,14,18,1,B,Y,N,o2_image,stimuli/out2.png,stimuli/out1.png,stimuli/correct_out2.png,,,,,,,,,,,,,,,,,,,,,,,,,,,,,,,,,,,,,,
,,5b278c153a20420001efd41b,46,female,2024-04-19_17h37.32.958,stockport_simplified,2022.2.4,MacIntel,60.60606061,661e456ee6de07e70aa9ef7b,66229da778e355f7ac8acefe,,,,,,,,,,,,,,,,,,,,,,,,,,,,,,,,,,255.767,259.744,"[7,1,2,8,3,5,4,6]","[[0.3,0.2],[-0.3,0.2]]","[[0.125,-0.2],[-0.125,-0.2]]",-0.07543769,-0.203437771,1,0,0,3.4755,o2_image,259.7589,1,260.2622,260.2622,262.2509,0,0,0,0,1,,,,,,,,,,,,,,,,,,,,,,,,,,,,,,,,,,,,,,,,,,,,,,,,,,
,,5b278c153a20420001efd41b,46,female,2024-04-19_17h37.32.958,stockport_simplified,2022.2.4,MacIntel,60.60606061,661e456ee6de07e70aa9ef7b,66229da778e355f7ac8acefe,,,,,,,,,,,,,,,,,,,,,,,,,,,,,,,,,,,,,,,,,,,,,,,,,,,,,,,,0,15,15,44,1,B,X,N,o2_image,stimuli/out2.png,stimuli/out1.png,stimuli/correct_out2.png,,,,,,,,,,,,,,,,,,,,,,,,,,,,,,,,,,,,,,
,,5b278c153a20420001efd41b,46,female,2024-04-19_17h37.32.958,stockport_simplified,2022.2.4,MacIntel,60.60606061,661e456ee6de07e70aa9ef7b,66229da778e355f7ac8acefe,,,,,,,,,,,,,,,,,,,,,,,,,,,,,,,,,,262.2514,266.2619,"[7,1,2,8,3,5,4,6]","[[0.3,0.2],[-0.3,0.2]]","[[0.125,-0.2],[-0.125,-0.2]]",-0.084755113,-0.204028456,1,0,0,3.5092,o2_image,266.2769,0,266.7795,266.7796,268.7681,0,0,0,0,1,,,,,,,,,,,,,,,,,,,,,,,,,,,,,,,,,,,,,,,,,,,,,,,,,,
,,5b278c153a20420001efd41b,46,female,2024-04-19_17h37.32.958,stockport_simplified,2022.2.4,MacIntel,60.60606061,661e456ee6de07e70aa9ef7b,66229da778e355f7ac8acefe,,,,,,,,,,,,,,,,,,,,,,,,,,,,,,,,,,,,,,,,,,,,,,,,,,,,,,,,0,16,16,36,1,A,Y,N,o1_image,stimuli/out1.png,stimuli/correct_out1.png,stimuli/out2.png,,,,,,,,,,,,,,,,,,,,,,,,,,,,,,,,,,,,,,
,,5b278c153a20420001efd41b,46,female,2024-04-19_17h37.32.958,stockport_simplified,2022.2.4,MacIntel,60.60606061,661e456ee6de07e70aa9ef7b,66229da778e355f7ac8acefe,,,,,,,,,,,,,,,,,,,,,,,,,,,,,,,,,,268.7686,273.1291,"[7,1,2,8,3,5,4,6]","[[0.3,0.2],[-0.3,0.2]]","[[-0.125,-0.2],[0.125,-0.2]]",0.113232354,-0.227998861,1,0,0,3.8598,o2_image,273.1434,1,273.6313,273.6313,275.6367,0,0,0,0,1,,,,,,,,,,,,,,,,,,,,,,,,,,,,,,,,,,,,,,,,,,,,,,,,,,
,,5b278c153a20420001efd41b,46,female,2024-04-19_17h37.32.958,stockport_simplified,2022.2.4,MacIntel,60.60606061,661e456ee6de07e70aa9ef7b,66229da778e355f7ac8acefe,,,,,,,,,,,,,,,,,,,,,,,,,,,,,,,,,,,,,,,,,,,,,,,,,,,,,,,,0,17,17,47,1,B,Y,N,o2_image,stimuli/out2.png,stimuli/out1.png,stimuli/correct_out2.png,,,,,,,,,,,,,,,,,,,,,,,,,,,,,,,,,,,,,,
,,5b278c153a20420001efd41b,46,female,2024-04-19_17h37.32.958,stockport_simplified,2022.2.4,MacIntel,60.60606061,661e456ee6de07e70aa9ef7b,66229da778e355f7ac8acefe,,,,,,,,,,,,,,,,,,,,,,,,,,,,,,,,,,275.6372,279.0789,"[7,1,2,8,3,5,4,6]","[[-0.3,0.2],[0.3,0.2]]","[[-0.125,-0.2],[0.125,-0.2]]",-0.115612386,-0.213194851,1,0,0,2.9404,o1_image,279.08,1,279.58,279.58,281.5683,0,0,0,0,1,,,,,,,,,,,,,,,,,,,,,,,,,,,,,,,,,,,,,,,,,,,,,,,,,,
,,5b278c153a20420001efd41b,46,female,2024-04-19_17h37.32.958,stockport_simplified,2022.2.4,MacIntel,60.60606061,661e456ee6de07e70aa9ef7b,66229da778e355f7ac8acefe,,,,,,,,,,,,,,,,,,,,,,,,,,,,,,,,,,,,,,,,,,,,,,,,,,,,,,,,0,18,18,22,1,N,M,C,o1_image,stimuli/out1.png,stimuli/correct_out1.png,stimuli/out2.png,,,,,,,,,,,,,,,,,,,,,,,,,,,,,,,,,,,,,,
,,5b278c153a20420001efd41b,46,female,2024-04-19_17h37.32.958,stockport_simplified,2022.2.4,MacIntel,60.60606061,661e456ee6de07e70aa9ef7b,66229da778e355f7ac8acefe,,,,,,,,,,,,,,,,,,,,,,,,,,,,,,,,,,281.5687,284.9772,"[7,1,2,8,3,5,4,6]","[[-0.3,0.2],[0.3,0.2]]","[[-0.125,-0.2],[0.125,-0.2]]",0.123347032,-0.218196886,1,0,0,2.9064,o2_image,284.9782,0,285.4794,285.4794,287.4676,0,0,0,0,1,,,,,,,,,,,,,,,,,,,,,,,,,,,,,,,,,,,,,,,,,,,,,,,,,,
,,5b278c153a20420001efd41b,46,female,2024-04-19_17h37.32.958,stockport_simplified,2022.2.4,MacIntel,60.60606061,661e456ee6de07e70aa9ef7b,66229da778e355f7ac8acefe,,,,,,,,,,,,,,,,,,,,,,,,,,,,,,,,,,,,,,,,,,,,,,,,,,,,,,,,0,19,19,3,1,A,X,N,o1_image,stimuli/out1.png,stimuli/correct_out1.png,stimuli/out2.png,,,,,,,,,,,,,,,,,,,,,,,,,,,,,,,,,,,,,,
,,5b278c153a20420001efd41b,46,female,2024-04-19_17h37.32.958,stockport_simplified,2022.2.4,MacIntel,60.60606061,661e456ee6de07e70aa9ef7b,66229da778e355f7ac8acefe,,,,,,,,,,,,,,,,,,,,,,,,,,,,,,,,,,287.468,290.3425,"[7,1,2,8,3,5,4,6]","[[0.3,0.2],[-0.3,0.2]]","[[-0.125,-0.2],[0.125,-0.2]]",-0.111206123,-0.198988308,1,0,0,2.3726,o1_image,290.3432,0,290.8441,290.8441,292.8326,0,0,0,0,1,,,,,,,,,,,,,,,,,,,,,,,,,,,,,,,,,,,,,,,,,,,,,,,,,,
,,5b278c153a20420001efd41b,46,female,2024-04-19_17h37.32.958,stockport_simplified,2022.2.4,MacIntel,60.60606061,661e456ee6de07e70aa9ef7b,66229da778e355f7ac8acefe,,,,,,,,,,,,,,,,,,,,,,,,,,,,,,,,,,,,,,,,,,,,,,,,,,,,,,,,0,20,20,40,1,B,X,N,o2_image,stimuli/out2.png,stimuli/out1.png,stimuli/correct_out2.png,,,,,,,,,,,,,,,,,,,,,,,,,,,,,,,,,,,,,,
,,5b278c153a20420001efd41b,46,female,2024-04-19_17h37.32.958,stockport_simplified,2022.2.4,MacIntel,60.60606061,661e456ee6de07e70aa9ef7b,66229da778e355f7ac8acefe,,,,,,,,,,,,,,,,,,,,,,,,,,,,,,,,,,292.8329,295.1386,"[7,1,2,8,3,5,4,6]","[[0.3,0.2],[-0.3,0.2]]","[[-0.125,-0.2],[0.125,-0.2]]",0.144739448,-0.234450887,1,0,0,1.8046,o2_image,295.1394,1,295.6401,295.6401,297.6285,0,0,0,0,1,,,,,,,,,,,,,,,,,,,,,,,,,,,,,,,,,,,,,,,,,,,,,,,,,,
,,5b278c153a20420001efd41b,46,female,2024-04-19_17h37.32.958,stockport_simplified,2022.2.4,MacIntel,60.60606061,661e456ee6de07e70aa9ef7b,66229da778e355f7ac8acefe,,,,,,,,,,,,,,,,,,,,,,,,,,,,,,,,,,,,,,,,,,,,,,,,,,,,,,,,0,21,21,48,1,B,Y,N,o2_image,stimuli/out2.png,stimuli/out1.png,stimuli/correct_out2.png,,,,,,,,,,,,,,,,,,,,,,,,,,,,,,,,,,,,,,
,,5b278c153a20420001efd41b,46,female,2024-04-19_17h37.32.958,stockport_simplified,2022.2.4,MacIntel,60.60606061,661e456ee6de07e70aa9ef7b,66229da778e355f7ac8acefe,,,,,,,,,,,,,,,,,,,,,,,,,,,,,,,,,,297.6289,300.3526,"[7,1,2,8,3,5,4,6]","[[-0.3,0.2],[0.3,0.2]]","[[0.125,-0.2],[-0.125,-0.2]]",0.142110189,-0.227780355,1,0,0,2.2219,o1_image,300.3533,1,300.8536,300.8537,302.8426,0,0,0,0,1,,,,,,,,,,,,,,,,,,,,,,,,,,,,,,,,,,,,,,,,,,,,,,,,,,
,,5b278c153a20420001efd41b,46,female,2024-04-19_17h37.32.958,stockport_simplified,2022.2.4,MacIntel,60.60606061,661e456ee6de07e70aa9ef7b,66229da778e355f7ac8acefe,,,,,,,,,,,,,,,,,,,,,,,,,,,,,,,,,,,,,,,,,,,,,,,,,,,,,,,,0,22,22,20,1,N,M,C,o1_image,stimuli/out1.png,stimuli/correct_out1.png,stimuli/out2.png,,,,,,,,,,,,,,,,,,,,,,,,,,,,,,,,,,,,,,
,,5b278c153a20420001efd41b,46,female,2024-04-19_17h37.32.958,stockport_simplified,2022.2.4,MacIntel,60.60606061,661e456ee6de07e70aa9ef7b,66229da778e355f7ac8acefe,,,,,,,,,,,,,,,,,,,,,,,,,,,,,,,,,,302.843,304.8815,"[7,1,2,8,3,5,4,6]","[[0.3,0.2],[-0.3,0.2]]","[[-0.125,-0.2],[0.125,-0.2]]",0.119930623,-0.221929186,1,0,0,1.537,o2_image,304.8822,1,305.3814,305.3815,307.3714,0,0,0,0,1,,,,,,,,,,,,,,,,,,,,,,,,,,,,,,,,,,,,,,,,,,,,,,,,,,
,,5b278c153a20420001efd41b,46,female,2024-04-19_17h37.32.958,stockport_simplified,2022.2.4,MacIntel,60.60606061,661e456ee6de07e70aa9ef7b,66229da778e355f7ac8acefe,,,,,,,,,,,,,,,,,,,,,,,,,,,,,,,,,,,,,,,,,,,,,,,,,,,,,,,,0,23,23,15,1,B,Y,N,o2_image,stimuli/out2.png,stimuli/out1.png,stimuli/correct_out2.png,,,,,,,,,,,,,,,,,,,,,,,,,,,,,,,,,,,,,,
,,5b278c153a20420001efd41b,46,female,2024-04-19_17h37.32.958,stockport_simplified,2022.2.4,MacIntel,60.60606061,661e456ee6de07e70aa9ef7b,66229da778e355f7ac8acefe,,,,,,,,,,,,,,,,,,,,,,,,,,,,,,,,,,307.3718,309.6275,"[7,1,2,8,3,5,4,6]","[[0.3,0.2],[-0.3,0.2]]","[[-0.125,-0.2],[0.125,-0.2]]",-0.122721558,-0.198530138,1,0,0,1.755,o1_image,309.6284,0,310.1288,310.1288,312.1173,0,0,0,0,1,,,,,,,,,,,,,,,,,,,,,,,,,,,,,,,,,,,,,,,,,,,,,,,,,,
,,5b278c153a20420001efd41b,46,female,2024-04-19_17h37.32.958,stockport_simplified,2022.2.4,MacIntel,60.60606061,661e456ee6de07e70aa9ef7b,66229da778e355f7ac8acefe,,,,,,,,,,,,,,,,,,,,,,,,,,,,,,,,,,,,,,,,,,,,,,,,,,,,,,,,0,24,24,27,1,N,M,D,o2_image,stimuli/out2.png,stimuli/out1.png,stimuli/correct_out2.png,,,,,,,,,,,,,,,,,,,,,,,,,,,,,,,,,,,,,,
,,5b278c153a20420001efd41b,46,female,2024-04-19_17h37.32.958,stockport_simplified,2022.2.4,MacIntel,60.60606061,661e456ee6de07e70aa9ef7b,66229da778e355f7ac8acefe,,,,,,,,,,,,,,,,,,,,,,,,,,,,,,,,,,312.1177,315.3752,"[7,1,2,8,3,5,4,6]","[[0.3,0.2],[-0.3,0.2]]","[[-0.125,-0.2],[0.125,-0.2]]",0.125989719,-0.200654161,1,0,0,2.7561,o2_image,315.3864,0,315.8772,315.8772,317.866,0,0,0,0,1,,,,,,,,,,,,,,,,,,,,,,,,,,,,,,,,,,,,,,,,,,,,,,,,,,
,,5b278c153a20420001efd41b,46,female,2024-04-19_17h37.32.958,stockport_simplified,2022.2.4,MacIntel,60.60606061,661e456ee6de07e70aa9ef7b,66229da778e355f7ac8acefe,,,,,,,,,,,,,,,,,,,,,,,,,,,,,,,,,,,,,,,,,,,,,,,,,,,,,,,,0,25,25,39,1,A,Y,N,o1_image,stimuli/out1.png,stimuli/correct_out1.png,stimuli/out2.png,,,,,,,,,,,,,,,,,,,,,,,,,,,,,,,,,,,,,,
,,5b278c153a20420001efd41b,46,female,2024-04-19_17h37.32.958,stockport_simplified,2022.2.4,MacIntel,60.60606061,661e456ee6de07e70aa9ef7b,66229da778e355f7ac8acefe,,,,,,,,,,,,,,,,,,,,,,,,,,,,,,,,,,317.8664,319.8711,"[7,1,2,8,3,5,4,6]","[[0.3,0.2],[-0.3,0.2]]","[[-0.125,-0.2],[0.125,-0.2]]",0.125989719,-0.199499512,1,0,0,1.5034,o2_image,319.8717,0,320.3727,320.3728,322.3612,0,0,0,0,1,,,,,,,,,,,,,,,,,,,,,,,,,,,,,,,,,,,,,,,,,,,,,,,,,,
,,5b278c153a20420001efd41b,46,female,2024-04-19_17h37.32.958,stockport_simplified,2022.2.4,MacIntel,60.60606061,661e456ee6de07e70aa9ef7b,66229da778e355f7ac8acefe,,,,,,,,,,,,,,,,,,,,,,,,,,,,,,,,,,,,,,,,,,,,,,,,,,,,,,,,0,26,26,30,1,A,X,N,o1_image,stimuli/out1.png,stimuli/correct_out1.png,stimuli/out2.png,,,,,,,,,,,,,,,,,,,,,,,,,,,,,,,,,,,,,,
,,5b278c153a20420001efd41b,46,female,2024-04-19_17h37.32.958,stockport_simplified,2022.2.4,MacIntel,60.60606061,661e456ee6de07e70aa9ef7b,66229da778e355f7ac8acefe,,,,,,,,,,,,,,,,,,,,,,,,,,,,,,,,,,322.3616,325.4689,"[7,1,2,8,3,5,4,6]","[[0.3,0.2],[-0.3,0.2]]","[[-0.125,-0.2],[0.125,-0.2]]",-0.127494914,-0.180306396,1,0,0,2.6059,o1_image,325.4825,1,325.9709,325.9709,327.9595,0,0,0,0,1,,,,,,,,,,,,,,,,,,,,,,,,,,,,,,,,,,,,,,,,,,,,,,,,,,
,,5b278c153a20420001efd41b,46,female,2024-04-19_17h37.32.958,stockport_simplified,2022.2.4,MacIntel,60.60606061,661e456ee6de07e70aa9ef7b,66229da778e355f7ac8acefe,,,,,,,,,,,,,,,,,,,,,,,,,,,,,,,,,,,,,,,,,,,,,,,,,,,,,,,,0,27,27,53,1,N,M,C,o1_image,stimuli/out1.png,stimuli/correct_out1.png,stimuli/out2.png,,,,,,,,,,,,,,,,,,,,,,,,,,,,,,,,,,,,,,
,,5b278c153a20420001efd41b,46,female,2024-04-19_17h37.32.958,stockport_simplified,2022.2.4,MacIntel,60.60606061,661e456ee6de07e70aa9ef7b,66229da778e355f7ac8acefe,,,,,,,,,,,,,,,,,,,,,,,,,,,,,,,,,,327.96,329.5626,"[7,1,2,8,3,5,4,6]","[[-0.3,0.2],[0.3,0.2]]","[[-0.125,-0.2],[0.125,-0.2]]",0.112812025,-0.201500922,1,0,0,1.1013,o2_image,329.5633,1,330.0647,330.0647,332.0539,0,0,0,0,1,,,,,,,,,,,,,,,,,,,,,,,,,,,,,,,,,,,,,,,,,,,,,,,,,,
,,5b278c153a20420001efd41b,46,female,2024-04-19_17h37.32.958,stockport_simplified,2022.2.4,MacIntel,60.60606061,661e456ee6de07e70aa9ef7b,66229da778e355f7ac8acefe,,,,,,,,,,,,,,,,,,,,,,,,,,,,,,,,,,,,,,,,,,,,,,,,,,,,,,,,0,28,28,57,1,N,M,D,o2_image,stimuli/out2.png,stimuli/out1.png,stimuli/correct_out2.png,,,,,,,,,,,,,,,,,,,,,,,,,,,,,,,,,,,,,,
,,5b278c153a20420001efd41b,46,female,2024-04-19_17h37.32.958,stockport_simplified,2022.2.4,MacIntel,60.60606061,661e456ee6de07e70aa9ef7b,66229da778e355f7ac8acefe,,,,,,,,,,,,,,,,,,,,,,,,,,,,,,,,,,332.0542,333.6244,"[7,1,2,8,3,5,4,6]","[[0.3,0.2],[-0.3,0.2]]","[[-0.125,-0.2],[0.125,-0.2]]",0.112812025,-0.201500922,1,0,0,1.0695,o2_image,333.6252,1,334.126,334.126,336.1147,0,0,0,0,1,,,,,,,,,,,,,,,,,,,,,,,,,,,,,,,,,,,,,,,,,,,,,,,,,,
,,5b278c153a20420001efd41b,46,female,2024-04-19_17h37.32.958,stockport_simplified,2022.2.4,MacIntel,60.60606061,661e456ee6de07e70aa9ef7b,66229da778e355f7ac8acefe,,,,,,,,,,,,,,,,,,,,,,,,,,,,,,,,,,,,,,,,,,,,,,,,,,,,,,,,0,29,29,58,1,N,M,D,o2_image,stimuli/out2.png,stimuli/out1.png,stimuli/correct_out2.png,,,,,,,,,,,,,,,,,,,,,,,,,,,,,,,,,,,,,,
,,5b278c153a20420001efd41b,46,female,2024-04-19_17h37.32.958,stockport_simplified,2022.2.4,MacIntel,60.60606061,661e456ee6de07e70aa9ef7b,66229da778e355f7ac8acefe,,,,,,,,,,,,,,,,,,,,,,,,,,,,,,,,,,336.1151,338.9559,"[7,1,2,8,3,5,4,6]","[[-0.3,0.2],[0.3,0.2]]","[[0.125,-0.2],[-0.125,-0.2]]",0.112812025,-0.201500922,1,0,0,2.3397,o1_image,338.9566,1,339.457,339.4571,341.4457,0,0,0,0,1,,,,,,,,,,,,,,,,,,,,,,,,,,,,,,,,,,,,,,,,,,,,,,,,,,
,,5b278c153a20420001efd41b,46,female,2024-04-19_17h37.32.958,stockport_simplified,2022.2.4,MacIntel,60.60606061,661e456ee6de07e70aa9ef7b,66229da778e355f7ac8acefe,,,,,,,,,,,,,,,,,,,,,,,,,,,,,,,,,,,,,,,,,,,,,,,,,,,,,,,,0,30,30,7,1,A,Y,N,o1_image,stimuli/out1.png,stimuli/correct_out1.png,stimuli/out2.png,,,,,,,,,,,,,,,,,,,,,,,,,,,,,,,,,,,,,,
,,5b278c153a20420001efd41b,46,female,2024-04-19_17h37.32.958,stockport_simplified,2022.2.4,MacIntel,60.60606061,661e456ee6de07e70aa9ef7b,66229da778e355f7ac8acefe,,,,,,,,,,,,,,,,,,,,,,,,,,,,,,,,,,341.4461,343.4175,"[7,1,2,8,3,5,4,6]","[[0.3,0.2],[-0.3,0.2]]","[[0.125,-0.2],[-0.125,-0.2]]",-0.094891493,-0.214427422,1,0,0,1.4701,o2_image,343.4186,1,343.9189,343.919,345.9074,0,0,0,0,1,,,,,,,,,,,,,,,,,,,,,,,,,,,,,,,,,,,,,,,,,,,,,,,,,,
,,5b278c153a20420001efd41b,46,female,2024-04-19_17h37.32.958,stockport_simplified,2022.2.4,MacIntel,60.60606061,661e456ee6de07e70aa9ef7b,66229da778e355f7ac8acefe,,,,,,,,,,,,,,,,,,,,,,,,,,,,,,,,,,,,,,,,,,,,,,,,,,,,,,,,0,31,31,41,1,B,X,N,o2_image,stimuli/out2.png,stimuli/out1.png,stimuli/correct_out2.png,,,,,,,,,,,,,,,,,,,,,,,,,,,,,,,,,,,,,,
,,5b278c153a20420001efd41b,46,female,2024-04-19_17h37.32.958,stockport_simplified,2022.2.4,MacIntel,60.60606061,661e456ee6de07e70aa9ef7b,66229da778e355f7ac8acefe,,,,,,,,,,,,,,,,,,,,,,,,,,,,,,,,,,345.9078,348.0125,"[7,1,2,8,3,5,4,6]","[[-0.3,0.2],[0.3,0.2]]","[[0.125,-0.2],[-0.125,-0.2]]",-0.094005466,-0.215313449,1,0,0,1.6034,o2_image,348.0131,0,348.5141,348.5141,350.5032,0,0,0,0,1,,,,,,,,,,,,,,,,,,,,,,,,,,,,,,,,,,,,,,,,,,,,,,,,,,
,,5b278c153a20420001efd41b,46,female,2024-04-19_17h37.32.958,stockport_simplified,2022.2.4,MacIntel,60.60606061,661e456ee6de07e70aa9ef7b,66229da778e355f7ac8acefe,,,,,,,,,,,,,,,,,,,,,,,,,,,,,,,,,,,,,,,,,,,,,,,,,,,,,,,,0,32,32,34,1,A,X,N,o1_image,stimuli/out1.png,stimuli/correct_out1.png,stimuli/out2.png,,,,,,,,,,,,,,,,,,,,,,,,,,,,,,,,,,,,,,
,,5b278c153a20420001efd41b,46,female,2024-04-19_17h37.32.958,stockport_simplified,2022.2.4,MacIntel,60.60606061,661e456ee6de07e70aa9ef7b,66229da778e355f7ac8acefe,,,,,,,,,,,,,,,,,,,,,,,,,,,,,,,,,,350.5036,352.6421,"[7,1,2,8,3,5,4,6]","[[0.3,0.2],[-0.3,0.2]]","[[0.125,-0.2],[-0.125,-0.2]]",-0.113615044,-0.212729628,1,0,0,1.6373,o2_image,352.6428,1,353.1435,353.1435,355.1321,0,0,0,0,1,,,,,,,,,,,,,,,,,,,,,,,,,,,,,,,,,,,,,,,,,,,,,,,,,,
,,5b278c153a20420001efd41b,46,female,2024-04-19_17h37.32.958,stockport_simplified,2022.2.4,MacIntel,60.60606061,661e456ee6de07e70aa9ef7b,66229da778e355f7ac8acefe,,,,,,,,,,,,,,,,,,,,,,,,,,,,,,,,,,,,,,,,,,,,,,,,,,,,,,,,0,33,33,49,1,B,Y,N,o2_image,stimuli/out2.png,stimuli/out1.png,stimuli/correct_out2.png,,,,,,,,,,,,,,,,,,,,,,,,,,,,,,,,,,,,,,
,,5b278c153a20420001efd41b,46,female,2024-04-19_17h37.32.958,stockport_simplified,2022.2.4,MacIntel,60.60606061,661e456ee6de07e70aa9ef7b,66229da778e355f7ac8acefe,,,,,,,,,,,,,,,,,,,,,,,,,,,,,,,,,,355.1325,357.455,"[7,1,2,8,3,5,4,6]","[[0.3,0.2],[-0.3,0.2]]","[[-0.125,-0.2],[0.125,-0.2]]",0.116824544,-0.233630235,1,0,0,1.8212,o2_image,357.4557,0,357.9561,357.9562,359.945,0,0,0,0,1,,,,,,,,,,,,,,,,,,,,,,,,,,,,,,,,,,,,,,,,,,,,,,,,,,
,,5b278c153a20420001efd41b,46,female,2024-04-19_17h37.32.958,stockport_simplified,2022.2.4,MacIntel,60.60606061,661e456ee6de07e70aa9ef7b,66229da778e355f7ac8acefe,,,,,,,,,,,,,,,,,,,,,,,,,,,,,,,,,,,,,,,,,,,,,,,,,,,,,,,,0,34,34,37,1,A,Y,N,o1_image,stimuli/out1.png,stimuli/correct_out1.png,stimuli/out2.png,,,,,,,,,,,,,,,,,,,,,,,,,,,,,,,,,,,,,,
,,5b278c153a20420001efd41b,46,female,2024-04-19_17h37.32.958,stockport_simplified,2022.2.4,MacIntel,60.60606061,661e456ee6de07e70aa9ef7b,66229da778e355f7ac8acefe,,,,,,,,,,,,,,,,,,,,,,,,,,,,,,,,,,359.9454,362.8196,"[7,1,2,8,3,5,4,6]","[[0.3,0.2],[-0.3,0.2]]","[[-0.125,-0.2],[0.125,-0.2]]",-0.099652235,-0.212499051,1,0,0,2.3728,o1_image,362.8207,0,363.3207,363.3207,365.3092,0,0,0,0,1,,,,,,,,,,,,,,,,,,,,,,,,,,,,,,,,,,,,,,,,,,,,,,,,,,
,,5b278c153a20420001efd41b,46,female,2024-04-19_17h37.32.958,stockport_simplified,2022.2.4,MacIntel,60.60606061,661e456ee6de07e70aa9ef7b,66229da778e355f7ac8acefe,,,,,,,,,,,,,,,,,,,,,,,,,,,,,,,,,,,,,,,,,,,,,,,,,,,,,,,,0,35,35,14,1,B,X,N,o2_image,stimuli/out2.png,stimuli/out1.png,stimuli/correct_out2.png,,,,,,,,,,,,,,,,,,,,,,,,,,,,,,,,,,,,,,
,,5b278c153a20420001efd41b,46,female,2024-04-19_17h37.32.958,stockport_simplified,2022.2.4,MacIntel,60.60606061,661e456ee6de07e70aa9ef7b,66229da778e355f7ac8acefe,,,,,,,,,,,,,,,,,,,,,,,,,,,,,,,,,,365.3096,368.0662,"[7,1,2,8,3,5,4,6]","[[-0.3,0.2],[0.3,0.2]]","[[-0.125,-0.2],[0.125,-0.2]]",-0.096445991,-0.217924398,1,0,0,2.2551,o1_image,368.0803,1,368.5682,368.5682,370.5566,0,0,0,0,1,,,,,,,,,,,,,,,,,,,,,,,,,,,,,,,,,,,,,,,,,,,,,,,,,,
,,5b278c153a20420001efd41b,46,female,2024-04-19_17h37.32.958,stockport_simplified,2022.2.4,MacIntel,60.60606061,661e456ee6de07e70aa9ef7b,66229da778e355f7ac8acefe,,,,,,,,,,,,,,,,,,,,,,,,,,,,,,,,,,,,,,,,,,,,,,,,,,,,,,,,0,36,36,35,1,A,Y,N,o1_image,stimuli/out1.png,stimuli/correct_out1.png,stimuli/out2.png,,,,,,,,,,,,,,,,,,,,,,,,,,,,,,,,,,,,,,
,,5b278c153a20420001efd41b,46,female,2024-04-19_17h37.32.958,stockport_simplified,2022.2.4,MacIntel,60.60606061,661e456ee6de07e70aa9ef7b,66229da778e355f7ac8acefe,,,,,,,,,,,,,,,,,,,,,,,,,,,,,,,,,,370.5571,372.2275,"[7,1,2,8,3,5,4,6]","[[-0.3,0.2],[0.3,0.2]]","[[0.125,-0.2],[-0.125,-0.2]]",-0.096445991,-0.217924398,1,0,0,1.169,o2_image,372.2282,0,372.7291,372.7292,374.7178,0,0,0,0,1,,,,,,,,,,,,,,,,,,,,,,,,,,,,,,,,,,,,,,,,,,,,,,,,,,
,,5b278c153a20420001efd41b,46,female,2024-04-19_17h37.32.958,stockport_simplified,2022.2.4,MacIntel,60.60606061,661e456ee6de07e70aa9ef7b,66229da778e355f7ac8acefe,,,,,,,,,,,,,,,,,,,,,,,,,,,,,,,,,,,,,,,,,,,,,,,,,,,,,,,,0,37,37,32,1,A,X,N,o1_image,stimuli/out1.png,stimuli/correct_out1.png,stimuli/out2.png,,,,,,,,,,,,,,,,,,,,,,,,,,,,,,,,,,,,,,
,,5b278c153a20420001efd41b,46,female,2024-04-19_17h37.32.958,stockport_simplified,2022.2.4,MacIntel,60.60606061,661e456ee6de07e70aa9ef7b,66229da778e355f7ac8acefe,,,,,,,,,,,,,,,,,,,,,,,,,,,,,,,,,,374.7182,377.2914,"[7,1,2,8,3,5,4,6]","[[-0.3,0.2],[0.3,0.2]]","[[0.125,-0.2],[-0.125,-0.2]]",0.080098334,-0.202002021,1,0,0,2.0718,o1_image,377.2921,1,377.7927,377.7927,379.7807,0,0,0,0,1,,,,,,,,,,,,,,,,,,,,,,,,,,,,,,,,,,,,,,,,,,,,,,,,,,
,,5b278c153a20420001efd41b,46,female,2024-04-19_17h37.32.958,stockport_simplified,2022.2.4,MacIntel,60.60606061,661e456ee6de07e70aa9ef7b,66229da778e355f7ac8acefe,,,,,,,,,,,,,,,,,,,,,,,,,,,,,,,,,,,,,,,,,,,,,,,,,,,,,,,,0,38,38,51,1,N,M,C,o1_image,stimuli/out1.png,stimuli/correct_out1.png,stimuli/out2.png,,,,,,,,,,,,,,,,,,,,,,,,,,,,,,,,,,,,,,
,,5b278c153a20420001efd41b,46,female,2024-04-19_17h37.32.958,stockport_simplified,2022.2.4,MacIntel,60.60606061,661e456ee6de07e70aa9ef7b,66229da778e355f7ac8acefe,,,,,,,,,,,,,,,,,,,,,,,,,,,,,,,,,,379.781,383.6416,"[7,1,2,8,3,5,4,6]","[[-0.3,0.2],[0.3,0.2]]","[[0.125,-0.2],[-0.125,-0.2]]",0.101400486,-0.20517924,1,0,0,3.358,o1_image,383.6557,1,384.1432,384.1432,386.1315,0,0,0,0,1,,,,,,,,,,,,,,,,,,,,,,,,,,,,,,,,,,,,,,,,,,,,,,,,,,
,,5b278c153a20420001efd41b,46,female,2024-04-19_17h37.32.958,stockport_simplified,2022.2.4,MacIntel,60.60606061,661e456ee6de07e70aa9ef7b,66229da778e355f7ac8acefe,,,,,,,,,,,,,,,,,,,,,,,,,,,,,,,,,,,,,,,,,,,,,,,,,,,,,,,,0,39,39,31,1,A,X,N,o1_image,stimuli/out1.png,stimuli/correct_out1.png,stimuli/out2.png,,,,,,,,,,,,,,,,,,,,,,,,,,,,,,,,,,,,,,
,,5b278c153a20420001efd41b,46,female,2024-04-19_17h37.32.958,stockport_simplified,2022.2.4,MacIntel,60.60606061,661e456ee6de07e70aa9ef7b,66229da778e355f7ac8acefe,,,,,,,,,,,,,,,,,,,,,,,,,,,,,,,,,,386.1319,388.1869,"[7,1,2,8,3,5,4,6]","[[-0.3,0.2],[0.3,0.2]]","[[-0.125,-0.2],[0.125,-0.2]]",0.101695828,-0.205769925,1,0,0,1.5536,o2_image,388.1875,1,388.6881,388.6882,390.6771,0,0,0,0,1,,,,,,,,,,,,,,,,,,,,,,,,,,,,,,,,,,,,,,,,,,,,,,,,,,
,,5b278c153a20420001efd41b,46,female,2024-04-19_17h37.32.958,stockport_simplified,2022.2.4,MacIntel,60.60606061,661e456ee6de07e70aa9ef7b,66229da778e355f7ac8acefe,,,,,,,,,,,,,,,,,,,,,,,,,,,,,,,,,,,,,,,,,,,,,,,,,,,,,,,,0,40,40,11,1,B,X,N,o2_image,stimuli/out2.png,stimuli/out1.png,stimuli/correct_out2.png,,,,,,,,,,,,,,,,,,,,,,,,,,,,,,,,,,,,,,
,,5b278c153a20420001efd41b,46,female,2024-04-19_17h37.32.958,stockport_simplified,2022.2.4,MacIntel,60.60606061,661e456ee6de07e70aa9ef7b,66229da778e355f7ac8acefe,,,,,,,,,,,,,,,,,,,,,,,,,,,,,,,,,,390.6775,392.532,"[7,1,2,8,3,5,4,6]","[[0.3,0.2],[-0.3,0.2]]","[[0.125,-0.2],[-0.125,-0.2]]",-0.121415337,-0.237253418,1,0,0,1.3531,o2_image,392.5325,1,393.0333,393.0333,395.0222,0,0,0,0,1,,,,,,,,,,,,,,,,,,,,,,,,,,,,,,,,,,,,,,,,,,,,,,,,,,
,,5b278c153a20420001efd41b,46,female,2024-04-19_17h37.32.958,stockport_simplified,2022.2.4,MacIntel,60.60606061,661e456ee6de07e70aa9ef7b,66229da778e355f7ac8acefe,,,,,,,,,,,,,,,,,,,,,,,,,,,,,,,,,,,,,,,,,,,,,,,,,,,,,,,,0,41,41,25,1,N,M,D,o2_image,stimuli/out2.png,stimuli/out1.png,stimuli/correct_out2.png,,,,,,,,,,,,,,,,,,,,,,,,,,,,,,,,,,,,,,
,,5b278c153a20420001efd41b,46,female,2024-04-19_17h37.32.958,stockport_simplified,2022.2.4,MacIntel,60.60606061,661e456ee6de07e70aa9ef7b,66229da778e355f7ac8acefe,,,,,,,,,,,,,,,,,,,,,,,,,,,,,,,,,,395.0225,397.3279,"[7,1,2,8,3,5,4,6]","[[-0.3,0.2],[0.3,0.2]]","[[-0.125,-0.2],[0.125,-0.2]]",-0.09806193,-0.239257677,1,0,0,1.8041,o1_image,397.3288,1,397.8295,397.8296,399.8181,0,0,0,0,1,,,,,,,,,,,,,,,,,,,,,,,,,,,,,,,,,,,,,,,,,,,,,,,,,,
,,5b278c153a20420001efd41b,46,female,2024-04-19_17h37.32.958,stockport_simplified,2022.2.4,MacIntel,60.60606061,661e456ee6de07e70aa9ef7b,66229da778e355f7ac8acefe,,,,,,,,,,,,,,,,,,,,,,,,,,,,,,,,,,,,,,,,,,,,,,,,,,,,,,,,0,42,42,38,1,A,Y,N,o1_image,stimuli/out1.png,stimuli/correct_out1.png,stimuli/out2.png,,,,,,,,,,,,,,,,,,,,,,,,,,,,,,,,,,,,,,
,,5b278c153a20420001efd41b,46,female,2024-04-19_17h37.32.958,stockport_simplified,2022.2.4,MacIntel,60.60606061,661e456ee6de07e70aa9ef7b,66229da778e355f7ac8acefe,,,,,,,,,,,,,,,,,,,,,,,,,,,,,,,,,,399.8185,402.0402,"[7,1,2,8,3,5,4,6]","[[-0.3,0.2],[0.3,0.2]]","[[-0.125,-0.2],[0.125,-0.2]]",-0.095108507,-0.240439046,1,0,0,1.7204,o1_image,402.0409,0,402.5421,402.5421,404.5309,0,0,0,0,1,,,,,,,,,,,,,,,,,,,,,,,,,,,,,,,,,,,,,,,,,,,,,,,,,,
,,5b278c153a20420001efd41b,46,female,2024-04-19_17h37.32.958,stockport_simplified,2022.2.4,MacIntel,60.60606061,661e456ee6de07e70aa9ef7b,66229da778e355f7ac8acefe,,,,,,,,,,,,,,,,,,,,,,,,,,,,,,,,,,,,,,,,,,,,,,,,,,,,,,,,0,43,43,42,1,B,X,N,o2_image,stimuli/out2.png,stimuli/out1.png,stimuli/correct_out2.png,,,,,,,,,,,,,,,,,,,,,,,,,,,,,,,,,,,,,,
,,5b278c153a20420001efd41b,46,female,2024-04-19_17h37.32.958,stockport_simplified,2022.2.4,MacIntel,60.60606061,661e456ee6de07e70aa9ef7b,66229da778e355f7ac8acefe,,,,,,,,,,,,,,,,,,,,,,,,,,,,,,,,,,404.5313,406.8031,"[7,1,2,8,3,5,4,6]","[[-0.3,0.2],[0.3,0.2]]","[[0.125,-0.2],[-0.125,-0.2]]",-0.08239407,-0.223275553,1,0,0,1.7706,o2_image,406.804,1,407.3049,407.305,409.2934,0,0,0,0,1,,,,,,,,,,,,,,,,,,,,,,,,,,,,,,,,,,,,,,,,,,,,,,,,,,
,,5b278c153a20420001efd41b,46,female,2024-04-19_17h37.32.958,stockport_simplified,2022.2.4,MacIntel,60.60606061,661e456ee6de07e70aa9ef7b,66229da778e355f7ac8acefe,,,,,,,,,,,,,,,,,,,,,,,,,,,,,,,,,,,,,,,,,,,,,,,,,,,,,,,,0,44,44,45,1,B,Y,N,o2_image,stimuli/out2.png,stimuli/out1.png,stimuli/correct_out2.png,,,,,,,,,,,,,,,,,,,,,,,,,,,,,,,,,,,,,,
,,5b278c153a20420001efd41b,46,female,2024-04-19_17h37.32.958,stockport_simplified,2022.2.4,MacIntel,60.60606061,661e456ee6de07e70aa9ef7b,66229da778e355f7ac8acefe,,,,,,,,,,,,,,,,,,,,,,,,,,,,,,,,,,409.2938,411.8839,"[7,1,2,8,3,5,4,6]","[[-0.3,0.2],[0.3,0.2]]","[[-0.125,-0.2],[0.125,-0.2]]",-0.094002211,-0.198357883,1,0,0,2.0883,o1_image,411.899,1,412.402,412.402,414.3905,0,0,0,0,1,,,,,,,,,,,,,,,,,,,,,,,,,,,,,,,,,,,,,,,,,,,,,,,,,,
,,5b278c153a20420001efd41b,46,female,2024-04-19_17h37.32.958,stockport_simplified,2022.2.4,MacIntel,60.60606061,661e456ee6de07e70aa9ef7b,66229da778e355f7ac8acefe,,,,,,,,,,,,,,,,,,,,,,,,,,,,,,,,,,,,,,,,,,,,,,,,,,,,,,,,0,45,45,21,1,N,M,C,o1_image,stimuli/out1.png,stimuli/correct_out1.png,stimuli/out2.png,,,,,,,,,,,,,,,,,,,,,,,,,,,,,,,,,,,,,,
,,5b278c153a20420001efd41b,46,female,2024-04-19_17h37.32.958,stockport_simplified,2022.2.4,MacIntel,60.60606061,661e456ee6de07e70aa9ef7b,66229da778e355f7ac8acefe,,,,,,,,,,,,,,,,,,,,,,,,,,,,,,,,,,414.3911,417.7154,"[7,1,2,8,3,5,4,6]","[[0.3,0.2],[-0.3,0.2]]","[[-0.125,-0.2],[0.125,-0.2]]",0.111357761,-0.211453179,1,0,0,2.8231,o2_image,417.728,0,418.2175,418.2175,420.2055,0,0,0,0,1,,,,,,,,,,,,,,,,,,,,,,,,,,,,,,,,,,,,,,,,,,,,,,,,,,
,,5b278c153a20420001efd41b,46,female,2024-04-19_17h37.32.958,stockport_simplified,2022.2.4,MacIntel,60.60606061,661e456ee6de07e70aa9ef7b,66229da778e355f7ac8acefe,,,,,,,,,,,,,,,,,,,,,,,,,,,,,,,,,,,,,,,,,,,,,,,,,,,,,,,,0,46,46,8,1,A,Y,N,o1_image,stimuli/out1.png,stimuli/correct_out1.png,stimuli/out2.png,,,,,,,,,,,,,,,,,,,,,,,,,,,,,,,,,,,,,,
,,5b278c153a20420001efd41b,46,female,2024-04-19_17h37.32.958,stockport_simplified,2022.2.4,MacIntel,60.60606061,661e456ee6de07e70aa9ef7b,66229da778e355f7ac8acefe,,,,,,,,,,,,,,,,,,,,,,,,,,,,,,,,,,420.2058,423.2465,"[7,1,2,8,3,5,4,6]","[[0.3,0.2],[-0.3,0.2]]","[[0.125,-0.2],[-0.125,-0.2]]",0.114813639,-0.207077976,1,0,0,2.5388,o1_image,423.2474,1,423.7488,423.7489,425.754,0,0,0,0,1,,,,,,,,,,,,,,,,,,,,,,,,,,,,,,,,,,,,,,,,,,,,,,,,,,
,,5b278c153a20420001efd41b,46,female,2024-04-19_17h37.32.958,stockport_simplified,2022.2.4,MacIntel,60.60606061,661e456ee6de07e70aa9ef7b,66229da778e355f7ac8acefe,,,,,,,,,,,,,,,,,,,,,,,,,,,,,,,,,,,,,,,,,,,,,,,,,,,,,,,,0,47,47,50,1,N,M,C,o1_image,stimuli/out1.png,stimuli/correct_out1.png,stimuli/out2.png,,,,,,,,,,,,,,,,,,,,,,,,,,,,,,,,,,,,,,
,,5b278c153a20420001efd41b,46,female,2024-04-19_17h37.32.958,stockport_simplified,2022.2.4,MacIntel,60.60606061,661e456ee6de07e70aa9ef7b,66229da778e355f7ac8acefe,,,,,,,,,,,,,,,,,,,,,,,,,,,,,,,,,,425.7544,427.692,"[7,1,2,8,3,5,4,6]","[[0.3,0.2],[-0.3,0.2]]","[[0.125,-0.2],[-0.125,-0.2]]",-0.119740668,-0.21393514,1,0,0,1.4359,o2_image,427.6926,1,428.1939,428.194,430.1827,0,0,0,0,1,,,,,,,,,,,,,,,,,,,,,,,,,,,,,,,,,,,,,,,,,,,,,,,,,,
,,5b278c153a20420001efd41b,46,female,2024-04-19_17h37.32.958,stockport_simplified,2022.2.4,MacIntel,60.60606061,661e456ee6de07e70aa9ef7b,66229da778e355f7ac8acefe,,,,,,,,,,,,,,,,,,,,,,,,,,,,,,,,,,,,,,,,,,,,,,,,,,,,,,,,0,48,48,12,1,B,X,N,o2_image,stimuli/out2.png,stimuli/out1.png,stimuli/correct_out2.png,,,,,,,,,,,,,,,,,,,,,,,,,,,,,,,,,,,,,,
,,5b278c153a20420001efd41b,46,female,2024-04-19_17h37.32.958,stockport_simplified,2022.2.4,MacIntel,60.60606061,661e456ee6de07e70aa9ef7b,66229da778e355f7ac8acefe,,,,,,,,,,,,,,,,,,,,,,,,,,,,,,,,,,430.1831,432.505,"[7,1,2,8,3,5,4,6]","[[-0.3,0.2],[0.3,0.2]]","[[-0.125,-0.2],[0.125,-0.2]]",0.093971083,-0.22332784,1,0,0,1.8205,o2_image,432.5058,0,433.0069,433.007,435.0117,0,0,0,0,1,,,,,,,,,,,,,,,,,,,,,,,,,,,,,,,,,,,,,,,,,,,,,,,,,,
,,5b278c153a20420001efd41b,46,female,2024-04-19_17h37.32.958,stockport_simplified,2022.2.4,MacIntel,60.60606061,661e456ee6de07e70aa9ef7b,66229da778e355f7ac8acefe,,,,,,,,,,,,,,,,,,,,,,,,,,,,,,,,,,,,,,,,,,,,,,,,,,,,,,,,0,49,49,0,1,A,X,N,o1_image,stimuli/out1.png,stimuli/correct_out1.png,stimuli/out2.png,,,,,,,,,,,,,,,,,,,,,,,,,,,,,,,,,,,,,,
,,5b278c153a20420001efd41b,46,female,2024-04-19_17h37.32.958,stockport_simplified,2022.2.4,MacIntel,60.60606061,661e456ee6de07e70aa9ef7b,66229da778e355f7ac8acefe,,,,,,,,,,,,,,,,,,,,,,,,,,,,,,,,,,435.0121,437.9699,"[7,1,2,8,3,5,4,6]","[[0.3,0.2],[-0.3,0.2]]","[[0.125,-0.2],[-0.125,-0.2]]",-0.104324476,-0.218684014,1,0,0,2.4562,o2_image,437.9826,0,438.4711,438.4711,440.46,0,0,0,0,1,,,,,,,,,,,,,,,,,,,,,,,,,,,,,,,,,,,,,,,,,,,,,,,,,,
,,5b278c153a20420001efd41b,46,female,2024-04-19_17h37.32.958,stockport_simplified,2022.2.4,MacIntel,60.60606061,661e456ee6de07e70aa9ef7b,66229da778e355f7ac8acefe,,,,,,,,,,,,,,,,,,,,,,,,,,,,,,,,,,,,,,,,,,,,,,,,,,,,,,,,0,50,50,6,1,A,Y,N,o1_image,stimuli/out1.png,stimuli/correct_out1.png,stimuli/out2.png,,,,,,,,,,,,,,,,,,,,,,,,,,,,,,,,,,,,,,
,,5b278c153a20420001efd41b,46,female,2024-04-19_17h37.32.958,stockport_simplified,2022.2.4,MacIntel,60.60606061,661e456ee6de07e70aa9ef7b,66229da778e355f7ac8acefe,,,,,,,,,,,,,,,,,,,,,,,,,,,,,,,,,,440.4604,442.6147,"[7,1,2,8,3,5,4,6]","[[-0.3,0.2],[0.3,0.2]]","[[-0.125,-0.2],[0.125,-0.2]]",-0.109444173,-0.221682197,1,0,0,1.6527,o1_image,442.6155,1,443.1165,443.1165,445.1058,0,0,0,0,1,,,,,,,,,,,,,,,,,,,,,,,,,,,,,,,,,,,,,,,,,,,,,,,,,,
,,5b278c153a20420001efd41b,46,female,2024-04-19_17h37.32.958,stockport_simplified,2022.2.4,MacIntel,60.60606061,661e456ee6de07e70aa9ef7b,66229da778e355f7ac8acefe,,,,,,,,,,,,,,,,,,,,,,,,,,,,,,,,,,,,,,,,,,,,,,,,,,,,,,,,0,51,51,24,1,N,M,C,o1_image,stimuli/out1.png,stimuli/correct_out1.png,stimuli/out2.png,,,,,,,,,,,,,,,,,,,,,,,,,,,,,,,,,,,,,,
,,5b278c153a20420001efd41b,46,female,2024-04-19_17h37.32.958,stockport_simplified,2022.2.4,MacIntel,60.60606061,661e456ee6de07e70aa9ef7b,66229da778e355f7ac8acefe,,,,,,,,,,,,,,,,,,,,,,,,,,,,,,,,,,445.1062,447.3607,"[7,1,2,8,3,5,4,6]","[[0.3,0.2],[-0.3,0.2]]","[[-0.125,-0.2],[0.125,-0.2]]",0.092578532,-0.220409478,1,0,0,1.7532,o2_image,447.3613,0,447.8632,447.8632,449.8518,0,0,0,0,1,,,,,,,,,,,,,,,,,,,,,,,,,,,,,,,,,,,,,,,,,,,,,,,,,,
,,5b278c153a20420001efd41b,46,female,2024-04-19_17h37.32.958,stockport_simplified,2022.2.4,MacIntel,60.60606061,661e456ee6de07e70aa9ef7b,66229da778e355f7ac8acefe,,,,,,,,,,,,,,,,,,,,,,,,,,,,,,,,,,,,,,,,,,,,,,,,,,,,,,,,0,52,52,4,1,A,X,N,o1_image,stimuli/out1.png,stimuli/correct_out1.png,stimuli/out2.png,,,,,,,,,,,,,,,,,,,,,,,,,,,,,,,,,,,,,,
,,5b278c153a20420001efd41b,46,female,2024-04-19_17h37.32.958,stockport_simplified,2022.2.4,MacIntel,60.60606061,661e456ee6de07e70aa9ef7b,66229da778e355f7ac8acefe,,,,,,,,,,,,,,,,,,,,,,,,,,,,,,,,,,449.8522,451.4564,"[7,1,2,8,3,5,4,6]","[[0.3,0.2],[-0.3,0.2]]","[[-0.125,-0.2],[0.125,-0.2]]",-0.075406562,-0.199946425,1,0,0,1.1029,o1_image,451.4574,1,451.9573,451.9574,453.9461,0,0,0,0,1,,,,,,,,,,,,,,,,,,,,,,,,,,,,,,,,,,,,,,,,,,,,,,,,,,
,,5b278c153a20420001efd41b,46,female,2024-04-19_17h37.32.958,stockport_simplified,2022.2.4,MacIntel,60.60606061,661e456ee6de07e70aa9ef7b,66229da778e355f7ac8acefe,,,,,,,,,,,,,,,,,,,,,,,,,,,,,,,,,,,,,,,,,,,,,,,,,,,,,,,,0,53,53,2,1,A,X,N,o1_image,stimuli/out1.png,stimuli/correct_out1.png,stimuli/out2.png,,,,,,,,,,,,,,,,,,,,,,,,,,,,,,,,,,,,,,
,,5b278c153a20420001efd41b,46,female,2024-04-19_17h37.32.958,stockport_simplified,2022.2.4,MacIntel,60.60606061,661e456ee6de07e70aa9ef7b,66229da778e355f7ac8acefe,,,,,,,,,,,,,,,,,,,,,,,,,,,,,,,,,,453.9465,456.386,"[7,1,2,8,3,5,4,6]","[[-0.3,0.2],[0.3,0.2]]","[[0.125,-0.2],[-0.125,-0.2]]",-0.090841132,-0.199131809,1,0,0,1.9383,o2_image,456.3867,0,456.8863,456.8863,458.8757,0,0,0,0,1,,,,,,,,,,,,,,,,,,,,,,,,,,,,,,,,,,,,,,,,,,,,,,,,,,
,,5b278c153a20420001efd41b,46,female,2024-04-19_17h37.32.958,stockport_simplified,2022.2.4,MacIntel,60.60606061,661e456ee6de07e70aa9ef7b,66229da778e355f7ac8acefe,,,,,,,,,,,,,,,,,,,,,,,,,,,,,,,,,,,,,,,,,,,,,,,,,,,,,,,,0,54,54,33,1,A,X,N,o1_image,stimuli/out1.png,stimuli/correct_out1.png,stimuli/out2.png,,,,,,,,,,,,,,,,,,,,,,,,,,,,,,,,,,,,,,
,,5b278c153a20420001efd41b,46,female,2024-04-19_17h37.32.958,stockport_simplified,2022.2.4,MacIntel,60.60606061,661e456ee6de07e70aa9ef7b,66229da778e355f7ac8acefe,,,,,,,,,,,,,,,,,,,,,,,,,,,,,,,,,,458.8761,461.5823,"[7,1,2,8,3,5,4,6]","[[0.3,0.2],[-0.3,0.2]]","[[0.125,-0.2],[-0.125,-0.2]]",0.136467896,-0.216778971,1,0,0,2.2057,o1_image,461.583,0,462.0847,462.0847,464.0726,0,0,0,0,1,,,,,,,,,,,,,,,,,,,,,,,,,,,,,,,,,,,,,,,,,,,,,,,,,,
,,5b278c153a20420001efd41b,46,female,2024-04-19_17h37.32.958,stockport_simplified,2022.2.4,MacIntel,60.60606061,661e456ee6de07e70aa9ef7b,66229da778e355f7ac8acefe,,,,,,,,,,,,,,,,,,,,,,,,,,,,,,,,,,,,,,,,,,,,,,,,,,,,,,,,0,55,55,17,1,B,Y,N,o2_image,stimuli/out2.png,stimuli/out1.png,stimuli/correct_out2.png,,,,,,,,,,,,,,,,,,,,,,,,,,,,,,,,,,,,,,
,,5b278c153a20420001efd41b,46,female,2024-04-19_17h37.32.958,stockport_simplified,2022.2.4,MacIntel,60.60606061,661e456ee6de07e70aa9ef7b,66229da778e355f7ac8acefe,,,,,,,,,,,,,,,,,,,,,,,,,,,,,,,,,,464.073,465.7778,"[7,1,2,8,3,5,4,6]","[[0.3,0.2],[-0.3,0.2]]","[[-0.125,-0.2],[0.125,-0.2]]",0.136467896,-0.216778971,1,0,0,1.2029,o2_image,465.7785,1,466.2788,466.2788,468.2677,0,0,0,0,1,,,,,,,,,,,,,,,,,,,,,,,,,,,,,,,,,,,,,,,,,,,,,,,,,,
,,5b278c153a20420001efd41b,46,female,2024-04-19_17h37.32.958,stockport_simplified,2022.2.4,MacIntel,60.60606061,661e456ee6de07e70aa9ef7b,66229da778e355f7ac8acefe,,,,,,,,,,,,,,,,,,,,,,,,,,,,,,,,,,,,,,,,,,,,,,,,,,,,,,,,0,56,56,55,1,N,M,D,o2_image,stimuli/out2.png,stimuli/out1.png,stimuli/correct_out2.png,,,,,,,,,,,,,,,,,,,,,,,,,,,,,,,,,,,,,,
,,5b278c153a20420001efd41b,46,female,2024-04-19_17h37.32.958,stockport_simplified,2022.2.4,MacIntel,60.60606061,661e456ee6de07e70aa9ef7b,66229da778e355f7ac8acefe,,,,,,,,,,,,,,,,,,,,,,,,,,,,,,,,,,468.2681,469.6045,"[7,1,2,8,3,5,4,6]","[[0.3,0.2],[-0.3,0.2]]","[[0.125,-0.2],[-0.125,-0.2]]",0.136467896,-0.216778971,1,0,0,0.8356,o1_image,469.6058,0,470.1059,470.1059,472.0941,0,0,0,0,1,,,,,,,,,,,,,,,,,,,,,,,,,,,,,,,,,,,,,,,,,,,,,,,,,,
,,5b278c153a20420001efd41b,46,female,2024-04-19_17h37.32.958,stockport_simplified,2022.2.4,MacIntel,60.60606061,661e456ee6de07e70aa9ef7b,66229da778e355f7ac8acefe,,,,,,,,,,,,,,,,,,,,,,,,,,,,,,,,,,,,,,,,,,,,,,,,,,,,,,,,0,57,57,29,1,N,M,D,o2_image,stimuli/out2.png,stimuli/out1.png,stimuli/correct_out2.png,,,,,,,,,,,,,,,,,,,,,,,,,,,,,,,,,,,,,,
,,5b278c153a20420001efd41b,46,female,2024-04-19_17h37.32.958,stockport_simplified,2022.2.4,MacIntel,60.60606061,661e456ee6de07e70aa9ef7b,66229da778e355f7ac8acefe,,,,,,,,,,,,,,,,,,,,,,,,,,,,,,,,,,472.0945,474.9186,"[7,1,2,8,3,5,4,6]","[[0.3,0.2],[-0.3,0.2]]","[[0.125,-0.2],[-0.125,-0.2]]",-0.097471585,-0.209253065,1,0,0,2.3228,o2_image,474.9195,1,475.4202,475.4202,477.4087,0,0,0,0,1,,,,,,,,,,,,,,,,,,,,,,,,,,,,,,,,,,,,,,,,,,,,,,,,,,
,,5b278c153a20420001efd41b,46,female,2024-04-19_17h37.32.958,stockport_simplified,2022.2.4,MacIntel,60.60606061,661e456ee6de07e70aa9ef7b,66229da778e355f7ac8acefe,,,,,,,,,,,,,,,,,,,,,,,,,,,,,,,,,,,,,,,,,,,,,,,,,,,,,,,,0,58,58,59,1,N,M,D,o2_image,stimuli/out2.png,stimuli/out1.png,stimuli/correct_out2.png,,,,,,,,,,,,,,,,,,,,,,,,,,,,,,,,,,,,,,
,,5b278c153a20420001efd41b,46,female,2024-04-19_17h37.32.958,stockport_simplified,2022.2.4,MacIntel,60.60606061,661e456ee6de07e70aa9ef7b,66229da778e355f7ac8acefe,,,,,,,,,,,,,,,,,,,,,,,,,,,,,,,,,,477.4091,480.6669,"[7,1,2,8,3,5,4,6]","[[-0.3,0.2],[0.3,0.2]]","[[0.125,-0.2],[-0.125,-0.2]]",-0.093222249,-0.182578328,1,0,0,2.7558,o2_image,480.6814,1,481.1856,481.1856,483.174,0,0,0,0,1,,,,,,,,,,,,,,,,,,,,,,,,,,,,,,,,,,,,,,,,,,,,,,,,,,
,,5b278c153a20420001efd41b,46,female,2024-04-19_17h37.32.958,stockport_simplified,2022.2.4,MacIntel,60.60606061,661e456ee6de07e70aa9ef7b,66229da778e355f7ac8acefe,,,,,,,,,,,,,,,,,,,,,,,,,,,,,,,,,,,,,,,,,,,,,,,,,,,,,,,,0,59,59,13,1,B,X,N,o2_image,stimuli/out2.png,stimuli/out1.png,stimuli/correct_out2.png,,,,,,,,,,,,,,,,,,,,,,,,,,,,,,,,,,,,,,
,,5b278c153a20420001efd41b,46,female,2024-04-19_17h37.32.958,stockport_simplified,2022.2.4,MacIntel,60.60606061,661e456ee6de07e70aa9ef7b,66229da778e355f7ac8acefe,,,,,,,,,,,,,,,,,,,,,,,,,,,,,,,,,,483.1743,485.1459,"[7,1,2,8,3,5,4,6]","[[0.3,0.2],[-0.3,0.2]]","[[-0.125,-0.2],[0.125,-0.2]]",0.116896227,-0.208738675,1,0,0,1.4699,o2_image,485.1467,1,485.6471,485.6471,487.6351,0,0,0,0,1,,,,,,,,,,,,,,,,,,,,,,,,,,,,,,,,,,,,,,,,,,,,,,,,,,
,,5b278c153a20420001efd41b,46,female,2024-04-19_17h37.32.958,stockport_simplified,2022.2.4,MacIntel,60.60606061,661e456ee6de07e70aa9ef7b,66229da778e355f7ac8acefe,,,,,,,,,,,,,,,,,,,,,,,,,,,,,,,,,,,,,,,,,,,,,,,,,,,,,,,,1,0,60,25,1,N,M,D,o2_image,stimuli/out2.png,stimuli/out1.png,stimuli/correct_out2.png,,,,,,,,,,,,,,,,,,,,,,,,,,,,,,,,,,,,,,
,,5b278c153a20420001efd41b,46,female,2024-04-19_17h37.32.958,stockport_simplified,2022.2.4,MacIntel,60.60606061,661e456ee6de07e70aa9ef7b,66229da778e355f7ac8acefe,,,,,,,,,,,,,,,,,,,,,,,,,,,,,,,,,,487.6354,490.762,"[7,1,2,8,3,5,4,6]","[[0.3,0.2],[-0.3,0.2]]","[[-0.125,-0.2],[0.125,-0.2]]",-0.159299113,-0.210291206,1,0,0,2.624,o1_image,490.7753,0,491.2628,491.2628,493.251,0,0,0,0,1,,,,,,,,,,,,,,,,,,,,,,,,,,,,,,,,,,,,,,,,,,,,,,,,,,
,,5b278c153a20420001efd41b,46,female,2024-04-19_17h37.32.958,stockport_simplified,2022.2.4,MacIntel,60.60606061,661e456ee6de07e70aa9ef7b,66229da778e355f7ac8acefe,,,,,,,,,,,,,,,,,,,,,,,,,,,,,,,,,,,,,,,,,,,,,,,,,,,,,,,,1,1,61,43,1,B,X,N,o2_image,stimuli/out2.png,stimuli/out1.png,stimuli/correct_out2.png,,,,,,,,,,,,,,,,,,,,,,,,,,,,,,,,,,,,,,
,,5b278c153a20420001efd41b,46,female,2024-04-19_17h37.32.958,stockport_simplified,2022.2.4,MacIntel,60.60606061,661e456ee6de07e70aa9ef7b,66229da778e355f7ac8acefe,,,,,,,,,,,,,,,,,,,,,,,,,,,,,,,,,,493.2514,495.2732,"[7,1,2,8,3,5,4,6]","[[0.3,0.2],[-0.3,0.2]]","[[-0.125,-0.2],[0.125,-0.2]]",-0.117862956,-0.19989841,1,0,0,1.5202,o1_image,495.2739,1,495.7744,495.7744,497.7625,0,0,0,0,1,,,,,,,,,,,,,,,,,,,,,,,,,,,,,,,,,,,,,,,,,,,,,,,,,,
,,5b278c153a20420001efd41b,46,female,2024-04-19_17h37.32.958,stockport_simplified,2022.2.4,MacIntel,60.60606061,661e456ee6de07e70aa9ef7b,66229da778e355f7ac8acefe,,,,,,,,,,,,,,,,,,,,,,,,,,,,,,,,,,,,,,,,,,,,,,,,,,,,,,,,1,2,62,24,1,N,M,C,o1_image,stimuli/out1.png,stimuli/correct_out1.png,stimuli/out2.png,,,,,,,,,,,,,,,,,,,,,,,,,,,,,,,,,,,,,,
,,5b278c153a20420001efd41b,46,female,2024-04-19_17h37.32.958,stockport_simplified,2022.2.4,MacIntel,60.60606061,661e456ee6de07e70aa9ef7b,66229da778e355f7ac8acefe,,,,,,,,,,,,,,,,,,,,,,,,,,,,,,,,,,497.7629,499.5176,"[7,1,2,8,3,5,4,6]","[[-0.3,0.2],[0.3,0.2]]","[[-0.125,-0.2],[0.125,-0.2]]",-0.117862956,-0.199334378,1,0,0,1.2542,o1_image,499.5182,1,500.0193,500.0193,502.008,0,0,0,0,1,,,,,,,,,,,,,,,,,,,,,,,,,,,,,,,,,,,,,,,,,,,,,,,,,,
,,5b278c153a20420001efd41b,46,female,2024-04-19_17h37.32.958,stockport_simplified,2022.2.4,MacIntel,60.60606061,661e456ee6de07e70aa9ef7b,66229da778e355f7ac8acefe,,,,,,,,,,,,,,,,,,,,,,,,,,,,,,,,,,,,,,,,,,,,,,,,,,,,,,,,1,3,63,54,1,N,M,C,o1_image,stimuli/out1.png,stimuli/correct_out1.png,stimuli/out2.png,,,,,,,,,,,,,,,,,,,,,,,,,,,,,,,,,,,,,,
,,5b278c153a20420001efd41b,46,female,2024-04-19_17h37.32.958,stockport_simplified,2022.2.4,MacIntel,60.60606061,661e456ee6de07e70aa9ef7b,66229da778e355f7ac8acefe,,,,,,,,,,,,,,,,,,,,,,,,,,,,,,,,,,502.0083,504.6977,"[7,1,2,8,3,5,4,6]","[[0.3,0.2],[-0.3,0.2]]","[[0.125,-0.2],[-0.125,-0.2]]",0.147723999,-0.217751804,1,0,0,2.1881,o1_image,504.6983,0,505.1998,505.1998,507.1883,0,0,0,0,1,,,,,,,,,,,,,,,,,,,,,,,,,,,,,,,,,,,,,,,,,,,,,,,,,,
,,5b278c153a20420001efd41b,46,female,2024-04-19_17h37.32.958,stockport_simplified,2022.2.4,MacIntel,60.60606061,661e456ee6de07e70aa9ef7b,66229da778e355f7ac8acefe,,,,,,,,,,,,,,,,,,,,,,,,,,,,,,,,,,,,,,,,,,,,,,,,,,,,,,,,1,4,64,46,1,B,Y,N,o2_image,stimuli/out2.png,stimuli/out1.png,stimuli/correct_out2.png,,,,,,,,,,,,,,,,,,,,,,,,,,,,,,,,,,,,,,
,,5b278c153a20420001efd41b,46,female,2024-04-19_17h37.32.958,stockport_simplified,2022.2.4,MacIntel,60.60606061,661e456ee6de07e70aa9ef7b,66229da778e355f7ac8acefe,,,,,,,,,,,,,,,,,,,,,,,,,,,,,,,,,,507.1887,509.21,"[7,1,2,8,3,5,4,6]","[[0.3,0.2],[-0.3,0.2]]","[[0.125,-0.2],[-0.125,-0.2]]",-0.0986183,-0.217694227,1,0,0,1.52,o2_image,509.2106,1,509.7114,509.7114,511.7002,0,0,0,0,1,,,,,,,,,,,,,,,,,,,,,,,,,,,,,,,,,,,,,,,,,,,,,,,,,,
,,5b278c153a20420001efd41b,46,female,2024-04-19_17h37.32.958,stockport_simplified,2022.2.4,MacIntel,60.60606061,661e456ee6de07e70aa9ef7b,66229da778e355f7ac8acefe,,,,,,,,,,,,,,,,,,,,,,,,,,,,,,,,,,,,,,,,,,,,,,,,,,,,,,,,1,5,65,27,1,N,M,D,o2_image,stimuli/out2.png,stimuli/out1.png,stimuli/correct_out2.png,,,,,,,,,,,,,,,,,,,,,,,,,,,,,,,,,,,,,,
,,5b278c153a20420001efd41b,46,female,2024-04-19_17h37.32.958,stockport_simplified,2022.2.4,MacIntel,60.60606061,661e456ee6de07e70aa9ef7b,66229da778e355f7ac8acefe,,,,,,,,,,,,,,,,,,,,,,,,,,,,,,,,,,511.7006,514.0555,"[7,1,2,8,3,5,4,6]","[[-0.3,0.2],[0.3,0.2]]","[[0.125,-0.2],[-0.125,-0.2]]",-0.095664876,-0.217398885,1,0,0,1.8534,o2_image,514.0695,0,514.5579,514.5579,516.5466,0,0,0,0,1,,,,,,,,,,,,,,,,,,,,,,,,,,,,,,,,,,,,,,,,,,,,,,,,,,
,,5b278c153a20420001efd41b,46,female,2024-04-19_17h37.32.958,stockport_simplified,2022.2.4,MacIntel,60.60606061,661e456ee6de07e70aa9ef7b,66229da778e355f7ac8acefe,,,,,,,,,,,,,,,,,,,,,,,,,,,,,,,,,,,,,,,,,,,,,,,,,,,,,,,,1,6,66,5,1,A,Y,N,o1_image,stimuli/out1.png,stimuli/correct_out1.png,stimuli/out2.png,,,,,,,,,,,,,,,,,,,,,,,,,,,,,,,,,,,,,,
,,5b278c153a20420001efd41b,46,female,2024-04-19_17h37.32.958,stockport_simplified,2022.2.4,MacIntel,60.60606061,661e456ee6de07e70aa9ef7b,66229da778e355f7ac8acefe,,,,,,,,,,,,,,,,,,,,,,,,,,,,,,,,,,516.5469,518.3347,"[7,1,2,8,3,5,4,6]","[[-0.3,0.2],[0.3,0.2]]","[[-0.125,-0.2],[0.125,-0.2]]",0.101473931,-0.209076131,1,0,0,1.2863,o2_image,518.3354,1,518.8361,518.8362,520.8247,0,0,0,0,1,,,,,,,,,,,,,,,,,,,,,,,,,,,,,,,,,,,,,,,,,,,,,,,,,,
,,5b278c153a20420001efd41b,46,female,2024-04-19_17h37.32.958,stockport_simplified,2022.2.4,MacIntel,60.60606061,661e456ee6de07e70aa9ef7b,66229da778e355f7ac8acefe,,,,,,,,,,,,,,,,,,,,,,,,,,,,,,,,,,,,,,,,,,,,,,,,,,,,,,,,1,7,67,59,1,N,M,D,o2_image,stimuli/out2.png,stimuli/out1.png,stimuli/correct_out2.png,,,,,,,,,,,,,,,,,,,,,,,,,,,,,,,,,,,,,,
,,5b278c153a20420001efd41b,46,female,2024-04-19_17h37.32.958,stockport_simplified,2022.2.4,MacIntel,60.60606061,661e456ee6de07e70aa9ef7b,66229da778e355f7ac8acefe,,,,,,,,,,,,,,,,,,,,,,,,,,,,,,,,,,520.825,522.9136,"[7,1,2,8,3,5,4,6]","[[0.3,0.2],[-0.3,0.2]]","[[-0.125,-0.2],[0.125,-0.2]]",0.105850559,-0.208780789,1,0,0,1.5703,o2_image,522.9143,0,523.415,523.415,525.4036,0,0,0,0,1,,,,,,,,,,,,,,,,,,,,,,,,,,,,,,,,,,,,,,,,,,,,,,,,,,
,,5b278c153a20420001efd41b,46,female,2024-04-19_17h37.32.958,stockport_simplified,2022.2.4,MacIntel,60.60606061,661e456ee6de07e70aa9ef7b,66229da778e355f7ac8acefe,,,,,,,,,,,,,,,,,,,,,,,,,,,,,,,,,,,,,,,,,,,,,,,,,,,,,,,,1,8,68,39,1,A,Y,N,o1_image,stimuli/out1.png,stimuli/correct_out1.png,stimuli/out2.png,,,,,,,,,,,,,,,,,,,,,,,,,,,,,,,,,,,,,,
,,5b278c153a20420001efd41b,46,female,2024-04-19_17h37.32.958,stockport_simplified,2022.2.4,MacIntel,60.60606061,661e456ee6de07e70aa9ef7b,66229da778e355f7ac8acefe,,,,,,,,,,,,,,,,,,,,,,,,,,,,,,,,,,525.404,527.7925,"[7,1,2,8,3,5,4,6]","[[0.3,0.2],[-0.3,0.2]]","[[0.125,-0.2],[-0.125,-0.2]]",-0.105828857,-0.207775879,1,0,0,1.8872,o2_image,527.7933,1,528.2947,528.2947,530.2834,0,0,0,0,1,,,,,,,,,,,,,,,,,,,,,,,,,,,,,,,,,,,,,,,,,,,,,,,,,,
,,5b278c153a20420001efd41b,46,female,2024-04-19_17h37.32.958,stockport_simplified,2022.2.4,MacIntel,60.60606061,661e456ee6de07e70aa9ef7b,66229da778e355f7ac8acefe,,,,,,,,,,,,,,,,,,,,,,,,,,,,,,,,,,,,,,,,,,,,,,,,,,,,,,,,1,9,69,40,1,B,X,N,o2_image,stimuli/out2.png,stimuli/out1.png,stimuli/correct_out2.png,,,,,,,,,,,,,,,,,,,,,,,,,,,,,,,,,,,,,,
,,5b278c153a20420001efd41b,46,female,2024-04-19_17h37.32.958,stockport_simplified,2022.2.4,MacIntel,60.60606061,661e456ee6de07e70aa9ef7b,66229da778e355f7ac8acefe,,,,,,,,,,,,,,,,,,,,,,,,,,,,,,,,,,530.2838,532.739,"[7,1,2,8,3,5,4,6]","[[-0.3,0.2],[0.3,0.2]]","[[-0.125,-0.2],[0.125,-0.2]]",0.121835938,-0.207294651,1,0,0,1.9375,o2_image,532.7398,1,533.2411,533.2411,535.2294,0,0,0,0,1,,,,,,,,,,,,,,,,,,,,,,,,,,,,,,,,,,,,,,,,,,,,,,,,,,
,,5b278c153a20420001efd41b,46,female,2024-04-19_17h37.32.958,stockport_simplified,2022.2.4,MacIntel,60.60606061,661e456ee6de07e70aa9ef7b,66229da778e355f7ac8acefe,,,,,,,,,,,,,,,,,,,,,,,,,,,,,,,,,,,,,,,,,,,,,,,,,,,,,,,,1,10,70,57,1,N,M,D,o2_image,stimuli/out2.png,stimuli/out1.png,stimuli/correct_out2.png,,,,,,,,,,,,,,,,,,,,,,,,,,,,,,,,,,,,,,
,,5b278c153a20420001efd41b,46,female,2024-04-19_17h37.32.958,stockport_simplified,2022.2.4,MacIntel,60.60606061,661e456ee6de07e70aa9ef7b,66229da778e355f7ac8acefe,,,,,,,,,,,,,,,,,,,,,,,,,,,,,,,,,,535.2299,538.4385,"[7,1,2,8,3,5,4,6]","[[-0.3,0.2],[0.3,0.2]]","[[-0.125,-0.2],[0.125,-0.2]]",0.111134304,-0.198266873,1,0,0,2.707,o2_image,538.4536,0,538.9556,538.9556,540.9452,0,0,0,0,1,,,,,,,,,,,,,,,,,,,,,,,,,,,,,,,,,,,,,,,,,,,,,,,,,,
,,5b278c153a20420001efd41b,46,female,2024-04-19_17h37.32.958,stockport_simplified,2022.2.4,MacIntel,60.60606061,661e456ee6de07e70aa9ef7b,66229da778e355f7ac8acefe,,,,,,,,,,,,,,,,,,,,,,,,,,,,,,,,,,,,,,,,,,,,,,,,,,,,,,,,1,11,71,1,1,A,X,N,o1_image,stimuli/out1.png,stimuli/correct_out1.png,stimuli/out2.png,,,,,,,,,,,,,,,,,,,,,,,,,,,,,,,,,,,,,,
,,5b278c153a20420001efd41b,46,female,2024-04-19_17h37.32.958,stockport_simplified,2022.2.4,MacIntel,60.60606061,661e456ee6de07e70aa9ef7b,66229da778e355f7ac8acefe,,,,,,,,,,,,,,,,,,,,,,,,,,,,,,,,,,540.9455,542.5493,"[7,1,2,8,3,5,4,6]","[[-0.3,0.2],[0.3,0.2]]","[[-0.125,-0.2],[0.125,-0.2]]",-0.097842339,-0.208234524,1,0,0,1.1026,o1_image,542.5499,0,543.0507,543.0508,545.0396,0,0,0,0,1,,,,,,,,,,,,,,,,,,,,,,,,,,,,,,,,,,,,,,,,,,,,,,,,,,
,,5b278c153a20420001efd41b,46,female,2024-04-19_17h37.32.958,stockport_simplified,2022.2.4,MacIntel,60.60606061,661e456ee6de07e70aa9ef7b,66229da778e355f7ac8acefe,,,,,,,,,,,,,,,,,,,,,,,,,,,,,,,,,,,,,,,,,,,,,,,,,,,,,,,,1,12,72,12,1,B,X,N,o2_image,stimuli/out2.png,stimuli/out1.png,stimuli/correct_out2.png,,,,,,,,,,,,,,,,,,,,,,,,,,,,,,,,,,,,,,
,,5b278c153a20420001efd41b,46,female,2024-04-19_17h37.32.958,stockport_simplified,2022.2.4,MacIntel,60.60606061,661e456ee6de07e70aa9ef7b,66229da778e355f7ac8acefe,,,,,,,,,,,,,,,,,,,,,,,,,,,,,,,,,,545.04,547.245,"[7,1,2,8,3,5,4,6]","[[0.3,0.2],[-0.3,0.2]]","[[0.125,-0.2],[-0.125,-0.2]]",0.143327908,-0.199728122,1,0,0,1.6873,o1_image,547.2457,1,547.7457,547.7457,549.7353,0,0,0,0,1,,,,,,,,,,,,,,,,,,,,,,,,,,,,,,,,,,,,,,,,,,,,,,,,,,
,,5b278c153a20420001efd41b,46,female,2024-04-19_17h37.32.958,stockport_simplified,2022.2.4,MacIntel,60.60606061,661e456ee6de07e70aa9ef7b,66229da778e355f7ac8acefe,,,,,,,,,,,,,,,,,,,,,,,,,,,,,,,,,,,,,,,,,,,,,,,,,,,,,,,,1,13,73,52,1,N,M,C,o1_image,stimuli/out1.png,stimuli/correct_out1.png,stimuli/out2.png,,,,,,,,,,,,,,,,,,,,,,,,,,,,,,,,,,,,,,
,,5b278c153a20420001efd41b,46,female,2024-04-19_17h37.32.958,stockport_simplified,2022.2.4,MacIntel,60.60606061,661e456ee6de07e70aa9ef7b,66229da778e355f7ac8acefe,,,,,,,,,,,,,,,,,,,,,,,,,,,,,,,,,,549.7357,551.9412,"[7,1,2,8,3,5,4,6]","[[0.3,0.2],[-0.3,0.2]]","[[-0.125,-0.2],[0.125,-0.2]]",0.141555854,-0.202976888,1,0,0,1.7047,o2_image,551.9419,1,552.4419,552.4419,554.4303,0,0,0,0,1,,,,,,,,,,,,,,,,,,,,,,,,,,,,,,,,,,,,,,,,,,,,,,,,,,
,,5b278c153a20420001efd41b,46,female,2024-04-19_17h37.32.958,stockport_simplified,2022.2.4,MacIntel,60.60606061,661e456ee6de07e70aa9ef7b,66229da778e355f7ac8acefe,,,,,,,,,,,,,,,,,,,,,,,,,,,,,,,,,,,,,,,,,,,,,,,,,,,,,,,,1,14,74,41,1,B,X,N,o2_image,stimuli/out2.png,stimuli/out1.png,stimuli/correct_out2.png,,,,,,,,,,,,,,,,,,,,,,,,,,,,,,,,,,,,,,
,,5b278c153a20420001efd41b,46,female,2024-04-19_17h37.32.958,stockport_simplified,2022.2.4,MacIntel,60.60606061,661e456ee6de07e70aa9ef7b,66229da778e355f7ac8acefe,,,,,,,,,,,,,,,,,,,,,,,,,,,,,,,,,,554.4308,557.2212,"[7,1,2,8,3,5,4,6]","[[0.3,0.2],[-0.3,0.2]]","[[0.125,-0.2],[-0.125,-0.2]]",-0.104057753,-0.229257338,1,0,0,2.2884,o2_image,557.2218,0,557.7232,557.7232,559.7118,0,0,0,0,1,,,,,,,,,,,,,,,,,,,,,,,,,,,,,,,,,,,,,,,,,,,,,,,,,,
,,5b278c153a20420001efd41b,46,female,2024-04-19_17h37.32.958,stockport_simplified,2022.2.4,MacIntel,60.60606061,661e456ee6de07e70aa9ef7b,66229da778e355f7ac8acefe,,,,,,,,,,,,,,,,,,,,,,,,,,,,,,,,,,,,,,,,,,,,,,,,,,,,,,,,1,15,75,35,1,A,Y,N,o1_image,stimuli/out1.png,stimuli/correct_out1.png,stimuli/out2.png,,,,,,,,,,,,,,,,,,,,,,,,,,,,,,,,,,,,,,
,,5b278c153a20420001efd41b,46,female,2024-04-19_17h37.32.958,stockport_simplified,2022.2.4,MacIntel,60.60606061,661e456ee6de07e70aa9ef7b,66229da778e355f7ac8acefe,,,,,,,,,,,,,,,,,,,,,,,,,,,,,,,,,,559.7123,562.4684,"[7,1,2,8,3,5,4,6]","[[-0.3,0.2],[0.3,0.2]]","[[0.125,-0.2],[-0.125,-0.2]]",-0.092910699,-0.208792792,1,0,0,2.2547,o2_image,562.4819,0,562.9707,562.9707,564.9593,0,0,0,0,1,,,,,,,,,,,,,,,,,,,,,,,,,,,,,,,,,,,,,,,,,,,,,,,,,,
,,5b278c153a20420001efd41b,46,female,2024-04-19_17h37.32.958,stockport_simplified,2022.2.4,MacIntel,60.60606061,661e456ee6de07e70aa9ef7b,66229da778e355f7ac8acefe,,,,,,,,,,,,,,,,,,,,,,,,,,,,,,,,,,,,,,,,,,,,,,,,,,,,,,,,1,16,76,3,1,A,X,N,o1_image,stimuli/out1.png,stimuli/correct_out1.png,stimuli/out2.png,,,,,,,,,,,,,,,,,,,,,,,,,,,,,,,,,,,,,,
,,5b278c153a20420001efd41b,46,female,2024-04-19_17h37.32.958,stockport_simplified,2022.2.4,MacIntel,60.60606061,661e456ee6de07e70aa9ef7b,66229da778e355f7ac8acefe,,,,,,,,,,,,,,,,,,,,,,,,,,,,,,,,,,564.9598,567.115,"[7,1,2,8,3,5,4,6]","[[-0.3,0.2],[0.3,0.2]]","[[-0.125,-0.2],[0.125,-0.2]]",0.086403402,-0.210384386,1,0,0,1.6539,o2_image,567.1159,1,567.6163,567.6163,569.6049,0,0,0,0,1,,,,,,,,,,,,,,,,,,,,,,,,,,,,,,,,,,,,,,,,,,,,,,,,,,
,,5b278c153a20420001efd41b,46,female,2024-04-19_17h37.32.958,stockport_simplified,2022.2.4,MacIntel,60.60606061,661e456ee6de07e70aa9ef7b,66229da778e355f7ac8acefe,,,,,,,,,,,,,,,,,,,,,,,,,,,,,,,,,,,,,,,,,,,,,,,,,,,,,,,,1,17,77,19,1,B,Y,N,o2_image,stimuli/out2.png,stimuli/out1.png,stimuli/correct_out2.png,,,,,,,,,,,,,,,,,,,,,,,,,,,,,,,,,,,,,,
,,5b278c153a20420001efd41b,46,female,2024-04-19_17h37.32.958,stockport_simplified,2022.2.4,MacIntel,60.60606061,661e456ee6de07e70aa9ef7b,66229da778e355f7ac8acefe,,,,,,,,,,,,,,,,,,,,,,,,,,,,,,,,,,569.6053,571.5941,"[7,1,2,8,3,5,4,6]","[[0.3,0.2],[-0.3,0.2]]","[[-0.125,-0.2],[0.125,-0.2]]",0.106419067,-0.212747125,1,0,0,1.4876,o2_image,571.5948,1,572.095,572.095,574.083,0,0,0,0,1,,,,,,,,,,,,,,,,,,,,,,,,,,,,,,,,,,,,,,,,,,,,,,,,,,
,,5b278c153a20420001efd41b,46,female,2024-04-19_17h37.32.958,stockport_simplified,2022.2.4,MacIntel,60.60606061,661e456ee6de07e70aa9ef7b,66229da778e355f7ac8acefe,,,,,,,,,,,,,,,,,,,,,,,,,,,,,,,,,,,,,,,,,,,,,,,,,,,,,,,,1,18,78,15,1,B,Y,N,o2_image,stimuli/out2.png,stimuli/out1.png,stimuli/correct_out2.png,,,,,,,,,,,,,,,,,,,,,,,,,,,,,,,,,,,,,,
,,5b278c153a20420001efd41b,46,female,2024-04-19_17h37.32.958,stockport_simplified,2022.2.4,MacIntel,60.60606061,661e456ee6de07e70aa9ef7b,66229da778e355f7ac8acefe,,,,,,,,,,,,,,,,,,,,,,,,,,,,,,,,,,574.0834,576.1393,"[7,1,2,8,3,5,4,6]","[[-0.3,0.2],[0.3,0.2]]","[[0.125,-0.2],[-0.125,-0.2]]",-0.095655518,-0.207609863,1,0,0,1.5541,o2_image,576.1544,1,576.6571,576.6571,578.6456,0,0,0,0,1,,,,,,,,,,,,,,,,,,,,,,,,,,,,,,,,,,,,,,,,,,,,,,,,,,
,,5b278c153a20420001efd41b,46,female,2024-04-19_17h37.32.958,stockport_simplified,2022.2.4,MacIntel,60.60606061,661e456ee6de07e70aa9ef7b,66229da778e355f7ac8acefe,,,,,,,,,,,,,,,,,,,,,,,,,,,,,,,,,,,,,,,,,,,,,,,,,,,,,,,,1,19,79,45,1,B,Y,N,o2_image,stimuli/out2.png,stimuli/out1.png,stimuli/correct_out2.png,,,,,,,,,,,,,,,,,,,,,,,,,,,,,,,,,,,,,,
,,5b278c153a20420001efd41b,46,female,2024-04-19_17h37.32.958,stockport_simplified,2022.2.4,MacIntel,60.60606061,661e456ee6de07e70aa9ef7b,66229da778e355f7ac8acefe,,,,,,,,,,,,,,,,,,,,,,,,,,,,,,,,,,578.646,581.2359,"[7,1,2,8,3,5,4,6]","[[0.3,0.2],[-0.3,0.2]]","[[-0.125,-0.2],[0.125,-0.2]]",-0.154658135,-0.20764662,1,0,0,2.0888,o1_image,581.2367,0,581.7373,581.7373,583.7252,0,0,0,0,1,,,,,,,,,,,,,,,,,,,,,,,,,,,,,,,,,,,,,,,,,,,,,,,,,,
,,5b278c153a20420001efd41b,46,female,2024-04-19_17h37.32.958,stockport_simplified,2022.2.4,MacIntel,60.60606061,661e456ee6de07e70aa9ef7b,66229da778e355f7ac8acefe,,,,,,,,,,,,,,,,,,,,,,,,,,,,,,,,,,,,,,,,,,,,,,,,,,,,,,,,1,20,80,17,1,B,Y,N,o2_image,stimuli/out2.png,stimuli/out1.png,stimuli/correct_out2.png,,,,,,,,,,,,,,,,,,,,,,,,,,,,,,,,,,,,,,
,,5b278c153a20420001efd41b,46,female,2024-04-19_17h37.32.958,stockport_simplified,2022.2.4,MacIntel,60.60606061,661e456ee6de07e70aa9ef7b,66229da778e355f7ac8acefe,,,,,,,,,,,,,,,,,,,,,,,,,,,,,,,,,,583.7256,585.9983,"[7,1,2,8,3,5,4,6]","[[0.3,0.2],[-0.3,0.2]]","[[-0.125,-0.2],[0.125,-0.2]]",-0.117221069,-0.208200684,1,0,0,1.7706,o1_image,585.999,1,586.4999,586.4999,588.4887,0,0,0,0,1,,,,,,,,,,,,,,,,,,,,,,,,,,,,,,,,,,,,,,,,,,,,,,,,,,
,,5b278c153a20420001efd41b,46,female,2024-04-19_17h37.32.958,stockport_simplified,2022.2.4,MacIntel,60.60606061,661e456ee6de07e70aa9ef7b,66229da778e355f7ac8acefe,,,,,,,,,,,,,,,,,,,,,,,,,,,,,,,,,,,,,,,,,,,,,,,,,,,,,,,,1,21,81,51,1,N,M,C,o1_image,stimuli/out1.png,stimuli/correct_out1.png,stimuli/out2.png,,,,,,,,,,,,,,,,,,,,,,,,,,,,,,,,,,,,,,
,,5b278c153a20420001efd41b,46,female,2024-04-19_17h37.32.958,stockport_simplified,2022.2.4,MacIntel,60.60606061,661e456ee6de07e70aa9ef7b,66229da778e355f7ac8acefe,,,,,,,,,,,,,,,,,,,,,,,,,,,,,,,,,,588.4891,590.2255,"[7,1,2,8,3,5,4,6]","[[0.3,0.2],[-0.3,0.2]]","[[-0.125,-0.2],[0.125,-0.2]]",0.104650675,-0.222526788,1,0,0,1.2352,o2_image,590.226,1,590.7281,590.7281,592.7168,0,0,0,0,1,,,,,,,,,,,,,,,,,,,,,,,,,,,,,,,,,,,,,,,,,,,,,,,,,,
,,5b278c153a20420001efd41b,46,female,2024-04-19_17h37.32.958,stockport_simplified,2022.2.4,MacIntel,60.60606061,661e456ee6de07e70aa9ef7b,66229da778e355f7ac8acefe,,,,,,,,,,,,,,,,,,,,,,,,,,,,,,,,,,,,,,,,,,,,,,,,,,,,,,,,1,22,82,28,1,N,M,D,o2_image,stimuli/out2.png,stimuli/out1.png,stimuli/correct_out2.png,,,,,,,,,,,,,,,,,,,,,,,,,,,,,,,,,,,,,,
,,5b278c153a20420001efd41b,46,female,2024-04-19_17h37.32.958,stockport_simplified,2022.2.4,MacIntel,60.60606061,661e456ee6de07e70aa9ef7b,66229da778e355f7ac8acefe,,,,,,,,,,,,,,,,,,,,,,,,,,,,,,,,,,592.7173,594.9896,"[7,1,2,8,3,5,4,6]","[[-0.3,0.2],[0.3,0.2]]","[[-0.125,-0.2],[0.125,-0.2]]",0.101691691,-0.219317966,1,0,0,1.7711,o2_image,594.9902,0,595.4906,595.4906,597.4795,0,0,0,0,1,,,,,,,,,,,,,,,,,,,,,,,,,,,,,,,,,,,,,,,,,,,,,,,,,,
,,5b278c153a20420001efd41b,46,female,2024-04-19_17h37.32.958,stockport_simplified,2022.2.4,MacIntel,60.60606061,661e456ee6de07e70aa9ef7b,66229da778e355f7ac8acefe,,,,,,,,,,,,,,,,,,,,,,,,,,,,,,,,,,,,,,,,,,,,,,,,,,,,,,,,1,23,83,7,1,A,Y,N,o1_image,stimuli/out1.png,stimuli/correct_out1.png,stimuli/out2.png,,,,,,,,,,,,,,,,,,,,,,,,,,,,,,,,,,,,,,
,,5b278c153a20420001efd41b,46,female,2024-04-19_17h37.32.958,stockport_simplified,2022.2.4,MacIntel,60.60606061,661e456ee6de07e70aa9ef7b,66229da778e355f7ac8acefe,,,,,,,,,,,,,,,,,,,,,,,,,,,,,,,,,,597.48,599.9527,"[7,1,2,8,3,5,4,6]","[[-0.3,0.2],[0.3,0.2]]","[[0.125,-0.2],[-0.125,-0.2]]",0.133295017,-0.203792114,1,0,0,1.9715,o1_image,599.9534,1,600.4542,600.4542,602.4426,0,0,0,0,1,,,,,,,,,,,,,,,,,,,,,,,,,,,,,,,,,,,,,,,,,,,,,,,,,,
,,5b278c153a20420001efd41b,46,female,2024-04-19_17h37.32.958,stockport_simplified,2022.2.4,MacIntel,60.60606061,661e456ee6de07e70aa9ef7b,66229da778e355f7ac8acefe,,,,,,,,,,,,,,,,,,,,,,,,,,,,,,,,,,,,,,,,,,,,,,,,,,,,,,,,1,24,84,30,1,A,X,N,o1_image,stimuli/out1.png,stimuli/correct_out1.png,stimuli/out2.png,,,,,,,,,,,,,,,,,,,,,,,,,,,,,,,,,,,,,,
,,5b278c153a20420001efd41b,46,female,2024-04-19_17h37.32.958,stockport_simplified,2022.2.4,MacIntel,60.60606061,661e456ee6de07e70aa9ef7b,66229da778e355f7ac8acefe,,,,,,,,,,,,,,,,,,,,,,,,,,,,,,,,,,602.443,604.1808,"[7,1,2,8,3,5,4,6]","[[-0.3,0.2],[0.3,0.2]]","[[0.125,-0.2],[-0.125,-0.2]]",0.133295017,-0.203792114,1,0,0,1.2365,o1_image,604.1815,0,604.681,604.681,606.6708,0,0,0,0,1,,,,,,,,,,,,,,,,,,,,,,,,,,,,,,,,,,,,,,,,,,,,,,,,,,
,,5b278c153a20420001efd41b,46,female,2024-04-19_17h37.32.958,stockport_simplified,2022.2.4,MacIntel,60.60606061,661e456ee6de07e70aa9ef7b,66229da778e355f7ac8acefe,,,,,,,,,,,,,,,,,,,,,,,,,,,,,,,,,,,,,,,,,,,,,,,,,,,,,,,,1,25,85,14,1,B,X,N,o2_image,stimuli/out2.png,stimuli/out1.png,stimuli/correct_out2.png,,,,,,,,,,,,,,,,,,,,,,,,,,,,,,,,,,,,,,
,,5b278c153a20420001efd41b,46,female,2024-04-19_17h37.32.958,stockport_simplified,2022.2.4,MacIntel,60.60606061,661e456ee6de07e70aa9ef7b,66229da778e355f7ac8acefe,,,,,,,,,,,,,,,,,,,,,,,,,,,,,,,,,,606.6711,608.8093,"[7,1,2,8,3,5,4,6]","[[0.3,0.2],[-0.3,0.2]]","[[0.125,-0.2],[-0.125,-0.2]]",-0.081600817,-0.232138062,1,0,0,1.6202,o2_image,608.8102,0,609.311,609.311,611.2996,0,0,0,0,1,,,,,,,,,,,,,,,,,,,,,,,,,,,,,,,,,,,,,,,,,,,,,,,,,,
,,5b278c153a20420001efd41b,46,female,2024-04-19_17h37.32.958,stockport_simplified,2022.2.4,MacIntel,60.60606061,661e456ee6de07e70aa9ef7b,66229da778e355f7ac8acefe,,,,,,,,,,,,,,,,,,,,,,,,,,,,,,,,,,,,,,,,,,,,,,,,,,,,,,,,1,26,86,9,1,A,Y,N,o1_image,stimuli/out1.png,stimuli/correct_out1.png,stimuli/out2.png,,,,,,,,,,,,,,,,,,,,,,,,,,,,,,,,,,,,,,
,,5b278c153a20420001efd41b,46,female,2024-04-19_17h37.32.958,stockport_simplified,2022.2.4,MacIntel,60.60606061,661e456ee6de07e70aa9ef7b,66229da778e355f7ac8acefe,,,,,,,,,,,,,,,,,,,,,,,,,,,,,,,,,,611.3001,613.5046,"[7,1,2,8,3,5,4,6]","[[-0.3,0.2],[0.3,0.2]]","[[-0.125,-0.2],[0.125,-0.2]]",0.154190606,-0.217538995,1,0,0,1.7033,o2_image,613.5053,1,614.0068,614.0069,616.0124,0,0,0,0,1,,,,,,,,,,,,,,,,,,,,,,,,,,,,,,,,,,,,,,,,,,,,,,,,,,
,,5b278c153a20420001efd41b,46,female,2024-04-19_17h37.32.958,stockport_simplified,2022.2.4,MacIntel,60.60606061,661e456ee6de07e70aa9ef7b,66229da778e355f7ac8acefe,,,,,,,,,,,,,,,,,,,,,,,,,,,,,,,,,,,,,,,,,,,,,,,,,,,,,,,,1,27,87,55,1,N,M,D,o2_image,stimuli/out2.png,stimuli/out1.png,stimuli/correct_out2.png,,,,,,,,,,,,,,,,,,,,,,,,,,,,,,,,,,,,,,
,,5b278c153a20420001efd41b,46,female,2024-04-19_17h37.32.958,stockport_simplified,2022.2.4,MacIntel,60.60606061,661e456ee6de07e70aa9ef7b,66229da778e355f7ac8acefe,,,,,,,,,,,,,,,,,,,,,,,,,,,,,,,,,,616.0128,617.7164,"[7,1,2,8,3,5,4,6]","[[-0.3,0.2],[0.3,0.2]]","[[-0.125,-0.2],[0.125,-0.2]]",-0.101753676,-0.199141439,1,0,0,1.2026,o1_image,617.7173,1,618.2182,618.2182,620.2067,0,0,0,0,1,,,,,,,,,,,,,,,,,,,,,,,,,,,,,,,,,,,,,,,,,,,,,,,,,,
,,5b278c153a20420001efd41b,46,female,2024-04-19_17h37.32.958,stockport_simplified,2022.2.4,MacIntel,60.60606061,661e456ee6de07e70aa9ef7b,66229da778e355f7ac8acefe,,,,,,,,,,,,,,,,,,,,,,,,,,,,,,,,,,,,,,,,,,,,,,,,,,,,,,,,1,28,88,53,1,N,M,C,o1_image,stimuli/out1.png,stimuli/correct_out1.png,stimuli/out2.png,,,,,,,,,,,,,,,,,,,,,,,,,,,,,,,,,,,,,,
,,5b278c153a20420001efd41b,46,female,2024-04-19_17h37.32.958,stockport_simplified,2022.2.4,MacIntel,60.60606061,661e456ee6de07e70aa9ef7b,66229da778e355f7ac8acefe,,,,,,,,,,,,,,,,,,,,,,,,,,,,,,,,,,620.2071,622.663,"[7,1,2,8,3,5,4,6]","[[-0.3,0.2],[0.3,0.2]]","[[0.125,-0.2],[-0.125,-0.2]]",0.133338284,-0.212203708,1,0,0,1.9545,o1_image,622.6763,0,623.1643,623.1643,625.1534,0,0,0,0,1,,,,,,,,,,,,,,,,,,,,,,,,,,,,,,,,,,,,,,,,,,,,,,,,,,
,,5b278c153a20420001efd41b,46,female,2024-04-19_17h37.32.958,stockport_simplified,2022.2.4,MacIntel,60.60606061,661e456ee6de07e70aa9ef7b,66229da778e355f7ac8acefe,,,,,,,,,,,,,,,,,,,,,,,,,,,,,,,,,,,,,,,,,,,,,,,,,,,,,,,,1,29,89,29,1,N,M,D,o2_image,stimuli/out2.png,stimuli/out1.png,stimuli/correct_out2.png,,,,,,,,,,,,,,,,,,,,,,,,,,,,,,,,,,,,,,
,,5b278c153a20420001efd41b,46,female,2024-04-19_17h37.32.958,stockport_simplified,2022.2.4,MacIntel,60.60606061,661e456ee6de07e70aa9ef7b,66229da778e355f7ac8acefe,,,,,,,,,,,,,,,,,,,,,,,,,,,,,,,,,,625.1538,627.6934,"[7,1,2,8,3,5,4,6]","[[-0.3,0.2],[0.3,0.2]]","[[0.125,-0.2],[-0.125,-0.2]]",-0.085973307,-0.203402778,1,0,0,2.0385,o2_image,627.6941,1,628.1947,628.1947,630.1825,0,0,0,0,1,,,,,,,,,,,,,,,,,,,,,,,,,,,,,,,,,,,,,,,,,,,,,,,,,,
,,5b278c153a20420001efd41b,46,female,2024-04-19_17h37.32.958,stockport_simplified,2022.2.4,MacIntel,60.60606061,661e456ee6de07e70aa9ef7b,66229da778e355f7ac8acefe,,,,,,,,,,,,,,,,,,,,,,,,,,,,,,,,,,,,,,,,,,,,,,,,,,,,,,,,1,30,90,13,1,B,X,N,o2_image,stimuli/out2.png,stimuli/out1.png,stimuli/correct_out2.png,,,,,,,,,,,,,,,,,,,,,,,,,,,,,,,,,,,,,,
,,5b278c153a20420001efd41b,46,female,2024-04-19_17h37.32.958,stockport_simplified,2022.2.4,MacIntel,60.60606061,661e456ee6de07e70aa9ef7b,66229da778e355f7ac8acefe,,,,,,,,,,,,,,,,,,,,,,,,,,,,,,,,,,630.1829,632.0544,"[7,1,2,8,3,5,4,6]","[[0.3,0.2],[-0.3,0.2]]","[[-0.125,-0.2],[0.125,-0.2]]",0.103220622,-0.218146159,1,0,0,1.3691,o2_image,632.055,1,632.5566,632.5566,634.5451,0,0,0,0,1,,,,,,,,,,,,,,,,,,,,,,,,,,,,,,,,,,,,,,,,,,,,,,,,,,
,,5b278c153a20420001efd41b,46,female,2024-04-19_17h37.32.958,stockport_simplified,2022.2.4,MacIntel,60.60606061,661e456ee6de07e70aa9ef7b,66229da778e355f7ac8acefe,,,,,,,,,,,,,,,,,,,,,,,,,,,,,,,,,,,,,,,,,,,,,,,,,,,,,,,,1,31,91,56,1,N,M,D,o2_image,stimuli/out2.png,stimuli/out1.png,stimuli/correct_out2.png,,,,,,,,,,,,,,,,,,,,,,,,,,,,,,,,,,,,,,
,,5b278c153a20420001efd41b,46,female,2024-04-19_17h37.32.958,stockport_simplified,2022.2.4,MacIntel,60.60606061,661e456ee6de07e70aa9ef7b,66229da778e355f7ac8acefe,,,,,,,,,,,,,,,,,,,,,,,,,,,,,,,,,,634.5455,636.2155,"[7,1,2,8,3,5,4,6]","[[0.3,0.2],[-0.3,0.2]]","[[-0.125,-0.2],[0.125,-0.2]]",0.129908244,-0.216865031,1,0,0,1.1691,o2_image,636.2164,1,636.7177,636.7177,638.7064,0,0,0,0,1,,,,,,,,,,,,,,,,,,,,,,,,,,,,,,,,,,,,,,,,,,,,,,,,,,
,,5b278c153a20420001efd41b,46,female,2024-04-19_17h37.32.958,stockport_simplified,2022.2.4,MacIntel,60.60606061,661e456ee6de07e70aa9ef7b,66229da778e355f7ac8acefe,,,,,,,,,,,,,,,,,,,,,,,,,,,,,,,,,,,,,,,,,,,,,,,,,,,,,,,,1,32,92,26,1,N,M,D,o2_image,stimuli/out2.png,stimuli/out1.png,stimuli/correct_out2.png,,,,,,,,,,,,,,,,,,,,,,,,,,,,,,,,,,,,,,
,,5b278c153a20420001efd41b,46,female,2024-04-19_17h37.32.958,stockport_simplified,2022.2.4,MacIntel,60.60606061,661e456ee6de07e70aa9ef7b,66229da778e355f7ac8acefe,,,,,,,,,,,,,,,,,,,,,,,,,,,,,,,,,,638.7069,640.9617,"[7,1,2,8,3,5,4,6]","[[0.3,0.2],[-0.3,0.2]]","[[-0.125,-0.2],[0.125,-0.2]]",0.129908244,-0.221295166,1,0,0,1.7535,o2_image,640.9625,0,641.4636,641.4636,643.4518,0,0,0,0,1,,,,,,,,,,,,,,,,,,,,,,,,,,,,,,,,,,,,,,,,,,,,,,,,,,
,,5b278c153a20420001efd41b,46,female,2024-04-19_17h37.32.958,stockport_simplified,2022.2.4,MacIntel,60.60606061,661e456ee6de07e70aa9ef7b,66229da778e355f7ac8acefe,,,,,,,,,,,,,,,,,,,,,,,,,,,,,,,,,,,,,,,,,,,,,,,,,,,,,,,,1,33,93,4,1,A,X,N,o1_image,stimuli/out1.png,stimuli/correct_out1.png,stimuli/out2.png,,,,,,,,,,,,,,,,,,,,,,,,,,,,,,,,,,,,,,
,,5b278c153a20420001efd41b,46,female,2024-04-19_17h37.32.958,stockport_simplified,2022.2.4,MacIntel,60.60606061,661e456ee6de07e70aa9ef7b,66229da778e355f7ac8acefe,,,,,,,,,,,,,,,,,,,,,,,,,,,,,,,,,,643.4521,645.7746,"[7,1,2,8,3,5,4,6]","[[-0.3,0.2],[0.3,0.2]]","[[0.125,-0.2],[-0.125,-0.2]]",-0.083548041,-0.228882785,1,0,0,1.8209,o2_image,645.7754,1,646.2766,646.2766,648.2663,0,0,0,0,1,,,,,,,,,,,,,,,,,,,,,,,,,,,,,,,,,,,,,,,,,,,,,,,,,,
,,5b278c153a20420001efd41b,46,female,2024-04-19_17h37.32.958,stockport_simplified,2022.2.4,MacIntel,60.60606061,661e456ee6de07e70aa9ef7b,66229da778e355f7ac8acefe,,,,,,,,,,,,,,,,,,,,,,,,,,,,,,,,,,,,,,,,,,,,,,,,,,,,,,,,1,34,94,18,1,B,Y,N,o2_image,stimuli/out2.png,stimuli/out1.png,stimuli/correct_out2.png,,,,,,,,,,,,,,,,,,,,,,,,,,,,,,,,,,,,,,
,,5b278c153a20420001efd41b,46,female,2024-04-19_17h37.32.958,stockport_simplified,2022.2.4,MacIntel,60.60606061,661e456ee6de07e70aa9ef7b,66229da778e355f7ac8acefe,,,,,,,,,,,,,,,,,,,,,,,,,,,,,,,,,,648.2667,650.9547,"[7,1,2,8,3,5,4,6]","[[-0.3,0.2],[0.3,0.2]]","[[-0.125,-0.2],[0.125,-0.2]]",0.085217217,-0.21788859,1,0,0,2.1711,o2_image,650.9681,0,651.4569,651.457,653.4456,0,0,0,0,1,,,,,,,,,,,,,,,,,,,,,,,,,,,,,,,,,,,,,,,,,,,,,,,,,,
,,5b278c153a20420001efd41b,46,female,2024-04-19_17h37.32.958,stockport_simplified,2022.2.4,MacIntel,60.60606061,661e456ee6de07e70aa9ef7b,66229da778e355f7ac8acefe,,,,,,,,,,,,,,,,,,,,,,,,,,,,,,,,,,,,,,,,,,,,,,,,,,,,,,,,1,35,95,34,1,A,X,N,o1_image,stimuli/out1.png,stimuli/correct_out1.png,stimuli/out2.png,,,,,,,,,,,,,,,,,,,,,,,,,,,,,,,,,,,,,,
,,5b278c153a20420001efd41b,46,female,2024-04-19_17h37.32.958,stockport_simplified,2022.2.4,MacIntel,60.60606061,661e456ee6de07e70aa9ef7b,66229da778e355f7ac8acefe,,,,,,,,,,,,,,,,,,,,,,,,,,,,,,,,,,653.446,655.5671,"[7,1,2,8,3,5,4,6]","[[0.3,0.2],[-0.3,0.2]]","[[-0.125,-0.2],[0.125,-0.2]]",-0.137564426,-0.195806274,1,0,0,1.62,o1_image,655.5678,0,656.0694,656.0694,658.0573,0,0,0,0,1,,,,,,,,,,,,,,,,,,,,,,,,,,,,,,,,,,,,,,,,,,,,,,,,,,
,,5b278c153a20420001efd41b,46,female,2024-04-19_17h37.32.958,stockport_simplified,2022.2.4,MacIntel,60.60606061,661e456ee6de07e70aa9ef7b,66229da778e355f7ac8acefe,,,,,,,,,,,,,,,,,,,,,,,,,,,,,,,,,,,,,,,,,,,,,,,,,,,,,,,,1,36,96,44,1,B,X,N,o2_image,stimuli/out2.png,stimuli/out1.png,stimuli/correct_out2.png,,,,,,,,,,,,,,,,,,,,,,,,,,,,,,,,,,,,,,
,,5b278c153a20420001efd41b,46,female,2024-04-19_17h37.32.958,stockport_simplified,2022.2.4,MacIntel,60.60606061,661e456ee6de07e70aa9ef7b,66229da778e355f7ac8acefe,,,,,,,,,,,,,,,,,,,,,,,,,,,,,,,,,,658.0577,659.729,"[7,1,2,8,3,5,4,6]","[[0.3,0.2],[-0.3,0.2]]","[[0.125,-0.2],[-0.125,-0.2]]",-0.137564426,-0.195806274,1,0,0,1.1695,o2_image,659.7297,1,660.2304,660.2304,662.2184,0,0,0,0,1,,,,,,,,,,,,,,,,,,,,,,,,,,,,,,,,,,,,,,,,,,,,,,,,,,
,,5b278c153a20420001efd41b,46,female,2024-04-19_17h37.32.958,stockport_simplified,2022.2.4,MacIntel,60.60606061,661e456ee6de07e70aa9ef7b,66229da778e355f7ac8acefe,,,,,,,,,,,,,,,,,,,,,,,,,,,,,,,,,,,,,,,,,,,,,,,,,,,,,,,,1,37,97,11,1,B,X,N,o2_image,stimuli/out2.png,stimuli/out1.png,stimuli/correct_out2.png,,,,,,,,,,,,,,,,,,,,,,,,,,,,,,,,,,,,,,
,,5b278c153a20420001efd41b,46,female,2024-04-19_17h37.32.958,stockport_simplified,2022.2.4,MacIntel,60.60606061,661e456ee6de07e70aa9ef7b,66229da778e355f7ac8acefe,,,,,,,,,,,,,,,,,,,,,,,,,,,,,,,,,,662.2188,664.6087,"[7,1,2,8,3,5,4,6]","[[-0.3,0.2],[0.3,0.2]]","[[-0.125,-0.2],[0.125,-0.2]]",-0.079208238,-0.213755764,1,0,0,1.8891,o1_image,664.6228,0,665.1101,665.1101,667.0988,0,0,0,0,1,,,,,,,,,,,,,,,,,,,,,,,,,,,,,,,,,,,,,,,,,,,,,,,,,,
,,5b278c153a20420001efd41b,46,female,2024-04-19_17h37.32.958,stockport_simplified,2022.2.4,MacIntel,60.60606061,661e456ee6de07e70aa9ef7b,66229da778e355f7ac8acefe,,,,,,,,,,,,,,,,,,,,,,,,,,,,,,,,,,,,,,,,,,,,,,,,,,,,,,,,1,38,98,48,1,B,Y,N,o2_image,stimuli/out2.png,stimuli/out1.png,stimuli/correct_out2.png,,,,,,,,,,,,,,,,,,,,,,,,,,,,,,,,,,,,,,
,,5b278c153a20420001efd41b,46,female,2024-04-19_17h37.32.958,stockport_simplified,2022.2.4,MacIntel,60.60606061,661e456ee6de07e70aa9ef7b,66229da778e355f7ac8acefe,,,,,,,,,,,,,,,,,,,,,,,,,,,,,,,,,,667.0991,669.0539,"[7,1,2,8,3,5,4,6]","[[0.3,0.2],[-0.3,0.2]]","[[-0.125,-0.2],[0.125,-0.2]]",0.054146389,-0.212003106,1,0,0,1.4535,o2_image,669.0548,0,669.5551,669.5551,671.5429,0,0,0,0,1,,,,,,,,,,,,,,,,,,,,,,,,,,,,,,,,,,,,,,,,,,,,,,,,,,
,,5b278c153a20420001efd41b,46,female,2024-04-19_17h37.32.958,stockport_simplified,2022.2.4,MacIntel,60.60606061,661e456ee6de07e70aa9ef7b,66229da778e355f7ac8acefe,,,,,,,,,,,,,,,,,,,,,,,,,,,,,,,,,,,,,,,,,,,,,,,,,,,,,,,,1,39,99,2,1,A,X,N,o1_image,stimuli/out1.png,stimuli/correct_out1.png,stimuli/out2.png,,,,,,,,,,,,,,,,,,,,,,,,,,,,,,,,,,,,,,
,,5b278c153a20420001efd41b,46,female,2024-04-19_17h37.32.958,stockport_simplified,2022.2.4,MacIntel,60.60606061,661e456ee6de07e70aa9ef7b,66229da778e355f7ac8acefe,,,,,,,,,,,,,,,,,,,,,,,,,,,,,,,,,,671.5433,673.4323,"[7,1,2,8,3,5,4,6]","[[-0.3,0.2],[0.3,0.2]]","[[-0.125,-0.2],[0.125,-0.2]]",-0.130520223,-0.2209316,1,0,0,1.3868,o1_image,673.433,1,673.9337,673.9337,675.9223,0,0,0,0,1,,,,,,,,,,,,,,,,,,,,,,,,,,,,,,,,,,,,,,,,,,,,,,,,,,
,,5b278c153a20420001efd41b,46,female,2024-04-19_17h37.32.958,stockport_simplified,2022.2.4,MacIntel,60.60606061,661e456ee6de07e70aa9ef7b,66229da778e355f7ac8acefe,,,,,,,,,,,,,,,,,,,,,,,,,,,,,,,,,,,,,,,,,,,,,,,,,,,,,,,,1,40,100,23,1,N,M,C,o1_image,stimuli/out1.png,stimuli/correct_out1.png,stimuli/out2.png,,,,,,,,,,,,,,,,,,,,,,,,,,,,,,,,,,,,,,
,,5b278c153a20420001efd41b,46,female,2024-04-19_17h37.32.958,stockport_simplified,2022.2.4,MacIntel,60.60606061,661e456ee6de07e70aa9ef7b,66229da778e355f7ac8acefe,,,,,,,,,,,,,,,,,,,,,,,,,,,,,,,,,,675.9227,677.7104,"[7,1,2,8,3,5,4,6]","[[-0.3,0.2],[0.3,0.2]]","[[-0.125,-0.2],[0.125,-0.2]]",-0.125025024,-0.221817627,1,0,0,1.2863,o1_image,677.7114,1,678.2118,678.2118,680.2004,0,0,0,0,1,,,,,,,,,,,,,,,,,,,,,,,,,,,,,,,,,,,,,,,,,,,,,,,,,,
,,5b278c153a20420001efd41b,46,female,2024-04-19_17h37.32.958,stockport_simplified,2022.2.4,MacIntel,60.60606061,661e456ee6de07e70aa9ef7b,66229da778e355f7ac8acefe,,,,,,,,,,,,,,,,,,,,,,,,,,,,,,,,,,,,,,,,,,,,,,,,,,,,,,,,1,41,101,37,1,A,Y,N,o1_image,stimuli/out1.png,stimuli/correct_out1.png,stimuli/out2.png,,,,,,,,,,,,,,,,,,,,,,,,,,,,,,,,,,,,,,
,,5b278c153a20420001efd41b,46,female,2024-04-19_17h37.32.958,stockport_simplified,2022.2.4,MacIntel,60.60606061,661e456ee6de07e70aa9ef7b,66229da778e355f7ac8acefe,,,,,,,,,,,,,,,,,,,,,,,,,,,,,,,,,,680.2008,682.9902,"[7,1,2,8,3,5,4,6]","[[-0.3,0.2],[0.3,0.2]]","[[0.125,-0.2],[-0.125,-0.2]]",-0.112135213,-0.216323785,1,0,0,2.2883,o2_image,683.005,1,683.5091,683.5091,685.498,0,0,0,0,1,,,,,,,,,,,,,,,,,,,,,,,,,,,,,,,,,,,,,,,,,,,,,,,,,,
,,5b278c153a20420001efd41b,46,female,2024-04-19_17h37.32.958,stockport_simplified,2022.2.4,MacIntel,60.60606061,661e456ee6de07e70aa9ef7b,66229da778e355f7ac8acefe,,,,,,,,,,,,,,,,,,,,,,,,,,,,,,,,,,,,,,,,,,,,,,,,,,,,,,,,1,42,102,16,1,B,Y,N,o2_image,stimuli/out2.png,stimuli/out1.png,stimuli/correct_out2.png,,,,,,,,,,,,,,,,,,,,,,,,,,,,,,,,,,,,,,
,,5b278c153a20420001efd41b,46,female,2024-04-19_17h37.32.958,stockport_simplified,2022.2.4,MacIntel,60.60606061,661e456ee6de07e70aa9ef7b,66229da778e355f7ac8acefe,,,,,,,,,,,,,,,,,,,,,,,,,,,,,,,,,,685.4983,687.2181,"[7,1,2,8,3,5,4,6]","[[0.3,0.2],[-0.3,0.2]]","[[0.125,-0.2],[-0.125,-0.2]]",0.112128974,-0.225375163,1,0,0,1.2187,o1_image,687.2189,1,687.7205,687.7206,689.7091,0,0,0,0,1,,,,,,,,,,,,,,,,,,,,,,,,,,,,,,,,,,,,,,,,,,,,,,,,,,
,,5b278c153a20420001efd41b,46,female,2024-04-19_17h37.32.958,stockport_simplified,2022.2.4,MacIntel,60.60606061,661e456ee6de07e70aa9ef7b,66229da778e355f7ac8acefe,,,,,,,,,,,,,,,,,,,,,,,,,,,,,,,,,,,,,,,,,,,,,,,,,,,,,,,,1,43,103,36,1,A,Y,N,o1_image,stimuli/out1.png,stimuli/correct_out1.png,stimuli/out2.png,,,,,,,,,,,,,,,,,,,,,,,,,,,,,,,,,,,,,,
,,5b278c153a20420001efd41b,46,female,2024-04-19_17h37.32.958,stockport_simplified,2022.2.4,MacIntel,60.60606061,661e456ee6de07e70aa9ef7b,66229da778e355f7ac8acefe,,,,,,,,,,,,,,,,,,,,,,,,,,,,,,,,,,689.7094,691.2791,"[7,1,2,8,3,5,4,6]","[[0.3,0.2],[-0.3,0.2]]","[[0.125,-0.2],[-0.125,-0.2]]",-0.085989922,-0.250411241,1,0,0,1.0686,o2_image,691.2798,0,691.7806,691.7806,693.7701,0,0,0,0,1,,,,,,,,,,,,,,,,,,,,,,,,,,,,,,,,,,,,,,,,,,,,,,,,,,
,,5b278c153a20420001efd41b,46,female,2024-04-19_17h37.32.958,stockport_simplified,2022.2.4,MacIntel,60.60606061,661e456ee6de07e70aa9ef7b,66229da778e355f7ac8acefe,,,,,,,,,,,,,,,,,,,,,,,,,,,,,,,,,,,,,,,,,,,,,,,,,,,,,,,,1,44,104,38,1,A,Y,N,o1_image,stimuli/out1.png,stimuli/correct_out1.png,stimuli/out2.png,,,,,,,,,,,,,,,,,,,,,,,,,,,,,,,,,,,,,,
,,5b278c153a20420001efd41b,46,female,2024-04-19_17h37.32.958,stockport_simplified,2022.2.4,MacIntel,60.60606061,661e456ee6de07e70aa9ef7b,66229da778e355f7ac8acefe,,,,,,,,,,,,,,,,,,,,,,,,,,,,,,,,,,693.7704,695.674,"[7,1,2,8,3,5,4,6]","[[0.3,0.2],[-0.3,0.2]]","[[-0.125,-0.2],[0.125,-0.2]]",-0.113752035,-0.240769586,1,0,0,1.4024,o1_image,695.6748,1,696.1765,696.1765,698.1818,0,0,0,0,1,,,,,,,,,,,,,,,,,,,,,,,,,,,,,,,,,,,,,,,,,,,,,,,,,,
,,5b278c153a20420001efd41b,46,female,2024-04-19_17h37.32.958,stockport_simplified,2022.2.4,MacIntel,60.60606061,661e456ee6de07e70aa9ef7b,66229da778e355f7ac8acefe,,,,,,,,,,,,,,,,,,,,,,,,,,,,,,,,,,,,,,,,,,,,,,,,,,,,,,,,1,45,105,20,1,N,M,C,o1_image,stimuli/out1.png,stimuli/correct_out1.png,stimuli/out2.png,,,,,,,,,,,,,,,,,,,,,,,,,,,,,,,,,,,,,,
,,5b278c153a20420001efd41b,46,female,2024-04-19_17h37.32.958,stockport_simplified,2022.2.4,MacIntel,60.60606061,661e456ee6de07e70aa9ef7b,66229da778e355f7ac8acefe,,,,,,,,,,,,,,,,,,,,,,,,,,,,,,,,,,698.1822,699.8361,"[7,1,2,8,3,5,4,6]","[[-0.3,0.2],[0.3,0.2]]","[[-0.125,-0.2],[0.125,-0.2]]",0.1108707,-0.214676378,1,0,0,1.1525,o2_image,699.8368,0,700.3376,700.3376,702.3258,0,0,0,0,1,,,,,,,,,,,,,,,,,,,,,,,,,,,,,,,,,,,,,,,,,,,,,,,,,,
,,5b278c153a20420001efd41b,46,female,2024-04-19_17h37.32.958,stockport_simplified,2022.2.4,MacIntel,60.60606061,661e456ee6de07e70aa9ef7b,66229da778e355f7ac8acefe,,,,,,,,,,,,,,,,,,,,,,,,,,,,,,,,,,,,,,,,,,,,,,,,,,,,,,,,1,46,106,32,1,A,X,N,o1_image,stimuli/out1.png,stimuli/correct_out1.png,stimuli/out2.png,,,,,,,,,,,,,,,,,,,,,,,,,,,,,,,,,,,,,,
,,5b278c153a20420001efd41b,46,female,2024-04-19_17h37.32.958,stockport_simplified,2022.2.4,MacIntel,60.60606061,661e456ee6de07e70aa9ef7b,66229da778e355f7ac8acefe,,,,,,,,,,,,,,,,,,,,,,,,,,,,,,,,,,702.3263,703.7789,"[7,1,2,8,3,5,4,6]","[[-0.3,0.2],[0.3,0.2]]","[[-0.125,-0.2],[0.125,-0.2]]",-0.116193509,-0.222968275,1,0,0,0.9512,o1_image,703.7798,1,704.2813,704.2813,706.269,0,0,0,0,1,,,,,,,,,,,,,,,,,,,,,,,,,,,,,,,,,,,,,,,,,,,,,,,,,,
,,5b278c153a20420001efd41b,46,female,2024-04-19_17h37.32.958,stockport_simplified,2022.2.4,MacIntel,60.60606061,661e456ee6de07e70aa9ef7b,66229da778e355f7ac8acefe,,,,,,,,,,,,,,,,,,,,,,,,,,,,,,,,,,,,,,,,,,,,,,,,,,,,,,,,1,47,107,8,1,A,Y,N,o1_image,stimuli/out1.png,stimuli/correct_out1.png,stimuli/out2.png,,,,,,,,,,,,,,,,,,,,,,,,,,,,,,,,,,,,,,
,,5b278c153a20420001efd41b,46,female,2024-04-19_17h37.32.958,stockport_simplified,2022.2.4,MacIntel,60.60606061,661e456ee6de07e70aa9ef7b,66229da778e355f7ac8acefe,,,,,,,,,,,,,,,,,,,,,,,,,,,,,,,,,,706.2695,707.7239,"[7,1,2,8,3,5,4,6]","[[0.3,0.2],[-0.3,0.2]]","[[0.125,-0.2],[-0.125,-0.2]]",0.096958211,-0.210971883,1,0,0,0.9522,o1_image,707.7248,1,708.2247,708.2247,710.2138,0,0,0,0,1,,,,,,,,,,,,,,,,,,,,,,,,,,,,,,,,,,,,,,,,,,,,,,,,,,
,,5b278c153a20420001efd41b,46,female,2024-04-19_17h37.32.958,stockport_simplified,2022.2.4,MacIntel,60.60606061,661e456ee6de07e70aa9ef7b,66229da778e355f7ac8acefe,,,,,,,,,,,,,,,,,,,,,,,,,,,,,,,,,,,,,,,,,,,,,,,,,,,,,,,,1,48,108,31,1,A,X,N,o1_image,stimuli/out1.png,stimuli/correct_out1.png,stimuli/out2.png,,,,,,,,,,,,,,,,,,,,,,,,,,,,,,,,,,,,,,
,,5b278c153a20420001efd41b,46,female,2024-04-19_17h37.32.958,stockport_simplified,2022.2.4,MacIntel,60.60606061,661e456ee6de07e70aa9ef7b,66229da778e355f7ac8acefe,,,,,,,,,,,,,,,,,,,,,,,,,,,,,,,,,,710.2141,711.8687,"[7,1,2,8,3,5,4,6]","[[-0.3,0.2],[0.3,0.2]]","[[-0.125,-0.2],[0.125,-0.2]]",-0.091050279,-0.200819838,1,0,0,1.1531,o1_image,711.8695,0,712.3696,712.3696,714.3582,0,0,0,0,1,,,,,,,,,,,,,,,,,,,,,,,,,,,,,,,,,,,,,,,,,,,,,,,,,,
,,5b278c153a20420001efd41b,46,female,2024-04-19_17h37.32.958,stockport_simplified,2022.2.4,MacIntel,60.60606061,661e456ee6de07e70aa9ef7b,66229da778e355f7ac8acefe,,,,,,,,,,,,,,,,,,,,,,,,,,,,,,,,,,,,,,,,,,,,,,,,,,,,,,,,1,49,109,47,1,B,Y,N,o2_image,stimuli/out2.png,stimuli/out1.png,stimuli/correct_out2.png,,,,,,,,,,,,,,,,,,,,,,,,,,,,,,,,,,,,,,
,,5b278c153a20420001efd41b,46,female,2024-04-19_17h37.32.958,stockport_simplified,2022.2.4,MacIntel,60.60606061,661e456ee6de07e70aa9ef7b,66229da778e355f7ac8acefe,,,,,,,,,,,,,,,,,,,,,,,,,,,,,,,,,,714.3586,715.7291,"[7,1,2,8,3,5,4,6]","[[0.3,0.2],[-0.3,0.2]]","[[-0.125,-0.2],[0.125,-0.2]]",-0.088982883,-0.198832262,1,0,0,0.8692,o1_image,715.7299,1,716.2298,716.2299,718.2186,0,0,0,0,1,,,,,,,,,,,,,,,,,,,,,,,,,,,,,,,,,,,,,,,,,,,,,,,,,,
,,5b278c153a20420001efd41b,46,female,2024-04-19_17h37.32.958,stockport_simplified,2022.2.4,MacIntel,60.60606061,661e456ee6de07e70aa9ef7b,66229da778e355f7ac8acefe,,,,,,,,,,,,,,,,,,,,,,,,,,,,,,,,,,,,,,,,,,,,,,,,,,,,,,,,1,50,110,33,1,A,X,N,o1_image,stimuli/out1.png,stimuli/correct_out1.png,stimuli/out2.png,,,,,,,,,,,,,,,,,,,,,,,,,,,,,,,,,,,,,,
,,5b278c153a20420001efd41b,46,female,2024-04-19_17h37.32.958,stockport_simplified,2022.2.4,MacIntel,60.60606061,661e456ee6de07e70aa9ef7b,66229da778e355f7ac8acefe,,,,,,,,,,,,,,,,,,,,,,,,,,,,,,,,,,718.219,720.5078,"[7,1,2,8,3,5,4,6]","[[-0.3,0.2],[0.3,0.2]]","[[-0.125,-0.2],[0.125,-0.2]]",-0.088982883,-0.199127604,1,0,0,1.7877,o1_image,720.5219,0,721.0263,721.0263,723.0149,0,0,0,0,1,,,,,,,,,,,,,,,,,,,,,,,,,,,,,,,,,,,,,,,,,,,,,,,,,,
,,5b278c153a20420001efd41b,46,female,2024-04-19_17h37.32.958,stockport_simplified,2022.2.4,MacIntel,60.60606061,661e456ee6de07e70aa9ef7b,66229da778e355f7ac8acefe,,,,,,,,,,,,,,,,,,,,,,,,,,,,,,,,,,,,,,,,,,,,,,,,,,,,,,,,1,51,111,10,1,B,X,N,o2_image,stimuli/out2.png,stimuli/out1.png,stimuli/correct_out2.png,,,,,,,,,,,,,,,,,,,,,,,,,,,,,,,,,,,,,,
,,5b278c153a20420001efd41b,46,female,2024-04-19_17h37.32.958,stockport_simplified,2022.2.4,MacIntel,60.60606061,661e456ee6de07e70aa9ef7b,66229da778e355f7ac8acefe,,,,,,,,,,,,,,,,,,,,,,,,,,,,,,,,,,723.0153,725.0367,"[7,1,2,8,3,5,4,6]","[[0.3,0.2],[-0.3,0.2]]","[[-0.125,-0.2],[0.125,-0.2]]",-0.086915487,-0.202081028,1,0,0,1.5036,o1_image,725.0374,1,725.5383,725.5383,727.5267,0,0,0,0,1,,,,,,,,,,,,,,,,,,,,,,,,,,,,,,,,,,,,,,,,,,,,,,,,,,
,,5b278c153a20420001efd41b,46,female,2024-04-19_17h37.32.958,stockport_simplified,2022.2.4,MacIntel,60.60606061,661e456ee6de07e70aa9ef7b,66229da778e355f7ac8acefe,,,,,,,,,,,,,,,,,,,,,,,,,,,,,,,,,,,,,,,,,,,,,,,,,,,,,,,,1,52,112,21,1,N,M,C,o1_image,stimuli/out1.png,stimuli/correct_out1.png,stimuli/out2.png,,,,,,,,,,,,,,,,,,,,,,,,,,,,,,,,,,,,,,
,,5b278c153a20420001efd41b,46,female,2024-04-19_17h37.32.958,stockport_simplified,2022.2.4,MacIntel,60.60606061,661e456ee6de07e70aa9ef7b,66229da778e355f7ac8acefe,,,,,,,,,,,,,,,,,,,,,,,,,,,,,,,,,,727.5271,729.214,"[7,1,2,8,3,5,4,6]","[[-0.3,0.2],[0.3,0.2]]","[[-0.125,-0.2],[0.125,-0.2]]",0.095947605,-0.213026123,1,0,0,1.1854,o2_image,729.2147,0,729.7148,729.7148,731.7046,0,0,0,0,1,,,,,,,,,,,,,,,,,,,,,,,,,,,,,,,,,,,,,,,,,,,,,,,,,,
,,5b278c153a20420001efd41b,46,female,2024-04-19_17h37.32.958,stockport_simplified,2022.2.4,MacIntel,60.60606061,661e456ee6de07e70aa9ef7b,66229da778e355f7ac8acefe,,,,,,,,,,,,,,,,,,,,,,,,,,,,,,,,,,,,,,,,,,,,,,,,,,,,,,,,1,53,113,0,1,A,X,N,o1_image,stimuli/out1.png,stimuli/correct_out1.png,stimuli/out2.png,,,,,,,,,,,,,,,,,,,,,,,,,,,,,,,,,,,,,,
,,5b278c153a20420001efd41b,46,female,2024-04-19_17h37.32.958,stockport_simplified,2022.2.4,MacIntel,60.60606061,661e456ee6de07e70aa9ef7b,66229da778e355f7ac8acefe,,,,,,,,,,,,,,,,,,,,,,,,,,,,,,,,,,731.7051,733.2582,"[7,1,2,8,3,5,4,6]","[[0.3,0.2],[-0.3,0.2]]","[[0.125,-0.2],[-0.125,-0.2]]",-0.0936183,-0.230911119,1,0,0,1.0354,o2_image,733.2588,1,733.7598,733.7598,735.7487,0,0,0,0,1,,,,,,,,,,,,,,,,,,,,,,,,,,,,,,,,,,,,,,,,,,,,,,,,,,
,,5b278c153a20420001efd41b,46,female,2024-04-19_17h37.32.958,stockport_simplified,2022.2.4,MacIntel,60.60606061,661e456ee6de07e70aa9ef7b,66229da778e355f7ac8acefe,,,,,,,,,,,,,,,,,,,,,,,,,,,,,,,,,,,,,,,,,,,,,,,,,,,,,,,,1,54,114,42,1,B,X,N,o2_image,stimuli/out2.png,stimuli/out1.png,stimuli/correct_out2.png,,,,,,,,,,,,,,,,,,,,,,,,,,,,,,,,,,,,,,
,,5b278c153a20420001efd41b,46,female,2024-04-19_17h37.32.958,stockport_simplified,2022.2.4,MacIntel,60.60606061,661e456ee6de07e70aa9ef7b,66229da778e355f7ac8acefe,,,,,,,,,,,,,,,,,,,,,,,,,,,,,,,,,,735.7491,738.3059,"[7,1,2,8,3,5,4,6]","[[0.3,0.2],[-0.3,0.2]]","[[0.125,-0.2],[-0.125,-0.2]]",-0.068354763,-0.199416775,1,0,0,2.0556,o2_image,738.3067,1,738.8069,738.8069,740.7956,0,0,0,0,1,,,,,,,,,,,,,,,,,,,,,,,,,,,,,,,,,,,,,,,,,,,,,,,,,,
,,5b278c153a20420001efd41b,46,female,2024-04-19_17h37.32.958,stockport_simplified,2022.2.4,MacIntel,60.60606061,661e456ee6de07e70aa9ef7b,66229da778e355f7ac8acefe,,,,,,,,,,,,,,,,,,,,,,,,,,,,,,,,,,,,,,,,,,,,,,,,,,,,,,,,1,55,115,58,1,N,M,D,o2_image,stimuli/out2.png,stimuli/out1.png,stimuli/correct_out2.png,,,,,,,,,,,,,,,,,,,,,,,,,,,,,,,,,,,,,,
,,5b278c153a20420001efd41b,46,female,2024-04-19_17h37.32.958,stockport_simplified,2022.2.4,MacIntel,60.60606061,661e456ee6de07e70aa9ef7b,66229da778e355f7ac8acefe,,,,,,,,,,,,,,,,,,,,,,,,,,,,,,,,,,740.7959,743.4528,"[7,1,2,8,3,5,4,6]","[[0.3,0.2],[-0.3,0.2]]","[[-0.125,-0.2],[0.125,-0.2]]",-0.092577786,-0.204375814,1,0,0,2.1393,o1_image,743.4534,1,743.954,743.954,745.9425,0,0,0,0,1,,,,,,,,,,,,,,,,,,,,,,,,,,,,,,,,,,,,,,,,,,,,,,,,,,
,,5b278c153a20420001efd41b,46,female,2024-04-19_17h37.32.958,stockport_simplified,2022.2.4,MacIntel,60.60606061,661e456ee6de07e70aa9ef7b,66229da778e355f7ac8acefe,,,,,,,,,,,,,,,,,,,,,,,,,,,,,,,,,,,,,,,,,,,,,,,,,,,,,,,,1,56,116,6,1,A,Y,N,o1_image,stimuli/out1.png,stimuli/correct_out1.png,stimuli/out2.png,,,,,,,,,,,,,,,,,,,,,,,,,,,,,,,,,,,,,,
,,5b278c153a20420001efd41b,46,female,2024-04-19_17h37.32.958,stockport_simplified,2022.2.4,MacIntel,60.60606061,661e456ee6de07e70aa9ef7b,66229da778e355f7ac8acefe,,,,,,,,,,,,,,,,,,,,,,,,,,,,,,,,,,745.943,747.7141,"[7,1,2,8,3,5,4,6]","[[-0.3,0.2],[0.3,0.2]]","[[0.125,-0.2],[-0.125,-0.2]]",0.12942966,-0.20442627,1,0,0,1.2703,o1_image,747.7147,0,748.2148,748.2148,750.204,0,0,0,0,1,,,,,,,,,,,,,,,,,,,,,,,,,,,,,,,,,,,,,,,,,,,,,,,,,,
,,5b278c153a20420001efd41b,46,female,2024-04-19_17h37.32.958,stockport_simplified,2022.2.4,MacIntel,60.60606061,661e456ee6de07e70aa9ef7b,66229da778e355f7ac8acefe,,,,,,,,,,,,,,,,,,,,,,,,,,,,,,,,,,,,,,,,,,,,,,,,,,,,,,,,1,57,117,49,1,B,Y,N,o2_image,stimuli/out2.png,stimuli/out1.png,stimuli/correct_out2.png,,,,,,,,,,,,,,,,,,,,,,,,,,,,,,,,,,,,,,
,,5b278c153a20420001efd41b,46,female,2024-04-19_17h37.32.958,stockport_simplified,2022.2.4,MacIntel,60.60606061,661e456ee6de07e70aa9ef7b,66229da778e355f7ac8acefe,,,,,,,,,,,,,,,,,,,,,,,,,,,,,,,,,,750.2045,752.3762,"[7,1,2,8,3,5,4,6]","[[0.3,0.2],[-0.3,0.2]]","[[-0.125,-0.2],[0.125,-0.2]]",-0.098564521,-0.201589355,1,0,0,1.6702,o1_image,752.3766,1,752.8766,752.8767,754.8666,0,0,0,0,1,,,,,,,,,,,,,,,,,,,,,,,,,,,,,,,,,,,,,,,,,,,,,,,,,,
,,5b278c153a20420001efd41b,46,female,2024-04-19_17h37.32.958,stockport_simplified,2022.2.4,MacIntel,60.60606061,661e456ee6de07e70aa9ef7b,66229da778e355f7ac8acefe,,,,,,,,,,,,,,,,,,,,,,,,,,,,,,,,,,,,,,,,,,,,,,,,,,,,,,,,1,58,118,22,1,N,M,C,o1_image,stimuli/out1.png,stimuli/correct_out1.png,stimuli/out2.png,,,,,,,,,,,,,,,,,,,,,,,,,,,,,,,,,,,,,,
,,5b278c153a20420001efd41b,46,female,2024-04-19_17h37.32.958,stockport_simplified,2022.2.4,MacIntel,60.60606061,661e456ee6de07e70aa9ef7b,66229da778e355f7ac8acefe,,,,,,,,,,,,,,,,,,,,,,,,,,,,,,,,,,754.8669,756.956,"[7,1,2,8,3,5,4,6]","[[0.3,0.2],[-0.3,0.2]]","[[-0.125,-0.2],[0.125,-0.2]]",-0.097678494,-0.202475382,1,0,0,1.5889,o1_image,756.9566,1,757.4556,757.4556,759.4452,0,0,0,0,1,,,,,,,,,,,,,,,,,,,,,,,,,,,,,,,,,,,,,,,,,,,,,,,,,,
,,5b278c153a20420001efd41b,46,female,2024-04-19_17h37.32.958,stockport_simplified,2022.2.4,MacIntel,60.60606061,661e456ee6de07e70aa9ef7b,66229da778e355f7ac8acefe,,,,,,,,,,,,,,,,,,,,,,,,,,,,,,,,,,,,,,,,,,,,,,,,,,,,,,,,1,59,119,50,1,N,M,C,o1_image,stimuli/out1.png,stimuli/correct_out1.png,stimuli/out2.png,,,,,,,,,,,,,,,,,,,,,,,,,,,,,,,,,,,,,,
,,5b278c153a20420001efd41b,46,female,2024-04-19_17h37.32.958,stockport_simplified,2022.2.4,MacIntel,60.60606061,661e456ee6de07e70aa9ef7b,66229da778e355f7ac8acefe,,,,,,,,,,,,,,,,,,,,,,,,,,,,,,,,,,759.464,761.316,"[7,1,2,8,3,5,4,6]","[[0.3,0.2],[-0.3,0.2]]","[[-0.125,-0.2],[0.125,-0.2]]",0.12841234,-0.208783908,1,0,0,1.3355,o2_image,761.3172,1,761.8183,761.8183,763.8068,,,,,,,,,,,,,,,,,,0,0,0,0,1,,,,,,,,,,,,,,,,,,,,,,,,,,,,,,,,,
,,5b278c153a20420001efd41b,46,female,2024-04-19_17h37.32.958,stockport_simplified,2022.2.4,MacIntel,60.60606061,661e456ee6de07e70aa9ef7b,66229da778e355f7ac8acefe,,,,,,,,,,,,,,,,,,,,,,,,,,,,,,,,,,,,,,,,,,,,,,,,,,,,,,,,,,,,,N,M,D,o2_image,stimuli/out2.png,stimuli/out1.png,stimuli/correct_out2.png,,,,,,0,0,0,54,1,,,,,,,,,,,,,,,,,,,,,,,,,,,,
,,5b278c153a20420001efd41b,46,female,2024-04-19_17h37.32.958,stockport_simplified,2022.2.4,MacIntel,60.60606061,661e456ee6de07e70aa9ef7b,66229da778e355f7ac8acefe,,,,,,,,,,,,,,,,,,,,,,,,,,,,,,,,,,763.8075,765.6446,"[7,1,2,8,3,5,4,6]","[[0.3,0.2],[-0.3,0.2]]","[[-0.125,-0.2],[0.125,-0.2]]",-0.121646389,-0.203248766,1,0,0,1.336,o1_image,765.6456,1,766.1455,766.1455,768.1352,,,,,,,,,,,,,,,,,,0,0,0,0,1,,,,,,,,,,,,,,,,,,,,,,,,,,,,,,,,,
,,5b278c153a20420001efd41b,46,female,2024-04-19_17h37.32.958,stockport_simplified,2022.2.4,MacIntel,60.60606061,661e456ee6de07e70aa9ef7b,66229da778e355f7ac8acefe,,,,,,,,,,,,,,,,,,,,,,,,,,,,,,,,,,,,,,,,,,,,,,,,,,,,,,,,,,,,,N,M,C,o1_image,stimuli/out1.png,stimuli/correct_out1.png,stimuli/out2.png,,,,,,0,1,1,49,1,,,,,,,,,,,,,,,,,,,,,,,,,,,,
,,5b278c153a20420001efd41b,46,female,2024-04-19_17h37.32.958,stockport_simplified,2022.2.4,MacIntel,60.60606061,661e456ee6de07e70aa9ef7b,66229da778e355f7ac8acefe,,,,,,,,,,,,,,,,,,,,,,,,,,,,,,,,,,768.1357,770.0904,"[7,1,2,8,3,5,4,6]","[[0.3,0.2],[-0.3,0.2]]","[[-0.125,-0.2],[0.125,-0.2]]",0.163427463,-0.204580282,1,0,0,1.4534,o2_image,770.0911,1,770.5919,770.5919,772.5803,,,,,,,,,,,,,,,,,,0,0,0,0,1,,,,,,,,,,,,,,,,,,,,,,,,,,,,,,,,,
