counterbalance_2.started,counterbalance_2.stopped,participant,age,gender,date,expName,psychopyVersion,OS,frameRate,STUDY_ID,SESSION_ID,information_2.started,information_2.stopped,information_loop.thisRepN,information_loop.thisTrialN,information_loop.thisN,information_loop.thisIndex,information_loop.ran,information,consent_2.started,consent_2.stopped,slider_1.response,slider_2.response,slider_3.response,slider_4.response,slider_5.response,slider_6.response,instructions.started,instructions.stopped,task1_instr.thisRepN,task1_instr.thisTrialN,task1_instr.thisN,task1_instr.thisIndex,task1_instr.ran,task1,comprehension1_2.started,comprehension1_2.stopped,comp1_mouse.x,comp1_mouse.y,comp1_mouse.leftButton,comp1_mouse.midButton,comp1_mouse.rightButton,comp1_mouse.time,comp1_mouse.clicked_name,cue_o__trial_2.started,cue_o__trial_2.stopped,order,cue_order,out_order,cue_o_mouse.x,cue_o_mouse.y,cue_o_mouse.leftButton,cue_o_mouse.midButton,cue_o_mouse.rightButton,cue_o_mouse.time,cue_o_mouse.clicked_name,cue_selection_2.started,correct_answer,cue_selection_2.stopped,feedback_2.started,feedback_2.stopped,feedback_loop.thisRepN,feedback_loop.thisTrialN,feedback_loop.thisN,feedback_loop.thisIndex,feedback_loop.ran,stage1_trials.thisRepN,stage1_trials.thisTrialN,stage1_trials.thisN,stage1_trials.thisIndex,stage1_trials.ran,cue1,cue2,cue3,outcome,correct_out,o1_feedback,o2_feedback,stage2_feedback_loop.thisRepN,stage2_feedback_loop.thisTrialN,stage2_feedback_loop.thisN,stage2_feedback_loop.thisIndex,stage2_feedback_loop.ran,stage2_trials.thisRepN,stage2_trials.thisTrialN,stage2_trials.thisN,stage2_trials.thisIndex,stage2_trials.ran,stage3_feedback_loop.thisRepN,stage3_feedback_loop.thisTrialN,stage3_feedback_loop.thisN,stage3_feedback_loop.thisIndex,stage3_feedback_loop.ran,stage3_trials.thisRepN,stage3_trials.thisTrialN,stage3_trials.thisN,stage3_trials.thisIndex,stage3_trials.ran,debrief_2.started,debrief_2.stopped,debrief_loop.thisRepN,debrief_loop.thisTrialN,debrief_loop.thisN,debrief_loop.thisIndex,debrief_loop.ran,debrief_img,compr1_completed.thisRepN,compr1_completed.thisTrialN,compr1_completed.thisN,compr1_completed.thisIndex,compr1_completed.ran,consent_loop.thisRepN,consent_loop.thisTrialN,consent_loop.thisN,consent_loop.thisIndex,consent_loop.ran
0,0,6550ff72185a13c48b10bd9a,29,female,2024-04-19_18h37.14.087,stockport_simplified,2022.2.4,MacIntel,30.3030303,661e456ee6de07e70aa9ef7b,66229da24ab04f343fd9d16a,,,,,,,,,,,,,,,,,,,,,,,,,,,,,,,,,,,,,,,,,,,,,,,,,,,,,,,,,,,,,,,,,,,,,,,,,,,,,,,,,,,,,,,,,,,,,,,,,,,,,,,,,
,,6550ff72185a13c48b10bd9a,29,female,2024-04-19_18h37.14.087,stockport_simplified,2022.2.4,MacIntel,30.3030303,661e456ee6de07e70aa9ef7b,66229da24ab04f343fd9d16a,0.015,11.111,0,0,0,0,1,instructions/info1.png,,,,,,,,,,,,,,,,,,,,,,,,,,,,,,,,,,,,,,,,,,,,,,,,,,,,,,,,,,,,,,,,,,,,,,,,,,,,,,,,,,,,,,,,,,,,,,,,,
,,6550ff72185a13c48b10bd9a,29,female,2024-04-19_18h37.14.087,stockport_simplified,2022.2.4,MacIntel,30.3030303,661e456ee6de07e70aa9ef7b,66229da24ab04f343fd9d16a,11.112,14.676,0,1,1,1,1,instructions/info2.png,,,,,,,,,,,,,,,,,,,,,,,,,,,,,,,,,,,,,,,,,,,,,,,,,,,,,,,,,,,,,,,,,,,,,,,,,,,,,,,,,,,,,,,,,,,,,,,,,
,,6550ff72185a13c48b10bd9a,29,female,2024-04-19_18h37.14.087,stockport_simplified,2022.2.4,MacIntel,30.3030303,661e456ee6de07e70aa9ef7b,66229da24ab04f343fd9d16a,14.677,20.544,0,2,2,2,1,instructions/info3.png,,,,,,,,,,,,,,,,,,,,,,,,,,,,,,,,,,,,,,,,,,,,,,,,,,,,,,,,,,,,,,,,,,,,,,,,,,,,,,,,,,,,,,,,,,,,,,,,,
,,6550ff72185a13c48b10bd9a,29,female,2024-04-19_18h37.14.087,stockport_simplified,2022.2.4,MacIntel,30.3030303,661e456ee6de07e70aa9ef7b,66229da24ab04f343fd9d16a,,,,,,,,,20.545,38.312,1,1,1,1,1,1,,,,,,,,,,,,,,,,,,,,,,,,,,,,,,,,,,,,,,,,,,,,,,,,,,,,,,,,,,,,,,,,,,,,,,,,,,,,,,,,,,,,,,,,,
,,6550ff72185a13c48b10bd9a,29,female,2024-04-19_18h37.14.087,stockport_simplified,2022.2.4,MacIntel,30.3030303,661e456ee6de07e70aa9ef7b,66229da24ab04f343fd9d16a,,,,,,,,,,,,,,,,,38.319,52.579,0,0,0,0,1,instructions/task1_1.png,,,,,,,,,,,,,,,,,,,,,,,,,,,,,,,,,,,,,,,,,,,,,,,,,,,,,,,,,,,,,,,,,,,,,,,,,,,,,,,,,
,,6550ff72185a13c48b10bd9a,29,female,2024-04-19_18h37.14.087,stockport_simplified,2022.2.4,MacIntel,30.3030303,661e456ee6de07e70aa9ef7b,66229da24ab04f343fd9d16a,,,,,,,,,,,,,,,,,52.579,62.911,0,1,1,1,1,instructions/task1_2.png,,,,,,,,,,,,,,,,,,,,,,,,,,,,,,,,,,,,,,,,,,,,,,,,,,,,,,,,,,,,,,,,,,,,,,,,,,,,,,,,,
,,6550ff72185a13c48b10bd9a,29,female,2024-04-19_18h37.14.087,stockport_simplified,2022.2.4,MacIntel,30.3030303,661e456ee6de07e70aa9ef7b,66229da24ab04f343fd9d16a,,,,,,,,,,,,,,,,,62.912,76.779,0,2,2,2,1,instructions/task1_3.png,,,,,,,,,,,,,,,,,,,,,,,,,,,,,,,,,,,,,,,,,,,,,,,,,,,,,,,,,,,,,,,,,,,,,,,,,,,,,,,,,
,,6550ff72185a13c48b10bd9a,29,female,2024-04-19_18h37.14.087,stockport_simplified,2022.2.4,MacIntel,30.3030303,661e456ee6de07e70aa9ef7b,66229da24ab04f343fd9d16a,,,,,,,,,,,,,,,,,,,,,,,,,76.781,96.513,0.036666667,-0.326666667,1,0,0,19.731,comp1_resp1,96.523,98.414,"[4,1,3,6,2,7,8,5]","[[0.3,0.2],[-0.3,0.2]]","[[-0.125,-0.2],[0.125,-0.2]]",0.112222222,-0.207777778,1,0,0,1.366,o2_image,98.417,1,98.914,98.915,100.914,0,0,0,0,1,,,,,,,,,,,,,,,,,,,,,,,,,,,,,,,,,,,,,,,,,,,,,,,,,,
,,6550ff72185a13c48b10bd9a,29,female,2024-04-19_18h37.14.087,stockport_simplified,2022.2.4,MacIntel,30.3030303,661e456ee6de07e70aa9ef7b,66229da24ab04f343fd9d16a,,,,,,,,,,,,,,,,,,,,,,,,,,,,,,,,,,,,,,,,,,,,,,,,,,,,,,,,0,0,0,12,1,B,X,N,o2_image,stimuli/out2.png,stimuli/out1.png,stimuli/correct_out2.png,,,,,,,,,,,,,,,,,,,,,,,,,,,,,,,,,,,,,,
,,6550ff72185a13c48b10bd9a,29,female,2024-04-19_18h37.14.087,stockport_simplified,2022.2.4,MacIntel,30.3030303,661e456ee6de07e70aa9ef7b,66229da24ab04f343fd9d16a,,,,,,,,,,,,,,,,,,,,,,,,,,,,,,,,,,100.916,103.58,"[4,1,3,6,2,7,8,5]","[[-0.3,0.2],[0.3,0.2]]","[[-0.125,-0.2],[0.125,-0.2]]",0.152222222,-0.181111111,1,0,0,2.13,o2_image,103.582,0,104.08,104.08,106.08,0,0,0,0,1,,,,,,,,,,,,,,,,,,,,,,,,,,,,,,,,,,,,,,,,,,,,,,,,,,
,,6550ff72185a13c48b10bd9a,29,female,2024-04-19_18h37.14.087,stockport_simplified,2022.2.4,MacIntel,30.3030303,661e456ee6de07e70aa9ef7b,66229da24ab04f343fd9d16a,,,,,,,,,,,,,,,,,,,,,,,,,,,,,,,,,,,,,,,,,,,,,,,,,,,,,,,,0,1,1,8,1,A,Y,N,o1_image,stimuli/out1.png,stimuli/correct_out1.png,stimuli/out2.png,,,,,,,,,,,,,,,,,,,,,,,,,,,,,,,,,,,,,,
,,6550ff72185a13c48b10bd9a,29,female,2024-04-19_18h37.14.087,stockport_simplified,2022.2.4,MacIntel,30.3030303,661e456ee6de07e70aa9ef7b,66229da24ab04f343fd9d16a,,,,,,,,,,,,,,,,,,,,,,,,,,,,,,,,,,106.081,108.147,"[4,1,3,6,2,7,8,5]","[[0.3,0.2],[-0.3,0.2]]","[[-0.125,-0.2],[0.125,-0.2]]",-0.08,-0.154444444,1,0,0,1.533,o1_image,108.148,1,108.646,108.647,110.646,0,0,0,0,1,,,,,,,,,,,,,,,,,,,,,,,,,,,,,,,,,,,,,,,,,,,,,,,,,,
,,6550ff72185a13c48b10bd9a,29,female,2024-04-19_18h37.14.087,stockport_simplified,2022.2.4,MacIntel,30.3030303,661e456ee6de07e70aa9ef7b,66229da24ab04f343fd9d16a,,,,,,,,,,,,,,,,,,,,,,,,,,,,,,,,,,,,,,,,,,,,,,,,,,,,,,,,0,2,2,37,1,A,Y,N,o1_image,stimuli/out1.png,stimuli/correct_out1.png,stimuli/out2.png,,,,,,,,,,,,,,,,,,,,,,,,,,,,,,,,,,,,,,
,,6550ff72185a13c48b10bd9a,29,female,2024-04-19_18h37.14.087,stockport_simplified,2022.2.4,MacIntel,30.3030303,661e456ee6de07e70aa9ef7b,66229da24ab04f343fd9d16a,,,,,,,,,,,,,,,,,,,,,,,,,,,,,,,,,,110.647,112.147,"[4,1,3,6,2,7,8,5]","[[-0.3,0.2],[0.3,0.2]]","[[0.125,-0.2],[-0.125,-0.2]]",-0.09,-0.186666667,1,0,0,0.965,o2_image,112.148,1,112.647,112.647,114.647,0,0,0,0,1,,,,,,,,,,,,,,,,,,,,,,,,,,,,,,,,,,,,,,,,,,,,,,,,,,
,,6550ff72185a13c48b10bd9a,29,female,2024-04-19_18h37.14.087,stockport_simplified,2022.2.4,MacIntel,30.3030303,661e456ee6de07e70aa9ef7b,66229da24ab04f343fd9d16a,,,,,,,,,,,,,,,,,,,,,,,,,,,,,,,,,,,,,,,,,,,,,,,,,,,,,,,,0,3,3,10,1,B,X,N,o2_image,stimuli/out2.png,stimuli/out1.png,stimuli/correct_out2.png,,,,,,,,,,,,,,,,,,,,,,,,,,,,,,,,,,,,,,
,,6550ff72185a13c48b10bd9a,29,female,2024-04-19_18h37.14.087,stockport_simplified,2022.2.4,MacIntel,30.3030303,661e456ee6de07e70aa9ef7b,66229da24ab04f343fd9d16a,,,,,,,,,,,,,,,,,,,,,,,,,,,,,,,,,,114.648,116.047,"[4,1,3,6,2,7,8,5]","[[-0.3,0.2],[0.3,0.2]]","[[-0.125,-0.2],[0.125,-0.2]]",-0.091111111,-0.187777778,1,0,0,0.867,o1_image,116.048,0,116.547,116.547,118.547,0,0,0,0,1,,,,,,,,,,,,,,,,,,,,,,,,,,,,,,,,,,,,,,,,,,,,,,,,,,
,,6550ff72185a13c48b10bd9a,29,female,2024-04-19_18h37.14.087,stockport_simplified,2022.2.4,MacIntel,30.3030303,661e456ee6de07e70aa9ef7b,66229da24ab04f343fd9d16a,,,,,,,,,,,,,,,,,,,,,,,,,,,,,,,,,,,,,,,,,,,,,,,,,,,,,,,,0,4,4,41,1,B,X,N,o2_image,stimuli/out2.png,stimuli/out1.png,stimuli/correct_out2.png,,,,,,,,,,,,,,,,,,,,,,,,,,,,,,,,,,,,,,
,,6550ff72185a13c48b10bd9a,29,female,2024-04-19_18h37.14.087,stockport_simplified,2022.2.4,MacIntel,30.3030303,661e456ee6de07e70aa9ef7b,66229da24ab04f343fd9d16a,,,,,,,,,,,,,,,,,,,,,,,,,,,,,,,,,,118.548,120.647,"[4,1,3,6,2,7,8,5]","[[0.3,0.2],[-0.3,0.2]]","[[-0.125,-0.2],[0.125,-0.2]]",-0.093333333,-0.204444444,1,0,0,1.567,o1_image,120.649,0,121.147,121.147,123.148,0,0,0,0,1,,,,,,,,,,,,,,,,,,,,,,,,,,,,,,,,,,,,,,,,,,,,,,,,,,
,,6550ff72185a13c48b10bd9a,29,female,2024-04-19_18h37.14.087,stockport_simplified,2022.2.4,MacIntel,30.3030303,661e456ee6de07e70aa9ef7b,66229da24ab04f343fd9d16a,,,,,,,,,,,,,,,,,,,,,,,,,,,,,,,,,,,,,,,,,,,,,,,,,,,,,,,,0,5,5,45,1,B,Y,N,o2_image,stimuli/out2.png,stimuli/out1.png,stimuli/correct_out2.png,,,,,,,,,,,,,,,,,,,,,,,,,,,,,,,,,,,,,,
,,6550ff72185a13c48b10bd9a,29,female,2024-04-19_18h37.14.087,stockport_simplified,2022.2.4,MacIntel,30.3030303,661e456ee6de07e70aa9ef7b,66229da24ab04f343fd9d16a,,,,,,,,,,,,,,,,,,,,,,,,,,,,,,,,,,123.149,125.115,"[4,1,3,6,2,7,8,5]","[[0.3,0.2],[-0.3,0.2]]","[[-0.125,-0.2],[0.125,-0.2]]",-0.087777778,-0.194444444,1,0,0,1.431,o1_image,125.117,0,125.614,125.615,127.614,0,0,0,0,1,,,,,,,,,,,,,,,,,,,,,,,,,,,,,,,,,,,,,,,,,,,,,,,,,,
,,6550ff72185a13c48b10bd9a,29,female,2024-04-19_18h37.14.087,stockport_simplified,2022.2.4,MacIntel,30.3030303,661e456ee6de07e70aa9ef7b,66229da24ab04f343fd9d16a,,,,,,,,,,,,,,,,,,,,,,,,,,,,,,,,,,,,,,,,,,,,,,,,,,,,,,,,0,6,6,26,1,N,M,D,o2_image,stimuli/out2.png,stimuli/out1.png,stimuli/correct_out2.png,,,,,,,,,,,,,,,,,,,,,,,,,,,,,,,,,,,,,,
,,6550ff72185a13c48b10bd9a,29,female,2024-04-19_18h37.14.087,stockport_simplified,2022.2.4,MacIntel,30.3030303,661e456ee6de07e70aa9ef7b,66229da24ab04f343fd9d16a,,,,,,,,,,,,,,,,,,,,,,,,,,,,,,,,,,127.615,130.247,"[4,1,3,6,2,7,8,5]","[[0.3,0.2],[-0.3,0.2]]","[[0.125,-0.2],[-0.125,-0.2]]",-0.071111111,-0.21,1,0,0,2.098,o2_image,130.249,0,130.748,130.748,132.748,0,0,0,0,1,,,,,,,,,,,,,,,,,,,,,,,,,,,,,,,,,,,,,,,,,,,,,,,,,,
,,6550ff72185a13c48b10bd9a,29,female,2024-04-19_18h37.14.087,stockport_simplified,2022.2.4,MacIntel,30.3030303,661e456ee6de07e70aa9ef7b,66229da24ab04f343fd9d16a,,,,,,,,,,,,,,,,,,,,,,,,,,,,,,,,,,,,,,,,,,,,,,,,,,,,,,,,0,7,7,7,1,A,Y,N,o1_image,stimuli/out1.png,stimuli/correct_out1.png,stimuli/out2.png,,,,,,,,,,,,,,,,,,,,,,,,,,,,,,,,,,,,,,
,,6550ff72185a13c48b10bd9a,29,female,2024-04-19_18h37.14.087,stockport_simplified,2022.2.4,MacIntel,30.3030303,661e456ee6de07e70aa9ef7b,66229da24ab04f343fd9d16a,,,,,,,,,,,,,,,,,,,,,,,,,,,,,,,,,,132.749,134.681,"[4,1,3,6,2,7,8,5]","[[-0.3,0.2],[0.3,0.2]]","[[-0.125,-0.2],[0.125,-0.2]]",0.141111111,-0.185555556,1,0,0,1.399,o2_image,134.683,1,135.181,135.181,137.181,0,0,0,0,1,,,,,,,,,,,,,,,,,,,,,,,,,,,,,,,,,,,,,,,,,,,,,,,,,,
,,6550ff72185a13c48b10bd9a,29,female,2024-04-19_18h37.14.087,stockport_simplified,2022.2.4,MacIntel,30.3030303,661e456ee6de07e70aa9ef7b,66229da24ab04f343fd9d16a,,,,,,,,,,,,,,,,,,,,,,,,,,,,,,,,,,,,,,,,,,,,,,,,,,,,,,,,0,8,8,29,1,N,M,D,o2_image,stimuli/out2.png,stimuli/out1.png,stimuli/correct_out2.png,,,,,,,,,,,,,,,,,,,,,,,,,,,,,,,,,,,,,,
,,6550ff72185a13c48b10bd9a,29,female,2024-04-19_18h37.14.087,stockport_simplified,2022.2.4,MacIntel,30.3030303,661e456ee6de07e70aa9ef7b,66229da24ab04f343fd9d16a,,,,,,,,,,,,,,,,,,,,,,,,,,,,,,,,,,137.182,138.414,"[4,1,3,6,2,7,8,5]","[[-0.3,0.2],[0.3,0.2]]","[[-0.125,-0.2],[0.125,-0.2]]",0.141111111,-0.185555556,1,0,0,0.7,o2_image,138.416,1,138.914,138.914,140.915,0,0,0,0,1,,,,,,,,,,,,,,,,,,,,,,,,,,,,,,,,,,,,,,,,,,,,,,,,,,
,,6550ff72185a13c48b10bd9a,29,female,2024-04-19_18h37.14.087,stockport_simplified,2022.2.4,MacIntel,30.3030303,661e456ee6de07e70aa9ef7b,66229da24ab04f343fd9d16a,,,,,,,,,,,,,,,,,,,,,,,,,,,,,,,,,,,,,,,,,,,,,,,,,,,,,,,,0,9,9,57,1,N,M,D,o2_image,stimuli/out2.png,stimuli/out1.png,stimuli/correct_out2.png,,,,,,,,,,,,,,,,,,,,,,,,,,,,,,,,,,,,,,
,,6550ff72185a13c48b10bd9a,29,female,2024-04-19_18h37.14.087,stockport_simplified,2022.2.4,MacIntel,30.3030303,661e456ee6de07e70aa9ef7b,66229da24ab04f343fd9d16a,,,,,,,,,,,,,,,,,,,,,,,,,,,,,,,,,,140.916,143.115,"[4,1,3,6,2,7,8,5]","[[0.3,0.2],[-0.3,0.2]]","[[0.125,-0.2],[-0.125,-0.2]]",0.15,-0.2,1,0,0,1.665,o1_image,143.116,0,143.615,143.615,145.615,0,0,0,0,1,,,,,,,,,,,,,,,,,,,,,,,,,,,,,,,,,,,,,,,,,,,,,,,,,,
,,6550ff72185a13c48b10bd9a,29,female,2024-04-19_18h37.14.087,stockport_simplified,2022.2.4,MacIntel,30.3030303,661e456ee6de07e70aa9ef7b,66229da24ab04f343fd9d16a,,,,,,,,,,,,,,,,,,,,,,,,,,,,,,,,,,,,,,,,,,,,,,,,,,,,,,,,0,10,10,49,1,B,Y,N,o2_image,stimuli/out2.png,stimuli/out1.png,stimuli/correct_out2.png,,,,,,,,,,,,,,,,,,,,,,,,,,,,,,,,,,,,,,
,,6550ff72185a13c48b10bd9a,29,female,2024-04-19_18h37.14.087,stockport_simplified,2022.2.4,MacIntel,30.3030303,661e456ee6de07e70aa9ef7b,66229da24ab04f343fd9d16a,,,,,,,,,,,,,,,,,,,,,,,,,,,,,,,,,,145.616,147.481,"[4,1,3,6,2,7,8,5]","[[0.3,0.2],[-0.3,0.2]]","[[-0.125,-0.2],[0.125,-0.2]]",-0.081111111,-0.2,1,0,0,1.333,o1_image,147.483,1,147.981,147.982,149.981,0,0,0,0,1,,,,,,,,,,,,,,,,,,,,,,,,,,,,,,,,,,,,,,,,,,,,,,,,,,
,,6550ff72185a13c48b10bd9a,29,female,2024-04-19_18h37.14.087,stockport_simplified,2022.2.4,MacIntel,30.3030303,661e456ee6de07e70aa9ef7b,66229da24ab04f343fd9d16a,,,,,,,,,,,,,,,,,,,,,,,,,,,,,,,,,,,,,,,,,,,,,,,,,,,,,,,,0,11,11,0,1,A,X,N,o1_image,stimuli/out1.png,stimuli/correct_out1.png,stimuli/out2.png,,,,,,,,,,,,,,,,,,,,,,,,,,,,,,,,,,,,,,
,,6550ff72185a13c48b10bd9a,29,female,2024-04-19_18h37.14.087,stockport_simplified,2022.2.4,MacIntel,30.3030303,661e456ee6de07e70aa9ef7b,66229da24ab04f343fd9d16a,,,,,,,,,,,,,,,,,,,,,,,,,,,,,,,,,,149.982,151.515,"[4,1,3,6,2,7,8,5]","[[-0.3,0.2],[0.3,0.2]]","[[0.125,-0.2],[-0.125,-0.2]]",-0.11,-0.218888889,1,0,0,0.998,o2_image,151.516,1,152.015,152.015,154.015,0,0,0,0,1,,,,,,,,,,,,,,,,,,,,,,,,,,,,,,,,,,,,,,,,,,,,,,,,,,
,,6550ff72185a13c48b10bd9a,29,female,2024-04-19_18h37.14.087,stockport_simplified,2022.2.4,MacIntel,30.3030303,661e456ee6de07e70aa9ef7b,66229da24ab04f343fd9d16a,,,,,,,,,,,,,,,,,,,,,,,,,,,,,,,,,,,,,,,,,,,,,,,,,,,,,,,,0,12,12,56,1,N,M,D,o2_image,stimuli/out2.png,stimuli/out1.png,stimuli/correct_out2.png,,,,,,,,,,,,,,,,,,,,,,,,,,,,,,,,,,,,,,
,,6550ff72185a13c48b10bd9a,29,female,2024-04-19_18h37.14.087,stockport_simplified,2022.2.4,MacIntel,30.3030303,661e456ee6de07e70aa9ef7b,66229da24ab04f343fd9d16a,,,,,,,,,,,,,,,,,,,,,,,,,,,,,,,,,,154.016,156.182,"[4,1,3,6,2,7,8,5]","[[0.3,0.2],[-0.3,0.2]]","[[-0.125,-0.2],[0.125,-0.2]]",-0.166666667,-0.202222222,1,0,0,1.633,o1_image,156.183,1,156.682,156.682,158.682,0,0,0,0,1,,,,,,,,,,,,,,,,,,,,,,,,,,,,,,,,,,,,,,,,,,,,,,,,,,
,,6550ff72185a13c48b10bd9a,29,female,2024-04-19_18h37.14.087,stockport_simplified,2022.2.4,MacIntel,30.3030303,661e456ee6de07e70aa9ef7b,66229da24ab04f343fd9d16a,,,,,,,,,,,,,,,,,,,,,,,,,,,,,,,,,,,,,,,,,,,,,,,,,,,,,,,,0,13,13,5,1,A,Y,N,o1_image,stimuli/out1.png,stimuli/correct_out1.png,stimuli/out2.png,,,,,,,,,,,,,,,,,,,,,,,,,,,,,,,,,,,,,,
,,6550ff72185a13c48b10bd9a,29,female,2024-04-19_18h37.14.087,stockport_simplified,2022.2.4,MacIntel,30.3030303,661e456ee6de07e70aa9ef7b,66229da24ab04f343fd9d16a,,,,,,,,,,,,,,,,,,,,,,,,,,,,,,,,,,158.682,160.382,"[4,1,3,6,2,7,8,5]","[[-0.3,0.2],[0.3,0.2]]","[[-0.125,-0.2],[0.125,-0.2]]",-0.113333333,-0.21,1,0,0,1.165,o1_image,160.383,1,160.882,160.882,162.881,0,0,0,0,1,,,,,,,,,,,,,,,,,,,,,,,,,,,,,,,,,,,,,,,,,,,,,,,,,,
,,6550ff72185a13c48b10bd9a,29,female,2024-04-19_18h37.14.087,stockport_simplified,2022.2.4,MacIntel,30.3030303,661e456ee6de07e70aa9ef7b,66229da24ab04f343fd9d16a,,,,,,,,,,,,,,,,,,,,,,,,,,,,,,,,,,,,,,,,,,,,,,,,,,,,,,,,0,14,14,51,1,N,M,C,o1_image,stimuli/out1.png,stimuli/correct_out1.png,stimuli/out2.png,,,,,,,,,,,,,,,,,,,,,,,,,,,,,,,,,,,,,,
,,6550ff72185a13c48b10bd9a,29,female,2024-04-19_18h37.14.087,stockport_simplified,2022.2.4,MacIntel,30.3030303,661e456ee6de07e70aa9ef7b,66229da24ab04f343fd9d16a,,,,,,,,,,,,,,,,,,,,,,,,,,,,,,,,,,162.882,164.449,"[4,1,3,6,2,7,8,5]","[[-0.3,0.2],[0.3,0.2]]","[[0.125,-0.2],[-0.125,-0.2]]",0.095555556,-0.212222222,1,0,0,1.033,o1_image,164.45,1,164.949,164.949,166.949,0,0,0,0,1,,,,,,,,,,,,,,,,,,,,,,,,,,,,,,,,,,,,,,,,,,,,,,,,,,
,,6550ff72185a13c48b10bd9a,29,female,2024-04-19_18h37.14.087,stockport_simplified,2022.2.4,MacIntel,30.3030303,661e456ee6de07e70aa9ef7b,66229da24ab04f343fd9d16a,,,,,,,,,,,,,,,,,,,,,,,,,,,,,,,,,,,,,,,,,,,,,,,,,,,,,,,,0,15,15,22,1,N,M,C,o1_image,stimuli/out1.png,stimuli/correct_out1.png,stimuli/out2.png,,,,,,,,,,,,,,,,,,,,,,,,,,,,,,,,,,,,,,
,,6550ff72185a13c48b10bd9a,29,female,2024-04-19_18h37.14.087,stockport_simplified,2022.2.4,MacIntel,30.3030303,661e456ee6de07e70aa9ef7b,66229da24ab04f343fd9d16a,,,,,,,,,,,,,,,,,,,,,,,,,,,,,,,,,,166.95,169.015,"[4,1,3,6,2,7,8,5]","[[0.3,0.2],[-0.3,0.2]]","[[-0.125,-0.2],[0.125,-0.2]]",0.122222222,-0.206666667,1,0,0,1.531,o2_image,169.016,1,169.516,169.516,171.516,0,0,0,0,1,,,,,,,,,,,,,,,,,,,,,,,,,,,,,,,,,,,,,,,,,,,,,,,,,,
,,6550ff72185a13c48b10bd9a,29,female,2024-04-19_18h37.14.087,stockport_simplified,2022.2.4,MacIntel,30.3030303,661e456ee6de07e70aa9ef7b,66229da24ab04f343fd9d16a,,,,,,,,,,,,,,,,,,,,,,,,,,,,,,,,,,,,,,,,,,,,,,,,,,,,,,,,0,16,16,42,1,B,X,N,o2_image,stimuli/out2.png,stimuli/out1.png,stimuli/correct_out2.png,,,,,,,,,,,,,,,,,,,,,,,,,,,,,,,,,,,,,,
,,6550ff72185a13c48b10bd9a,29,female,2024-04-19_18h37.14.087,stockport_simplified,2022.2.4,MacIntel,30.3030303,661e456ee6de07e70aa9ef7b,66229da24ab04f343fd9d16a,,,,,,,,,,,,,,,,,,,,,,,,,,,,,,,,,,171.516,173.549,"[4,1,3,6,2,7,8,5]","[[0.3,0.2],[-0.3,0.2]]","[[-0.125,-0.2],[0.125,-0.2]]",0.136666667,-0.186666667,1,0,0,1.499,o2_image,173.551,1,174.049,174.049,176.049,0,0,0,0,1,,,,,,,,,,,,,,,,,,,,,,,,,,,,,,,,,,,,,,,,,,,,,,,,,,
,,6550ff72185a13c48b10bd9a,29,female,2024-04-19_18h37.14.087,stockport_simplified,2022.2.4,MacIntel,30.3030303,661e456ee6de07e70aa9ef7b,66229da24ab04f343fd9d16a,,,,,,,,,,,,,,,,,,,,,,,,,,,,,,,,,,,,,,,,,,,,,,,,,,,,,,,,0,17,17,47,1,B,Y,N,o2_image,stimuli/out2.png,stimuli/out1.png,stimuli/correct_out2.png,,,,,,,,,,,,,,,,,,,,,,,,,,,,,,,,,,,,,,
,,6550ff72185a13c48b10bd9a,29,female,2024-04-19_18h37.14.087,stockport_simplified,2022.2.4,MacIntel,30.3030303,661e456ee6de07e70aa9ef7b,66229da24ab04f343fd9d16a,,,,,,,,,,,,,,,,,,,,,,,,,,,,,,,,,,176.05,177.782,"[4,1,3,6,2,7,8,5]","[[0.3,0.2],[-0.3,0.2]]","[[-0.125,-0.2],[0.125,-0.2]]",-0.102222222,-0.2,1,0,0,1.199,o1_image,177.783,0,178.283,178.283,180.283,0,0,0,0,1,,,,,,,,,,,,,,,,,,,,,,,,,,,,,,,,,,,,,,,,,,,,,,,,,,
,,6550ff72185a13c48b10bd9a,29,female,2024-04-19_18h37.14.087,stockport_simplified,2022.2.4,MacIntel,30.3030303,661e456ee6de07e70aa9ef7b,66229da24ab04f343fd9d16a,,,,,,,,,,,,,,,,,,,,,,,,,,,,,,,,,,,,,,,,,,,,,,,,,,,,,,,,0,18,18,59,1,N,M,D,o2_image,stimuli/out2.png,stimuli/out1.png,stimuli/correct_out2.png,,,,,,,,,,,,,,,,,,,,,,,,,,,,,,,,,,,,,,
,,6550ff72185a13c48b10bd9a,29,female,2024-04-19_18h37.14.087,stockport_simplified,2022.2.4,MacIntel,30.3030303,661e456ee6de07e70aa9ef7b,66229da24ab04f343fd9d16a,,,,,,,,,,,,,,,,,,,,,,,,,,,,,,,,,,180.283,183.349,"[4,1,3,6,2,7,8,5]","[[-0.3,0.2],[0.3,0.2]]","[[-0.125,-0.2],[0.125,-0.2]]",0.122222222,-0.233333333,1,0,0,2.532,o2_image,183.351,1,183.849,183.85,185.849,0,0,0,0,1,,,,,,,,,,,,,,,,,,,,,,,,,,,,,,,,,,,,,,,,,,,,,,,,,,
,,6550ff72185a13c48b10bd9a,29,female,2024-04-19_18h37.14.087,stockport_simplified,2022.2.4,MacIntel,30.3030303,661e456ee6de07e70aa9ef7b,66229da24ab04f343fd9d16a,,,,,,,,,,,,,,,,,,,,,,,,,,,,,,,,,,,,,,,,,,,,,,,,,,,,,,,,0,19,19,46,1,B,Y,N,o2_image,stimuli/out2.png,stimuli/out1.png,stimuli/correct_out2.png,,,,,,,,,,,,,,,,,,,,,,,,,,,,,,,,,,,,,,
,,6550ff72185a13c48b10bd9a,29,female,2024-04-19_18h37.14.087,stockport_simplified,2022.2.4,MacIntel,30.3030303,661e456ee6de07e70aa9ef7b,66229da24ab04f343fd9d16a,,,,,,,,,,,,,,,,,,,,,,,,,,,,,,,,,,185.85,187.683,"[4,1,3,6,2,7,8,5]","[[0.3,0.2],[-0.3,0.2]]","[[0.125,-0.2],[-0.125,-0.2]]",0.115555556,-0.213333333,1,0,0,1.299,o1_image,187.684,1,188.183,188.183,190.183,0,0,0,0,1,,,,,,,,,,,,,,,,,,,,,,,,,,,,,,,,,,,,,,,,,,,,,,,,,,
,,6550ff72185a13c48b10bd9a,29,female,2024-04-19_18h37.14.087,stockport_simplified,2022.2.4,MacIntel,30.3030303,661e456ee6de07e70aa9ef7b,66229da24ab04f343fd9d16a,,,,,,,,,,,,,,,,,,,,,,,,,,,,,,,,,,,,,,,,,,,,,,,,,,,,,,,,0,20,20,53,1,N,M,C,o1_image,stimuli/out1.png,stimuli/correct_out1.png,stimuli/out2.png,,,,,,,,,,,,,,,,,,,,,,,,,,,,,,,,,,,,,,
,,6550ff72185a13c48b10bd9a,29,female,2024-04-19_18h37.14.087,stockport_simplified,2022.2.4,MacIntel,30.3030303,661e456ee6de07e70aa9ef7b,66229da24ab04f343fd9d16a,,,,,,,,,,,,,,,,,,,,,,,,,,,,,,,,,,190.184,192.116,"[4,1,3,6,2,7,8,5]","[[-0.3,0.2],[0.3,0.2]]","[[-0.125,-0.2],[0.125,-0.2]]",0.152222222,-0.192222222,1,0,0,1.399,o2_image,192.117,1,192.617,192.617,194.617,0,0,0,0,1,,,,,,,,,,,,,,,,,,,,,,,,,,,,,,,,,,,,,,,,,,,,,,,,,,
,,6550ff72185a13c48b10bd9a,29,female,2024-04-19_18h37.14.087,stockport_simplified,2022.2.4,MacIntel,30.3030303,661e456ee6de07e70aa9ef7b,66229da24ab04f343fd9d16a,,,,,,,,,,,,,,,,,,,,,,,,,,,,,,,,,,,,,,,,,,,,,,,,,,,,,,,,0,21,21,16,1,B,Y,N,o2_image,stimuli/out2.png,stimuli/out1.png,stimuli/correct_out2.png,,,,,,,,,,,,,,,,,,,,,,,,,,,,,,,,,,,,,,
,,6550ff72185a13c48b10bd9a,29,female,2024-04-19_18h37.14.087,stockport_simplified,2022.2.4,MacIntel,30.3030303,661e456ee6de07e70aa9ef7b,66229da24ab04f343fd9d16a,,,,,,,,,,,,,,,,,,,,,,,,,,,,,,,,,,194.617,196.316,"[4,1,3,6,2,7,8,5]","[[0.3,0.2],[-0.3,0.2]]","[[0.125,-0.2],[-0.125,-0.2]]",0.13,-0.177777778,1,0,0,1.165,o1_image,196.318,1,196.817,196.817,198.817,0,0,0,0,1,,,,,,,,,,,,,,,,,,,,,,,,,,,,,,,,,,,,,,,,,,,,,,,,,,
,,6550ff72185a13c48b10bd9a,29,female,2024-04-19_18h37.14.087,stockport_simplified,2022.2.4,MacIntel,30.3030303,661e456ee6de07e70aa9ef7b,66229da24ab04f343fd9d16a,,,,,,,,,,,,,,,,,,,,,,,,,,,,,,,,,,,,,,,,,,,,,,,,,,,,,,,,0,22,22,52,1,N,M,C,o1_image,stimuli/out1.png,stimuli/correct_out1.png,stimuli/out2.png,,,,,,,,,,,,,,,,,,,,,,,,,,,,,,,,,,,,,,
,,6550ff72185a13c48b10bd9a,29,female,2024-04-19_18h37.14.087,stockport_simplified,2022.2.4,MacIntel,30.3030303,661e456ee6de07e70aa9ef7b,66229da24ab04f343fd9d16a,,,,,,,,,,,,,,,,,,,,,,,,,,,,,,,,,,198.817,200.783,"[4,1,3,6,2,7,8,5]","[[-0.3,0.2],[0.3,0.2]]","[[-0.125,-0.2],[0.125,-0.2]]",0.108888889,-0.173333333,1,0,0,1.433,o2_image,200.785,0,201.283,201.283,203.284,0,0,0,0,1,,,,,,,,,,,,,,,,,,,,,,,,,,,,,,,,,,,,,,,,,,,,,,,,,,
,,6550ff72185a13c48b10bd9a,29,female,2024-04-19_18h37.14.087,stockport_simplified,2022.2.4,MacIntel,30.3030303,661e456ee6de07e70aa9ef7b,66229da24ab04f343fd9d16a,,,,,,,,,,,,,,,,,,,,,,,,,,,,,,,,,,,,,,,,,,,,,,,,,,,,,,,,0,23,23,6,1,A,Y,N,o1_image,stimuli/out1.png,stimuli/correct_out1.png,stimuli/out2.png,,,,,,,,,,,,,,,,,,,,,,,,,,,,,,,,,,,,,,
,,6550ff72185a13c48b10bd9a,29,female,2024-04-19_18h37.14.087,stockport_simplified,2022.2.4,MacIntel,30.3030303,661e456ee6de07e70aa9ef7b,66229da24ab04f343fd9d16a,,,,,,,,,,,,,,,,,,,,,,,,,,,,,,,,,,203.285,206.05,"[4,1,3,6,2,7,8,5]","[[0.3,0.2],[-0.3,0.2]]","[[-0.125,-0.2],[0.125,-0.2]]",-0.11,-0.174444444,1,0,0,2.233,o1_image,206.052,1,206.551,206.551,208.55,0,0,0,0,1,,,,,,,,,,,,,,,,,,,,,,,,,,,,,,,,,,,,,,,,,,,,,,,,,,
,,6550ff72185a13c48b10bd9a,29,female,2024-04-19_18h37.14.087,stockport_simplified,2022.2.4,MacIntel,30.3030303,661e456ee6de07e70aa9ef7b,66229da24ab04f343fd9d16a,,,,,,,,,,,,,,,,,,,,,,,,,,,,,,,,,,,,,,,,,,,,,,,,,,,,,,,,0,24,24,34,1,A,X,N,o1_image,stimuli/out1.png,stimuli/correct_out1.png,stimuli/out2.png,,,,,,,,,,,,,,,,,,,,,,,,,,,,,,,,,,,,,,
,,6550ff72185a13c48b10bd9a,29,female,2024-04-19_18h37.14.087,stockport_simplified,2022.2.4,MacIntel,30.3030303,661e456ee6de07e70aa9ef7b,66229da24ab04f343fd9d16a,,,,,,,,,,,,,,,,,,,,,,,,,,,,,,,,,,208.551,210.517,"[4,1,3,6,2,7,8,5]","[[-0.3,0.2],[0.3,0.2]]","[[-0.125,-0.2],[0.125,-0.2]]",-0.112222222,-0.191111111,1,0,0,1.433,o1_image,210.518,0,211.017,211.017,213.017,0,0,0,0,1,,,,,,,,,,,,,,,,,,,,,,,,,,,,,,,,,,,,,,,,,,,,,,,,,,
,,6550ff72185a13c48b10bd9a,29,female,2024-04-19_18h37.14.087,stockport_simplified,2022.2.4,MacIntel,30.3030303,661e456ee6de07e70aa9ef7b,66229da24ab04f343fd9d16a,,,,,,,,,,,,,,,,,,,,,,,,,,,,,,,,,,,,,,,,,,,,,,,,,,,,,,,,0,25,25,27,1,N,M,D,o2_image,stimuli/out2.png,stimuli/out1.png,stimuli/correct_out2.png,,,,,,,,,,,,,,,,,,,,,,,,,,,,,,,,,,,,,,
,,6550ff72185a13c48b10bd9a,29,female,2024-04-19_18h37.14.087,stockport_simplified,2022.2.4,MacIntel,30.3030303,661e456ee6de07e70aa9ef7b,66229da24ab04f343fd9d16a,,,,,,,,,,,,,,,,,,,,,,,,,,,,,,,,,,213.018,214.484,"[4,1,3,6,2,7,8,5]","[[0.3,0.2],[-0.3,0.2]]","[[-0.125,-0.2],[0.125,-0.2]]",0.14,-0.205555556,1,0,0,0.933,o2_image,214.485,1,214.984,214.984,216.984,0,0,0,0,1,,,,,,,,,,,,,,,,,,,,,,,,,,,,,,,,,,,,,,,,,,,,,,,,,,
,,6550ff72185a13c48b10bd9a,29,female,2024-04-19_18h37.14.087,stockport_simplified,2022.2.4,MacIntel,30.3030303,661e456ee6de07e70aa9ef7b,66229da24ab04f343fd9d16a,,,,,,,,,,,,,,,,,,,,,,,,,,,,,,,,,,,,,,,,,,,,,,,,,,,,,,,,0,26,26,25,1,N,M,D,o2_image,stimuli/out2.png,stimuli/out1.png,stimuli/correct_out2.png,,,,,,,,,,,,,,,,,,,,,,,,,,,,,,,,,,,,,,
,,6550ff72185a13c48b10bd9a,29,female,2024-04-19_18h37.14.087,stockport_simplified,2022.2.4,MacIntel,30.3030303,661e456ee6de07e70aa9ef7b,66229da24ab04f343fd9d16a,,,,,,,,,,,,,,,,,,,,,,,,,,,,,,,,,,216.985,218.551,"[4,1,3,6,2,7,8,5]","[[-0.3,0.2],[0.3,0.2]]","[[0.125,-0.2],[-0.125,-0.2]]",-0.152222222,-0.237777778,1,0,0,1.033,o2_image,218.552,1,219.051,219.051,221.051,0,0,0,0,1,,,,,,,,,,,,,,,,,,,,,,,,,,,,,,,,,,,,,,,,,,,,,,,,,,
,,6550ff72185a13c48b10bd9a,29,female,2024-04-19_18h37.14.087,stockport_simplified,2022.2.4,MacIntel,30.3030303,661e456ee6de07e70aa9ef7b,66229da24ab04f343fd9d16a,,,,,,,,,,,,,,,,,,,,,,,,,,,,,,,,,,,,,,,,,,,,,,,,,,,,,,,,0,27,27,58,1,N,M,D,o2_image,stimuli/out2.png,stimuli/out1.png,stimuli/correct_out2.png,,,,,,,,,,,,,,,,,,,,,,,,,,,,,,,,,,,,,,
,,6550ff72185a13c48b10bd9a,29,female,2024-04-19_18h37.14.087,stockport_simplified,2022.2.4,MacIntel,30.3030303,661e456ee6de07e70aa9ef7b,66229da24ab04f343fd9d16a,,,,,,,,,,,,,,,,,,,,,,,,,,,,,,,,,,221.052,223.318,"[4,1,3,6,2,7,8,5]","[[0.3,0.2],[-0.3,0.2]]","[[0.125,-0.2],[-0.125,-0.2]]",0.205555556,-0.205555556,1,0,0,1.232,o1_image,223.319,1,223.818,223.818,225.818,0,0,0,0,1,,,,,,,,,,,,,,,,,,,,,,,,,,,,,,,,,,,,,,,,,,,,,,,,,,
,,6550ff72185a13c48b10bd9a,29,female,2024-04-19_18h37.14.087,stockport_simplified,2022.2.4,MacIntel,30.3030303,661e456ee6de07e70aa9ef7b,66229da24ab04f343fd9d16a,,,,,,,,,,,,,,,,,,,,,,,,,,,,,,,,,,,,,,,,,,,,,,,,,,,,,,,,0,28,28,50,1,N,M,C,o1_image,stimuli/out1.png,stimuli/correct_out1.png,stimuli/out2.png,,,,,,,,,,,,,,,,,,,,,,,,,,,,,,,,,,,,,,
,,6550ff72185a13c48b10bd9a,29,female,2024-04-19_18h37.14.087,stockport_simplified,2022.2.4,MacIntel,30.3030303,661e456ee6de07e70aa9ef7b,66229da24ab04f343fd9d16a,,,,,,,,,,,,,,,,,,,,,,,,,,,,,,,,,,225.819,227.484,"[4,1,3,6,2,7,8,5]","[[0.3,0.2],[-0.3,0.2]]","[[0.125,-0.2],[-0.125,-0.2]]",-0.09,-0.203333333,1,0,0,1.132,o2_image,227.486,1,227.984,227.985,229.985,0,0,0,0,1,,,,,,,,,,,,,,,,,,,,,,,,,,,,,,,,,,,,,,,,,,,,,,,,,,
,,6550ff72185a13c48b10bd9a,29,female,2024-04-19_18h37.14.087,stockport_simplified,2022.2.4,MacIntel,30.3030303,661e456ee6de07e70aa9ef7b,66229da24ab04f343fd9d16a,,,,,,,,,,,,,,,,,,,,,,,,,,,,,,,,,,,,,,,,,,,,,,,,,,,,,,,,0,29,29,55,1,N,M,D,o2_image,stimuli/out2.png,stimuli/out1.png,stimuli/correct_out2.png,,,,,,,,,,,,,,,,,,,,,,,,,,,,,,,,,,,,,,
,,6550ff72185a13c48b10bd9a,29,female,2024-04-19_18h37.14.087,stockport_simplified,2022.2.4,MacIntel,30.3030303,661e456ee6de07e70aa9ef7b,66229da24ab04f343fd9d16a,,,,,,,,,,,,,,,,,,,,,,,,,,,,,,,,,,229.985,232.318,"[4,1,3,6,2,7,8,5]","[[0.3,0.2],[-0.3,0.2]]","[[-0.125,-0.2],[0.125,-0.2]]",0.141111111,-0.191111111,1,0,0,1.799,o2_image,232.319,0,232.818,232.818,234.818,0,0,0,0,1,,,,,,,,,,,,,,,,,,,,,,,,,,,,,,,,,,,,,,,,,,,,,,,,,,
,,6550ff72185a13c48b10bd9a,29,female,2024-04-19_18h37.14.087,stockport_simplified,2022.2.4,MacIntel,30.3030303,661e456ee6de07e70aa9ef7b,66229da24ab04f343fd9d16a,,,,,,,,,,,,,,,,,,,,,,,,,,,,,,,,,,,,,,,,,,,,,,,,,,,,,,,,0,30,30,9,1,A,Y,N,o1_image,stimuli/out1.png,stimuli/correct_out1.png,stimuli/out2.png,,,,,,,,,,,,,,,,,,,,,,,,,,,,,,,,,,,,,,
,,6550ff72185a13c48b10bd9a,29,female,2024-04-19_18h37.14.087,stockport_simplified,2022.2.4,MacIntel,30.3030303,661e456ee6de07e70aa9ef7b,66229da24ab04f343fd9d16a,,,,,,,,,,,,,,,,,,,,,,,,,,,,,,,,,,234.819,237.084,"[4,1,3,6,2,7,8,5]","[[-0.3,0.2],[0.3,0.2]]","[[-0.125,-0.2],[0.125,-0.2]]",-0.122222222,-0.18,1,0,0,1.733,o1_image,237.086,1,237.585,237.585,239.585,0,0,0,0,1,,,,,,,,,,,,,,,,,,,,,,,,,,,,,,,,,,,,,,,,,,,,,,,,,,
,,6550ff72185a13c48b10bd9a,29,female,2024-04-19_18h37.14.087,stockport_simplified,2022.2.4,MacIntel,30.3030303,661e456ee6de07e70aa9ef7b,66229da24ab04f343fd9d16a,,,,,,,,,,,,,,,,,,,,,,,,,,,,,,,,,,,,,,,,,,,,,,,,,,,,,,,,0,31,31,2,1,A,X,N,o1_image,stimuli/out1.png,stimuli/correct_out1.png,stimuli/out2.png,,,,,,,,,,,,,,,,,,,,,,,,,,,,,,,,,,,,,,
,,6550ff72185a13c48b10bd9a,29,female,2024-04-19_18h37.14.087,stockport_simplified,2022.2.4,MacIntel,30.3030303,661e456ee6de07e70aa9ef7b,66229da24ab04f343fd9d16a,,,,,,,,,,,,,,,,,,,,,,,,,,,,,,,,,,239.586,242.018,"[4,1,3,6,2,7,8,5]","[[0.3,0.2],[-0.3,0.2]]","[[0.125,-0.2],[-0.125,-0.2]]",0.14,-0.194444444,1,0,0,1.899,o1_image,242.02,0,242.519,242.519,244.519,0,0,0,0,1,,,,,,,,,,,,,,,,,,,,,,,,,,,,,,,,,,,,,,,,,,,,,,,,,,
,,6550ff72185a13c48b10bd9a,29,female,2024-04-19_18h37.14.087,stockport_simplified,2022.2.4,MacIntel,30.3030303,661e456ee6de07e70aa9ef7b,66229da24ab04f343fd9d16a,,,,,,,,,,,,,,,,,,,,,,,,,,,,,,,,,,,,,,,,,,,,,,,,,,,,,,,,0,32,32,11,1,B,X,N,o2_image,stimuli/out2.png,stimuli/out1.png,stimuli/correct_out2.png,,,,,,,,,,,,,,,,,,,,,,,,,,,,,,,,,,,,,,
,,6550ff72185a13c48b10bd9a,29,female,2024-04-19_18h37.14.087,stockport_simplified,2022.2.4,MacIntel,30.3030303,661e456ee6de07e70aa9ef7b,66229da24ab04f343fd9d16a,,,,,,,,,,,,,,,,,,,,,,,,,,,,,,,,,,244.519,246.251,"[4,1,3,6,2,7,8,5]","[[0.3,0.2],[-0.3,0.2]]","[[-0.125,-0.2],[0.125,-0.2]]",0.113333333,-0.193333333,1,0,0,1.199,o2_image,246.253,1,246.752,246.752,248.752,0,0,0,0,1,,,,,,,,,,,,,,,,,,,,,,,,,,,,,,,,,,,,,,,,,,,,,,,,,,
,,6550ff72185a13c48b10bd9a,29,female,2024-04-19_18h37.14.087,stockport_simplified,2022.2.4,MacIntel,30.3030303,661e456ee6de07e70aa9ef7b,66229da24ab04f343fd9d16a,,,,,,,,,,,,,,,,,,,,,,,,,,,,,,,,,,,,,,,,,,,,,,,,,,,,,,,,0,33,33,13,1,B,X,N,o2_image,stimuli/out2.png,stimuli/out1.png,stimuli/correct_out2.png,,,,,,,,,,,,,,,,,,,,,,,,,,,,,,,,,,,,,,
,,6550ff72185a13c48b10bd9a,29,female,2024-04-19_18h37.14.087,stockport_simplified,2022.2.4,MacIntel,30.3030303,661e456ee6de07e70aa9ef7b,66229da24ab04f343fd9d16a,,,,,,,,,,,,,,,,,,,,,,,,,,,,,,,,,,248.753,250.885,"[4,1,3,6,2,7,8,5]","[[-0.3,0.2],[0.3,0.2]]","[[0.125,-0.2],[-0.125,-0.2]]",0.132222222,-0.19,1,0,0,1.599,o1_image,250.886,1,251.385,251.385,253.386,0,0,0,0,1,,,,,,,,,,,,,,,,,,,,,,,,,,,,,,,,,,,,,,,,,,,,,,,,,,
,,6550ff72185a13c48b10bd9a,29,female,2024-04-19_18h37.14.087,stockport_simplified,2022.2.4,MacIntel,30.3030303,661e456ee6de07e70aa9ef7b,66229da24ab04f343fd9d16a,,,,,,,,,,,,,,,,,,,,,,,,,,,,,,,,,,,,,,,,,,,,,,,,,,,,,,,,0,34,34,30,1,A,X,N,o1_image,stimuli/out1.png,stimuli/correct_out1.png,stimuli/out2.png,,,,,,,,,,,,,,,,,,,,,,,,,,,,,,,,,,,,,,
,,6550ff72185a13c48b10bd9a,29,female,2024-04-19_18h37.14.087,stockport_simplified,2022.2.4,MacIntel,30.3030303,661e456ee6de07e70aa9ef7b,66229da24ab04f343fd9d16a,,,,,,,,,,,,,,,,,,,,,,,,,,,,,,,,,,253.386,255.585,"[4,1,3,6,2,7,8,5]","[[-0.3,0.2],[0.3,0.2]]","[[-0.125,-0.2],[0.125,-0.2]]",-0.133333333,-0.201111111,1,0,0,1.666,o1_image,255.587,0,256.086,256.086,258.086,0,0,0,0,1,,,,,,,,,,,,,,,,,,,,,,,,,,,,,,,,,,,,,,,,,,,,,,,,,,
,,6550ff72185a13c48b10bd9a,29,female,2024-04-19_18h37.14.087,stockport_simplified,2022.2.4,MacIntel,30.3030303,661e456ee6de07e70aa9ef7b,66229da24ab04f343fd9d16a,,,,,,,,,,,,,,,,,,,,,,,,,,,,,,,,,,,,,,,,,,,,,,,,,,,,,,,,0,35,35,14,1,B,X,N,o2_image,stimuli/out2.png,stimuli/out1.png,stimuli/correct_out2.png,,,,,,,,,,,,,,,,,,,,,,,,,,,,,,,,,,,,,,
,,6550ff72185a13c48b10bd9a,29,female,2024-04-19_18h37.14.087,stockport_simplified,2022.2.4,MacIntel,30.3030303,661e456ee6de07e70aa9ef7b,66229da24ab04f343fd9d16a,,,,,,,,,,,,,,,,,,,,,,,,,,,,,,,,,,258.087,259.652,"[4,1,3,6,2,7,8,5]","[[-0.3,0.2],[0.3,0.2]]","[[0.125,-0.2],[-0.125,-0.2]]",-0.087777778,-0.17,1,0,0,1.033,o2_image,259.653,1,260.152,260.153,262.153,0,0,0,0,1,,,,,,,,,,,,,,,,,,,,,,,,,,,,,,,,,,,,,,,,,,,,,,,,,,
,,6550ff72185a13c48b10bd9a,29,female,2024-04-19_18h37.14.087,stockport_simplified,2022.2.4,MacIntel,30.3030303,661e456ee6de07e70aa9ef7b,66229da24ab04f343fd9d16a,,,,,,,,,,,,,,,,,,,,,,,,,,,,,,,,,,,,,,,,,,,,,,,,,,,,,,,,0,36,36,17,1,B,Y,N,o2_image,stimuli/out2.png,stimuli/out1.png,stimuli/correct_out2.png,,,,,,,,,,,,,,,,,,,,,,,,,,,,,,,,,,,,,,
,,6550ff72185a13c48b10bd9a,29,female,2024-04-19_18h37.14.087,stockport_simplified,2022.2.4,MacIntel,30.3030303,661e456ee6de07e70aa9ef7b,66229da24ab04f343fd9d16a,,,,,,,,,,,,,,,,,,,,,,,,,,,,,,,,,,262.154,264.219,"[4,1,3,6,2,7,8,5]","[[0.3,0.2],[-0.3,0.2]]","[[0.125,-0.2],[-0.125,-0.2]]",0.11,-0.205555556,1,0,0,1.531,o1_image,264.222,1,264.719,264.719,266.72,0,0,0,0,1,,,,,,,,,,,,,,,,,,,,,,,,,,,,,,,,,,,,,,,,,,,,,,,,,,
,,6550ff72185a13c48b10bd9a,29,female,2024-04-19_18h37.14.087,stockport_simplified,2022.2.4,MacIntel,30.3030303,661e456ee6de07e70aa9ef7b,66229da24ab04f343fd9d16a,,,,,,,,,,,,,,,,,,,,,,,,,,,,,,,,,,,,,,,,,,,,,,,,,,,,,,,,0,37,37,3,1,A,X,N,o1_image,stimuli/out1.png,stimuli/correct_out1.png,stimuli/out2.png,,,,,,,,,,,,,,,,,,,,,,,,,,,,,,,,,,,,,,
,,6550ff72185a13c48b10bd9a,29,female,2024-04-19_18h37.14.087,stockport_simplified,2022.2.4,MacIntel,30.3030303,661e456ee6de07e70aa9ef7b,66229da24ab04f343fd9d16a,,,,,,,,,,,,,,,,,,,,,,,,,,,,,,,,,,266.721,269.253,"[4,1,3,6,2,7,8,5]","[[-0.3,0.2],[0.3,0.2]]","[[0.125,-0.2],[-0.125,-0.2]]",-0.132222222,-0.192222222,1,0,0,1.998,o2_image,269.255,1,269.752,269.752,271.753,0,0,0,0,1,,,,,,,,,,,,,,,,,,,,,,,,,,,,,,,,,,,,,,,,,,,,,,,,,,
,,6550ff72185a13c48b10bd9a,29,female,2024-04-19_18h37.14.087,stockport_simplified,2022.2.4,MacIntel,30.3030303,661e456ee6de07e70aa9ef7b,66229da24ab04f343fd9d16a,,,,,,,,,,,,,,,,,,,,,,,,,,,,,,,,,,,,,,,,,,,,,,,,,,,,,,,,0,38,38,28,1,N,M,D,o2_image,stimuli/out2.png,stimuli/out1.png,stimuli/correct_out2.png,,,,,,,,,,,,,,,,,,,,,,,,,,,,,,,,,,,,,,
,,6550ff72185a13c48b10bd9a,29,female,2024-04-19_18h37.14.087,stockport_simplified,2022.2.4,MacIntel,30.3030303,661e456ee6de07e70aa9ef7b,66229da24ab04f343fd9d16a,,,,,,,,,,,,,,,,,,,,,,,,,,,,,,,,,,271.754,274.119,"[4,1,3,6,2,7,8,5]","[[-0.3,0.2],[0.3,0.2]]","[[0.125,-0.2],[-0.125,-0.2]]",0.146666667,-0.178888889,1,0,0,1.832,o1_image,274.121,1,274.62,274.62,276.62,0,0,0,0,1,,,,,,,,,,,,,,,,,,,,,,,,,,,,,,,,,,,,,,,,,,,,,,,,,,
,,6550ff72185a13c48b10bd9a,29,female,2024-04-19_18h37.14.087,stockport_simplified,2022.2.4,MacIntel,30.3030303,661e456ee6de07e70aa9ef7b,66229da24ab04f343fd9d16a,,,,,,,,,,,,,,,,,,,,,,,,,,,,,,,,,,,,,,,,,,,,,,,,,,,,,,,,0,39,39,4,1,A,X,N,o1_image,stimuli/out1.png,stimuli/correct_out1.png,stimuli/out2.png,,,,,,,,,,,,,,,,,,,,,,,,,,,,,,,,,,,,,,
,,6550ff72185a13c48b10bd9a,29,female,2024-04-19_18h37.14.087,stockport_simplified,2022.2.4,MacIntel,30.3030303,661e456ee6de07e70aa9ef7b,66229da24ab04f343fd9d16a,,,,,,,,,,,,,,,,,,,,,,,,,,,,,,,,,,276.621,278.82,"[4,1,3,6,2,7,8,5]","[[-0.3,0.2],[0.3,0.2]]","[[-0.125,-0.2],[0.125,-0.2]]",0.124444444,-0.213333333,1,0,0,1.666,o2_image,278.822,1,279.32,279.32,281.32,0,0,0,0,1,,,,,,,,,,,,,,,,,,,,,,,,,,,,,,,,,,,,,,,,,,,,,,,,,,
,,6550ff72185a13c48b10bd9a,29,female,2024-04-19_18h37.14.087,stockport_simplified,2022.2.4,MacIntel,30.3030303,661e456ee6de07e70aa9ef7b,66229da24ab04f343fd9d16a,,,,,,,,,,,,,,,,,,,,,,,,,,,,,,,,,,,,,,,,,,,,,,,,,,,,,,,,0,40,40,44,1,B,X,N,o2_image,stimuli/out2.png,stimuli/out1.png,stimuli/correct_out2.png,,,,,,,,,,,,,,,,,,,,,,,,,,,,,,,,,,,,,,
,,6550ff72185a13c48b10bd9a,29,female,2024-04-19_18h37.14.087,stockport_simplified,2022.2.4,MacIntel,30.3030303,661e456ee6de07e70aa9ef7b,66229da24ab04f343fd9d16a,,,,,,,,,,,,,,,,,,,,,,,,,,,,,,,,,,281.321,283.12,"[4,1,3,6,2,7,8,5]","[[-0.3,0.2],[0.3,0.2]]","[[-0.125,-0.2],[0.125,-0.2]]",0.124444444,-0.208888889,1,0,0,1.266,o2_image,283.122,1,283.62,283.62,285.62,0,0,0,0,1,,,,,,,,,,,,,,,,,,,,,,,,,,,,,,,,,,,,,,,,,,,,,,,,,,
,,6550ff72185a13c48b10bd9a,29,female,2024-04-19_18h37.14.087,stockport_simplified,2022.2.4,MacIntel,30.3030303,661e456ee6de07e70aa9ef7b,66229da24ab04f343fd9d16a,,,,,,,,,,,,,,,,,,,,,,,,,,,,,,,,,,,,,,,,,,,,,,,,,,,,,,,,0,41,41,48,1,B,Y,N,o2_image,stimuli/out2.png,stimuli/out1.png,stimuli/correct_out2.png,,,,,,,,,,,,,,,,,,,,,,,,,,,,,,,,,,,,,,
,,6550ff72185a13c48b10bd9a,29,female,2024-04-19_18h37.14.087,stockport_simplified,2022.2.4,MacIntel,30.3030303,661e456ee6de07e70aa9ef7b,66229da24ab04f343fd9d16a,,,,,,,,,,,,,,,,,,,,,,,,,,,,,,,,,,285.621,287.153,"[4,1,3,6,2,7,8,5]","[[0.3,0.2],[-0.3,0.2]]","[[-0.125,-0.2],[0.125,-0.2]]",0.118888889,-0.207777778,1,0,0,0.999,o2_image,287.155,1,287.654,287.654,289.654,0,0,0,0,1,,,,,,,,,,,,,,,,,,,,,,,,,,,,,,,,,,,,,,,,,,,,,,,,,,
,,6550ff72185a13c48b10bd9a,29,female,2024-04-19_18h37.14.087,stockport_simplified,2022.2.4,MacIntel,30.3030303,661e456ee6de07e70aa9ef7b,66229da24ab04f343fd9d16a,,,,,,,,,,,,,,,,,,,,,,,,,,,,,,,,,,,,,,,,,,,,,,,,,,,,,,,,0,42,42,18,1,B,Y,N,o2_image,stimuli/out2.png,stimuli/out1.png,stimuli/correct_out2.png,,,,,,,,,,,,,,,,,,,,,,,,,,,,,,,,,,,,,,
,,6550ff72185a13c48b10bd9a,29,female,2024-04-19_18h37.14.087,stockport_simplified,2022.2.4,MacIntel,30.3030303,661e456ee6de07e70aa9ef7b,66229da24ab04f343fd9d16a,,,,,,,,,,,,,,,,,,,,,,,,,,,,,,,,,,289.655,291.287,"[4,1,3,6,2,7,8,5]","[[-0.3,0.2],[0.3,0.2]]","[[0.125,-0.2],[-0.125,-0.2]]",0.13,-0.201111111,1,0,0,1.099,o1_image,291.288,1,291.787,291.787,293.787,0,0,0,0,1,,,,,,,,,,,,,,,,,,,,,,,,,,,,,,,,,,,,,,,,,,,,,,,,,,
,,6550ff72185a13c48b10bd9a,29,female,2024-04-19_18h37.14.087,stockport_simplified,2022.2.4,MacIntel,30.3030303,661e456ee6de07e70aa9ef7b,66229da24ab04f343fd9d16a,,,,,,,,,,,,,,,,,,,,,,,,,,,,,,,,,,,,,,,,,,,,,,,,,,,,,,,,0,43,43,33,1,A,X,N,o1_image,stimuli/out1.png,stimuli/correct_out1.png,stimuli/out2.png,,,,,,,,,,,,,,,,,,,,,,,,,,,,,,,,,,,,,,
,,6550ff72185a13c48b10bd9a,29,female,2024-04-19_18h37.14.087,stockport_simplified,2022.2.4,MacIntel,30.3030303,661e456ee6de07e70aa9ef7b,66229da24ab04f343fd9d16a,,,,,,,,,,,,,,,,,,,,,,,,,,,,,,,,,,293.788,295.387,"[4,1,3,6,2,7,8,5]","[[-0.3,0.2],[0.3,0.2]]","[[0.125,-0.2],[-0.125,-0.2]]",0.158888889,-0.187777778,1,0,0,1.066,o1_image,295.39,1,295.887,295.888,297.888,0,0,0,0,1,,,,,,,,,,,,,,,,,,,,,,,,,,,,,,,,,,,,,,,,,,,,,,,,,,
,,6550ff72185a13c48b10bd9a,29,female,2024-04-19_18h37.14.087,stockport_simplified,2022.2.4,MacIntel,30.3030303,661e456ee6de07e70aa9ef7b,66229da24ab04f343fd9d16a,,,,,,,,,,,,,,,,,,,,,,,,,,,,,,,,,,,,,,,,,,,,,,,,,,,,,,,,0,44,44,21,1,N,M,C,o1_image,stimuli/out1.png,stimuli/correct_out1.png,stimuli/out2.png,,,,,,,,,,,,,,,,,,,,,,,,,,,,,,,,,,,,,,
,,6550ff72185a13c48b10bd9a,29,female,2024-04-19_18h37.14.087,stockport_simplified,2022.2.4,MacIntel,30.3030303,661e456ee6de07e70aa9ef7b,66229da24ab04f343fd9d16a,,,,,,,,,,,,,,,,,,,,,,,,,,,,,,,,,,297.888,300.087,"[4,1,3,6,2,7,8,5]","[[-0.3,0.2],[0.3,0.2]]","[[-0.125,-0.2],[0.125,-0.2]]",-0.071111111,-0.202222222,1,0,0,1.666,o1_image,300.088,1,300.587,300.587,302.587,0,0,0,0,1,,,,,,,,,,,,,,,,,,,,,,,,,,,,,,,,,,,,,,,,,,,,,,,,,,
,,6550ff72185a13c48b10bd9a,29,female,2024-04-19_18h37.14.087,stockport_simplified,2022.2.4,MacIntel,30.3030303,661e456ee6de07e70aa9ef7b,66229da24ab04f343fd9d16a,,,,,,,,,,,,,,,,,,,,,,,,,,,,,,,,,,,,,,,,,,,,,,,,,,,,,,,,0,45,45,1,1,A,X,N,o1_image,stimuli/out1.png,stimuli/correct_out1.png,stimuli/out2.png,,,,,,,,,,,,,,,,,,,,,,,,,,,,,,,,,,,,,,
,,6550ff72185a13c48b10bd9a,29,female,2024-04-19_18h37.14.087,stockport_simplified,2022.2.4,MacIntel,30.3030303,661e456ee6de07e70aa9ef7b,66229da24ab04f343fd9d16a,,,,,,,,,,,,,,,,,,,,,,,,,,,,,,,,,,302.588,304.32,"[4,1,3,6,2,7,8,5]","[[-0.3,0.2],[0.3,0.2]]","[[-0.125,-0.2],[0.125,-0.2]]",-0.107777778,-0.23,1,0,0,1.198,o1_image,304.321,1,304.821,304.821,306.821,0,0,0,0,1,,,,,,,,,,,,,,,,,,,,,,,,,,,,,,,,,,,,,,,,,,,,,,,,,,
,,6550ff72185a13c48b10bd9a,29,female,2024-04-19_18h37.14.087,stockport_simplified,2022.2.4,MacIntel,30.3030303,661e456ee6de07e70aa9ef7b,66229da24ab04f343fd9d16a,,,,,,,,,,,,,,,,,,,,,,,,,,,,,,,,,,,,,,,,,,,,,,,,,,,,,,,,0,46,46,32,1,A,X,N,o1_image,stimuli/out1.png,stimuli/correct_out1.png,stimuli/out2.png,,,,,,,,,,,,,,,,,,,,,,,,,,,,,,,,,,,,,,
,,6550ff72185a13c48b10bd9a,29,female,2024-04-19_18h37.14.087,stockport_simplified,2022.2.4,MacIntel,30.3030303,661e456ee6de07e70aa9ef7b,66229da24ab04f343fd9d16a,,,,,,,,,,,,,,,,,,,,,,,,,,,,,,,,,,306.821,308.921,"[4,1,3,6,2,7,8,5]","[[0.3,0.2],[-0.3,0.2]]","[[-0.125,-0.2],[0.125,-0.2]]",0.075555556,-0.186666667,1,0,0,1.566,o2_image,308.922,1,309.421,309.421,311.421,0,0,0,0,1,,,,,,,,,,,,,,,,,,,,,,,,,,,,,,,,,,,,,,,,,,,,,,,,,,
,,6550ff72185a13c48b10bd9a,29,female,2024-04-19_18h37.14.087,stockport_simplified,2022.2.4,MacIntel,30.3030303,661e456ee6de07e70aa9ef7b,66229da24ab04f343fd9d16a,,,,,,,,,,,,,,,,,,,,,,,,,,,,,,,,,,,,,,,,,,,,,,,,,,,,,,,,0,47,47,15,1,B,Y,N,o2_image,stimuli/out2.png,stimuli/out1.png,stimuli/correct_out2.png,,,,,,,,,,,,,,,,,,,,,,,,,,,,,,,,,,,,,,
,,6550ff72185a13c48b10bd9a,29,female,2024-04-19_18h37.14.087,stockport_simplified,2022.2.4,MacIntel,30.3030303,661e456ee6de07e70aa9ef7b,66229da24ab04f343fd9d16a,,,,,,,,,,,,,,,,,,,,,,,,,,,,,,,,,,311.422,313.054,"[4,1,3,6,2,7,8,5]","[[-0.3,0.2],[0.3,0.2]]","[[0.125,-0.2],[-0.125,-0.2]]",0.13,-0.184444444,1,0,0,1.099,o1_image,313.056,1,313.555,313.555,315.555,0,0,0,0,1,,,,,,,,,,,,,,,,,,,,,,,,,,,,,,,,,,,,,,,,,,,,,,,,,,
,,6550ff72185a13c48b10bd9a,29,female,2024-04-19_18h37.14.087,stockport_simplified,2022.2.4,MacIntel,30.3030303,661e456ee6de07e70aa9ef7b,66229da24ab04f343fd9d16a,,,,,,,,,,,,,,,,,,,,,,,,,,,,,,,,,,,,,,,,,,,,,,,,,,,,,,,,0,48,48,39,1,A,Y,N,o1_image,stimuli/out1.png,stimuli/correct_out1.png,stimuli/out2.png,,,,,,,,,,,,,,,,,,,,,,,,,,,,,,,,,,,,,,
,,6550ff72185a13c48b10bd9a,29,female,2024-04-19_18h37.14.087,stockport_simplified,2022.2.4,MacIntel,30.3030303,661e456ee6de07e70aa9ef7b,66229da24ab04f343fd9d16a,,,,,,,,,,,,,,,,,,,,,,,,,,,,,,,,,,315.555,317.121,"[4,1,3,6,2,7,8,5]","[[0.3,0.2],[-0.3,0.2]]","[[0.125,-0.2],[-0.125,-0.2]]",0.136666667,-0.187777778,1,0,0,1.033,o1_image,317.122,1,317.621,317.621,319.621,0,0,0,0,1,,,,,,,,,,,,,,,,,,,,,,,,,,,,,,,,,,,,,,,,,,,,,,,,,,
,,6550ff72185a13c48b10bd9a,29,female,2024-04-19_18h37.14.087,stockport_simplified,2022.2.4,MacIntel,30.3030303,661e456ee6de07e70aa9ef7b,66229da24ab04f343fd9d16a,,,,,,,,,,,,,,,,,,,,,,,,,,,,,,,,,,,,,,,,,,,,,,,,,,,,,,,,0,49,49,54,1,N,M,C,o1_image,stimuli/out1.png,stimuli/correct_out1.png,stimuli/out2.png,,,,,,,,,,,,,,,,,,,,,,,,,,,,,,,,,,,,,,
,,6550ff72185a13c48b10bd9a,29,female,2024-04-19_18h37.14.087,stockport_simplified,2022.2.4,MacIntel,30.3030303,661e456ee6de07e70aa9ef7b,66229da24ab04f343fd9d16a,,,,,,,,,,,,,,,,,,,,,,,,,,,,,,,,,,319.622,321.555,"[4,1,3,6,2,7,8,5]","[[0.3,0.2],[-0.3,0.2]]","[[0.125,-0.2],[-0.125,-0.2]]",0.133333333,-0.174444444,1,0,0,1.399,o1_image,321.556,1,322.055,322.055,324.055,0,0,0,0,1,,,,,,,,,,,,,,,,,,,,,,,,,,,,,,,,,,,,,,,,,,,,,,,,,,
,,6550ff72185a13c48b10bd9a,29,female,2024-04-19_18h37.14.087,stockport_simplified,2022.2.4,MacIntel,30.3030303,661e456ee6de07e70aa9ef7b,66229da24ab04f343fd9d16a,,,,,,,,,,,,,,,,,,,,,,,,,,,,,,,,,,,,,,,,,,,,,,,,,,,,,,,,0,50,50,36,1,A,Y,N,o1_image,stimuli/out1.png,stimuli/correct_out1.png,stimuli/out2.png,,,,,,,,,,,,,,,,,,,,,,,,,,,,,,,,,,,,,,
,,6550ff72185a13c48b10bd9a,29,female,2024-04-19_18h37.14.087,stockport_simplified,2022.2.4,MacIntel,30.3030303,661e456ee6de07e70aa9ef7b,66229da24ab04f343fd9d16a,,,,,,,,,,,,,,,,,,,,,,,,,,,,,,,,,,324.055,326.088,"[4,1,3,6,2,7,8,5]","[[-0.3,0.2],[0.3,0.2]]","[[0.125,-0.2],[-0.125,-0.2]]",0.118888889,-0.174444444,1,0,0,1.533,o1_image,326.089,1,326.588,326.588,328.588,0,0,0,0,1,,,,,,,,,,,,,,,,,,,,,,,,,,,,,,,,,,,,,,,,,,,,,,,,,,
,,6550ff72185a13c48b10bd9a,29,female,2024-04-19_18h37.14.087,stockport_simplified,2022.2.4,MacIntel,30.3030303,661e456ee6de07e70aa9ef7b,66229da24ab04f343fd9d16a,,,,,,,,,,,,,,,,,,,,,,,,,,,,,,,,,,,,,,,,,,,,,,,,,,,,,,,,0,51,51,35,1,A,Y,N,o1_image,stimuli/out1.png,stimuli/correct_out1.png,stimuli/out2.png,,,,,,,,,,,,,,,,,,,,,,,,,,,,,,,,,,,,,,
,,6550ff72185a13c48b10bd9a,29,female,2024-04-19_18h37.14.087,stockport_simplified,2022.2.4,MacIntel,30.3030303,661e456ee6de07e70aa9ef7b,66229da24ab04f343fd9d16a,,,,,,,,,,,,,,,,,,,,,,,,,,,,,,,,,,328.589,329.922,"[4,1,3,6,2,7,8,5]","[[-0.3,0.2],[0.3,0.2]]","[[0.125,-0.2],[-0.125,-0.2]]",0.118888889,-0.174444444,1,0,0,0.799,o1_image,329.923,1,330.422,330.422,332.422,0,0,0,0,1,,,,,,,,,,,,,,,,,,,,,,,,,,,,,,,,,,,,,,,,,,,,,,,,,,
,,6550ff72185a13c48b10bd9a,29,female,2024-04-19_18h37.14.087,stockport_simplified,2022.2.4,MacIntel,30.3030303,661e456ee6de07e70aa9ef7b,66229da24ab04f343fd9d16a,,,,,,,,,,,,,,,,,,,,,,,,,,,,,,,,,,,,,,,,,,,,,,,,,,,,,,,,0,52,52,31,1,A,X,N,o1_image,stimuli/out1.png,stimuli/correct_out1.png,stimuli/out2.png,,,,,,,,,,,,,,,,,,,,,,,,,,,,,,,,,,,,,,
,,6550ff72185a13c48b10bd9a,29,female,2024-04-19_18h37.14.087,stockport_simplified,2022.2.4,MacIntel,30.3030303,661e456ee6de07e70aa9ef7b,66229da24ab04f343fd9d16a,,,,,,,,,,,,,,,,,,,,,,,,,,,,,,,,,,332.422,334.055,"[4,1,3,6,2,7,8,5]","[[0.3,0.2],[-0.3,0.2]]","[[0.125,-0.2],[-0.125,-0.2]]",-0.087777778,-0.196666667,1,0,0,1.133,o2_image,334.056,1,334.555,334.555,336.555,0,0,0,0,1,,,,,,,,,,,,,,,,,,,,,,,,,,,,,,,,,,,,,,,,,,,,,,,,,,
,,6550ff72185a13c48b10bd9a,29,female,2024-04-19_18h37.14.087,stockport_simplified,2022.2.4,MacIntel,30.3030303,661e456ee6de07e70aa9ef7b,66229da24ab04f343fd9d16a,,,,,,,,,,,,,,,,,,,,,,,,,,,,,,,,,,,,,,,,,,,,,,,,,,,,,,,,0,53,53,19,1,B,Y,N,o2_image,stimuli/out2.png,stimuli/out1.png,stimuli/correct_out2.png,,,,,,,,,,,,,,,,,,,,,,,,,,,,,,,,,,,,,,
,,6550ff72185a13c48b10bd9a,29,female,2024-04-19_18h37.14.087,stockport_simplified,2022.2.4,MacIntel,30.3030303,661e456ee6de07e70aa9ef7b,66229da24ab04f343fd9d16a,,,,,,,,,,,,,,,,,,,,,,,,,,,,,,,,,,336.556,338.155,"[4,1,3,6,2,7,8,5]","[[0.3,0.2],[-0.3,0.2]]","[[0.125,-0.2],[-0.125,-0.2]]",0.095555556,-0.25,1,0,0,1.066,o1_image,338.157,1,338.655,338.655,340.656,0,0,0,0,1,,,,,,,,,,,,,,,,,,,,,,,,,,,,,,,,,,,,,,,,,,,,,,,,,,
,,6550ff72185a13c48b10bd9a,29,female,2024-04-19_18h37.14.087,stockport_simplified,2022.2.4,MacIntel,30.3030303,661e456ee6de07e70aa9ef7b,66229da24ab04f343fd9d16a,,,,,,,,,,,,,,,,,,,,,,,,,,,,,,,,,,,,,,,,,,,,,,,,,,,,,,,,0,54,54,24,1,N,M,C,o1_image,stimuli/out1.png,stimuli/correct_out1.png,stimuli/out2.png,,,,,,,,,,,,,,,,,,,,,,,,,,,,,,,,,,,,,,
,,6550ff72185a13c48b10bd9a,29,female,2024-04-19_18h37.14.087,stockport_simplified,2022.2.4,MacIntel,30.3030303,661e456ee6de07e70aa9ef7b,66229da24ab04f343fd9d16a,,,,,,,,,,,,,,,,,,,,,,,,,,,,,,,,,,340.656,342.189,"[4,1,3,6,2,7,8,5]","[[0.3,0.2],[-0.3,0.2]]","[[-0.125,-0.2],[0.125,-0.2]]",0.107777778,-0.242222222,1,0,0,0.998,o2_image,342.19,1,342.689,342.689,344.689,0,0,0,0,1,,,,,,,,,,,,,,,,,,,,,,,,,,,,,,,,,,,,,,,,,,,,,,,,,,
,,6550ff72185a13c48b10bd9a,29,female,2024-04-19_18h37.14.087,stockport_simplified,2022.2.4,MacIntel,30.3030303,661e456ee6de07e70aa9ef7b,66229da24ab04f343fd9d16a,,,,,,,,,,,,,,,,,,,,,,,,,,,,,,,,,,,,,,,,,,,,,,,,,,,,,,,,0,55,55,43,1,B,X,N,o2_image,stimuli/out2.png,stimuli/out1.png,stimuli/correct_out2.png,,,,,,,,,,,,,,,,,,,,,,,,,,,,,,,,,,,,,,
,,6550ff72185a13c48b10bd9a,29,female,2024-04-19_18h37.14.087,stockport_simplified,2022.2.4,MacIntel,30.3030303,661e456ee6de07e70aa9ef7b,66229da24ab04f343fd9d16a,,,,,,,,,,,,,,,,,,,,,,,,,,,,,,,,,,344.69,346.122,"[4,1,3,6,2,7,8,5]","[[-0.3,0.2],[0.3,0.2]]","[[0.125,-0.2],[-0.125,-0.2]]",0.111111111,-0.181111111,1,0,0,0.899,o1_image,346.124,1,346.622,346.622,348.622,0,0,0,0,1,,,,,,,,,,,,,,,,,,,,,,,,,,,,,,,,,,,,,,,,,,,,,,,,,,
,,6550ff72185a13c48b10bd9a,29,female,2024-04-19_18h37.14.087,stockport_simplified,2022.2.4,MacIntel,30.3030303,661e456ee6de07e70aa9ef7b,66229da24ab04f343fd9d16a,,,,,,,,,,,,,,,,,,,,,,,,,,,,,,,,,,,,,,,,,,,,,,,,,,,,,,,,0,56,56,23,1,N,M,C,o1_image,stimuli/out1.png,stimuli/correct_out1.png,stimuli/out2.png,,,,,,,,,,,,,,,,,,,,,,,,,,,,,,,,,,,,,,
,,6550ff72185a13c48b10bd9a,29,female,2024-04-19_18h37.14.087,stockport_simplified,2022.2.4,MacIntel,30.3030303,661e456ee6de07e70aa9ef7b,66229da24ab04f343fd9d16a,,,,,,,,,,,,,,,,,,,,,,,,,,,,,,,,,,348.623,350.423,"[4,1,3,6,2,7,8,5]","[[-0.3,0.2],[0.3,0.2]]","[[0.125,-0.2],[-0.125,-0.2]]",-0.078888889,-0.181111111,1,0,0,1.267,o2_image,350.426,1,350.923,350.923,352.923,0,0,0,0,1,,,,,,,,,,,,,,,,,,,,,,,,,,,,,,,,,,,,,,,,,,,,,,,,,,
,,6550ff72185a13c48b10bd9a,29,female,2024-04-19_18h37.14.087,stockport_simplified,2022.2.4,MacIntel,30.3030303,661e456ee6de07e70aa9ef7b,66229da24ab04f343fd9d16a,,,,,,,,,,,,,,,,,,,,,,,,,,,,,,,,,,,,,,,,,,,,,,,,,,,,,,,,0,57,57,40,1,B,X,N,o2_image,stimuli/out2.png,stimuli/out1.png,stimuli/correct_out2.png,,,,,,,,,,,,,,,,,,,,,,,,,,,,,,,,,,,,,,
,,6550ff72185a13c48b10bd9a,29,female,2024-04-19_18h37.14.087,stockport_simplified,2022.2.4,MacIntel,30.3030303,661e456ee6de07e70aa9ef7b,66229da24ab04f343fd9d16a,,,,,,,,,,,,,,,,,,,,,,,,,,,,,,,,,,352.924,354.49,"[4,1,3,6,2,7,8,5]","[[-0.3,0.2],[0.3,0.2]]","[[-0.125,-0.2],[0.125,-0.2]]",-0.112222222,-0.257777778,1,0,0,1.03,o1_image,354.491,1,354.99,354.99,356.99,0,0,0,0,1,,,,,,,,,,,,,,,,,,,,,,,,,,,,,,,,,,,,,,,,,,,,,,,,,,
,,6550ff72185a13c48b10bd9a,29,female,2024-04-19_18h37.14.087,stockport_simplified,2022.2.4,MacIntel,30.3030303,661e456ee6de07e70aa9ef7b,66229da24ab04f343fd9d16a,,,,,,,,,,,,,,,,,,,,,,,,,,,,,,,,,,,,,,,,,,,,,,,,,,,,,,,,0,58,58,20,1,N,M,C,o1_image,stimuli/out1.png,stimuli/correct_out1.png,stimuli/out2.png,,,,,,,,,,,,,,,,,,,,,,,,,,,,,,,,,,,,,,
,,6550ff72185a13c48b10bd9a,29,female,2024-04-19_18h37.14.087,stockport_simplified,2022.2.4,MacIntel,30.3030303,661e456ee6de07e70aa9ef7b,66229da24ab04f343fd9d16a,,,,,,,,,,,,,,,,,,,,,,,,,,,,,,,,,,356.99,359.523,"[4,1,3,6,2,7,8,5]","[[0.3,0.2],[-0.3,0.2]]","[[0.125,-0.2],[-0.125,-0.2]]",-0.15,-0.191111111,1,0,0,1.999,o2_image,359.525,0,360.023,360.023,362.023,0,0,0,0,1,,,,,,,,,,,,,,,,,,,,,,,,,,,,,,,,,,,,,,,,,,,,,,,,,,
,,6550ff72185a13c48b10bd9a,29,female,2024-04-19_18h37.14.087,stockport_simplified,2022.2.4,MacIntel,30.3030303,661e456ee6de07e70aa9ef7b,66229da24ab04f343fd9d16a,,,,,,,,,,,,,,,,,,,,,,,,,,,,,,,,,,,,,,,,,,,,,,,,,,,,,,,,0,59,59,38,1,A,Y,N,o1_image,stimuli/out1.png,stimuli/correct_out1.png,stimuli/out2.png,,,,,,,,,,,,,,,,,,,,,,,,,,,,,,,,,,,,,,
,,6550ff72185a13c48b10bd9a,29,female,2024-04-19_18h37.14.087,stockport_simplified,2022.2.4,MacIntel,30.3030303,661e456ee6de07e70aa9ef7b,66229da24ab04f343fd9d16a,,,,,,,,,,,,,,,,,,,,,,,,,,,,,,,,,,362.024,363.623,"[4,1,3,6,2,7,8,5]","[[-0.3,0.2],[0.3,0.2]]","[[0.125,-0.2],[-0.125,-0.2]]",0.108888889,-0.205555556,1,0,0,1.066,o1_image,363.624,0,364.123,364.123,366.123,0,0,0,0,1,,,,,,,,,,,,,,,,,,,,,,,,,,,,,,,,,,,,,,,,,,,,,,,,,,
,,6550ff72185a13c48b10bd9a,29,female,2024-04-19_18h37.14.087,stockport_simplified,2022.2.4,MacIntel,30.3030303,661e456ee6de07e70aa9ef7b,66229da24ab04f343fd9d16a,,,,,,,,,,,,,,,,,,,,,,,,,,,,,,,,,,,,,,,,,,,,,,,,,,,,,,,,1,0,60,55,1,N,M,D,o2_image,stimuli/out2.png,stimuli/out1.png,stimuli/correct_out2.png,,,,,,,,,,,,,,,,,,,,,,,,,,,,,,,,,,,,,,
,,6550ff72185a13c48b10bd9a,29,female,2024-04-19_18h37.14.087,stockport_simplified,2022.2.4,MacIntel,30.3030303,661e456ee6de07e70aa9ef7b,66229da24ab04f343fd9d16a,,,,,,,,,,,,,,,,,,,,,,,,,,,,,,,,,,366.124,367.757,"[4,1,3,6,2,7,8,5]","[[-0.3,0.2],[0.3,0.2]]","[[-0.125,-0.2],[0.125,-0.2]]",0.11,-0.227777778,1,0,0,1.099,o2_image,367.758,1,368.256,368.256,370.256,0,0,0,0,1,,,,,,,,,,,,,,,,,,,,,,,,,,,,,,,,,,,,,,,,,,,,,,,,,,
,,6550ff72185a13c48b10bd9a,29,female,2024-04-19_18h37.14.087,stockport_simplified,2022.2.4,MacIntel,30.3030303,661e456ee6de07e70aa9ef7b,66229da24ab04f343fd9d16a,,,,,,,,,,,,,,,,,,,,,,,,,,,,,,,,,,,,,,,,,,,,,,,,,,,,,,,,1,1,61,13,1,B,X,N,o2_image,stimuli/out2.png,stimuli/out1.png,stimuli/correct_out2.png,,,,,,,,,,,,,,,,,,,,,,,,,,,,,,,,,,,,,,
,,6550ff72185a13c48b10bd9a,29,female,2024-04-19_18h37.14.087,stockport_simplified,2022.2.4,MacIntel,30.3030303,661e456ee6de07e70aa9ef7b,66229da24ab04f343fd9d16a,,,,,,,,,,,,,,,,,,,,,,,,,,,,,,,,,,370.257,371.957,"[4,1,3,6,2,7,8,5]","[[0.3,0.2],[-0.3,0.2]]","[[0.125,-0.2],[-0.125,-0.2]]",0.15,-0.216666667,1,0,0,1.165,o1_image,371.958,1,372.457,372.457,374.457,0,0,0,0,1,,,,,,,,,,,,,,,,,,,,,,,,,,,,,,,,,,,,,,,,,,,,,,,,,,
,,6550ff72185a13c48b10bd9a,29,female,2024-04-19_18h37.14.087,stockport_simplified,2022.2.4,MacIntel,30.3030303,661e456ee6de07e70aa9ef7b,66229da24ab04f343fd9d16a,,,,,,,,,,,,,,,,,,,,,,,,,,,,,,,,,,,,,,,,,,,,,,,,,,,,,,,,1,2,62,54,1,N,M,C,o1_image,stimuli/out1.png,stimuli/correct_out1.png,stimuli/out2.png,,,,,,,,,,,,,,,,,,,,,,,,,,,,,,,,,,,,,,
,,6550ff72185a13c48b10bd9a,29,female,2024-04-19_18h37.14.087,stockport_simplified,2022.2.4,MacIntel,30.3030303,661e456ee6de07e70aa9ef7b,66229da24ab04f343fd9d16a,,,,,,,,,,,,,,,,,,,,,,,,,,,,,,,,,,374.458,376.257,"[4,1,3,6,2,7,8,5]","[[-0.3,0.2],[0.3,0.2]]","[[0.125,-0.2],[-0.125,-0.2]]",-0.08,-0.217777778,1,0,0,1.266,o2_image,376.258,1,376.757,376.757,378.757,0,0,0,0,1,,,,,,,,,,,,,,,,,,,,,,,,,,,,,,,,,,,,,,,,,,,,,,,,,,
,,6550ff72185a13c48b10bd9a,29,female,2024-04-19_18h37.14.087,stockport_simplified,2022.2.4,MacIntel,30.3030303,661e456ee6de07e70aa9ef7b,66229da24ab04f343fd9d16a,,,,,,,,,,,,,,,,,,,,,,,,,,,,,,,,,,,,,,,,,,,,,,,,,,,,,,,,1,3,63,17,1,B,Y,N,o2_image,stimuli/out2.png,stimuli/out1.png,stimuli/correct_out2.png,,,,,,,,,,,,,,,,,,,,,,,,,,,,,,,,,,,,,,
,,6550ff72185a13c48b10bd9a,29,female,2024-04-19_18h37.14.087,stockport_simplified,2022.2.4,MacIntel,30.3030303,661e456ee6de07e70aa9ef7b,66229da24ab04f343fd9d16a,,,,,,,,,,,,,,,,,,,,,,,,,,,,,,,,,,378.758,380.657,"[4,1,3,6,2,7,8,5]","[[-0.3,0.2],[0.3,0.2]]","[[0.125,-0.2],[-0.125,-0.2]]",0.126666667,-0.175555556,1,0,0,1.366,o1_image,380.66,1,381.158,381.158,383.157,0,0,0,0,1,,,,,,,,,,,,,,,,,,,,,,,,,,,,,,,,,,,,,,,,,,,,,,,,,,
,,6550ff72185a13c48b10bd9a,29,female,2024-04-19_18h37.14.087,stockport_simplified,2022.2.4,MacIntel,30.3030303,661e456ee6de07e70aa9ef7b,66229da24ab04f343fd9d16a,,,,,,,,,,,,,,,,,,,,,,,,,,,,,,,,,,,,,,,,,,,,,,,,,,,,,,,,1,4,64,7,1,A,Y,N,o1_image,stimuli/out1.png,stimuli/correct_out1.png,stimuli/out2.png,,,,,,,,,,,,,,,,,,,,,,,,,,,,,,,,,,,,,,
,,6550ff72185a13c48b10bd9a,29,female,2024-04-19_18h37.14.087,stockport_simplified,2022.2.4,MacIntel,30.3030303,661e456ee6de07e70aa9ef7b,66229da24ab04f343fd9d16a,,,,,,,,,,,,,,,,,,,,,,,,,,,,,,,,,,383.159,384.957,"[4,1,3,6,2,7,8,5]","[[0.3,0.2],[-0.3,0.2]]","[[0.125,-0.2],[-0.125,-0.2]]",0.13,-0.177777778,1,0,0,1.266,o1_image,384.959,1,385.457,385.457,387.457,0,0,0,0,1,,,,,,,,,,,,,,,,,,,,,,,,,,,,,,,,,,,,,,,,,,,,,,,,,,
,,6550ff72185a13c48b10bd9a,29,female,2024-04-19_18h37.14.087,stockport_simplified,2022.2.4,MacIntel,30.3030303,661e456ee6de07e70aa9ef7b,66229da24ab04f343fd9d16a,,,,,,,,,,,,,,,,,,,,,,,,,,,,,,,,,,,,,,,,,,,,,,,,,,,,,,,,1,5,65,4,1,A,X,N,o1_image,stimuli/out1.png,stimuli/correct_out1.png,stimuli/out2.png,,,,,,,,,,,,,,,,,,,,,,,,,,,,,,,,,,,,,,
,,6550ff72185a13c48b10bd9a,29,female,2024-04-19_18h37.14.087,stockport_simplified,2022.2.4,MacIntel,30.3030303,661e456ee6de07e70aa9ef7b,66229da24ab04f343fd9d16a,,,,,,,,,,,,,,,,,,,,,,,,,,,,,,,,,,387.457,388.891,"[4,1,3,6,2,7,8,5]","[[0.3,0.2],[-0.3,0.2]]","[[0.125,-0.2],[-0.125,-0.2]]",0.13,-0.177777778,1,0,0,0.932,o1_image,388.892,0,389.391,389.391,391.391,0,0,0,0,1,,,,,,,,,,,,,,,,,,,,,,,,,,,,,,,,,,,,,,,,,,,,,,,,,,
,,6550ff72185a13c48b10bd9a,29,female,2024-04-19_18h37.14.087,stockport_simplified,2022.2.4,MacIntel,30.3030303,661e456ee6de07e70aa9ef7b,66229da24ab04f343fd9d16a,,,,,,,,,,,,,,,,,,,,,,,,,,,,,,,,,,,,,,,,,,,,,,,,,,,,,,,,1,6,66,58,1,N,M,D,o2_image,stimuli/out2.png,stimuli/out1.png,stimuli/correct_out2.png,,,,,,,,,,,,,,,,,,,,,,,,,,,,,,,,,,,,,,
,,6550ff72185a13c48b10bd9a,29,female,2024-04-19_18h37.14.087,stockport_simplified,2022.2.4,MacIntel,30.3030303,661e456ee6de07e70aa9ef7b,66229da24ab04f343fd9d16a,,,,,,,,,,,,,,,,,,,,,,,,,,,,,,,,,,391.392,393.891,"[4,1,3,6,2,7,8,5]","[[0.3,0.2],[-0.3,0.2]]","[[0.125,-0.2],[-0.125,-0.2]]",-0.091111111,-0.172222222,1,0,0,1.966,o2_image,393.893,1,394.391,394.391,396.391,0,0,0,0,1,,,,,,,,,,,,,,,,,,,,,,,,,,,,,,,,,,,,,,,,,,,,,,,,,,
,,6550ff72185a13c48b10bd9a,29,female,2024-04-19_18h37.14.087,stockport_simplified,2022.2.4,MacIntel,30.3030303,661e456ee6de07e70aa9ef7b,66229da24ab04f343fd9d16a,,,,,,,,,,,,,,,,,,,,,,,,,,,,,,,,,,,,,,,,,,,,,,,,,,,,,,,,1,7,67,15,1,B,Y,N,o2_image,stimuli/out2.png,stimuli/out1.png,stimuli/correct_out2.png,,,,,,,,,,,,,,,,,,,,,,,,,,,,,,,,,,,,,,
,,6550ff72185a13c48b10bd9a,29,female,2024-04-19_18h37.14.087,stockport_simplified,2022.2.4,MacIntel,30.3030303,661e456ee6de07e70aa9ef7b,66229da24ab04f343fd9d16a,,,,,,,,,,,,,,,,,,,,,,,,,,,,,,,,,,396.392,399.025,"[4,1,3,6,2,7,8,5]","[[-0.3,0.2],[0.3,0.2]]","[[-0.125,-0.2],[0.125,-0.2]]",-0.147777778,-0.195555556,1,0,0,2.099,o1_image,399.026,1,399.524,399.524,401.525,0,0,0,0,1,,,,,,,,,,,,,,,,,,,,,,,,,,,,,,,,,,,,,,,,,,,,,,,,,,
,,6550ff72185a13c48b10bd9a,29,female,2024-04-19_18h37.14.087,stockport_simplified,2022.2.4,MacIntel,30.3030303,661e456ee6de07e70aa9ef7b,66229da24ab04f343fd9d16a,,,,,,,,,,,,,,,,,,,,,,,,,,,,,,,,,,,,,,,,,,,,,,,,,,,,,,,,1,8,68,30,1,A,X,N,o1_image,stimuli/out1.png,stimuli/correct_out1.png,stimuli/out2.png,,,,,,,,,,,,,,,,,,,,,,,,,,,,,,,,,,,,,,
,,6550ff72185a13c48b10bd9a,29,female,2024-04-19_18h37.14.087,stockport_simplified,2022.2.4,MacIntel,30.3030303,661e456ee6de07e70aa9ef7b,66229da24ab04f343fd9d16a,,,,,,,,,,,,,,,,,,,,,,,,,,,,,,,,,,401.525,403.724,"[4,1,3,6,2,7,8,5]","[[0.3,0.2],[-0.3,0.2]]","[[0.125,-0.2],[-0.125,-0.2]]",0.145555556,-0.173333333,1,0,0,1.666,o1_image,403.726,1,404.225,404.225,406.225,0,0,0,0,1,,,,,,,,,,,,,,,,,,,,,,,,,,,,,,,,,,,,,,,,,,,,,,,,,,
,,6550ff72185a13c48b10bd9a,29,female,2024-04-19_18h37.14.087,stockport_simplified,2022.2.4,MacIntel,30.3030303,661e456ee6de07e70aa9ef7b,66229da24ab04f343fd9d16a,,,,,,,,,,,,,,,,,,,,,,,,,,,,,,,,,,,,,,,,,,,,,,,,,,,,,,,,1,9,69,36,1,A,Y,N,o1_image,stimuli/out1.png,stimuli/correct_out1.png,stimuli/out2.png,,,,,,,,,,,,,,,,,,,,,,,,,,,,,,,,,,,,,,
,,6550ff72185a13c48b10bd9a,29,female,2024-04-19_18h37.14.087,stockport_simplified,2022.2.4,MacIntel,30.3030303,661e456ee6de07e70aa9ef7b,66229da24ab04f343fd9d16a,,,,,,,,,,,,,,,,,,,,,,,,,,,,,,,,,,406.226,408.057,"[4,1,3,6,2,7,8,5]","[[0.3,0.2],[-0.3,0.2]]","[[-0.125,-0.2],[0.125,-0.2]]",0.137777778,-0.175555556,1,0,0,1.299,o2_image,408.058,1,408.558,408.558,410.558,0,0,0,0,1,,,,,,,,,,,,,,,,,,,,,,,,,,,,,,,,,,,,,,,,,,,,,,,,,,
,,6550ff72185a13c48b10bd9a,29,female,2024-04-19_18h37.14.087,stockport_simplified,2022.2.4,MacIntel,30.3030303,661e456ee6de07e70aa9ef7b,66229da24ab04f343fd9d16a,,,,,,,,,,,,,,,,,,,,,,,,,,,,,,,,,,,,,,,,,,,,,,,,,,,,,,,,1,10,70,56,1,N,M,D,o2_image,stimuli/out2.png,stimuli/out1.png,stimuli/correct_out2.png,,,,,,,,,,,,,,,,,,,,,,,,,,,,,,,,,,,,,,
,,6550ff72185a13c48b10bd9a,29,female,2024-04-19_18h37.14.087,stockport_simplified,2022.2.4,MacIntel,30.3030303,661e456ee6de07e70aa9ef7b,66229da24ab04f343fd9d16a,,,,,,,,,,,,,,,,,,,,,,,,,,,,,,,,,,410.559,412.624,"[4,1,3,6,2,7,8,5]","[[-0.3,0.2],[0.3,0.2]]","[[0.125,-0.2],[-0.125,-0.2]]",0.13,-0.157777778,1,0,0,1.532,o1_image,412.625,1,413.125,413.125,415.125,0,0,0,0,1,,,,,,,,,,,,,,,,,,,,,,,,,,,,,,,,,,,,,,,,,,,,,,,,,,
,,6550ff72185a13c48b10bd9a,29,female,2024-04-19_18h37.14.087,stockport_simplified,2022.2.4,MacIntel,30.3030303,661e456ee6de07e70aa9ef7b,66229da24ab04f343fd9d16a,,,,,,,,,,,,,,,,,,,,,,,,,,,,,,,,,,,,,,,,,,,,,,,,,,,,,,,,1,11,71,39,1,A,Y,N,o1_image,stimuli/out1.png,stimuli/correct_out1.png,stimuli/out2.png,,,,,,,,,,,,,,,,,,,,,,,,,,,,,,,,,,,,,,
,,6550ff72185a13c48b10bd9a,29,female,2024-04-19_18h37.14.087,stockport_simplified,2022.2.4,MacIntel,30.3030303,661e456ee6de07e70aa9ef7b,66229da24ab04f343fd9d16a,,,,,,,,,,,,,,,,,,,,,,,,,,,,,,,,,,415.126,417.392,"[4,1,3,6,2,7,8,5]","[[0.3,0.2],[-0.3,0.2]]","[[0.125,-0.2],[-0.125,-0.2]]",0.126666667,-0.208888889,1,0,0,1.732,o1_image,417.393,1,417.892,417.892,419.892,0,0,0,0,1,,,,,,,,,,,,,,,,,,,,,,,,,,,,,,,,,,,,,,,,,,,,,,,,,,
,,6550ff72185a13c48b10bd9a,29,female,2024-04-19_18h37.14.087,stockport_simplified,2022.2.4,MacIntel,30.3030303,661e456ee6de07e70aa9ef7b,66229da24ab04f343fd9d16a,,,,,,,,,,,,,,,,,,,,,,,,,,,,,,,,,,,,,,,,,,,,,,,,,,,,,,,,1,12,72,24,1,N,M,C,o1_image,stimuli/out1.png,stimuli/correct_out1.png,stimuli/out2.png,,,,,,,,,,,,,,,,,,,,,,,,,,,,,,,,,,,,,,
,,6550ff72185a13c48b10bd9a,29,female,2024-04-19_18h37.14.087,stockport_simplified,2022.2.4,MacIntel,30.3030303,661e456ee6de07e70aa9ef7b,66229da24ab04f343fd9d16a,,,,,,,,,,,,,,,,,,,,,,,,,,,,,,,,,,419.892,421.925,"[4,1,3,6,2,7,8,5]","[[0.3,0.2],[-0.3,0.2]]","[[-0.125,-0.2],[0.125,-0.2]]",-0.112222222,-0.203333333,1,0,0,1.5,o1_image,421.926,1,422.425,422.425,424.426,0,0,0,0,1,,,,,,,,,,,,,,,,,,,,,,,,,,,,,,,,,,,,,,,,,,,,,,,,,,
,,6550ff72185a13c48b10bd9a,29,female,2024-04-19_18h37.14.087,stockport_simplified,2022.2.4,MacIntel,30.3030303,661e456ee6de07e70aa9ef7b,66229da24ab04f343fd9d16a,,,,,,,,,,,,,,,,,,,,,,,,,,,,,,,,,,,,,,,,,,,,,,,,,,,,,,,,1,13,73,53,1,N,M,C,o1_image,stimuli/out1.png,stimuli/correct_out1.png,stimuli/out2.png,,,,,,,,,,,,,,,,,,,,,,,,,,,,,,,,,,,,,,
,,6550ff72185a13c48b10bd9a,29,female,2024-04-19_18h37.14.087,stockport_simplified,2022.2.4,MacIntel,30.3030303,661e456ee6de07e70aa9ef7b,66229da24ab04f343fd9d16a,,,,,,,,,,,,,,,,,,,,,,,,,,,,,,,,,,424.426,426.292,"[4,1,3,6,2,7,8,5]","[[-0.3,0.2],[0.3,0.2]]","[[-0.125,-0.2],[0.125,-0.2]]",0.144444444,-0.233333333,1,0,0,1.333,o2_image,426.294,1,426.792,426.792,428.791,0,0,0,0,1,,,,,,,,,,,,,,,,,,,,,,,,,,,,,,,,,,,,,,,,,,,,,,,,,,
,,6550ff72185a13c48b10bd9a,29,female,2024-04-19_18h37.14.087,stockport_simplified,2022.2.4,MacIntel,30.3030303,661e456ee6de07e70aa9ef7b,66229da24ab04f343fd9d16a,,,,,,,,,,,,,,,,,,,,,,,,,,,,,,,,,,,,,,,,,,,,,,,,,,,,,,,,1,14,74,59,1,N,M,D,o2_image,stimuli/out2.png,stimuli/out1.png,stimuli/correct_out2.png,,,,,,,,,,,,,,,,,,,,,,,,,,,,,,,,,,,,,,
,,6550ff72185a13c48b10bd9a,29,female,2024-04-19_18h37.14.087,stockport_simplified,2022.2.4,MacIntel,30.3030303,661e456ee6de07e70aa9ef7b,66229da24ab04f343fd9d16a,,,,,,,,,,,,,,,,,,,,,,,,,,,,,,,,,,428.792,430.959,"[4,1,3,6,2,7,8,5]","[[0.3,0.2],[-0.3,0.2]]","[[0.125,-0.2],[-0.125,-0.2]]",0.092222222,-0.208888889,1,0,0,1.666,o1_image,430.961,1,431.459,431.459,433.459,0,0,0,0,1,,,,,,,,,,,,,,,,,,,,,,,,,,,,,,,,,,,,,,,,,,,,,,,,,,
,,6550ff72185a13c48b10bd9a,29,female,2024-04-19_18h37.14.087,stockport_simplified,2022.2.4,MacIntel,30.3030303,661e456ee6de07e70aa9ef7b,66229da24ab04f343fd9d16a,,,,,,,,,,,,,,,,,,,,,,,,,,,,,,,,,,,,,,,,,,,,,,,,,,,,,,,,1,15,75,33,1,A,X,N,o1_image,stimuli/out1.png,stimuli/correct_out1.png,stimuli/out2.png,,,,,,,,,,,,,,,,,,,,,,,,,,,,,,,,,,,,,,
,,6550ff72185a13c48b10bd9a,29,female,2024-04-19_18h37.14.087,stockport_simplified,2022.2.4,MacIntel,30.3030303,661e456ee6de07e70aa9ef7b,66229da24ab04f343fd9d16a,,,,,,,,,,,,,,,,,,,,,,,,,,,,,,,,,,433.46,435.393,"[4,1,3,6,2,7,8,5]","[[0.3,0.2],[-0.3,0.2]]","[[-0.125,-0.2],[0.125,-0.2]]",0.112222222,-0.188888889,1,0,0,1.399,o2_image,435.394,1,435.893,435.893,437.893,0,0,0,0,1,,,,,,,,,,,,,,,,,,,,,,,,,,,,,,,,,,,,,,,,,,,,,,,,,,
,,6550ff72185a13c48b10bd9a,29,female,2024-04-19_18h37.14.087,stockport_simplified,2022.2.4,MacIntel,30.3030303,661e456ee6de07e70aa9ef7b,66229da24ab04f343fd9d16a,,,,,,,,,,,,,,,,,,,,,,,,,,,,,,,,,,,,,,,,,,,,,,,,,,,,,,,,1,16,76,27,1,N,M,D,o2_image,stimuli/out2.png,stimuli/out1.png,stimuli/correct_out2.png,,,,,,,,,,,,,,,,,,,,,,,,,,,,,,,,,,,,,,
,,6550ff72185a13c48b10bd9a,29,female,2024-04-19_18h37.14.087,stockport_simplified,2022.2.4,MacIntel,30.3030303,661e456ee6de07e70aa9ef7b,66229da24ab04f343fd9d16a,,,,,,,,,,,,,,,,,,,,,,,,,,,,,,,,,,437.894,439.792,"[4,1,3,6,2,7,8,5]","[[0.3,0.2],[-0.3,0.2]]","[[-0.125,-0.2],[0.125,-0.2]]",0.086666667,-0.178888889,1,0,0,1.366,o2_image,439.794,1,440.292,440.293,442.293,0,0,0,0,1,,,,,,,,,,,,,,,,,,,,,,,,,,,,,,,,,,,,,,,,,,,,,,,,,,
,,6550ff72185a13c48b10bd9a,29,female,2024-04-19_18h37.14.087,stockport_simplified,2022.2.4,MacIntel,30.3030303,661e456ee6de07e70aa9ef7b,66229da24ab04f343fd9d16a,,,,,,,,,,,,,,,,,,,,,,,,,,,,,,,,,,,,,,,,,,,,,,,,,,,,,,,,1,17,77,49,1,B,Y,N,o2_image,stimuli/out2.png,stimuli/out1.png,stimuli/correct_out2.png,,,,,,,,,,,,,,,,,,,,,,,,,,,,,,,,,,,,,,
,,6550ff72185a13c48b10bd9a,29,female,2024-04-19_18h37.14.087,stockport_simplified,2022.2.4,MacIntel,30.3030303,661e456ee6de07e70aa9ef7b,66229da24ab04f343fd9d16a,,,,,,,,,,,,,,,,,,,,,,,,,,,,,,,,,,442.294,443.659,"[4,1,3,6,2,7,8,5]","[[0.3,0.2],[-0.3,0.2]]","[[-0.125,-0.2],[0.125,-0.2]]",0.11,-0.167777778,1,0,0,0.832,o2_image,443.661,1,444.159,444.16,446.16,0,0,0,0,1,,,,,,,,,,,,,,,,,,,,,,,,,,,,,,,,,,,,,,,,,,,,,,,,,,
,,6550ff72185a13c48b10bd9a,29,female,2024-04-19_18h37.14.087,stockport_simplified,2022.2.4,MacIntel,30.3030303,661e456ee6de07e70aa9ef7b,66229da24ab04f343fd9d16a,,,,,,,,,,,,,,,,,,,,,,,,,,,,,,,,,,,,,,,,,,,,,,,,,,,,,,,,1,18,78,11,1,B,X,N,o2_image,stimuli/out2.png,stimuli/out1.png,stimuli/correct_out2.png,,,,,,,,,,,,,,,,,,,,,,,,,,,,,,,,,,,,,,
,,6550ff72185a13c48b10bd9a,29,female,2024-04-19_18h37.14.087,stockport_simplified,2022.2.4,MacIntel,30.3030303,661e456ee6de07e70aa9ef7b,66229da24ab04f343fd9d16a,,,,,,,,,,,,,,,,,,,,,,,,,,,,,,,,,,446.16,447.726,"[4,1,3,6,2,7,8,5]","[[-0.3,0.2],[0.3,0.2]]","[[0.125,-0.2],[-0.125,-0.2]]",-0.092222222,-0.19,1,0,0,1.033,o2_image,447.727,1,448.227,448.227,450.226,0,0,0,0,1,,,,,,,,,,,,,,,,,,,,,,,,,,,,,,,,,,,,,,,,,,,,,,,,,,
,,6550ff72185a13c48b10bd9a,29,female,2024-04-19_18h37.14.087,stockport_simplified,2022.2.4,MacIntel,30.3030303,661e456ee6de07e70aa9ef7b,66229da24ab04f343fd9d16a,,,,,,,,,,,,,,,,,,,,,,,,,,,,,,,,,,,,,,,,,,,,,,,,,,,,,,,,1,19,79,29,1,N,M,D,o2_image,stimuli/out2.png,stimuli/out1.png,stimuli/correct_out2.png,,,,,,,,,,,,,,,,,,,,,,,,,,,,,,,,,,,,,,
,,6550ff72185a13c48b10bd9a,29,female,2024-04-19_18h37.14.087,stockport_simplified,2022.2.4,MacIntel,30.3030303,661e456ee6de07e70aa9ef7b,66229da24ab04f343fd9d16a,,,,,,,,,,,,,,,,,,,,,,,,,,,,,,,,,,450.227,452.127,"[4,1,3,6,2,7,8,5]","[[-0.3,0.2],[0.3,0.2]]","[[0.125,-0.2],[-0.125,-0.2]]",-0.111111111,-0.183333333,1,0,0,1.366,o2_image,452.128,1,452.627,452.627,454.627,0,0,0,0,1,,,,,,,,,,,,,,,,,,,,,,,,,,,,,,,,,,,,,,,,,,,,,,,,,,
,,6550ff72185a13c48b10bd9a,29,female,2024-04-19_18h37.14.087,stockport_simplified,2022.2.4,MacIntel,30.3030303,661e456ee6de07e70aa9ef7b,66229da24ab04f343fd9d16a,,,,,,,,,,,,,,,,,,,,,,,,,,,,,,,,,,,,,,,,,,,,,,,,,,,,,,,,1,20,80,47,1,B,Y,N,o2_image,stimuli/out2.png,stimuli/out1.png,stimuli/correct_out2.png,,,,,,,,,,,,,,,,,,,,,,,,,,,,,,,,,,,,,,
,,6550ff72185a13c48b10bd9a,29,female,2024-04-19_18h37.14.087,stockport_simplified,2022.2.4,MacIntel,30.3030303,661e456ee6de07e70aa9ef7b,66229da24ab04f343fd9d16a,,,,,,,,,,,,,,,,,,,,,,,,,,,,,,,,,,454.627,456.227,"[4,1,3,6,2,7,8,5]","[[0.3,0.2],[-0.3,0.2]]","[[0.125,-0.2],[-0.125,-0.2]]",0.096666667,-0.177777778,1,0,0,1.066,o1_image,456.228,1,456.727,456.727,458.727,0,0,0,0,1,,,,,,,,,,,,,,,,,,,,,,,,,,,,,,,,,,,,,,,,,,,,,,,,,,
,,6550ff72185a13c48b10bd9a,29,female,2024-04-19_18h37.14.087,stockport_simplified,2022.2.4,MacIntel,30.3030303,661e456ee6de07e70aa9ef7b,66229da24ab04f343fd9d16a,,,,,,,,,,,,,,,,,,,,,,,,,,,,,,,,,,,,,,,,,,,,,,,,,,,,,,,,1,21,81,32,1,A,X,N,o1_image,stimuli/out1.png,stimuli/correct_out1.png,stimuli/out2.png,,,,,,,,,,,,,,,,,,,,,,,,,,,,,,,,,,,,,,
,,6550ff72185a13c48b10bd9a,29,female,2024-04-19_18h37.14.087,stockport_simplified,2022.2.4,MacIntel,30.3030303,661e456ee6de07e70aa9ef7b,66229da24ab04f343fd9d16a,,,,,,,,,,,,,,,,,,,,,,,,,,,,,,,,,,458.727,460.427,"[4,1,3,6,2,7,8,5]","[[0.3,0.2],[-0.3,0.2]]","[[-0.125,-0.2],[0.125,-0.2]]",0.107777778,-0.177777778,1,0,0,1.199,o2_image,460.428,1,460.927,460.927,462.926,0,0,0,0,1,,,,,,,,,,,,,,,,,,,,,,,,,,,,,,,,,,,,,,,,,,,,,,,,,,
,,6550ff72185a13c48b10bd9a,29,female,2024-04-19_18h37.14.087,stockport_simplified,2022.2.4,MacIntel,30.3030303,661e456ee6de07e70aa9ef7b,66229da24ab04f343fd9d16a,,,,,,,,,,,,,,,,,,,,,,,,,,,,,,,,,,,,,,,,,,,,,,,,,,,,,,,,1,22,82,19,1,B,Y,N,o2_image,stimuli/out2.png,stimuli/out1.png,stimuli/correct_out2.png,,,,,,,,,,,,,,,,,,,,,,,,,,,,,,,,,,,,,,
,,6550ff72185a13c48b10bd9a,29,female,2024-04-19_18h37.14.087,stockport_simplified,2022.2.4,MacIntel,30.3030303,661e456ee6de07e70aa9ef7b,66229da24ab04f343fd9d16a,,,,,,,,,,,,,,,,,,,,,,,,,,,,,,,,,,462.927,464.794,"[4,1,3,6,2,7,8,5]","[[-0.3,0.2],[0.3,0.2]]","[[-0.125,-0.2],[0.125,-0.2]]",-0.118888889,-0.18,1,0,0,1.366,o1_image,464.795,1,465.294,465.294,467.294,0,0,0,0,1,,,,,,,,,,,,,,,,,,,,,,,,,,,,,,,,,,,,,,,,,,,,,,,,,,
,,6550ff72185a13c48b10bd9a,29,female,2024-04-19_18h37.14.087,stockport_simplified,2022.2.4,MacIntel,30.3030303,661e456ee6de07e70aa9ef7b,66229da24ab04f343fd9d16a,,,,,,,,,,,,,,,,,,,,,,,,,,,,,,,,,,,,,,,,,,,,,,,,,,,,,,,,1,23,83,35,1,A,Y,N,o1_image,stimuli/out1.png,stimuli/correct_out1.png,stimuli/out2.png,,,,,,,,,,,,,,,,,,,,,,,,,,,,,,,,,,,,,,
,,6550ff72185a13c48b10bd9a,29,female,2024-04-19_18h37.14.087,stockport_simplified,2022.2.4,MacIntel,30.3030303,661e456ee6de07e70aa9ef7b,66229da24ab04f343fd9d16a,,,,,,,,,,,,,,,,,,,,,,,,,,,,,,,,,,467.294,468.86,"[4,1,3,6,2,7,8,5]","[[0.3,0.2],[-0.3,0.2]]","[[0.125,-0.2],[-0.125,-0.2]]",-0.101111111,-0.194444444,1,0,0,1.032,o2_image,468.861,1,469.361,469.361,471.36,0,0,0,0,1,,,,,,,,,,,,,,,,,,,,,,,,,,,,,,,,,,,,,,,,,,,,,,,,,,
,,6550ff72185a13c48b10bd9a,29,female,2024-04-19_18h37.14.087,stockport_simplified,2022.2.4,MacIntel,30.3030303,661e456ee6de07e70aa9ef7b,66229da24ab04f343fd9d16a,,,,,,,,,,,,,,,,,,,,,,,,,,,,,,,,,,,,,,,,,,,,,,,,,,,,,,,,1,24,84,42,1,B,X,N,o2_image,stimuli/out2.png,stimuli/out1.png,stimuli/correct_out2.png,,,,,,,,,,,,,,,,,,,,,,,,,,,,,,,,,,,,,,
,,6550ff72185a13c48b10bd9a,29,female,2024-04-19_18h37.14.087,stockport_simplified,2022.2.4,MacIntel,30.3030303,661e456ee6de07e70aa9ef7b,66229da24ab04f343fd9d16a,,,,,,,,,,,,,,,,,,,,,,,,,,,,,,,,,,471.361,473.061,"[4,1,3,6,2,7,8,5]","[[-0.3,0.2],[0.3,0.2]]","[[-0.125,-0.2],[0.125,-0.2]]",-0.128888889,-0.21,1,0,0,1.166,o1_image,473.062,1,473.561,473.561,475.561,0,0,0,0,1,,,,,,,,,,,,,,,,,,,,,,,,,,,,,,,,,,,,,,,,,,,,,,,,,,
,,6550ff72185a13c48b10bd9a,29,female,2024-04-19_18h37.14.087,stockport_simplified,2022.2.4,MacIntel,30.3030303,661e456ee6de07e70aa9ef7b,66229da24ab04f343fd9d16a,,,,,,,,,,,,,,,,,,,,,,,,,,,,,,,,,,,,,,,,,,,,,,,,,,,,,,,,1,25,85,34,1,A,X,N,o1_image,stimuli/out1.png,stimuli/correct_out1.png,stimuli/out2.png,,,,,,,,,,,,,,,,,,,,,,,,,,,,,,,,,,,,,,
,,6550ff72185a13c48b10bd9a,29,female,2024-04-19_18h37.14.087,stockport_simplified,2022.2.4,MacIntel,30.3030303,661e456ee6de07e70aa9ef7b,66229da24ab04f343fd9d16a,,,,,,,,,,,,,,,,,,,,,,,,,,,,,,,,,,475.561,477.327,"[4,1,3,6,2,7,8,5]","[[0.3,0.2],[-0.3,0.2]]","[[-0.125,-0.2],[0.125,-0.2]]",0.111111111,-0.184444444,1,0,0,1.266,o2_image,477.329,1,477.828,477.828,479.828,0,0,0,0,1,,,,,,,,,,,,,,,,,,,,,,,,,,,,,,,,,,,,,,,,,,,,,,,,,,
,,6550ff72185a13c48b10bd9a,29,female,2024-04-19_18h37.14.087,stockport_simplified,2022.2.4,MacIntel,30.3030303,661e456ee6de07e70aa9ef7b,66229da24ab04f343fd9d16a,,,,,,,,,,,,,,,,,,,,,,,,,,,,,,,,,,,,,,,,,,,,,,,,,,,,,,,,1,26,86,44,1,B,X,N,o2_image,stimuli/out2.png,stimuli/out1.png,stimuli/correct_out2.png,,,,,,,,,,,,,,,,,,,,,,,,,,,,,,,,,,,,,,
,,6550ff72185a13c48b10bd9a,29,female,2024-04-19_18h37.14.087,stockport_simplified,2022.2.4,MacIntel,30.3030303,661e456ee6de07e70aa9ef7b,66229da24ab04f343fd9d16a,,,,,,,,,,,,,,,,,,,,,,,,,,,,,,,,,,479.828,481.394,"[4,1,3,6,2,7,8,5]","[[-0.3,0.2],[0.3,0.2]]","[[-0.125,-0.2],[0.125,-0.2]]",-0.113333333,-0.191111111,1,0,0,1.033,o1_image,481.395,1,481.894,481.894,483.894,0,0,0,0,1,,,,,,,,,,,,,,,,,,,,,,,,,,,,,,,,,,,,,,,,,,,,,,,,,,
,,6550ff72185a13c48b10bd9a,29,female,2024-04-19_18h37.14.087,stockport_simplified,2022.2.4,MacIntel,30.3030303,661e456ee6de07e70aa9ef7b,66229da24ab04f343fd9d16a,,,,,,,,,,,,,,,,,,,,,,,,,,,,,,,,,,,,,,,,,,,,,,,,,,,,,,,,1,27,87,9,1,A,Y,N,o1_image,stimuli/out1.png,stimuli/correct_out1.png,stimuli/out2.png,,,,,,,,,,,,,,,,,,,,,,,,,,,,,,,,,,,,,,
,,6550ff72185a13c48b10bd9a,29,female,2024-04-19_18h37.14.087,stockport_simplified,2022.2.4,MacIntel,30.3030303,661e456ee6de07e70aa9ef7b,66229da24ab04f343fd9d16a,,,,,,,,,,,,,,,,,,,,,,,,,,,,,,,,,,483.895,486.594,"[4,1,3,6,2,7,8,5]","[[-0.3,0.2],[0.3,0.2]]","[[0.125,-0.2],[-0.125,-0.2]]",0.124444444,-0.187777778,1,0,0,2.165,o1_image,486.595,1,487.095,487.095,489.095,0,0,0,0,1,,,,,,,,,,,,,,,,,,,,,,,,,,,,,,,,,,,,,,,,,,,,,,,,,,
,,6550ff72185a13c48b10bd9a,29,female,2024-04-19_18h37.14.087,stockport_simplified,2022.2.4,MacIntel,30.3030303,661e456ee6de07e70aa9ef7b,66229da24ab04f343fd9d16a,,,,,,,,,,,,,,,,,,,,,,,,,,,,,,,,,,,,,,,,,,,,,,,,,,,,,,,,1,28,88,23,1,N,M,C,o1_image,stimuli/out1.png,stimuli/correct_out1.png,stimuli/out2.png,,,,,,,,,,,,,,,,,,,,,,,,,,,,,,,,,,,,,,
,,6550ff72185a13c48b10bd9a,29,female,2024-04-19_18h37.14.087,stockport_simplified,2022.2.4,MacIntel,30.3030303,661e456ee6de07e70aa9ef7b,66229da24ab04f343fd9d16a,,,,,,,,,,,,,,,,,,,,,,,,,,,,,,,,,,489.095,491.128,"[4,1,3,6,2,7,8,5]","[[0.3,0.2],[-0.3,0.2]]","[[0.125,-0.2],[-0.125,-0.2]]",0.091111111,-0.168888889,1,0,0,1.5,o1_image,491.13,1,491.628,491.628,493.628,0,0,0,0,1,,,,,,,,,,,,,,,,,,,,,,,,,,,,,,,,,,,,,,,,,,,,,,,,,,
,,6550ff72185a13c48b10bd9a,29,female,2024-04-19_18h37.14.087,stockport_simplified,2022.2.4,MacIntel,30.3030303,661e456ee6de07e70aa9ef7b,66229da24ab04f343fd9d16a,,,,,,,,,,,,,,,,,,,,,,,,,,,,,,,,,,,,,,,,,,,,,,,,,,,,,,,,1,29,89,0,1,A,X,N,o1_image,stimuli/out1.png,stimuli/correct_out1.png,stimuli/out2.png,,,,,,,,,,,,,,,,,,,,,,,,,,,,,,,,,,,,,,
,,6550ff72185a13c48b10bd9a,29,female,2024-04-19_18h37.14.087,stockport_simplified,2022.2.4,MacIntel,30.3030303,661e456ee6de07e70aa9ef7b,66229da24ab04f343fd9d16a,,,,,,,,,,,,,,,,,,,,,,,,,,,,,,,,,,493.629,495.862,"[4,1,3,6,2,7,8,5]","[[-0.3,0.2],[0.3,0.2]]","[[0.125,-0.2],[-0.125,-0.2]]",0.13,-0.186666667,1,0,0,1.699,o1_image,495.863,1,496.361,496.361,498.362,0,0,0,0,1,,,,,,,,,,,,,,,,,,,,,,,,,,,,,,,,,,,,,,,,,,,,,,,,,,
,,6550ff72185a13c48b10bd9a,29,female,2024-04-19_18h37.14.087,stockport_simplified,2022.2.4,MacIntel,30.3030303,661e456ee6de07e70aa9ef7b,66229da24ab04f343fd9d16a,,,,,,,,,,,,,,,,,,,,,,,,,,,,,,,,,,,,,,,,,,,,,,,,,,,,,,,,1,30,90,21,1,N,M,C,o1_image,stimuli/out1.png,stimuli/correct_out1.png,stimuli/out2.png,,,,,,,,,,,,,,,,,,,,,,,,,,,,,,,,,,,,,,
,,6550ff72185a13c48b10bd9a,29,female,2024-04-19_18h37.14.087,stockport_simplified,2022.2.4,MacIntel,30.3030303,661e456ee6de07e70aa9ef7b,66229da24ab04f343fd9d16a,,,,,,,,,,,,,,,,,,,,,,,,,,,,,,,,,,498.362,500.061,"[4,1,3,6,2,7,8,5]","[[0.3,0.2],[-0.3,0.2]]","[[-0.125,-0.2],[0.125,-0.2]]",0.085555556,-0.164444444,1,0,0,1.198,o2_image,500.063,1,500.562,500.562,502.562,0,0,0,0,1,,,,,,,,,,,,,,,,,,,,,,,,,,,,,,,,,,,,,,,,,,,,,,,,,,
,,6550ff72185a13c48b10bd9a,29,female,2024-04-19_18h37.14.087,stockport_simplified,2022.2.4,MacIntel,30.3030303,661e456ee6de07e70aa9ef7b,66229da24ab04f343fd9d16a,,,,,,,,,,,,,,,,,,,,,,,,,,,,,,,,,,,,,,,,,,,,,,,,,,,,,,,,1,31,91,18,1,B,Y,N,o2_image,stimuli/out2.png,stimuli/out1.png,stimuli/correct_out2.png,,,,,,,,,,,,,,,,,,,,,,,,,,,,,,,,,,,,,,
,,6550ff72185a13c48b10bd9a,29,female,2024-04-19_18h37.14.087,stockport_simplified,2022.2.4,MacIntel,30.3030303,661e456ee6de07e70aa9ef7b,66229da24ab04f343fd9d16a,,,,,,,,,,,,,,,,,,,,,,,,,,,,,,,,,,502.563,504.662,"[4,1,3,6,2,7,8,5]","[[0.3,0.2],[-0.3,0.2]]","[[0.125,-0.2],[-0.125,-0.2]]",-0.092222222,-0.157777778,1,0,0,1.567,o2_image,504.664,1,505.161,505.162,507.162,0,0,0,0,1,,,,,,,,,,,,,,,,,,,,,,,,,,,,,,,,,,,,,,,,,,,,,,,,,,
,,6550ff72185a13c48b10bd9a,29,female,2024-04-19_18h37.14.087,stockport_simplified,2022.2.4,MacIntel,30.3030303,661e456ee6de07e70aa9ef7b,66229da24ab04f343fd9d16a,,,,,,,,,,,,,,,,,,,,,,,,,,,,,,,,,,,,,,,,,,,,,,,,,,,,,,,,1,32,92,48,1,B,Y,N,o2_image,stimuli/out2.png,stimuli/out1.png,stimuli/correct_out2.png,,,,,,,,,,,,,,,,,,,,,,,,,,,,,,,,,,,,,,
,,6550ff72185a13c48b10bd9a,29,female,2024-04-19_18h37.14.087,stockport_simplified,2022.2.4,MacIntel,30.3030303,661e456ee6de07e70aa9ef7b,66229da24ab04f343fd9d16a,,,,,,,,,,,,,,,,,,,,,,,,,,,,,,,,,,507.163,509.129,"[4,1,3,6,2,7,8,5]","[[-0.3,0.2],[0.3,0.2]]","[[-0.125,-0.2],[0.125,-0.2]]",0.091111111,-0.221111111,1,0,0,1.434,o2_image,509.13,1,509.629,509.629,511.629,0,0,0,0,1,,,,,,,,,,,,,,,,,,,,,,,,,,,,,,,,,,,,,,,,,,,,,,,,,,
,,6550ff72185a13c48b10bd9a,29,female,2024-04-19_18h37.14.087,stockport_simplified,2022.2.4,MacIntel,30.3030303,661e456ee6de07e70aa9ef7b,66229da24ab04f343fd9d16a,,,,,,,,,,,,,,,,,,,,,,,,,,,,,,,,,,,,,,,,,,,,,,,,,,,,,,,,1,33,93,46,1,B,Y,N,o2_image,stimuli/out2.png,stimuli/out1.png,stimuli/correct_out2.png,,,,,,,,,,,,,,,,,,,,,,,,,,,,,,,,,,,,,,
,,6550ff72185a13c48b10bd9a,29,female,2024-04-19_18h37.14.087,stockport_simplified,2022.2.4,MacIntel,30.3030303,661e456ee6de07e70aa9ef7b,66229da24ab04f343fd9d16a,,,,,,,,,,,,,,,,,,,,,,,,,,,,,,,,,,511.629,513.629,"[4,1,3,6,2,7,8,5]","[[-0.3,0.2],[0.3,0.2]]","[[-0.125,-0.2],[0.125,-0.2]]",0.098888889,-0.171111111,1,0,0,1.466,o2_image,513.631,1,514.129,514.129,516.129,0,0,0,0,1,,,,,,,,,,,,,,,,,,,,,,,,,,,,,,,,,,,,,,,,,,,,,,,,,,
,,6550ff72185a13c48b10bd9a,29,female,2024-04-19_18h37.14.087,stockport_simplified,2022.2.4,MacIntel,30.3030303,661e456ee6de07e70aa9ef7b,66229da24ab04f343fd9d16a,,,,,,,,,,,,,,,,,,,,,,,,,,,,,,,,,,,,,,,,,,,,,,,,,,,,,,,,1,34,94,14,1,B,X,N,o2_image,stimuli/out2.png,stimuli/out1.png,stimuli/correct_out2.png,,,,,,,,,,,,,,,,,,,,,,,,,,,,,,,,,,,,,,
,,6550ff72185a13c48b10bd9a,29,female,2024-04-19_18h37.14.087,stockport_simplified,2022.2.4,MacIntel,30.3030303,661e456ee6de07e70aa9ef7b,66229da24ab04f343fd9d16a,,,,,,,,,,,,,,,,,,,,,,,,,,,,,,,,,,516.129,517.829,"[4,1,3,6,2,7,8,5]","[[-0.3,0.2],[0.3,0.2]]","[[-0.125,-0.2],[0.125,-0.2]]",-0.131111111,-0.185555556,1,0,0,1.2,o1_image,517.83,1,518.329,518.329,520.329,0,0,0,0,1,,,,,,,,,,,,,,,,,,,,,,,,,,,,,,,,,,,,,,,,,,,,,,,,,,
,,6550ff72185a13c48b10bd9a,29,female,2024-04-19_18h37.14.087,stockport_simplified,2022.2.4,MacIntel,30.3030303,661e456ee6de07e70aa9ef7b,66229da24ab04f343fd9d16a,,,,,,,,,,,,,,,,,,,,,,,,,,,,,,,,,,,,,,,,,,,,,,,,,,,,,,,,1,35,95,8,1,A,Y,N,o1_image,stimuli/out1.png,stimuli/correct_out1.png,stimuli/out2.png,,,,,,,,,,,,,,,,,,,,,,,,,,,,,,,,,,,,,,
,,6550ff72185a13c48b10bd9a,29,female,2024-04-19_18h37.14.087,stockport_simplified,2022.2.4,MacIntel,30.3030303,661e456ee6de07e70aa9ef7b,66229da24ab04f343fd9d16a,,,,,,,,,,,,,,,,,,,,,,,,,,,,,,,,,,520.33,522.363,"[4,1,3,6,2,7,8,5]","[[0.3,0.2],[-0.3,0.2]]","[[0.125,-0.2],[-0.125,-0.2]]",0.097777778,-0.195555556,1,0,0,1.499,o1_image,522.364,1,522.862,522.863,524.862,0,0,0,0,1,,,,,,,,,,,,,,,,,,,,,,,,,,,,,,,,,,,,,,,,,,,,,,,,,,
,,6550ff72185a13c48b10bd9a,29,female,2024-04-19_18h37.14.087,stockport_simplified,2022.2.4,MacIntel,30.3030303,661e456ee6de07e70aa9ef7b,66229da24ab04f343fd9d16a,,,,,,,,,,,,,,,,,,,,,,,,,,,,,,,,,,,,,,,,,,,,,,,,,,,,,,,,1,36,96,38,1,A,Y,N,o1_image,stimuli/out1.png,stimuli/correct_out1.png,stimuli/out2.png,,,,,,,,,,,,,,,,,,,,,,,,,,,,,,,,,,,,,,
,,6550ff72185a13c48b10bd9a,29,female,2024-04-19_18h37.14.087,stockport_simplified,2022.2.4,MacIntel,30.3030303,661e456ee6de07e70aa9ef7b,66229da24ab04f343fd9d16a,,,,,,,,,,,,,,,,,,,,,,,,,,,,,,,,,,524.863,527.863,"[4,1,3,6,2,7,8,5]","[[0.3,0.2],[-0.3,0.2]]","[[-0.125,-0.2],[0.125,-0.2]]",-0.154444444,-0.213333333,1,0,0,2.466,o1_image,527.864,1,528.363,528.363,530.363,0,0,0,0,1,,,,,,,,,,,,,,,,,,,,,,,,,,,,,,,,,,,,,,,,,,,,,,,,,,
,,6550ff72185a13c48b10bd9a,29,female,2024-04-19_18h37.14.087,stockport_simplified,2022.2.4,MacIntel,30.3030303,661e456ee6de07e70aa9ef7b,66229da24ab04f343fd9d16a,,,,,,,,,,,,,,,,,,,,,,,,,,,,,,,,,,,,,,,,,,,,,,,,,,,,,,,,1,37,97,22,1,N,M,C,o1_image,stimuli/out1.png,stimuli/correct_out1.png,stimuli/out2.png,,,,,,,,,,,,,,,,,,,,,,,,,,,,,,,,,,,,,,
,,6550ff72185a13c48b10bd9a,29,female,2024-04-19_18h37.14.087,stockport_simplified,2022.2.4,MacIntel,30.3030303,661e456ee6de07e70aa9ef7b,66229da24ab04f343fd9d16a,,,,,,,,,,,,,,,,,,,,,,,,,,,,,,,,,,530.364,531.996,"[4,1,3,6,2,7,8,5]","[[-0.3,0.2],[0.3,0.2]]","[[0.125,-0.2],[-0.125,-0.2]]",-0.093333333,-0.215555556,1,0,0,1.099,o2_image,531.997,1,532.495,532.496,534.496,0,0,0,0,1,,,,,,,,,,,,,,,,,,,,,,,,,,,,,,,,,,,,,,,,,,,,,,,,,,
,,6550ff72185a13c48b10bd9a,29,female,2024-04-19_18h37.14.087,stockport_simplified,2022.2.4,MacIntel,30.3030303,661e456ee6de07e70aa9ef7b,66229da24ab04f343fd9d16a,,,,,,,,,,,,,,,,,,,,,,,,,,,,,,,,,,,,,,,,,,,,,,,,,,,,,,,,1,38,98,16,1,B,Y,N,o2_image,stimuli/out2.png,stimuli/out1.png,stimuli/correct_out2.png,,,,,,,,,,,,,,,,,,,,,,,,,,,,,,,,,,,,,,
,,6550ff72185a13c48b10bd9a,29,female,2024-04-19_18h37.14.087,stockport_simplified,2022.2.4,MacIntel,30.3030303,661e456ee6de07e70aa9ef7b,66229da24ab04f343fd9d16a,,,,,,,,,,,,,,,,,,,,,,,,,,,,,,,,,,534.497,536.196,"[4,1,3,6,2,7,8,5]","[[-0.3,0.2],[0.3,0.2]]","[[0.125,-0.2],[-0.125,-0.2]]",0.147777778,-0.162222222,1,0,0,1.166,o1_image,536.198,1,536.696,536.696,538.697,0,0,0,0,1,,,,,,,,,,,,,,,,,,,,,,,,,,,,,,,,,,,,,,,,,,,,,,,,,,
,,6550ff72185a13c48b10bd9a,29,female,2024-04-19_18h37.14.087,stockport_simplified,2022.2.4,MacIntel,30.3030303,661e456ee6de07e70aa9ef7b,66229da24ab04f343fd9d16a,,,,,,,,,,,,,,,,,,,,,,,,,,,,,,,,,,,,,,,,,,,,,,,,,,,,,,,,1,39,99,37,1,A,Y,N,o1_image,stimuli/out1.png,stimuli/correct_out1.png,stimuli/out2.png,,,,,,,,,,,,,,,,,,,,,,,,,,,,,,,,,,,,,,
,,6550ff72185a13c48b10bd9a,29,female,2024-04-19_18h37.14.087,stockport_simplified,2022.2.4,MacIntel,30.3030303,661e456ee6de07e70aa9ef7b,66229da24ab04f343fd9d16a,,,,,,,,,,,,,,,,,,,,,,,,,,,,,,,,,,538.698,541.363,"[4,1,3,6,2,7,8,5]","[[0.3,0.2],[-0.3,0.2]]","[[-0.125,-0.2],[0.125,-0.2]]",-0.111111111,-0.184444444,1,0,0,2.133,o1_image,541.365,1,541.863,541.863,543.863,0,0,0,0,1,,,,,,,,,,,,,,,,,,,,,,,,,,,,,,,,,,,,,,,,,,,,,,,,,,
,,6550ff72185a13c48b10bd9a,29,female,2024-04-19_18h37.14.087,stockport_simplified,2022.2.4,MacIntel,30.3030303,661e456ee6de07e70aa9ef7b,66229da24ab04f343fd9d16a,,,,,,,,,,,,,,,,,,,,,,,,,,,,,,,,,,,,,,,,,,,,,,,,,,,,,,,,1,40,100,6,1,A,Y,N,o1_image,stimuli/out1.png,stimuli/correct_out1.png,stimuli/out2.png,,,,,,,,,,,,,,,,,,,,,,,,,,,,,,,,,,,,,,
,,6550ff72185a13c48b10bd9a,29,female,2024-04-19_18h37.14.087,stockport_simplified,2022.2.4,MacIntel,30.3030303,661e456ee6de07e70aa9ef7b,66229da24ab04f343fd9d16a,,,,,,,,,,,,,,,,,,,,,,,,,,,,,,,,,,543.864,545.83,"[4,1,3,6,2,7,8,5]","[[0.3,0.2],[-0.3,0.2]]","[[0.125,-0.2],[-0.125,-0.2]]",0.141111111,-0.21,1,0,0,1.434,o1_image,545.831,1,546.33,546.33,548.33,0,0,0,0,1,,,,,,,,,,,,,,,,,,,,,,,,,,,,,,,,,,,,,,,,,,,,,,,,,,
,,6550ff72185a13c48b10bd9a,29,female,2024-04-19_18h37.14.087,stockport_simplified,2022.2.4,MacIntel,30.3030303,661e456ee6de07e70aa9ef7b,66229da24ab04f343fd9d16a,,,,,,,,,,,,,,,,,,,,,,,,,,,,,,,,,,,,,,,,,,,,,,,,,,,,,,,,1,41,101,1,1,A,X,N,o1_image,stimuli/out1.png,stimuli/correct_out1.png,stimuli/out2.png,,,,,,,,,,,,,,,,,,,,,,,,,,,,,,,,,,,,,,
,,6550ff72185a13c48b10bd9a,29,female,2024-04-19_18h37.14.087,stockport_simplified,2022.2.4,MacIntel,30.3030303,661e456ee6de07e70aa9ef7b,66229da24ab04f343fd9d16a,,,,,,,,,,,,,,,,,,,,,,,,,,,,,,,,,,548.331,550.03,"[4,1,3,6,2,7,8,5]","[[-0.3,0.2],[0.3,0.2]]","[[0.125,-0.2],[-0.125,-0.2]]",0.105555556,-0.202222222,1,0,0,1.166,o1_image,550.032,1,550.531,550.531,552.53,0,0,0,0,1,,,,,,,,,,,,,,,,,,,,,,,,,,,,,,,,,,,,,,,,,,,,,,,,,,
,,6550ff72185a13c48b10bd9a,29,female,2024-04-19_18h37.14.087,stockport_simplified,2022.2.4,MacIntel,30.3030303,661e456ee6de07e70aa9ef7b,66229da24ab04f343fd9d16a,,,,,,,,,,,,,,,,,,,,,,,,,,,,,,,,,,,,,,,,,,,,,,,,,,,,,,,,1,42,102,5,1,A,Y,N,o1_image,stimuli/out1.png,stimuli/correct_out1.png,stimuli/out2.png,,,,,,,,,,,,,,,,,,,,,,,,,,,,,,,,,,,,,,
,,6550ff72185a13c48b10bd9a,29,female,2024-04-19_18h37.14.087,stockport_simplified,2022.2.4,MacIntel,30.3030303,661e456ee6de07e70aa9ef7b,66229da24ab04f343fd9d16a,,,,,,,,,,,,,,,,,,,,,,,,,,,,,,,,,,552.531,554.297,"[4,1,3,6,2,7,8,5]","[[-0.3,0.2],[0.3,0.2]]","[[-0.125,-0.2],[0.125,-0.2]]",-0.072222222,-0.197777778,1,0,0,1.233,o1_image,554.298,0,554.797,554.797,556.797,0,0,0,0,1,,,,,,,,,,,,,,,,,,,,,,,,,,,,,,,,,,,,,,,,,,,,,,,,,,
,,6550ff72185a13c48b10bd9a,29,female,2024-04-19_18h37.14.087,stockport_simplified,2022.2.4,MacIntel,30.3030303,661e456ee6de07e70aa9ef7b,66229da24ab04f343fd9d16a,,,,,,,,,,,,,,,,,,,,,,,,,,,,,,,,,,,,,,,,,,,,,,,,,,,,,,,,1,43,103,43,1,B,X,N,o2_image,stimuli/out2.png,stimuli/out1.png,stimuli/correct_out2.png,,,,,,,,,,,,,,,,,,,,,,,,,,,,,,,,,,,,,,
,,6550ff72185a13c48b10bd9a,29,female,2024-04-19_18h37.14.087,stockport_simplified,2022.2.4,MacIntel,30.3030303,661e456ee6de07e70aa9ef7b,66229da24ab04f343fd9d16a,,,,,,,,,,,,,,,,,,,,,,,,,,,,,,,,,,556.798,558.431,"[4,1,3,6,2,7,8,5]","[[-0.3,0.2],[0.3,0.2]]","[[0.125,-0.2],[-0.125,-0.2]]",0.095555556,-0.17,1,0,0,1.099,o1_image,558.432,1,558.931,558.931,560.93,0,0,0,0,1,,,,,,,,,,,,,,,,,,,,,,,,,,,,,,,,,,,,,,,,,,,,,,,,,,
,,6550ff72185a13c48b10bd9a,29,female,2024-04-19_18h37.14.087,stockport_simplified,2022.2.4,MacIntel,30.3030303,661e456ee6de07e70aa9ef7b,66229da24ab04f343fd9d16a,,,,,,,,,,,,,,,,,,,,,,,,,,,,,,,,,,,,,,,,,,,,,,,,,,,,,,,,1,44,104,31,1,A,X,N,o1_image,stimuli/out1.png,stimuli/correct_out1.png,stimuli/out2.png,,,,,,,,,,,,,,,,,,,,,,,,,,,,,,,,,,,,,,
,,6550ff72185a13c48b10bd9a,29,female,2024-04-19_18h37.14.087,stockport_simplified,2022.2.4,MacIntel,30.3030303,661e456ee6de07e70aa9ef7b,66229da24ab04f343fd9d16a,,,,,,,,,,,,,,,,,,,,,,,,,,,,,,,,,,560.931,563.431,"[4,1,3,6,2,7,8,5]","[[0.3,0.2],[-0.3,0.2]]","[[-0.125,-0.2],[0.125,-0.2]]",-0.144444444,-0.193333333,1,0,0,1.965,o1_image,563.433,1,563.931,563.931,565.931,0,0,0,0,1,,,,,,,,,,,,,,,,,,,,,,,,,,,,,,,,,,,,,,,,,,,,,,,,,,
,,6550ff72185a13c48b10bd9a,29,female,2024-04-19_18h37.14.087,stockport_simplified,2022.2.4,MacIntel,30.3030303,661e456ee6de07e70aa9ef7b,66229da24ab04f343fd9d16a,,,,,,,,,,,,,,,,,,,,,,,,,,,,,,,,,,,,,,,,,,,,,,,,,,,,,,,,1,45,105,3,1,A,X,N,o1_image,stimuli/out1.png,stimuli/correct_out1.png,stimuli/out2.png,,,,,,,,,,,,,,,,,,,,,,,,,,,,,,,,,,,,,,
,,6550ff72185a13c48b10bd9a,29,female,2024-04-19_18h37.14.087,stockport_simplified,2022.2.4,MacIntel,30.3030303,661e456ee6de07e70aa9ef7b,66229da24ab04f343fd9d16a,,,,,,,,,,,,,,,,,,,,,,,,,,,,,,,,,,565.931,568.064,"[4,1,3,6,2,7,8,5]","[[-0.3,0.2],[0.3,0.2]]","[[-0.125,-0.2],[0.125,-0.2]]",0.087777778,-0.176666667,1,0,0,1.632,o2_image,568.066,1,568.563,568.563,570.564,0,0,0,0,1,,,,,,,,,,,,,,,,,,,,,,,,,,,,,,,,,,,,,,,,,,,,,,,,,,
,,6550ff72185a13c48b10bd9a,29,female,2024-04-19_18h37.14.087,stockport_simplified,2022.2.4,MacIntel,30.3030303,661e456ee6de07e70aa9ef7b,66229da24ab04f343fd9d16a,,,,,,,,,,,,,,,,,,,,,,,,,,,,,,,,,,,,,,,,,,,,,,,,,,,,,,,,1,46,106,25,1,N,M,D,o2_image,stimuli/out2.png,stimuli/out1.png,stimuli/correct_out2.png,,,,,,,,,,,,,,,,,,,,,,,,,,,,,,,,,,,,,,
,,6550ff72185a13c48b10bd9a,29,female,2024-04-19_18h37.14.087,stockport_simplified,2022.2.4,MacIntel,30.3030303,661e456ee6de07e70aa9ef7b,66229da24ab04f343fd9d16a,,,,,,,,,,,,,,,,,,,,,,,,,,,,,,,,,,570.565,572.197,"[4,1,3,6,2,7,8,5]","[[-0.3,0.2],[0.3,0.2]]","[[-0.125,-0.2],[0.125,-0.2]]",0.107777778,-0.192222222,1,0,0,1.099,o2_image,572.199,1,572.698,572.698,574.698,0,0,0,0,1,,,,,,,,,,,,,,,,,,,,,,,,,,,,,,,,,,,,,,,,,,,,,,,,,,
,,6550ff72185a13c48b10bd9a,29,female,2024-04-19_18h37.14.087,stockport_simplified,2022.2.4,MacIntel,30.3030303,661e456ee6de07e70aa9ef7b,66229da24ab04f343fd9d16a,,,,,,,,,,,,,,,,,,,,,,,,,,,,,,,,,,,,,,,,,,,,,,,,,,,,,,,,1,47,107,26,1,N,M,D,o2_image,stimuli/out2.png,stimuli/out1.png,stimuli/correct_out2.png,,,,,,,,,,,,,,,,,,,,,,,,,,,,,,,,,,,,,,
,,6550ff72185a13c48b10bd9a,29,female,2024-04-19_18h37.14.087,stockport_simplified,2022.2.4,MacIntel,30.3030303,661e456ee6de07e70aa9ef7b,66229da24ab04f343fd9d16a,,,,,,,,,,,,,,,,,,,,,,,,,,,,,,,,,,574.698,576.465,"[4,1,3,6,2,7,8,5]","[[0.3,0.2],[-0.3,0.2]]","[[0.125,-0.2],[-0.125,-0.2]]",0.102222222,-0.196666667,1,0,0,1.265,o1_image,576.466,1,576.965,576.965,578.965,0,0,0,0,1,,,,,,,,,,,,,,,,,,,,,,,,,,,,,,,,,,,,,,,,,,,,,,,,,,
,,6550ff72185a13c48b10bd9a,29,female,2024-04-19_18h37.14.087,stockport_simplified,2022.2.4,MacIntel,30.3030303,661e456ee6de07e70aa9ef7b,66229da24ab04f343fd9d16a,,,,,,,,,,,,,,,,,,,,,,,,,,,,,,,,,,,,,,,,,,,,,,,,,,,,,,,,1,48,108,50,1,N,M,C,o1_image,stimuli/out1.png,stimuli/correct_out1.png,stimuli/out2.png,,,,,,,,,,,,,,,,,,,,,,,,,,,,,,,,,,,,,,
,,6550ff72185a13c48b10bd9a,29,female,2024-04-19_18h37.14.087,stockport_simplified,2022.2.4,MacIntel,30.3030303,661e456ee6de07e70aa9ef7b,66229da24ab04f343fd9d16a,,,,,,,,,,,,,,,,,,,,,,,,,,,,,,,,,,578.965,580.665,"[4,1,3,6,2,7,8,5]","[[0.3,0.2],[-0.3,0.2]]","[[-0.125,-0.2],[0.125,-0.2]]",-0.115555556,-0.224444444,1,0,0,1.199,o1_image,580.666,1,581.165,581.165,583.165,0,0,0,0,1,,,,,,,,,,,,,,,,,,,,,,,,,,,,,,,,,,,,,,,,,,,,,,,,,,
,,6550ff72185a13c48b10bd9a,29,female,2024-04-19_18h37.14.087,stockport_simplified,2022.2.4,MacIntel,30.3030303,661e456ee6de07e70aa9ef7b,66229da24ab04f343fd9d16a,,,,,,,,,,,,,,,,,,,,,,,,,,,,,,,,,,,,,,,,,,,,,,,,,,,,,,,,1,49,109,51,1,N,M,C,o1_image,stimuli/out1.png,stimuli/correct_out1.png,stimuli/out2.png,,,,,,,,,,,,,,,,,,,,,,,,,,,,,,,,,,,,,,
,,6550ff72185a13c48b10bd9a,29,female,2024-04-19_18h37.14.087,stockport_simplified,2022.2.4,MacIntel,30.3030303,661e456ee6de07e70aa9ef7b,66229da24ab04f343fd9d16a,,,,,,,,,,,,,,,,,,,,,,,,,,,,,,,,,,583.166,584.965,"[4,1,3,6,2,7,8,5]","[[-0.3,0.2],[0.3,0.2]]","[[-0.125,-0.2],[0.125,-0.2]]",0.095555556,-0.202222222,1,0,0,1.266,o2_image,584.966,1,585.464,585.465,587.465,0,0,0,0,1,,,,,,,,,,,,,,,,,,,,,,,,,,,,,,,,,,,,,,,,,,,,,,,,,,
,,6550ff72185a13c48b10bd9a,29,female,2024-04-19_18h37.14.087,stockport_simplified,2022.2.4,MacIntel,30.3030303,661e456ee6de07e70aa9ef7b,66229da24ab04f343fd9d16a,,,,,,,,,,,,,,,,,,,,,,,,,,,,,,,,,,,,,,,,,,,,,,,,,,,,,,,,1,50,110,10,1,B,X,N,o2_image,stimuli/out2.png,stimuli/out1.png,stimuli/correct_out2.png,,,,,,,,,,,,,,,,,,,,,,,,,,,,,,,,,,,,,,
,,6550ff72185a13c48b10bd9a,29,female,2024-04-19_18h37.14.087,stockport_simplified,2022.2.4,MacIntel,30.3030303,661e456ee6de07e70aa9ef7b,66229da24ab04f343fd9d16a,,,,,,,,,,,,,,,,,,,,,,,,,,,,,,,,,,587.466,588.865,"[4,1,3,6,2,7,8,5]","[[-0.3,0.2],[0.3,0.2]]","[[-0.125,-0.2],[0.125,-0.2]]",0.095555556,-0.202222222,1,0,0,0.865,o2_image,588.866,1,589.365,589.365,591.365,0,0,0,0,1,,,,,,,,,,,,,,,,,,,,,,,,,,,,,,,,,,,,,,,,,,,,,,,,,,
,,6550ff72185a13c48b10bd9a,29,female,2024-04-19_18h37.14.087,stockport_simplified,2022.2.4,MacIntel,30.3030303,661e456ee6de07e70aa9ef7b,66229da24ab04f343fd9d16a,,,,,,,,,,,,,,,,,,,,,,,,,,,,,,,,,,,,,,,,,,,,,,,,,,,,,,,,1,51,111,45,1,B,Y,N,o2_image,stimuli/out2.png,stimuli/out1.png,stimuli/correct_out2.png,,,,,,,,,,,,,,,,,,,,,,,,,,,,,,,,,,,,,,
,,6550ff72185a13c48b10bd9a,29,female,2024-04-19_18h37.14.087,stockport_simplified,2022.2.4,MacIntel,30.3030303,661e456ee6de07e70aa9ef7b,66229da24ab04f343fd9d16a,,,,,,,,,,,,,,,,,,,,,,,,,,,,,,,,,,591.365,593.665,"[4,1,3,6,2,7,8,5]","[[-0.3,0.2],[0.3,0.2]]","[[0.125,-0.2],[-0.125,-0.2]]",0.102222222,-0.198888889,1,0,0,1.766,o1_image,593.666,1,594.165,594.165,596.166,0,0,0,0,1,,,,,,,,,,,,,,,,,,,,,,,,,,,,,,,,,,,,,,,,,,,,,,,,,,
,,6550ff72185a13c48b10bd9a,29,female,2024-04-19_18h37.14.087,stockport_simplified,2022.2.4,MacIntel,30.3030303,661e456ee6de07e70aa9ef7b,66229da24ab04f343fd9d16a,,,,,,,,,,,,,,,,,,,,,,,,,,,,,,,,,,,,,,,,,,,,,,,,,,,,,,,,1,52,112,52,1,N,M,C,o1_image,stimuli/out1.png,stimuli/correct_out1.png,stimuli/out2.png,,,,,,,,,,,,,,,,,,,,,,,,,,,,,,,,,,,,,,
,,6550ff72185a13c48b10bd9a,29,female,2024-04-19_18h37.14.087,stockport_simplified,2022.2.4,MacIntel,30.3030303,661e456ee6de07e70aa9ef7b,66229da24ab04f343fd9d16a,,,,,,,,,,,,,,,,,,,,,,,,,,,,,,,,,,596.166,598.198,"[4,1,3,6,2,7,8,5]","[[-0.3,0.2],[0.3,0.2]]","[[0.125,-0.2],[-0.125,-0.2]]",-0.137777778,-0.211111111,1,0,0,1.499,o2_image,598.2,1,598.699,598.699,600.699,0,0,0,0,1,,,,,,,,,,,,,,,,,,,,,,,,,,,,,,,,,,,,,,,,,,,,,,,,,,
,,6550ff72185a13c48b10bd9a,29,female,2024-04-19_18h37.14.087,stockport_simplified,2022.2.4,MacIntel,30.3030303,661e456ee6de07e70aa9ef7b,66229da24ab04f343fd9d16a,,,,,,,,,,,,,,,,,,,,,,,,,,,,,,,,,,,,,,,,,,,,,,,,,,,,,,,,1,53,113,28,1,N,M,D,o2_image,stimuli/out2.png,stimuli/out1.png,stimuli/correct_out2.png,,,,,,,,,,,,,,,,,,,,,,,,,,,,,,,,,,,,,,
,,6550ff72185a13c48b10bd9a,29,female,2024-04-19_18h37.14.087,stockport_simplified,2022.2.4,MacIntel,30.3030303,661e456ee6de07e70aa9ef7b,66229da24ab04f343fd9d16a,,,,,,,,,,,,,,,,,,,,,,,,,,,,,,,,,,600.7,602.499,"[4,1,3,6,2,7,8,5]","[[-0.3,0.2],[0.3,0.2]]","[[0.125,-0.2],[-0.125,-0.2]]",0.121111111,-0.198888889,1,0,0,1.266,o1_image,602.5,1,602.999,602.999,604.999,0,0,0,0,1,,,,,,,,,,,,,,,,,,,,,,,,,,,,,,,,,,,,,,,,,,,,,,,,,,
,,6550ff72185a13c48b10bd9a,29,female,2024-04-19_18h37.14.087,stockport_simplified,2022.2.4,MacIntel,30.3030303,661e456ee6de07e70aa9ef7b,66229da24ab04f343fd9d16a,,,,,,,,,,,,,,,,,,,,,,,,,,,,,,,,,,,,,,,,,,,,,,,,,,,,,,,,1,54,114,20,1,N,M,C,o1_image,stimuli/out1.png,stimuli/correct_out1.png,stimuli/out2.png,,,,,,,,,,,,,,,,,,,,,,,,,,,,,,,,,,,,,,
,,6550ff72185a13c48b10bd9a,29,female,2024-04-19_18h37.14.087,stockport_simplified,2022.2.4,MacIntel,30.3030303,661e456ee6de07e70aa9ef7b,66229da24ab04f343fd9d16a,,,,,,,,,,,,,,,,,,,,,,,,,,,,,,,,,,605,606.732,"[4,1,3,6,2,7,8,5]","[[-0.3,0.2],[0.3,0.2]]","[[0.125,-0.2],[-0.125,-0.2]]",-0.093333333,-0.217777778,1,0,0,1.199,o2_image,606.734,1,607.232,607.232,609.233,0,0,0,0,1,,,,,,,,,,,,,,,,,,,,,,,,,,,,,,,,,,,,,,,,,,,,,,,,,,
,,6550ff72185a13c48b10bd9a,29,female,2024-04-19_18h37.14.087,stockport_simplified,2022.2.4,MacIntel,30.3030303,661e456ee6de07e70aa9ef7b,66229da24ab04f343fd9d16a,,,,,,,,,,,,,,,,,,,,,,,,,,,,,,,,,,,,,,,,,,,,,,,,,,,,,,,,1,55,115,41,1,B,X,N,o2_image,stimuli/out2.png,stimuli/out1.png,stimuli/correct_out2.png,,,,,,,,,,,,,,,,,,,,,,,,,,,,,,,,,,,,,,
,,6550ff72185a13c48b10bd9a,29,female,2024-04-19_18h37.14.087,stockport_simplified,2022.2.4,MacIntel,30.3030303,661e456ee6de07e70aa9ef7b,66229da24ab04f343fd9d16a,,,,,,,,,,,,,,,,,,,,,,,,,,,,,,,,,,609.234,610.732,"[4,1,3,6,2,7,8,5]","[[0.3,0.2],[-0.3,0.2]]","[[0.125,-0.2],[-0.125,-0.2]]",-0.081111111,-0.202222222,1,0,0,0.966,o2_image,610.734,1,611.233,611.233,613.233,0,0,0,0,1,,,,,,,,,,,,,,,,,,,,,,,,,,,,,,,,,,,,,,,,,,,,,,,,,,
,,6550ff72185a13c48b10bd9a,29,female,2024-04-19_18h37.14.087,stockport_simplified,2022.2.4,MacIntel,30.3030303,661e456ee6de07e70aa9ef7b,66229da24ab04f343fd9d16a,,,,,,,,,,,,,,,,,,,,,,,,,,,,,,,,,,,,,,,,,,,,,,,,,,,,,,,,1,56,116,40,1,B,X,N,o2_image,stimuli/out2.png,stimuli/out1.png,stimuli/correct_out2.png,,,,,,,,,,,,,,,,,,,,,,,,,,,,,,,,,,,,,,
,,6550ff72185a13c48b10bd9a,29,female,2024-04-19_18h37.14.087,stockport_simplified,2022.2.4,MacIntel,30.3030303,661e456ee6de07e70aa9ef7b,66229da24ab04f343fd9d16a,,,,,,,,,,,,,,,,,,,,,,,,,,,,,,,,,,613.233,615.266,"[4,1,3,6,2,7,8,5]","[[0.3,0.2],[-0.3,0.2]]","[[0.125,-0.2],[-0.125,-0.2]]",0.072222222,-0.191111111,1,0,0,1.499,o1_image,615.267,1,615.766,615.766,617.766,0,0,0,0,1,,,,,,,,,,,,,,,,,,,,,,,,,,,,,,,,,,,,,,,,,,,,,,,,,,
,,6550ff72185a13c48b10bd9a,29,female,2024-04-19_18h37.14.087,stockport_simplified,2022.2.4,MacIntel,30.3030303,661e456ee6de07e70aa9ef7b,66229da24ab04f343fd9d16a,,,,,,,,,,,,,,,,,,,,,,,,,,,,,,,,,,,,,,,,,,,,,,,,,,,,,,,,1,57,117,2,1,A,X,N,o1_image,stimuli/out1.png,stimuli/correct_out1.png,stimuli/out2.png,,,,,,,,,,,,,,,,,,,,,,,,,,,,,,,,,,,,,,
,,6550ff72185a13c48b10bd9a,29,female,2024-04-19_18h37.14.087,stockport_simplified,2022.2.4,MacIntel,30.3030303,661e456ee6de07e70aa9ef7b,66229da24ab04f343fd9d16a,,,,,,,,,,,,,,,,,,,,,,,,,,,,,,,,,,617.767,619.5,"[4,1,3,6,2,7,8,5]","[[-0.3,0.2],[0.3,0.2]]","[[0.125,-0.2],[-0.125,-0.2]]",-0.098888889,-0.225555556,1,0,0,1.199,o2_image,619.501,1,620,620,622,0,0,0,0,1,,,,,,,,,,,,,,,,,,,,,,,,,,,,,,,,,,,,,,,,,,,,,,,,,,
,,6550ff72185a13c48b10bd9a,29,female,2024-04-19_18h37.14.087,stockport_simplified,2022.2.4,MacIntel,30.3030303,661e456ee6de07e70aa9ef7b,66229da24ab04f343fd9d16a,,,,,,,,,,,,,,,,,,,,,,,,,,,,,,,,,,,,,,,,,,,,,,,,,,,,,,,,1,58,118,57,1,N,M,D,o2_image,stimuli/out2.png,stimuli/out1.png,stimuli/correct_out2.png,,,,,,,,,,,,,,,,,,,,,,,,,,,,,,,,,,,,,,
,,6550ff72185a13c48b10bd9a,29,female,2024-04-19_18h37.14.087,stockport_simplified,2022.2.4,MacIntel,30.3030303,661e456ee6de07e70aa9ef7b,66229da24ab04f343fd9d16a,,,,,,,,,,,,,,,,,,,,,,,,,,,,,,,,,,622.001,623.834,"[4,1,3,6,2,7,8,5]","[[0.3,0.2],[-0.3,0.2]]","[[-0.125,-0.2],[0.125,-0.2]]",0.087777778,-0.222222222,1,0,0,1.299,o2_image,623.835,1,624.333,624.333,626.334,0,0,0,0,1,,,,,,,,,,,,,,,,,,,,,,,,,,,,,,,,,,,,,,,,,,,,,,,,,,
,,6550ff72185a13c48b10bd9a,29,female,2024-04-19_18h37.14.087,stockport_simplified,2022.2.4,MacIntel,30.3030303,661e456ee6de07e70aa9ef7b,66229da24ab04f343fd9d16a,,,,,,,,,,,,,,,,,,,,,,,,,,,,,,,,,,,,,,,,,,,,,,,,,,,,,,,,1,59,119,12,1,B,X,N,o2_image,stimuli/out2.png,stimuli/out1.png,stimuli/correct_out2.png,,,,,,,,,,,,,,,,,,,,,,,,,,,,,,,,,,,,,,
,,6550ff72185a13c48b10bd9a,29,female,2024-04-19_18h37.14.087,stockport_simplified,2022.2.4,MacIntel,30.3030303,661e456ee6de07e70aa9ef7b,66229da24ab04f343fd9d16a,,,,,,,,,,,,,,,,,,,,,,,,,,,,,,,,,,626.346,628.533,"[4,1,3,6,2,7,8,5]","[[0.3,0.2],[-0.3,0.2]]","[[0.125,-0.2],[-0.125,-0.2]]",0.131111111,-0.212222222,1,0,0,1.665,o1_image,628.535,1,629.034,629.034,631.034,,,,,,,,,,,,,,,,,,0,0,0,0,1,,,,,,,,,,,,,,,,,,,,,,,,,,,,,,,,,
,,6550ff72185a13c48b10bd9a,29,female,2024-04-19_18h37.14.087,stockport_simplified,2022.2.4,MacIntel,30.3030303,661e456ee6de07e70aa9ef7b,66229da24ab04f343fd9d16a,,,,,,,,,,,,,,,,,,,,,,,,,,,,,,,,,,,,,,,,,,,,,,,,,,,,,,,,,,,,,A,X,N,o1_image,stimuli/out1.png,stimuli/correct_out1.png,stimuli/out2.png,,,,,,0,0,0,4,1,,,,,,,,,,,,,,,,,,,,,,,,,,,,
,,6550ff72185a13c48b10bd9a,29,female,2024-04-19_18h37.14.087,stockport_simplified,2022.2.4,MacIntel,30.3030303,661e456ee6de07e70aa9ef7b,66229da24ab04f343fd9d16a,,,,,,,,,,,,,,,,,,,,,,,,,,,,,,,,,,631.035,632.866,"[4,1,3,6,2,7,8,5]","[[-0.3,0.2],[0.3,0.2]]","[[0.125,-0.2],[-0.125,-0.2]]",0.134444444,-0.181111111,1,0,0,1.299,o1_image,632.867,1,633.367,633.367,635.367,,,,,,,,,,,,,,,,,,0,0,0,0,1,,,,,,,,,,,,,,,,,,,,,,,,,,,,,,,,,
,,6550ff72185a13c48b10bd9a,29,female,2024-04-19_18h37.14.087,stockport_simplified,2022.2.4,MacIntel,30.3030303,661e456ee6de07e70aa9ef7b,66229da24ab04f343fd9d16a,,,,,,,,,,,,,,,,,,,,,,,,,,,,,,,,,,,,,,,,,,,,,,,,,,,,,,,,,,,,,A,Y,N,o1_image,stimuli/out1.png,stimuli/correct_out1.png,stimuli/out2.png,,,,,,0,1,1,14,1,,,,,,,,,,,,,,,,,,,,,,,,,,,,
,,6550ff72185a13c48b10bd9a,29,female,2024-04-19_18h37.14.087,stockport_simplified,2022.2.4,MacIntel,30.3030303,661e456ee6de07e70aa9ef7b,66229da24ab04f343fd9d16a,,,,,,,,,,,,,,,,,,,,,,,,,,,,,,,,,,635.368,637.034,"[4,1,3,6,2,7,8,5]","[[-0.3,0.2],[0.3,0.2]]","[[0.125,-0.2],[-0.125,-0.2]]",0.133333333,-0.193333333,1,0,0,1.133,o1_image,637.036,1,637.534,637.534,639.534,,,,,,,,,,,,,,,,,,0,0,0,0,1,,,,,,,,,,,,,,,,,,,,,,,,,,,,,,,,,
,,6550ff72185a13c48b10bd9a,29,female,2024-04-19_18h37.14.087,stockport_simplified,2022.2.4,MacIntel,30.3030303,661e456ee6de07e70aa9ef7b,66229da24ab04f343fd9d16a,,,,,,,,,,,,,,,,,,,,,,,,,,,,,,,,,,,,,,,,,,,,,,,,,,,,,,,,,,,,,N,M,C,o1_image,stimuli/out1.png,stimuli/correct_out1.png,stimuli/out2.png,,,,,,0,2,2,41,1,,,,,,,,,,,,,,,,,,,,,,,,,,,,
,,6550ff72185a13c48b10bd9a,29,female,2024-04-19_18h37.14.087,stockport_simplified,2022.2.4,MacIntel,30.3030303,661e456ee6de07e70aa9ef7b,66229da24ab04f343fd9d16a,,,,,,,,,,,,,,,,,,,,,,,,,,,,,,,,,,639.535,641.034,"[4,1,3,6,2,7,8,5]","[[-0.3,0.2],[0.3,0.2]]","[[0.125,-0.2],[-0.125,-0.2]]",0.133333333,-0.191111111,1,0,0,0.966,o1_image,641.035,1,641.534,641.534,643.534,,,,,,,,,,,,,,,,,,0,0,0,0,1,,,,,,,,,,,,,,,,,,,,,,,,,,,,,,,,,
,,6550ff72185a13c48b10bd9a,29,female,2024-04-19_18h37.14.087,stockport_simplified,2022.2.4,MacIntel,30.3030303,661e456ee6de07e70aa9ef7b,66229da24ab04f343fd9d16a,,,,,,,,,,,,,,,,,,,,,,,,,,,,,,,,,,,,,,,,,,,,,,,,,,,,,,,,,,,,,A,X,N,o1_image,stimuli/out1.png,stimuli/correct_out1.png,stimuli/out2.png,,,,,,0,3,3,1,1,,,,,,,,,,,,,,,,,,,,,,,,,,,,
,,6550ff72185a13c48b10bd9a,29,female,2024-04-19_18h37.14.087,stockport_simplified,2022.2.4,MacIntel,30.3030303,661e456ee6de07e70aa9ef7b,66229da24ab04f343fd9d16a,,,,,,,,,,,,,,,,,,,,,,,,,,,,,,,,,,643.535,644.767,"[4,1,3,6,2,7,8,5]","[[-0.3,0.2],[0.3,0.2]]","[[-0.125,-0.2],[0.125,-0.2]]",0.133333333,-0.191111111,1,0,0,0.7,o2_image,644.769,1,645.267,645.267,647.268,,,,,,,,,,,,,,,,,,0,0,0,0,1,,,,,,,,,,,,,,,,,,,,,,,,,,,,,,,,,
