counterbalance_2.started,counterbalance_2.stopped,participant,age,gender,date,expName,psychopyVersion,OS,frameRate,STUDY_ID,SESSION_ID,information_2.started,information_2.stopped,information_loop.thisRepN,information_loop.thisTrialN,information_loop.thisN,information_loop.thisIndex,information_loop.ran,information,consent_2.started,consent_2.stopped,slider_1.response,slider_2.response,slider_3.response,slider_4.response,slider_5.response,slider_6.response,instructions.started,instructions.stopped,task1_instr.thisRepN,task1_instr.thisTrialN,task1_instr.thisN,task1_instr.thisIndex,task1_instr.ran,task1,comprehension1_2.started,comprehension1_2.stopped,comp1_mouse.x,comp1_mouse.y,comp1_mouse.leftButton,comp1_mouse.midButton,comp1_mouse.rightButton,comp1_mouse.time,comp1_mouse.clicked_name,cue_o__trial_2.started,cue_o__trial_2.stopped,order,cue_order,out_order,cue_o_mouse.x,cue_o_mouse.y,cue_o_mouse.leftButton,cue_o_mouse.midButton,cue_o_mouse.rightButton,cue_o_mouse.time,cue_o_mouse.clicked_name,cue_selection_2.started,correct_answer,cue_selection_2.stopped,feedback_2.started,feedback_2.stopped,feedback_loop.thisRepN,feedback_loop.thisTrialN,feedback_loop.thisN,feedback_loop.thisIndex,feedback_loop.ran,stage1_trials.thisRepN,stage1_trials.thisTrialN,stage1_trials.thisN,stage1_trials.thisIndex,stage1_trials.ran,cue1,cue2,cue3,outcome,correct_out,o1_feedback,o2_feedback,stage2_feedback_loop.thisRepN,stage2_feedback_loop.thisTrialN,stage2_feedback_loop.thisN,stage2_feedback_loop.thisIndex,stage2_feedback_loop.ran,stage2_trials.thisRepN,stage2_trials.thisTrialN,stage2_trials.thisN,stage2_trials.thisIndex,stage2_trials.ran,stage3_feedback_loop.thisRepN,stage3_feedback_loop.thisTrialN,stage3_feedback_loop.thisN,stage3_feedback_loop.thisIndex,stage3_feedback_loop.ran,stage3_trials.thisRepN,stage3_trials.thisTrialN,stage3_trials.thisN,stage3_trials.thisIndex,stage3_trials.ran,debrief_2.started,debrief_2.stopped,debrief_loop.thisRepN,debrief_loop.thisTrialN,debrief_loop.thisN,debrief_loop.thisIndex,debrief_loop.ran,debrief_img,compr1_completed.thisRepN,compr1_completed.thisTrialN,compr1_completed.thisN,compr1_completed.thisIndex,compr1_completed.ran,consent_loop.thisRepN,consent_loop.thisTrialN,consent_loop.thisN,consent_loop.thisIndex,consent_loop.ran
0.0004,0.0005,5f13334daab04a01f1bee1bd,23,male,2024-04-16_11h22.47.228,stockport_simplified,2022.2.4,MacIntel,57.14285714,661e456ee6de07e70aa9ef7b,661e51602fc11d4e371ec9e6,,,,,,,,,,,,,,,,,,,,,,,,,,,,,,,,,,,,,,,,,,,,,,,,,,,,,,,,,,,,,,,,,,,,,,,,,,,,,,,,,,,,,,,,,,,,,,,,,,,,,,,,,
,,5f13334daab04a01f1bee1bd,23,male,2024-04-16_11h22.47.228,stockport_simplified,2022.2.4,MacIntel,57.14285714,661e456ee6de07e70aa9ef7b,661e51602fc11d4e371ec9e6,0.0105,5.5939,0,0,0,0,1,instructions/info1.png,,,,,,,,,,,,,,,,,,,,,,,,,,,,,,,,,,,,,,,,,,,,,,,,,,,,,,,,,,,,,,,,,,,,,,,,,,,,,,,,,,,,,,,,,,,,,,,,,
,,5f13334daab04a01f1bee1bd,23,male,2024-04-16_11h22.47.228,stockport_simplified,2022.2.4,MacIntel,57.14285714,661e456ee6de07e70aa9ef7b,661e51602fc11d4e371ec9e6,5.5951,7.5927,0,1,1,1,1,instructions/info2.png,,,,,,,,,,,,,,,,,,,,,,,,,,,,,,,,,,,,,,,,,,,,,,,,,,,,,,,,,,,,,,,,,,,,,,,,,,,,,,,,,,,,,,,,,,,,,,,,,
,,5f13334daab04a01f1bee1bd,23,male,2024-04-16_11h22.47.228,stockport_simplified,2022.2.4,MacIntel,57.14285714,661e456ee6de07e70aa9ef7b,661e51602fc11d4e371ec9e6,7.5932,10.4594,0,2,2,2,1,instructions/info3.png,,,,,,,,,,,,,,,,,,,,,,,,,,,,,,,,,,,,,,,,,,,,,,,,,,,,,,,,,,,,,,,,,,,,,,,,,,,,,,,,,,,,,,,,,,,,,,,,,
,,5f13334daab04a01f1bee1bd,23,male,2024-04-16_11h22.47.228,stockport_simplified,2022.2.4,MacIntel,57.14285714,661e456ee6de07e70aa9ef7b,661e51602fc11d4e371ec9e6,,,,,,,,,10.46,23.8926,1,1,1,1,1,1,,,,,,,,,,,,,,,,,,,,,,,,,,,,,,,,,,,,,,,,,,,,,,,,,,,,,,,,,,,,,,,,,,,,,,,,,,,,,,,,,,,,,,,,,
,,5f13334daab04a01f1bee1bd,23,male,2024-04-16_11h22.47.228,stockport_simplified,2022.2.4,MacIntel,57.14285714,661e456ee6de07e70aa9ef7b,661e51602fc11d4e371ec9e6,,,,,,,,,,,,,,,,,23.9022,37.2599,0,0,0,0,1,instructions/task1_1.png,,,,,,,,,,,,,,,,,,,,,,,,,,,,,,,,,,,,,,,,,,,,,,,,,,,,,,,,,,,,,,,,,,,,,,,,,,,,,,,,,
,,5f13334daab04a01f1bee1bd,23,male,2024-04-16_11h22.47.228,stockport_simplified,2022.2.4,MacIntel,57.14285714,661e456ee6de07e70aa9ef7b,661e51602fc11d4e371ec9e6,,,,,,,,,,,,,,,,,37.2606,46.0759,0,1,1,1,1,instructions/task1_2.png,,,,,,,,,,,,,,,,,,,,,,,,,,,,,,,,,,,,,,,,,,,,,,,,,,,,,,,,,,,,,,,,,,,,,,,,,,,,,,,,,
,,5f13334daab04a01f1bee1bd,23,male,2024-04-16_11h22.47.228,stockport_simplified,2022.2.4,MacIntel,57.14285714,661e456ee6de07e70aa9ef7b,661e51602fc11d4e371ec9e6,,,,,,,,,,,,,,,,,46.0765,55.3426,0,2,2,2,1,instructions/task1_3.png,,,,,,,,,,,,,,,,,,,,,,,,,,,,,,,,,,,,,,,,,,,,,,,,,,,,,,,,,,,,,,,,,,,,,,,,,,,,,,,,,
,,5f13334daab04a01f1bee1bd,23,male,2024-04-16_11h22.47.228,stockport_simplified,2022.2.4,MacIntel,57.14285714,661e456ee6de07e70aa9ef7b,661e51602fc11d4e371ec9e6,,,,,,,,,,,,,,,,,,,,,,,,,55.3449,73.2105,0.064826389,-0.331015625,1,0,0,17.8641,comp1_resp1,73.2333,79.0594,"[3,1,4,8,7,5,2,6]","[[0.3,0.2],[-0.3,0.2]]","[[-0.125,-0.2],[0.125,-0.2]]",-0.074140625,-0.185104167,1,0,0,5.3156,o1_image,79.0701,1,79.5592,79.5594,81.5592,0,0,0,0,1,,,,,,,,,,,,,,,,,,,,,,,,,,,,,,,,,,,,,,,,,,,,,,,,,,
,,5f13334daab04a01f1bee1bd,23,male,2024-04-16_11h22.47.228,stockport_simplified,2022.2.4,MacIntel,57.14285714,661e456ee6de07e70aa9ef7b,661e51602fc11d4e371ec9e6,,,,,,,,,,,,,,,,,,,,,,,,,,,,,,,,,,,,,,,,,,,,,,,,,,,,,,,,0,0,0,0,1,A,X,N,o1_image,stimuli/out1.png,stimuli/correct_out1.png,stimuli/out2.png,,,,,,,,,,,,,,,,,,,,,,,,,,,,,,,,,,,,,,
,,5f13334daab04a01f1bee1bd,23,male,2024-04-16_11h22.47.228,stockport_simplified,2022.2.4,MacIntel,57.14285714,661e456ee6de07e70aa9ef7b,661e51602fc11d4e371ec9e6,,,,,,,,,,,,,,,,,,,,,,,,,,,,,,,,,,81.5602,83.6756,"[3,1,4,8,7,5,2,6]","[[0.3,0.2],[-0.3,0.2]]","[[0.125,-0.2],[-0.125,-0.2]]",-0.096458333,-0.18344184,1,0,0,1.5989,o2_image,83.6767,1,84.1755,84.1756,86.1756,0,0,0,0,1,,,,,,,,,,,,,,,,,,,,,,,,,,,,,,,,,,,,,,,,,,,,,,,,,,
,,5f13334daab04a01f1bee1bd,23,male,2024-04-16_11h22.47.228,stockport_simplified,2022.2.4,MacIntel,57.14285714,661e456ee6de07e70aa9ef7b,661e51602fc11d4e371ec9e6,,,,,,,,,,,,,,,,,,,,,,,,,,,,,,,,,,,,,,,,,,,,,,,,,,,,,,,,0,1,1,45,1,B,Y,N,o2_image,stimuli/out2.png,stimuli/out1.png,stimuli/correct_out2.png,,,,,,,,,,,,,,,,,,,,,,,,,,,,,,,,,,,,,,
,,5f13334daab04a01f1bee1bd,23,male,2024-04-16_11h22.47.228,stockport_simplified,2022.2.4,MacIntel,57.14285714,661e456ee6de07e70aa9ef7b,661e51602fc11d4e371ec9e6,,,,,,,,,,,,,,,,,,,,,,,,,,,,,,,,,,86.1764,89.2422,"[3,1,4,8,7,5,2,6]","[[-0.3,0.2],[0.3,0.2]]","[[0.125,-0.2],[-0.125,-0.2]]",0.153888889,-0.149114583,1,0,0,2.549,o1_image,89.2533,1,89.7419,89.742,91.7423,0,0,0,0,1,,,,,,,,,,,,,,,,,,,,,,,,,,,,,,,,,,,,,,,,,,,,,,,,,,
,,5f13334daab04a01f1bee1bd,23,male,2024-04-16_11h22.47.228,stockport_simplified,2022.2.4,MacIntel,57.14285714,661e456ee6de07e70aa9ef7b,661e51602fc11d4e371ec9e6,,,,,,,,,,,,,,,,,,,,,,,,,,,,,,,,,,,,,,,,,,,,,,,,,,,,,,,,0,2,2,50,1,N,M,C,o1_image,stimuli/out1.png,stimuli/correct_out1.png,stimuli/out2.png,,,,,,,,,,,,,,,,,,,,,,,,,,,,,,,,,,,,,,
,,5f13334daab04a01f1bee1bd,23,male,2024-04-16_11h22.47.228,stockport_simplified,2022.2.4,MacIntel,57.14285714,661e456ee6de07e70aa9ef7b,661e51602fc11d4e371ec9e6,,,,,,,,,,,,,,,,,,,,,,,,,,,,,,,,,,91.7428,94.3911,"[3,1,4,8,7,5,2,6]","[[0.3,0.2],[-0.3,0.2]]","[[-0.125,-0.2],[0.125,-0.2]]",0.080295139,-0.171966146,1,0,0,2.1315,o2_image,94.3922,1,94.8921,94.8922,96.8921,0,0,0,0,1,,,,,,,,,,,,,,,,,,,,,,,,,,,,,,,,,,,,,,,,,,,,,,,,,,
,,5f13334daab04a01f1bee1bd,23,male,2024-04-16_11h22.47.228,stockport_simplified,2022.2.4,MacIntel,57.14285714,661e456ee6de07e70aa9ef7b,661e51602fc11d4e371ec9e6,,,,,,,,,,,,,,,,,,,,,,,,,,,,,,,,,,,,,,,,,,,,,,,,,,,,,,,,0,3,3,27,1,N,M,D,o2_image,stimuli/out2.png,stimuli/out1.png,stimuli/correct_out2.png,,,,,,,,,,,,,,,,,,,,,,,,,,,,,,,,,,,,,,
,,5f13334daab04a01f1bee1bd,23,male,2024-04-16_11h22.47.228,stockport_simplified,2022.2.4,MacIntel,57.14285714,661e456ee6de07e70aa9ef7b,661e51602fc11d4e371ec9e6,,,,,,,,,,,,,,,,,,,,,,,,,,,,,,,,,,96.8928,98.5413,"[3,1,4,8,7,5,2,6]","[[0.3,0.2],[-0.3,0.2]]","[[0.125,-0.2],[-0.125,-0.2]]",0.063971354,-0.160147569,1,0,0,1.1322,o1_image,98.5424,0,99.0425,99.0425,101.0416,0,0,0,0,1,,,,,,,,,,,,,,,,,,,,,,,,,,,,,,,,,,,,,,,,,,,,,,,,,,
,,5f13334daab04a01f1bee1bd,23,male,2024-04-16_11h22.47.228,stockport_simplified,2022.2.4,MacIntel,57.14285714,661e456ee6de07e70aa9ef7b,661e51602fc11d4e371ec9e6,,,,,,,,,,,,,,,,,,,,,,,,,,,,,,,,,,,,,,,,,,,,,,,,,,,,,,,,0,4,4,29,1,N,M,D,o2_image,stimuli/out2.png,stimuli/out1.png,stimuli/correct_out2.png,,,,,,,,,,,,,,,,,,,,,,,,,,,,,,,,,,,,,,
,,5f13334daab04a01f1bee1bd,23,male,2024-04-16_11h22.47.228,stockport_simplified,2022.2.4,MacIntel,57.14285714,661e456ee6de07e70aa9ef7b,661e51602fc11d4e371ec9e6,,,,,,,,,,,,,,,,,,,,,,,,,,,,,,,,,,101.0421,103.4921,"[3,1,4,8,7,5,2,6]","[[0.3,0.2],[-0.3,0.2]]","[[0.125,-0.2],[-0.125,-0.2]]",-0.076809896,-0.167261285,1,0,0,1.9491,o2_image,103.5021,0,103.9919,103.992,105.9923,0,0,0,0,1,,,,,,,,,,,,,,,,,,,,,,,,,,,,,,,,,,,,,,,,,,,,,,,,,,
,,5f13334daab04a01f1bee1bd,23,male,2024-04-16_11h22.47.228,stockport_simplified,2022.2.4,MacIntel,57.14285714,661e456ee6de07e70aa9ef7b,661e51602fc11d4e371ec9e6,,,,,,,,,,,,,,,,,,,,,,,,,,,,,,,,,,,,,,,,,,,,,,,,,,,,,,,,0,5,5,22,1,N,M,C,o1_image,stimuli/out1.png,stimuli/correct_out1.png,stimuli/out2.png,,,,,,,,,,,,,,,,,,,,,,,,,,,,,,,,,,,,,,
,,5f13334daab04a01f1bee1bd,23,male,2024-04-16_11h22.47.228,stockport_simplified,2022.2.4,MacIntel,57.14285714,661e456ee6de07e70aa9ef7b,661e51602fc11d4e371ec9e6,,,,,,,,,,,,,,,,,,,,,,,,,,,,,,,,,,105.993,111.0246,"[3,1,4,8,7,5,2,6]","[[-0.3,0.2],[0.3,0.2]]","[[0.125,-0.2],[-0.125,-0.2]]",0.083758681,-0.169648437,1,0,0,4.5154,o1_image,111.0347,0,111.5246,111.5246,113.5244,0,0,0,0,1,,,,,,,,,,,,,,,,,,,,,,,,,,,,,,,,,,,,,,,,,,,,,,,,,,
,,5f13334daab04a01f1bee1bd,23,male,2024-04-16_11h22.47.228,stockport_simplified,2022.2.4,MacIntel,57.14285714,661e456ee6de07e70aa9ef7b,661e51602fc11d4e371ec9e6,,,,,,,,,,,,,,,,,,,,,,,,,,,,,,,,,,,,,,,,,,,,,,,,,,,,,,,,0,6,6,46,1,B,Y,N,o2_image,stimuli/out2.png,stimuli/out1.png,stimuli/correct_out2.png,,,,,,,,,,,,,,,,,,,,,,,,,,,,,,,,,,,,,,
,,5f13334daab04a01f1bee1bd,23,male,2024-04-16_11h22.47.228,stockport_simplified,2022.2.4,MacIntel,57.14285714,661e456ee6de07e70aa9ef7b,661e51602fc11d4e371ec9e6,,,,,,,,,,,,,,,,,,,,,,,,,,,,,,,,,,113.5253,115.558,"[3,1,4,8,7,5,2,6]","[[-0.3,0.2],[0.3,0.2]]","[[-0.125,-0.2],[0.125,-0.2]]",0.052881944,-0.171137153,1,0,0,1.5147,o2_image,115.559,0,116.0589,116.0589,118.0586,0,0,0,0,1,,,,,,,,,,,,,,,,,,,,,,,,,,,,,,,,,,,,,,,,,,,,,,,,,,
,,5f13334daab04a01f1bee1bd,23,male,2024-04-16_11h22.47.228,stockport_simplified,2022.2.4,MacIntel,57.14285714,661e456ee6de07e70aa9ef7b,661e51602fc11d4e371ec9e6,,,,,,,,,,,,,,,,,,,,,,,,,,,,,,,,,,,,,,,,,,,,,,,,,,,,,,,,0,7,7,21,1,N,M,C,o1_image,stimuli/out1.png,stimuli/correct_out1.png,stimuli/out2.png,,,,,,,,,,,,,,,,,,,,,,,,,,,,,,,,,,,,,,
,,5f13334daab04a01f1bee1bd,23,male,2024-04-16_11h22.47.228,stockport_simplified,2022.2.4,MacIntel,57.14285714,661e456ee6de07e70aa9ef7b,661e51602fc11d4e371ec9e6,,,,,,,,,,,,,,,,,,,,,,,,,,,,,,,,,,118.0592,126.2751,"[3,1,4,8,7,5,2,6]","[[-0.3,0.2],[0.3,0.2]]","[[0.125,-0.2],[-0.125,-0.2]]",-0.13109809,-0.191506076,1,0,0,7.6998,o2_image,126.2872,0,126.7908,126.7909,128.7908,0,0,0,0,1,,,,,,,,,,,,,,,,,,,,,,,,,,,,,,,,,,,,,,,,,,,,,,,,,,
,,5f13334daab04a01f1bee1bd,23,male,2024-04-16_11h22.47.228,stockport_simplified,2022.2.4,MacIntel,57.14285714,661e456ee6de07e70aa9ef7b,661e51602fc11d4e371ec9e6,,,,,,,,,,,,,,,,,,,,,,,,,,,,,,,,,,,,,,,,,,,,,,,,,,,,,,,,0,8,8,2,1,A,X,N,o1_image,stimuli/out1.png,stimuli/correct_out1.png,stimuli/out2.png,,,,,,,,,,,,,,,,,,,,,,,,,,,,,,,,,,,,,,
,,5f13334daab04a01f1bee1bd,23,male,2024-04-16_11h22.47.228,stockport_simplified,2022.2.4,MacIntel,57.14285714,661e456ee6de07e70aa9ef7b,661e51602fc11d4e371ec9e6,,,,,,,,,,,,,,,,,,,,,,,,,,,,,,,,,,128.7915,135.7088,"[3,1,4,8,7,5,2,6]","[[0.3,0.2],[-0.3,0.2]]","[[0.125,-0.2],[-0.125,-0.2]]",0.080243056,-0.16562934,1,0,0,6.4163,o1_image,135.7186,0,136.2086,136.2087,138.2085,0,0,0,0,1,,,,,,,,,,,,,,,,,,,,,,,,,,,,,,,,,,,,,,,,,,,,,,,,,,
,,5f13334daab04a01f1bee1bd,23,male,2024-04-16_11h22.47.228,stockport_simplified,2022.2.4,MacIntel,57.14285714,661e456ee6de07e70aa9ef7b,661e51602fc11d4e371ec9e6,,,,,,,,,,,,,,,,,,,,,,,,,,,,,,,,,,,,,,,,,,,,,,,,,,,,,,,,0,9,9,43,1,B,X,N,o2_image,stimuli/out2.png,stimuli/out1.png,stimuli/correct_out2.png,,,,,,,,,,,,,,,,,,,,,,,,,,,,,,,,,,,,,,
,,5f13334daab04a01f1bee1bd,23,male,2024-04-16_11h22.47.228,stockport_simplified,2022.2.4,MacIntel,57.14285714,661e456ee6de07e70aa9ef7b,661e51602fc11d4e371ec9e6,,,,,,,,,,,,,,,,,,,,,,,,,,,,,,,,,,138.2092,141.6407,"[3,1,4,8,7,5,2,6]","[[0.3,0.2],[-0.3,0.2]]","[[0.125,-0.2],[-0.125,-0.2]]",-0.078723958,-0.176458333,1,0,0,2.9167,o2_image,141.6513,0,142.1418,142.1418,144.1417,0,0,0,0,1,,,,,,,,,,,,,,,,,,,,,,,,,,,,,,,,,,,,,,,,,,,,,,,,,,
,,5f13334daab04a01f1bee1bd,23,male,2024-04-16_11h22.47.228,stockport_simplified,2022.2.4,MacIntel,57.14285714,661e456ee6de07e70aa9ef7b,661e51602fc11d4e371ec9e6,,,,,,,,,,,,,,,,,,,,,,,,,,,,,,,,,,,,,,,,,,,,,,,,,,,,,,,,0,10,10,31,1,A,X,N,o1_image,stimuli/out1.png,stimuli/correct_out1.png,stimuli/out2.png,,,,,,,,,,,,,,,,,,,,,,,,,,,,,,,,,,,,,,
,,5f13334daab04a01f1bee1bd,23,male,2024-04-16_11h22.47.228,stockport_simplified,2022.2.4,MacIntel,57.14285714,661e456ee6de07e70aa9ef7b,661e51602fc11d4e371ec9e6,,,,,,,,,,,,,,,,,,,,,,,,,,,,,,,,,,144.1425,152.6074,"[3,1,4,8,7,5,2,6]","[[0.3,0.2],[-0.3,0.2]]","[[0.125,-0.2],[-0.125,-0.2]]",0.143320312,-0.186740451,1,0,0,7.9484,o1_image,152.6199,1,153.1241,153.1241,155.1241,0,0,0,0,1,,,,,,,,,,,,,,,,,,,,,,,,,,,,,,,,,,,,,,,,,,,,,,,,,,
,,5f13334daab04a01f1bee1bd,23,male,2024-04-16_11h22.47.228,stockport_simplified,2022.2.4,MacIntel,57.14285714,661e456ee6de07e70aa9ef7b,661e51602fc11d4e371ec9e6,,,,,,,,,,,,,,,,,,,,,,,,,,,,,,,,,,,,,,,,,,,,,,,,,,,,,,,,0,11,11,3,1,A,X,N,o1_image,stimuli/out1.png,stimuli/correct_out1.png,stimuli/out2.png,,,,,,,,,,,,,,,,,,,,,,,,,,,,,,,,,,,,,,
,,5f13334daab04a01f1bee1bd,23,male,2024-04-16_11h22.47.228,stockport_simplified,2022.2.4,MacIntel,57.14285714,661e456ee6de07e70aa9ef7b,661e51602fc11d4e371ec9e6,,,,,,,,,,,,,,,,,,,,,,,,,,,,,,,,,,155.1246,159.2584,"[3,1,4,8,7,5,2,6]","[[-0.3,0.2],[0.3,0.2]]","[[0.125,-0.2],[-0.125,-0.2]]",-0.107152778,-0.225121528,1,0,0,3.617,o2_image,159.2695,1,159.7588,159.7588,161.7584,0,0,0,0,1,,,,,,,,,,,,,,,,,,,,,,,,,,,,,,,,,,,,,,,,,,,,,,,,,,
,,5f13334daab04a01f1bee1bd,23,male,2024-04-16_11h22.47.228,stockport_simplified,2022.2.4,MacIntel,57.14285714,661e456ee6de07e70aa9ef7b,661e51602fc11d4e371ec9e6,,,,,,,,,,,,,,,,,,,,,,,,,,,,,,,,,,,,,,,,,,,,,,,,,,,,,,,,0,12,12,15,1,B,Y,N,o2_image,stimuli/out2.png,stimuli/out1.png,stimuli/correct_out2.png,,,,,,,,,,,,,,,,,,,,,,,,,,,,,,,,,,,,,,
,,5f13334daab04a01f1bee1bd,23,male,2024-04-16_11h22.47.228,stockport_simplified,2022.2.4,MacIntel,57.14285714,661e456ee6de07e70aa9ef7b,661e51602fc11d4e371ec9e6,,,,,,,,,,,,,,,,,,,,,,,,,,,,,,,,,,161.7591,165.1583,"[3,1,4,8,7,5,2,6]","[[0.3,0.2],[-0.3,0.2]]","[[-0.125,-0.2],[0.125,-0.2]]",-0.103216146,-0.211853299,1,0,0,2.8838,o1_image,165.1693,1,165.6575,165.6575,167.6583,0,0,0,0,1,,,,,,,,,,,,,,,,,,,,,,,,,,,,,,,,,,,,,,,,,,,,,,,,,,
,,5f13334daab04a01f1bee1bd,23,male,2024-04-16_11h22.47.228,stockport_simplified,2022.2.4,MacIntel,57.14285714,661e456ee6de07e70aa9ef7b,661e51602fc11d4e371ec9e6,,,,,,,,,,,,,,,,,,,,,,,,,,,,,,,,,,,,,,,,,,,,,,,,,,,,,,,,0,13,13,35,1,A,Y,N,o1_image,stimuli/out1.png,stimuli/correct_out1.png,stimuli/out2.png,,,,,,,,,,,,,,,,,,,,,,,,,,,,,,,,,,,,,,
,,5f13334daab04a01f1bee1bd,23,male,2024-04-16_11h22.47.228,stockport_simplified,2022.2.4,MacIntel,57.14285714,661e456ee6de07e70aa9ef7b,661e51602fc11d4e371ec9e6,,,,,,,,,,,,,,,,,,,,,,,,,,,,,,,,,,167.659,169.8083,"[3,1,4,8,7,5,2,6]","[[0.3,0.2],[-0.3,0.2]]","[[0.125,-0.2],[-0.125,-0.2]]",-0.1021875,-0.205364583,1,0,0,1.6334,o2_image,169.8092,1,170.3083,170.3083,172.3082,0,0,0,0,1,,,,,,,,,,,,,,,,,,,,,,,,,,,,,,,,,,,,,,,,,,,,,,,,,,
,,5f13334daab04a01f1bee1bd,23,male,2024-04-16_11h22.47.228,stockport_simplified,2022.2.4,MacIntel,57.14285714,661e456ee6de07e70aa9ef7b,661e51602fc11d4e371ec9e6,,,,,,,,,,,,,,,,,,,,,,,,,,,,,,,,,,,,,,,,,,,,,,,,,,,,,,,,0,14,14,13,1,B,X,N,o2_image,stimuli/out2.png,stimuli/out1.png,stimuli/correct_out2.png,,,,,,,,,,,,,,,,,,,,,,,,,,,,,,,,,,,,,,
,,5f13334daab04a01f1bee1bd,23,male,2024-04-16_11h22.47.228,stockport_simplified,2022.2.4,MacIntel,57.14285714,661e456ee6de07e70aa9ef7b,661e51602fc11d4e371ec9e6,,,,,,,,,,,,,,,,,,,,,,,,,,,,,,,,,,172.3091,177.2414,"[3,1,4,8,7,5,2,6]","[[0.3,0.2],[-0.3,0.2]]","[[0.125,-0.2],[-0.125,-0.2]]",0.11484809,-0.192269965,1,0,0,4.4172,o1_image,177.2519,0,177.7417,177.7417,179.7416,0,0,0,0,1,,,,,,,,,,,,,,,,,,,,,,,,,,,,,,,,,,,,,,,,,,,,,,,,,,
,,5f13334daab04a01f1bee1bd,23,male,2024-04-16_11h22.47.228,stockport_simplified,2022.2.4,MacIntel,57.14285714,661e456ee6de07e70aa9ef7b,661e51602fc11d4e371ec9e6,,,,,,,,,,,,,,,,,,,,,,,,,,,,,,,,,,,,,,,,,,,,,,,,,,,,,,,,0,15,15,12,1,B,X,N,o2_image,stimuli/out2.png,stimuli/out1.png,stimuli/correct_out2.png,,,,,,,,,,,,,,,,,,,,,,,,,,,,,,,,,,,,,,
,,5f13334daab04a01f1bee1bd,23,male,2024-04-16_11h22.47.228,stockport_simplified,2022.2.4,MacIntel,57.14285714,661e456ee6de07e70aa9ef7b,661e51602fc11d4e371ec9e6,,,,,,,,,,,,,,,,,,,,,,,,,,,,,,,,,,179.7423,181.7919,"[3,1,4,8,7,5,2,6]","[[0.3,0.2],[-0.3,0.2]]","[[0.125,-0.2],[-0.125,-0.2]]",-0.079769965,-0.185143229,1,0,0,1.5326,o2_image,181.7927,1,182.2906,182.2906,184.2915,0,0,0,0,1,,,,,,,,,,,,,,,,,,,,,,,,,,,,,,,,,,,,,,,,,,,,,,,,,,
,,5f13334daab04a01f1bee1bd,23,male,2024-04-16_11h22.47.228,stockport_simplified,2022.2.4,MacIntel,57.14285714,661e456ee6de07e70aa9ef7b,661e51602fc11d4e371ec9e6,,,,,,,,,,,,,,,,,,,,,,,,,,,,,,,,,,,,,,,,,,,,,,,,,,,,,,,,0,16,16,55,1,N,M,D,o2_image,stimuli/out2.png,stimuli/out1.png,stimuli/correct_out2.png,,,,,,,,,,,,,,,,,,,,,,,,,,,,,,,,,,,,,,
,,5f13334daab04a01f1bee1bd,23,male,2024-04-16_11h22.47.228,stockport_simplified,2022.2.4,MacIntel,57.14285714,661e456ee6de07e70aa9ef7b,661e51602fc11d4e371ec9e6,,,,,,,,,,,,,,,,,,,,,,,,,,,,,,,,,,184.2922,189.3413,"[3,1,4,8,7,5,2,6]","[[-0.3,0.2],[0.3,0.2]]","[[-0.125,-0.2],[0.125,-0.2]]",0.104140625,-0.181306424,1,0,0,4.5322,o2_image,189.3514,0,189.8414,189.8415,191.8415,0,0,0,0,1,,,,,,,,,,,,,,,,,,,,,,,,,,,,,,,,,,,,,,,,,,,,,,,,,,
,,5f13334daab04a01f1bee1bd,23,male,2024-04-16_11h22.47.228,stockport_simplified,2022.2.4,MacIntel,57.14285714,661e456ee6de07e70aa9ef7b,661e51602fc11d4e371ec9e6,,,,,,,,,,,,,,,,,,,,,,,,,,,,,,,,,,,,,,,,,,,,,,,,,,,,,,,,0,17,17,6,1,A,Y,N,o1_image,stimuli/out1.png,stimuli/correct_out1.png,stimuli/out2.png,,,,,,,,,,,,,,,,,,,,,,,,,,,,,,,,,,,,,,
,,5f13334daab04a01f1bee1bd,23,male,2024-04-16_11h22.47.228,stockport_simplified,2022.2.4,MacIntel,57.14285714,661e456ee6de07e70aa9ef7b,661e51602fc11d4e371ec9e6,,,,,,,,,,,,,,,,,,,,,,,,,,,,,,,,,,191.8423,193.7746,"[3,1,4,8,7,5,2,6]","[[0.3,0.2],[-0.3,0.2]]","[[0.125,-0.2],[-0.125,-0.2]]",0.144835069,-0.175642361,1,0,0,1.4159,o1_image,193.7754,1,194.2748,194.2748,196.2736,0,0,0,0,1,,,,,,,,,,,,,,,,,,,,,,,,,,,,,,,,,,,,,,,,,,,,,,,,,,
,,5f13334daab04a01f1bee1bd,23,male,2024-04-16_11h22.47.228,stockport_simplified,2022.2.4,MacIntel,57.14285714,661e456ee6de07e70aa9ef7b,661e51602fc11d4e371ec9e6,,,,,,,,,,,,,,,,,,,,,,,,,,,,,,,,,,,,,,,,,,,,,,,,,,,,,,,,0,18,18,4,1,A,X,N,o1_image,stimuli/out1.png,stimuli/correct_out1.png,stimuli/out2.png,,,,,,,,,,,,,,,,,,,,,,,,,,,,,,,,,,,,,,
,,5f13334daab04a01f1bee1bd,23,male,2024-04-16_11h22.47.228,stockport_simplified,2022.2.4,MacIntel,57.14285714,661e456ee6de07e70aa9ef7b,661e51602fc11d4e371ec9e6,,,,,,,,,,,,,,,,,,,,,,,,,,,,,,,,,,196.2742,198.4249,"[3,1,4,8,7,5,2,6]","[[-0.3,0.2],[0.3,0.2]]","[[-0.125,-0.2],[0.125,-0.2]]",-0.101475694,-0.233302951,1,0,0,1.6492,o1_image,198.4261,1,198.9249,198.9249,200.9247,0,0,0,0,1,,,,,,,,,,,,,,,,,,,,,,,,,,,,,,,,,,,,,,,,,,,,,,,,,,
,,5f13334daab04a01f1bee1bd,23,male,2024-04-16_11h22.47.228,stockport_simplified,2022.2.4,MacIntel,57.14285714,661e456ee6de07e70aa9ef7b,661e51602fc11d4e371ec9e6,,,,,,,,,,,,,,,,,,,,,,,,,,,,,,,,,,,,,,,,,,,,,,,,,,,,,,,,0,19,19,23,1,N,M,C,o1_image,stimuli/out1.png,stimuli/correct_out1.png,stimuli/out2.png,,,,,,,,,,,,,,,,,,,,,,,,,,,,,,,,,,,,,,
,,5f13334daab04a01f1bee1bd,23,male,2024-04-16_11h22.47.228,stockport_simplified,2022.2.4,MacIntel,57.14285714,661e456ee6de07e70aa9ef7b,661e51602fc11d4e371ec9e6,,,,,,,,,,,,,,,,,,,,,,,,,,,,,,,,,,200.9253,212.4245,"[3,1,4,8,7,5,2,6]","[[0.3,0.2],[-0.3,0.2]]","[[-0.125,-0.2],[0.125,-0.2]]",,,,,,,,,,,,,,,,,,0,20,20,37,1,A,Y,N,o1_image,stimuli/out1.png,stimuli/correct_out1.png,stimuli/out2.png,,,,,,,,,,,,,,,,,,,,,,,,,,,,,,,,,,,,,,
,,5f13334daab04a01f1bee1bd,23,male,2024-04-16_11h22.47.228,stockport_simplified,2022.2.4,MacIntel,57.14285714,661e456ee6de07e70aa9ef7b,661e51602fc11d4e371ec9e6,,,,,,,,,,,,,,,,,,,,,,,,,,,,,,,,,,212.4353,214.2403,"[3,1,4,8,7,5,2,6]","[[-0.3,0.2],[0.3,0.2]]","[[-0.125,-0.2],[0.125,-0.2]]",-0.13577691,-0.178715278,1,0,0,1.2997,o1_image,214.2411,0,214.7408,214.7408,216.7412,0,0,0,0,1,,,,,,,,,,,,,,,,,,,,,,,,,,,,,,,,,,,,,,,,,,,,,,,,,,
,,5f13334daab04a01f1bee1bd,23,male,2024-04-16_11h22.47.228,stockport_simplified,2022.2.4,MacIntel,57.14285714,661e456ee6de07e70aa9ef7b,661e51602fc11d4e371ec9e6,,,,,,,,,,,,,,,,,,,,,,,,,,,,,,,,,,,,,,,,,,,,,,,,,,,,,,,,0,21,21,59,1,N,M,D,o2_image,stimuli/out2.png,stimuli/out1.png,stimuli/correct_out2.png,,,,,,,,,,,,,,,,,,,,,,,,,,,,,,,,,,,,,,
,,5f13334daab04a01f1bee1bd,23,male,2024-04-16_11h22.47.228,stockport_simplified,2022.2.4,MacIntel,57.14285714,661e456ee6de07e70aa9ef7b,661e51602fc11d4e371ec9e6,,,,,,,,,,,,,,,,,,,,,,,,,,,,,,,,,,216.7416,219.0074,"[3,1,4,8,7,5,2,6]","[[-0.3,0.2],[0.3,0.2]]","[[-0.125,-0.2],[0.125,-0.2]]",-0.142730035,-0.185355903,1,0,0,1.7492,o1_image,219.0082,0,219.5068,219.5069,221.5072,0,0,0,0,1,,,,,,,,,,,,,,,,,,,,,,,,,,,,,,,,,,,,,,,,,,,,,,,,,,
,,5f13334daab04a01f1bee1bd,23,male,2024-04-16_11h22.47.228,stockport_simplified,2022.2.4,MacIntel,57.14285714,661e456ee6de07e70aa9ef7b,661e51602fc11d4e371ec9e6,,,,,,,,,,,,,,,,,,,,,,,,,,,,,,,,,,,,,,,,,,,,,,,,,,,,,,,,0,22,22,41,1,B,X,N,o2_image,stimuli/out2.png,stimuli/out1.png,stimuli/correct_out2.png,,,,,,,,,,,,,,,,,,,,,,,,,,,,,,,,,,,,,,
,,5f13334daab04a01f1bee1bd,23,male,2024-04-16_11h22.47.228,stockport_simplified,2022.2.4,MacIntel,57.14285714,661e456ee6de07e70aa9ef7b,661e51602fc11d4e371ec9e6,,,,,,,,,,,,,,,,,,,,,,,,,,,,,,,,,,221.5078,223.0745,"[3,1,4,8,7,5,2,6]","[[0.3,0.2],[-0.3,0.2]]","[[-0.125,-0.2],[0.125,-0.2]]",-0.051523437,-0.174513889,1,0,0,1.0494,o1_image,223.0756,1,223.5745,223.5746,225.5745,0,0,0,0,1,,,,,,,,,,,,,,,,,,,,,,,,,,,,,,,,,,,,,,,,,,,,,,,,,,
,,5f13334daab04a01f1bee1bd,23,male,2024-04-16_11h22.47.228,stockport_simplified,2022.2.4,MacIntel,57.14285714,661e456ee6de07e70aa9ef7b,661e51602fc11d4e371ec9e6,,,,,,,,,,,,,,,,,,,,,,,,,,,,,,,,,,,,,,,,,,,,,,,,,,,,,,,,0,23,23,7,1,A,Y,N,o1_image,stimuli/out1.png,stimuli/correct_out1.png,stimuli/out2.png,,,,,,,,,,,,,,,,,,,,,,,,,,,,,,,,,,,,,,
,,5f13334daab04a01f1bee1bd,23,male,2024-04-16_11h22.47.228,stockport_simplified,2022.2.4,MacIntel,57.14285714,661e456ee6de07e70aa9ef7b,661e51602fc11d4e371ec9e6,,,,,,,,,,,,,,,,,,,,,,,,,,,,,,,,,,225.5752,227.808,"[3,1,4,8,7,5,2,6]","[[-0.3,0.2],[0.3,0.2]]","[[0.125,-0.2],[-0.125,-0.2]]",-0.107534722,-0.19265191,1,0,0,1.716,o2_image,227.8092,1,228.3077,228.3078,230.3074,0,0,0,0,1,,,,,,,,,,,,,,,,,,,,,,,,,,,,,,,,,,,,,,,,,,,,,,,,,,
,,5f13334daab04a01f1bee1bd,23,male,2024-04-16_11h22.47.228,stockport_simplified,2022.2.4,MacIntel,57.14285714,661e456ee6de07e70aa9ef7b,661e51602fc11d4e371ec9e6,,,,,,,,,,,,,,,,,,,,,,,,,,,,,,,,,,,,,,,,,,,,,,,,,,,,,,,,0,24,24,42,1,B,X,N,o2_image,stimuli/out2.png,stimuli/out1.png,stimuli/correct_out2.png,,,,,,,,,,,,,,,,,,,,,,,,,,,,,,,,,,,,,,
,,5f13334daab04a01f1bee1bd,23,male,2024-04-16_11h22.47.228,stockport_simplified,2022.2.4,MacIntel,57.14285714,661e456ee6de07e70aa9ef7b,661e51602fc11d4e371ec9e6,,,,,,,,,,,,,,,,,,,,,,,,,,,,,,,,,,230.3081,231.8078,"[3,1,4,8,7,5,2,6]","[[-0.3,0.2],[0.3,0.2]]","[[-0.125,-0.2],[0.125,-0.2]]",-0.102582465,-0.194565972,1,0,0,0.9828,o1_image,231.8088,1,232.3078,232.3078,234.3078,0,0,0,0,1,,,,,,,,,,,,,,,,,,,,,,,,,,,,,,,,,,,,,,,,,,,,,,,,,,
,,5f13334daab04a01f1bee1bd,23,male,2024-04-16_11h22.47.228,stockport_simplified,2022.2.4,MacIntel,57.14285714,661e456ee6de07e70aa9ef7b,661e51602fc11d4e371ec9e6,,,,,,,,,,,,,,,,,,,,,,,,,,,,,,,,,,,,,,,,,,,,,,,,,,,,,,,,0,25,25,34,1,A,X,N,o1_image,stimuli/out1.png,stimuli/correct_out1.png,stimuli/out2.png,,,,,,,,,,,,,,,,,,,,,,,,,,,,,,,,,,,,,,
,,5f13334daab04a01f1bee1bd,23,male,2024-04-16_11h22.47.228,stockport_simplified,2022.2.4,MacIntel,57.14285714,661e456ee6de07e70aa9ef7b,661e51602fc11d4e371ec9e6,,,,,,,,,,,,,,,,,,,,,,,,,,,,,,,,,,234.3085,236.1079,"[3,1,4,8,7,5,2,6]","[[0.3,0.2],[-0.3,0.2]]","[[0.125,-0.2],[-0.125,-0.2]]",-0.090416667,-0.166710069,1,0,0,1.2826,o2_image,236.109,1,236.6077,236.6077,238.6078,0,0,0,0,1,,,,,,,,,,,,,,,,,,,,,,,,,,,,,,,,,,,,,,,,,,,,,,,,,,
,,5f13334daab04a01f1bee1bd,23,male,2024-04-16_11h22.47.228,stockport_simplified,2022.2.4,MacIntel,57.14285714,661e456ee6de07e70aa9ef7b,661e51602fc11d4e371ec9e6,,,,,,,,,,,,,,,,,,,,,,,,,,,,,,,,,,,,,,,,,,,,,,,,,,,,,,,,0,26,26,47,1,B,Y,N,o2_image,stimuli/out2.png,stimuli/out1.png,stimuli/correct_out2.png,,,,,,,,,,,,,,,,,,,,,,,,,,,,,,,,,,,,,,
,,5f13334daab04a01f1bee1bd,23,male,2024-04-16_11h22.47.228,stockport_simplified,2022.2.4,MacIntel,57.14285714,661e456ee6de07e70aa9ef7b,661e51602fc11d4e371ec9e6,,,,,,,,,,,,,,,,,,,,,,,,,,,,,,,,,,238.6084,241.2578,"[3,1,4,8,7,5,2,6]","[[-0.3,0.2],[0.3,0.2]]","[[0.125,-0.2],[-0.125,-0.2]]",-0.197144097,-0.183307292,1,0,0,2.1331,o2_image,241.2589,1,241.7577,241.7577,243.7579,0,0,0,0,1,,,,,,,,,,,,,,,,,,,,,,,,,,,,,,,,,,,,,,,,,,,,,,,,,,
,,5f13334daab04a01f1bee1bd,23,male,2024-04-16_11h22.47.228,stockport_simplified,2022.2.4,MacIntel,57.14285714,661e456ee6de07e70aa9ef7b,661e51602fc11d4e371ec9e6,,,,,,,,,,,,,,,,,,,,,,,,,,,,,,,,,,,,,,,,,,,,,,,,,,,,,,,,0,27,27,49,1,B,Y,N,o2_image,stimuli/out2.png,stimuli/out1.png,stimuli/correct_out2.png,,,,,,,,,,,,,,,,,,,,,,,,,,,,,,,,,,,,,,
,,5f13334daab04a01f1bee1bd,23,male,2024-04-16_11h22.47.228,stockport_simplified,2022.2.4,MacIntel,57.14285714,661e456ee6de07e70aa9ef7b,661e51602fc11d4e371ec9e6,,,,,,,,,,,,,,,,,,,,,,,,,,,,,,,,,,243.7585,246.7571,"[3,1,4,8,7,5,2,6]","[[0.3,0.2],[-0.3,0.2]]","[[-0.125,-0.2],[0.125,-0.2]]",-0.079869792,-0.206666667,1,0,0,2.4813,o1_image,246.7679,1,247.2577,247.2578,249.2579,0,0,0,0,1,,,,,,,,,,,,,,,,,,,,,,,,,,,,,,,,,,,,,,,,,,,,,,,,,,
,,5f13334daab04a01f1bee1bd,23,male,2024-04-16_11h22.47.228,stockport_simplified,2022.2.4,MacIntel,57.14285714,661e456ee6de07e70aa9ef7b,661e51602fc11d4e371ec9e6,,,,,,,,,,,,,,,,,,,,,,,,,,,,,,,,,,,,,,,,,,,,,,,,,,,,,,,,0,28,28,52,1,N,M,C,o1_image,stimuli/out1.png,stimuli/correct_out1.png,stimuli/out2.png,,,,,,,,,,,,,,,,,,,,,,,,,,,,,,,,,,,,,,
,,5f13334daab04a01f1bee1bd,23,male,2024-04-16_11h22.47.228,stockport_simplified,2022.2.4,MacIntel,57.14285714,661e456ee6de07e70aa9ef7b,661e51602fc11d4e371ec9e6,,,,,,,,,,,,,,,,,,,,,,,,,,,,,,,,,,249.2585,252.1411,"[3,1,4,8,7,5,2,6]","[[-0.3,0.2],[0.3,0.2]]","[[-0.125,-0.2],[0.125,-0.2]]",-0.108007812,-0.189114583,1,0,0,2.3665,o1_image,252.1419,1,252.6411,252.6411,254.6414,0,0,0,0,1,,,,,,,,,,,,,,,,,,,,,,,,,,,,,,,,,,,,,,,,,,,,,,,,,,
,,5f13334daab04a01f1bee1bd,23,male,2024-04-16_11h22.47.228,stockport_simplified,2022.2.4,MacIntel,57.14285714,661e456ee6de07e70aa9ef7b,661e51602fc11d4e371ec9e6,,,,,,,,,,,,,,,,,,,,,,,,,,,,,,,,,,,,,,,,,,,,,,,,,,,,,,,,0,29,29,54,1,N,M,C,o1_image,stimuli/out1.png,stimuli/correct_out1.png,stimuli/out2.png,,,,,,,,,,,,,,,,,,,,,,,,,,,,,,,,,,,,,,
,,5f13334daab04a01f1bee1bd,23,male,2024-04-16_11h22.47.228,stockport_simplified,2022.2.4,MacIntel,57.14285714,661e456ee6de07e70aa9ef7b,661e51602fc11d4e371ec9e6,,,,,,,,,,,,,,,,,,,,,,,,,,,,,,,,,,254.642,257.2575,"[3,1,4,8,7,5,2,6]","[[-0.3,0.2],[0.3,0.2]]","[[0.125,-0.2],[-0.125,-0.2]]",-0.120711806,-0.196371528,1,0,0,2.0989,o2_image,257.2583,1,257.7575,257.7575,259.7578,0,0,0,0,1,,,,,,,,,,,,,,,,,,,,,,,,,,,,,,,,,,,,,,,,,,,,,,,,,,
,,5f13334daab04a01f1bee1bd,23,male,2024-04-16_11h22.47.228,stockport_simplified,2022.2.4,MacIntel,57.14285714,661e456ee6de07e70aa9ef7b,661e51602fc11d4e371ec9e6,,,,,,,,,,,,,,,,,,,,,,,,,,,,,,,,,,,,,,,,,,,,,,,,,,,,,,,,0,30,30,26,1,N,M,D,o2_image,stimuli/out2.png,stimuli/out1.png,stimuli/correct_out2.png,,,,,,,,,,,,,,,,,,,,,,,,,,,,,,,,,,,,,,
,,5f13334daab04a01f1bee1bd,23,male,2024-04-16_11h22.47.228,stockport_simplified,2022.2.4,MacIntel,57.14285714,661e456ee6de07e70aa9ef7b,661e51602fc11d4e371ec9e6,,,,,,,,,,,,,,,,,,,,,,,,,,,,,,,,,,259.7585,262.0744,"[3,1,4,8,7,5,2,6]","[[-0.3,0.2],[0.3,0.2]]","[[0.125,-0.2],[-0.125,-0.2]]",-0.109991319,-0.185963542,1,0,0,1.7992,o2_image,262.0756,1,262.5747,262.5747,264.5746,0,0,0,0,1,,,,,,,,,,,,,,,,,,,,,,,,,,,,,,,,,,,,,,,,,,,,,,,,,,
,,5f13334daab04a01f1bee1bd,23,male,2024-04-16_11h22.47.228,stockport_simplified,2022.2.4,MacIntel,57.14285714,661e456ee6de07e70aa9ef7b,661e51602fc11d4e371ec9e6,,,,,,,,,,,,,,,,,,,,,,,,,,,,,,,,,,,,,,,,,,,,,,,,,,,,,,,,0,31,31,14,1,B,X,N,o2_image,stimuli/out2.png,stimuli/out1.png,stimuli/correct_out2.png,,,,,,,,,,,,,,,,,,,,,,,,,,,,,,,,,,,,,,
,,5f13334daab04a01f1bee1bd,23,male,2024-04-16_11h22.47.228,stockport_simplified,2022.2.4,MacIntel,57.14285714,661e456ee6de07e70aa9ef7b,661e51602fc11d4e371ec9e6,,,,,,,,,,,,,,,,,,,,,,,,,,,,,,,,,,264.5751,266.3409,"[3,1,4,8,7,5,2,6]","[[0.3,0.2],[-0.3,0.2]]","[[-0.125,-0.2],[0.125,-0.2]]",-0.114331597,-0.207643229,1,0,0,1.2435,o1_image,266.3419,1,266.8408,266.8409,268.8411,0,0,0,0,1,,,,,,,,,,,,,,,,,,,,,,,,,,,,,,,,,,,,,,,,,,,,,,,,,,
,,5f13334daab04a01f1bee1bd,23,male,2024-04-16_11h22.47.228,stockport_simplified,2022.2.4,MacIntel,57.14285714,661e456ee6de07e70aa9ef7b,661e51602fc11d4e371ec9e6,,,,,,,,,,,,,,,,,,,,,,,,,,,,,,,,,,,,,,,,,,,,,,,,,,,,,,,,0,32,32,1,1,A,X,N,o1_image,stimuli/out1.png,stimuli/correct_out1.png,stimuli/out2.png,,,,,,,,,,,,,,,,,,,,,,,,,,,,,,,,,,,,,,
,,5f13334daab04a01f1bee1bd,23,male,2024-04-16_11h22.47.228,stockport_simplified,2022.2.4,MacIntel,57.14285714,661e456ee6de07e70aa9ef7b,661e51602fc11d4e371ec9e6,,,,,,,,,,,,,,,,,,,,,,,,,,,,,,,,,,268.8417,272.3409,"[3,1,4,8,7,5,2,6]","[[0.3,0.2],[-0.3,0.2]]","[[-0.125,-0.2],[0.125,-0.2]]",-0.070138889,-0.192938368,1,0,0,2.9821,o1_image,272.342,1,272.8409,272.8409,274.8403,0,0,0,0,1,,,,,,,,,,,,,,,,,,,,,,,,,,,,,,,,,,,,,,,,,,,,,,,,,,
,,5f13334daab04a01f1bee1bd,23,male,2024-04-16_11h22.47.228,stockport_simplified,2022.2.4,MacIntel,57.14285714,661e456ee6de07e70aa9ef7b,661e51602fc11d4e371ec9e6,,,,,,,,,,,,,,,,,,,,,,,,,,,,,,,,,,,,,,,,,,,,,,,,,,,,,,,,0,33,33,53,1,N,M,C,o1_image,stimuli/out1.png,stimuli/correct_out1.png,stimuli/out2.png,,,,,,,,,,,,,,,,,,,,,,,,,,,,,,,,,,,,,,
,,5f13334daab04a01f1bee1bd,23,male,2024-04-16_11h22.47.228,stockport_simplified,2022.2.4,MacIntel,57.14285714,661e456ee6de07e70aa9ef7b,661e51602fc11d4e371ec9e6,,,,,,,,,,,,,,,,,,,,,,,,,,,,,,,,,,274.841,276.9744,"[3,1,4,8,7,5,2,6]","[[0.3,0.2],[-0.3,0.2]]","[[0.125,-0.2],[-0.125,-0.2]]",0.098103299,-0.19109375,1,0,0,1.6158,o1_image,276.9753,1,277.4742,277.4742,279.4741,0,0,0,0,1,,,,,,,,,,,,,,,,,,,,,,,,,,,,,,,,,,,,,,,,,,,,,,,,,,
,,5f13334daab04a01f1bee1bd,23,male,2024-04-16_11h22.47.228,stockport_simplified,2022.2.4,MacIntel,57.14285714,661e456ee6de07e70aa9ef7b,661e51602fc11d4e371ec9e6,,,,,,,,,,,,,,,,,,,,,,,,,,,,,,,,,,,,,,,,,,,,,,,,,,,,,,,,0,34,34,9,1,A,Y,N,o1_image,stimuli/out1.png,stimuli/correct_out1.png,stimuli/out2.png,,,,,,,,,,,,,,,,,,,,,,,,,,,,,,,,,,,,,,
,,5f13334daab04a01f1bee1bd,23,male,2024-04-16_11h22.47.228,stockport_simplified,2022.2.4,MacIntel,57.14285714,661e456ee6de07e70aa9ef7b,661e51602fc11d4e371ec9e6,,,,,,,,,,,,,,,,,,,,,,,,,,,,,,,,,,279.4747,281.5075,"[3,1,4,8,7,5,2,6]","[[-0.3,0.2],[0.3,0.2]]","[[-0.125,-0.2],[0.125,-0.2]]",0.128355035,-0.18078559,1,0,0,1.5088,o2_image,281.5087,1,282.0075,282.0076,284.0071,0,0,0,0,1,,,,,,,,,,,,,,,,,,,,,,,,,,,,,,,,,,,,,,,,,,,,,,,,,,
,,5f13334daab04a01f1bee1bd,23,male,2024-04-16_11h22.47.228,stockport_simplified,2022.2.4,MacIntel,57.14285714,661e456ee6de07e70aa9ef7b,661e51602fc11d4e371ec9e6,,,,,,,,,,,,,,,,,,,,,,,,,,,,,,,,,,,,,,,,,,,,,,,,,,,,,,,,0,35,35,40,1,B,X,N,o2_image,stimuli/out2.png,stimuli/out1.png,stimuli/correct_out2.png,,,,,,,,,,,,,,,,,,,,,,,,,,,,,,,,,,,,,,
,,5f13334daab04a01f1bee1bd,23,male,2024-04-16_11h22.47.228,stockport_simplified,2022.2.4,MacIntel,57.14285714,661e456ee6de07e70aa9ef7b,661e51602fc11d4e371ec9e6,,,,,,,,,,,,,,,,,,,,,,,,,,,,,,,,,,284.0075,285.6744,"[3,1,4,8,7,5,2,6]","[[0.3,0.2],[-0.3,0.2]]","[[0.125,-0.2],[-0.125,-0.2]]",-0.109709201,-0.177942708,1,0,0,1.1661,o2_image,285.6754,1,286.1741,286.1741,288.174,0,0,0,0,1,,,,,,,,,,,,,,,,,,,,,,,,,,,,,,,,,,,,,,,,,,,,,,,,,,
,,5f13334daab04a01f1bee1bd,23,male,2024-04-16_11h22.47.228,stockport_simplified,2022.2.4,MacIntel,57.14285714,661e456ee6de07e70aa9ef7b,661e51602fc11d4e371ec9e6,,,,,,,,,,,,,,,,,,,,,,,,,,,,,,,,,,,,,,,,,,,,,,,,,,,,,,,,0,36,36,16,1,B,Y,N,o2_image,stimuli/out2.png,stimuli/out1.png,stimuli/correct_out2.png,,,,,,,,,,,,,,,,,,,,,,,,,,,,,,,,,,,,,,
,,5f13334daab04a01f1bee1bd,23,male,2024-04-16_11h22.47.228,stockport_simplified,2022.2.4,MacIntel,57.14285714,661e456ee6de07e70aa9ef7b,661e51602fc11d4e371ec9e6,,,,,,,,,,,,,,,,,,,,,,,,,,,,,,,,,,288.1745,290.0576,"[3,1,4,8,7,5,2,6]","[[-0.3,0.2],[0.3,0.2]]","[[0.125,-0.2],[-0.125,-0.2]]",0.105091146,-0.205772569,1,0,0,1.3661,o1_image,290.0586,1,290.5574,290.5575,292.5576,0,0,0,0,1,,,,,,,,,,,,,,,,,,,,,,,,,,,,,,,,,,,,,,,,,,,,,,,,,,
,,5f13334daab04a01f1bee1bd,23,male,2024-04-16_11h22.47.228,stockport_simplified,2022.2.4,MacIntel,57.14285714,661e456ee6de07e70aa9ef7b,661e51602fc11d4e371ec9e6,,,,,,,,,,,,,,,,,,,,,,,,,,,,,,,,,,,,,,,,,,,,,,,,,,,,,,,,0,37,37,39,1,A,Y,N,o1_image,stimuli/out1.png,stimuli/correct_out1.png,stimuli/out2.png,,,,,,,,,,,,,,,,,,,,,,,,,,,,,,,,,,,,,,
,,5f13334daab04a01f1bee1bd,23,male,2024-04-16_11h22.47.228,stockport_simplified,2022.2.4,MacIntel,57.14285714,661e456ee6de07e70aa9ef7b,661e51602fc11d4e371ec9e6,,,,,,,,,,,,,,,,,,,,,,,,,,,,,,,,,,292.5582,294.3072,"[3,1,4,8,7,5,2,6]","[[-0.3,0.2],[0.3,0.2]]","[[0.125,-0.2],[-0.125,-0.2]]",0.159157986,-0.185677083,1,0,0,1.2332,o1_image,294.3081,1,294.8077,294.8077,296.8073,0,0,0,0,1,,,,,,,,,,,,,,,,,,,,,,,,,,,,,,,,,,,,,,,,,,,,,,,,,,
,,5f13334daab04a01f1bee1bd,23,male,2024-04-16_11h22.47.228,stockport_simplified,2022.2.4,MacIntel,57.14285714,661e456ee6de07e70aa9ef7b,661e51602fc11d4e371ec9e6,,,,,,,,,,,,,,,,,,,,,,,,,,,,,,,,,,,,,,,,,,,,,,,,,,,,,,,,0,38,38,8,1,A,Y,N,o1_image,stimuli/out1.png,stimuli/correct_out1.png,stimuli/out2.png,,,,,,,,,,,,,,,,,,,,,,,,,,,,,,,,,,,,,,
,,5f13334daab04a01f1bee1bd,23,male,2024-04-16_11h22.47.228,stockport_simplified,2022.2.4,MacIntel,57.14285714,661e456ee6de07e70aa9ef7b,661e51602fc11d4e371ec9e6,,,,,,,,,,,,,,,,,,,,,,,,,,,,,,,,,,296.8077,299.2077,"[3,1,4,8,7,5,2,6]","[[0.3,0.2],[-0.3,0.2]]","[[-0.125,-0.2],[0.125,-0.2]]",-0.076640625,-0.195894097,1,0,0,1.8827,o1_image,299.2086,0,299.7074,299.7075,301.7073,0,0,0,0,1,,,,,,,,,,,,,,,,,,,,,,,,,,,,,,,,,,,,,,,,,,,,,,,,,,
,,5f13334daab04a01f1bee1bd,23,male,2024-04-16_11h22.47.228,stockport_simplified,2022.2.4,MacIntel,57.14285714,661e456ee6de07e70aa9ef7b,661e51602fc11d4e371ec9e6,,,,,,,,,,,,,,,,,,,,,,,,,,,,,,,,,,,,,,,,,,,,,,,,,,,,,,,,0,39,39,56,1,N,M,D,o2_image,stimuli/out2.png,stimuli/out1.png,stimuli/correct_out2.png,,,,,,,,,,,,,,,,,,,,,,,,,,,,,,,,,,,,,,
,,5f13334daab04a01f1bee1bd,23,male,2024-04-16_11h22.47.228,stockport_simplified,2022.2.4,MacIntel,57.14285714,661e456ee6de07e70aa9ef7b,661e51602fc11d4e371ec9e6,,,,,,,,,,,,,,,,,,,,,,,,,,,,,,,,,,301.708,303.1573,"[3,1,4,8,7,5,2,6]","[[-0.3,0.2],[0.3,0.2]]","[[0.125,-0.2],[-0.125,-0.2]]",-0.116063368,-0.176944444,1,0,0,0.9323,o2_image,303.1581,1,303.6576,303.6577,305.6573,0,0,0,0,1,,,,,,,,,,,,,,,,,,,,,,,,,,,,,,,,,,,,,,,,,,,,,,,,,,
,,5f13334daab04a01f1bee1bd,23,male,2024-04-16_11h22.47.228,stockport_simplified,2022.2.4,MacIntel,57.14285714,661e456ee6de07e70aa9ef7b,661e51602fc11d4e371ec9e6,,,,,,,,,,,,,,,,,,,,,,,,,,,,,,,,,,,,,,,,,,,,,,,,,,,,,,,,0,40,40,17,1,B,Y,N,o2_image,stimuli/out2.png,stimuli/out1.png,stimuli/correct_out2.png,,,,,,,,,,,,,,,,,,,,,,,,,,,,,,,,,,,,,,
,,5f13334daab04a01f1bee1bd,23,male,2024-04-16_11h22.47.228,stockport_simplified,2022.2.4,MacIntel,57.14285714,661e456ee6de07e70aa9ef7b,661e51602fc11d4e371ec9e6,,,,,,,,,,,,,,,,,,,,,,,,,,,,,,,,,,305.658,307.3574,"[3,1,4,8,7,5,2,6]","[[0.3,0.2],[-0.3,0.2]]","[[-0.125,-0.2],[0.125,-0.2]]",0.106601562,-0.150894097,1,0,0,1.1825,o2_image,307.3583,1,307.8567,307.8567,309.8573,0,0,0,0,1,,,,,,,,,,,,,,,,,,,,,,,,,,,,,,,,,,,,,,,,,,,,,,,,,,
,,5f13334daab04a01f1bee1bd,23,male,2024-04-16_11h22.47.228,stockport_simplified,2022.2.4,MacIntel,57.14285714,661e456ee6de07e70aa9ef7b,661e51602fc11d4e371ec9e6,,,,,,,,,,,,,,,,,,,,,,,,,,,,,,,,,,,,,,,,,,,,,,,,,,,,,,,,0,41,41,10,1,B,X,N,o2_image,stimuli/out2.png,stimuli/out1.png,stimuli/correct_out2.png,,,,,,,,,,,,,,,,,,,,,,,,,,,,,,,,,,,,,,
,,5f13334daab04a01f1bee1bd,23,male,2024-04-16_11h22.47.228,stockport_simplified,2022.2.4,MacIntel,57.14285714,661e456ee6de07e70aa9ef7b,661e51602fc11d4e371ec9e6,,,,,,,,,,,,,,,,,,,,,,,,,,,,,,,,,,309.858,311.4406,"[3,1,4,8,7,5,2,6]","[[-0.3,0.2],[0.3,0.2]]","[[0.125,-0.2],[-0.125,-0.2]]",0.109088542,-0.17671441,1,0,0,1.0666,o1_image,311.4415,1,311.9406,311.9406,313.9398,0,0,0,0,1,,,,,,,,,,,,,,,,,,,,,,,,,,,,,,,,,,,,,,,,,,,,,,,,,,
,,5f13334daab04a01f1bee1bd,23,male,2024-04-16_11h22.47.228,stockport_simplified,2022.2.4,MacIntel,57.14285714,661e456ee6de07e70aa9ef7b,661e51602fc11d4e371ec9e6,,,,,,,,,,,,,,,,,,,,,,,,,,,,,,,,,,,,,,,,,,,,,,,,,,,,,,,,0,42,42,32,1,A,X,N,o1_image,stimuli/out1.png,stimuli/correct_out1.png,stimuli/out2.png,,,,,,,,,,,,,,,,,,,,,,,,,,,,,,,,,,,,,,
,,5f13334daab04a01f1bee1bd,23,male,2024-04-16_11h22.47.228,stockport_simplified,2022.2.4,MacIntel,57.14285714,661e456ee6de07e70aa9ef7b,661e51602fc11d4e371ec9e6,,,,,,,,,,,,,,,,,,,,,,,,,,,,,,,,,,313.9404,315.724,"[3,1,4,8,7,5,2,6]","[[0.3,0.2],[-0.3,0.2]]","[[0.125,-0.2],[-0.125,-0.2]]",0.112230903,-0.178789063,1,0,0,1.2669,o1_image,315.725,1,316.2239,316.224,318.2239,0,0,0,0,1,,,,,,,,,,,,,,,,,,,,,,,,,,,,,,,,,,,,,,,,,,,,,,,,,,
,,5f13334daab04a01f1bee1bd,23,male,2024-04-16_11h22.47.228,stockport_simplified,2022.2.4,MacIntel,57.14285714,661e456ee6de07e70aa9ef7b,661e51602fc11d4e371ec9e6,,,,,,,,,,,,,,,,,,,,,,,,,,,,,,,,,,,,,,,,,,,,,,,,,,,,,,,,0,43,43,30,1,A,X,N,o1_image,stimuli/out1.png,stimuli/correct_out1.png,stimuli/out2.png,,,,,,,,,,,,,,,,,,,,,,,,,,,,,,,,,,,,,,
,,5f13334daab04a01f1bee1bd,23,male,2024-04-16_11h22.47.228,stockport_simplified,2022.2.4,MacIntel,57.14285714,661e456ee6de07e70aa9ef7b,661e51602fc11d4e371ec9e6,,,,,,,,,,,,,,,,,,,,,,,,,,,,,,,,,,318.2245,319.7404,"[3,1,4,8,7,5,2,6]","[[0.3,0.2],[-0.3,0.2]]","[[0.125,-0.2],[-0.125,-0.2]]",0.107300347,-0.184787326,1,0,0,0.9994,o1_image,319.7413,1,320.2405,320.2405,322.2404,0,0,0,0,1,,,,,,,,,,,,,,,,,,,,,,,,,,,,,,,,,,,,,,,,,,,,,,,,,,
,,5f13334daab04a01f1bee1bd,23,male,2024-04-16_11h22.47.228,stockport_simplified,2022.2.4,MacIntel,57.14285714,661e456ee6de07e70aa9ef7b,661e51602fc11d4e371ec9e6,,,,,,,,,,,,,,,,,,,,,,,,,,,,,,,,,,,,,,,,,,,,,,,,,,,,,,,,0,44,44,38,1,A,Y,N,o1_image,stimuli/out1.png,stimuli/correct_out1.png,stimuli/out2.png,,,,,,,,,,,,,,,,,,,,,,,,,,,,,,,,,,,,,,
,,5f13334daab04a01f1bee1bd,23,male,2024-04-16_11h22.47.228,stockport_simplified,2022.2.4,MacIntel,57.14285714,661e456ee6de07e70aa9ef7b,661e51602fc11d4e371ec9e6,,,,,,,,,,,,,,,,,,,,,,,,,,,,,,,,,,322.241,324.2737,"[3,1,4,8,7,5,2,6]","[[0.3,0.2],[-0.3,0.2]]","[[-0.125,-0.2],[0.125,-0.2]]",-0.039956597,-0.177065972,1,0,0,1.15,o1_image,324.2747,1,324.7738,324.7739,326.7735,0,0,0,0,1,,,,,,,,,,,,,,,,,,,,,,,,,,,,,,,,,,,,,,,,,,,,,,,,,,
,,5f13334daab04a01f1bee1bd,23,male,2024-04-16_11h22.47.228,stockport_simplified,2022.2.4,MacIntel,57.14285714,661e456ee6de07e70aa9ef7b,661e51602fc11d4e371ec9e6,,,,,,,,,,,,,,,,,,,,,,,,,,,,,,,,,,,,,,,,,,,,,,,,,,,,,,,,0,45,45,5,1,A,Y,N,o1_image,stimuli/out1.png,stimuli/correct_out1.png,stimuli/out2.png,,,,,,,,,,,,,,,,,,,,,,,,,,,,,,,,,,,,,,
,,5f13334daab04a01f1bee1bd,23,male,2024-04-16_11h22.47.228,stockport_simplified,2022.2.4,MacIntel,57.14285714,661e456ee6de07e70aa9ef7b,661e51602fc11d4e371ec9e6,,,,,,,,,,,,,,,,,,,,,,,,,,,,,,,,,,326.7737,328.2904,"[3,1,4,8,7,5,2,6]","[[0.3,0.2],[-0.3,0.2]]","[[0.125,-0.2],[-0.125,-0.2]]",-0.171189236,-0.186744792,1,0,0,1.016,o2_image,328.2913,1,328.7905,328.7905,330.7906,0,0,0,0,1,,,,,,,,,,,,,,,,,,,,,,,,,,,,,,,,,,,,,,,,,,,,,,,,,,
,,5f13334daab04a01f1bee1bd,23,male,2024-04-16_11h22.47.228,stockport_simplified,2022.2.4,MacIntel,57.14285714,661e456ee6de07e70aa9ef7b,661e51602fc11d4e371ec9e6,,,,,,,,,,,,,,,,,,,,,,,,,,,,,,,,,,,,,,,,,,,,,,,,,,,,,,,,0,46,46,18,1,B,Y,N,o2_image,stimuli/out2.png,stimuli/out1.png,stimuli/correct_out2.png,,,,,,,,,,,,,,,,,,,,,,,,,,,,,,,,,,,,,,
,,5f13334daab04a01f1bee1bd,23,male,2024-04-16_11h22.47.228,stockport_simplified,2022.2.4,MacIntel,57.14285714,661e456ee6de07e70aa9ef7b,661e51602fc11d4e371ec9e6,,,,,,,,,,,,,,,,,,,,,,,,,,,,,,,,,,330.7915,332.7739,"[3,1,4,8,7,5,2,6]","[[-0.3,0.2],[0.3,0.2]]","[[-0.125,-0.2],[0.125,-0.2]]",0.122200521,-0.184921875,1,0,0,1.4662,o2_image,332.7749,1,333.2734,333.2735,335.2738,0,0,0,0,1,,,,,,,,,,,,,,,,,,,,,,,,,,,,,,,,,,,,,,,,,,,,,,,,,,
,,5f13334daab04a01f1bee1bd,23,male,2024-04-16_11h22.47.228,stockport_simplified,2022.2.4,MacIntel,57.14285714,661e456ee6de07e70aa9ef7b,661e51602fc11d4e371ec9e6,,,,,,,,,,,,,,,,,,,,,,,,,,,,,,,,,,,,,,,,,,,,,,,,,,,,,,,,0,47,47,19,1,B,Y,N,o2_image,stimuli/out2.png,stimuli/out1.png,stimuli/correct_out2.png,,,,,,,,,,,,,,,,,,,,,,,,,,,,,,,,,,,,,,
,,5f13334daab04a01f1bee1bd,23,male,2024-04-16_11h22.47.228,stockport_simplified,2022.2.4,MacIntel,57.14285714,661e456ee6de07e70aa9ef7b,661e51602fc11d4e371ec9e6,,,,,,,,,,,,,,,,,,,,,,,,,,,,,,,,,,335.2745,338.5071,"[3,1,4,8,7,5,2,6]","[[0.3,0.2],[-0.3,0.2]]","[[0.125,-0.2],[-0.125,-0.2]]",-0.096197917,-0.195707465,1,0,0,2.7157,o2_image,338.5081,1,339.0071,339.0072,341.0078,0,0,0,0,1,,,,,,,,,,,,,,,,,,,,,,,,,,,,,,,,,,,,,,,,,,,,,,,,,,
,,5f13334daab04a01f1bee1bd,23,male,2024-04-16_11h22.47.228,stockport_simplified,2022.2.4,MacIntel,57.14285714,661e456ee6de07e70aa9ef7b,661e51602fc11d4e371ec9e6,,,,,,,,,,,,,,,,,,,,,,,,,,,,,,,,,,,,,,,,,,,,,,,,,,,,,,,,0,48,48,58,1,N,M,D,o2_image,stimuli/out2.png,stimuli/out1.png,stimuli/correct_out2.png,,,,,,,,,,,,,,,,,,,,,,,,,,,,,,,,,,,,,,
,,5f13334daab04a01f1bee1bd,23,male,2024-04-16_11h22.47.228,stockport_simplified,2022.2.4,MacIntel,57.14285714,661e456ee6de07e70aa9ef7b,661e51602fc11d4e371ec9e6,,,,,,,,,,,,,,,,,,,,,,,,,,,,,,,,,,341.0087,343.0236,"[3,1,4,8,7,5,2,6]","[[0.3,0.2],[-0.3,0.2]]","[[-0.125,-0.2],[0.125,-0.2]]",-0.098077257,-0.181475694,1,0,0,1.5,o1_image,343.0244,1,343.5237,343.5237,345.5236,0,0,0,0,1,,,,,,,,,,,,,,,,,,,,,,,,,,,,,,,,,,,,,,,,,,,,,,,,,,
,,5f13334daab04a01f1bee1bd,23,male,2024-04-16_11h22.47.228,stockport_simplified,2022.2.4,MacIntel,57.14285714,661e456ee6de07e70aa9ef7b,661e51602fc11d4e371ec9e6,,,,,,,,,,,,,,,,,,,,,,,,,,,,,,,,,,,,,,,,,,,,,,,,,,,,,,,,0,49,49,33,1,A,X,N,o1_image,stimuli/out1.png,stimuli/correct_out1.png,stimuli/out2.png,,,,,,,,,,,,,,,,,,,,,,,,,,,,,,,,,,,,,,
,,5f13334daab04a01f1bee1bd,23,male,2024-04-16_11h22.47.228,stockport_simplified,2022.2.4,MacIntel,57.14285714,661e456ee6de07e70aa9ef7b,661e51602fc11d4e371ec9e6,,,,,,,,,,,,,,,,,,,,,,,,,,,,,,,,,,345.5241,347.0734,"[3,1,4,8,7,5,2,6]","[[0.3,0.2],[-0.3,0.2]]","[[-0.125,-0.2],[0.125,-0.2]]",0.076467014,-0.186974826,1,0,0,1.033,o2_image,347.074,1,347.5738,347.5739,349.5726,0,0,0,0,1,,,,,,,,,,,,,,,,,,,,,,,,,,,,,,,,,,,,,,,,,,,,,,,,,,
,,5f13334daab04a01f1bee1bd,23,male,2024-04-16_11h22.47.228,stockport_simplified,2022.2.4,MacIntel,57.14285714,661e456ee6de07e70aa9ef7b,661e51602fc11d4e371ec9e6,,,,,,,,,,,,,,,,,,,,,,,,,,,,,,,,,,,,,,,,,,,,,,,,,,,,,,,,0,50,50,11,1,B,X,N,o2_image,stimuli/out2.png,stimuli/out1.png,stimuli/correct_out2.png,,,,,,,,,,,,,,,,,,,,,,,,,,,,,,,,,,,,,,
,,5f13334daab04a01f1bee1bd,23,male,2024-04-16_11h22.47.228,stockport_simplified,2022.2.4,MacIntel,57.14285714,661e456ee6de07e70aa9ef7b,661e51602fc11d4e371ec9e6,,,,,,,,,,,,,,,,,,,,,,,,,,,,,,,,,,349.5731,351.7405,"[3,1,4,8,7,5,2,6]","[[0.3,0.2],[-0.3,0.2]]","[[0.125,-0.2],[-0.125,-0.2]]",-0.083967014,-0.192586806,1,0,0,1.6662,o2_image,351.7417,1,352.24,352.24,354.2404,0,0,0,0,1,,,,,,,,,,,,,,,,,,,,,,,,,,,,,,,,,,,,,,,,,,,,,,,,,,
,,5f13334daab04a01f1bee1bd,23,male,2024-04-16_11h22.47.228,stockport_simplified,2022.2.4,MacIntel,57.14285714,661e456ee6de07e70aa9ef7b,661e51602fc11d4e371ec9e6,,,,,,,,,,,,,,,,,,,,,,,,,,,,,,,,,,,,,,,,,,,,,,,,,,,,,,,,0,51,51,57,1,N,M,D,o2_image,stimuli/out2.png,stimuli/out1.png,stimuli/correct_out2.png,,,,,,,,,,,,,,,,,,,,,,,,,,,,,,,,,,,,,,
,,5f13334daab04a01f1bee1bd,23,male,2024-04-16_11h22.47.228,stockport_simplified,2022.2.4,MacIntel,57.14285714,661e456ee6de07e70aa9ef7b,661e51602fc11d4e371ec9e6,,,,,,,,,,,,,,,,,,,,,,,,,,,,,,,,,,354.2411,356.5236,"[3,1,4,8,7,5,2,6]","[[0.3,0.2],[-0.3,0.2]]","[[-0.125,-0.2],[0.125,-0.2]]",-0.204496528,-0.191909722,1,0,0,1.7659,o1_image,356.5247,1,357.0238,357.0239,359.0238,0,0,0,0,1,,,,,,,,,,,,,,,,,,,,,,,,,,,,,,,,,,,,,,,,,,,,,,,,,,
,,5f13334daab04a01f1bee1bd,23,male,2024-04-16_11h22.47.228,stockport_simplified,2022.2.4,MacIntel,57.14285714,661e456ee6de07e70aa9ef7b,661e51602fc11d4e371ec9e6,,,,,,,,,,,,,,,,,,,,,,,,,,,,,,,,,,,,,,,,,,,,,,,,,,,,,,,,0,52,52,51,1,N,M,C,o1_image,stimuli/out1.png,stimuli/correct_out1.png,stimuli/out2.png,,,,,,,,,,,,,,,,,,,,,,,,,,,,,,,,,,,,,,
,,5f13334daab04a01f1bee1bd,23,male,2024-04-16_11h22.47.228,stockport_simplified,2022.2.4,MacIntel,57.14285714,661e456ee6de07e70aa9ef7b,661e51602fc11d4e371ec9e6,,,,,,,,,,,,,,,,,,,,,,,,,,,,,,,,,,359.0242,361.3724,"[3,1,4,8,7,5,2,6]","[[-0.3,0.2],[0.3,0.2]]","[[0.125,-0.2],[-0.125,-0.2]]",-0.073849826,-0.178758681,1,0,0,1.833,o2_image,361.3733,0,361.8737,361.8738,363.8736,0,0,0,0,1,,,,,,,,,,,,,,,,,,,,,,,,,,,,,,,,,,,,,,,,,,,,,,,,,,
,,5f13334daab04a01f1bee1bd,23,male,2024-04-16_11h22.47.228,stockport_simplified,2022.2.4,MacIntel,57.14285714,661e456ee6de07e70aa9ef7b,661e51602fc11d4e371ec9e6,,,,,,,,,,,,,,,,,,,,,,,,,,,,,,,,,,,,,,,,,,,,,,,,,,,,,,,,0,53,53,20,1,N,M,C,o1_image,stimuli/out1.png,stimuli/correct_out1.png,stimuli/out2.png,,,,,,,,,,,,,,,,,,,,,,,,,,,,,,,,,,,,,,
,,5f13334daab04a01f1bee1bd,23,male,2024-04-16_11h22.47.228,stockport_simplified,2022.2.4,MacIntel,57.14285714,661e456ee6de07e70aa9ef7b,661e51602fc11d4e371ec9e6,,,,,,,,,,,,,,,,,,,,,,,,,,,,,,,,,,363.8743,365.3558,"[3,1,4,8,7,5,2,6]","[[0.3,0.2],[-0.3,0.2]]","[[-0.125,-0.2],[0.125,-0.2]]",0.144956597,-0.178181424,1,0,0,0.9646,o2_image,365.3568,1,365.8558,365.8558,367.8556,0,0,0,0,1,,,,,,,,,,,,,,,,,,,,,,,,,,,,,,,,,,,,,,,,,,,,,,,,,,
,,5f13334daab04a01f1bee1bd,23,male,2024-04-16_11h22.47.228,stockport_simplified,2022.2.4,MacIntel,57.14285714,661e456ee6de07e70aa9ef7b,661e51602fc11d4e371ec9e6,,,,,,,,,,,,,,,,,,,,,,,,,,,,,,,,,,,,,,,,,,,,,,,,,,,,,,,,0,54,54,28,1,N,M,D,o2_image,stimuli/out2.png,stimuli/out1.png,stimuli/correct_out2.png,,,,,,,,,,,,,,,,,,,,,,,,,,,,,,,,,,,,,,
,,5f13334daab04a01f1bee1bd,23,male,2024-04-16_11h22.47.228,stockport_simplified,2022.2.4,MacIntel,57.14285714,661e456ee6de07e70aa9ef7b,661e51602fc11d4e371ec9e6,,,,,,,,,,,,,,,,,,,,,,,,,,,,,,,,,,367.856,369.7902,"[3,1,4,8,7,5,2,6]","[[0.3,0.2],[-0.3,0.2]]","[[-0.125,-0.2],[0.125,-0.2]]",0.074882813,-0.179036458,1,0,0,1.4328,o2_image,369.7909,1,370.2901,370.2901,372.29,0,0,0,0,1,,,,,,,,,,,,,,,,,,,,,,,,,,,,,,,,,,,,,,,,,,,,,,,,,,
,,5f13334daab04a01f1bee1bd,23,male,2024-04-16_11h22.47.228,stockport_simplified,2022.2.4,MacIntel,57.14285714,661e456ee6de07e70aa9ef7b,661e51602fc11d4e371ec9e6,,,,,,,,,,,,,,,,,,,,,,,,,,,,,,,,,,,,,,,,,,,,,,,,,,,,,,,,0,55,55,25,1,N,M,D,o2_image,stimuli/out2.png,stimuli/out1.png,stimuli/correct_out2.png,,,,,,,,,,,,,,,,,,,,,,,,,,,,,,,,,,,,,,
,,5f13334daab04a01f1bee1bd,23,male,2024-04-16_11h22.47.228,stockport_simplified,2022.2.4,MacIntel,57.14285714,661e456ee6de07e70aa9ef7b,661e51602fc11d4e371ec9e6,,,,,,,,,,,,,,,,,,,,,,,,,,,,,,,,,,372.2904,374.7237,"[3,1,4,8,7,5,2,6]","[[-0.3,0.2],[0.3,0.2]]","[[-0.125,-0.2],[0.125,-0.2]]",-0.057087674,-0.174322917,1,0,0,1.9162,o1_image,374.7348,1,375.2402,375.2402,377.2402,0,0,0,0,1,,,,,,,,,,,,,,,,,,,,,,,,,,,,,,,,,,,,,,,,,,,,,,,,,,
,,5f13334daab04a01f1bee1bd,23,male,2024-04-16_11h22.47.228,stockport_simplified,2022.2.4,MacIntel,57.14285714,661e456ee6de07e70aa9ef7b,661e51602fc11d4e371ec9e6,,,,,,,,,,,,,,,,,,,,,,,,,,,,,,,,,,,,,,,,,,,,,,,,,,,,,,,,0,56,56,36,1,A,Y,N,o1_image,stimuli/out1.png,stimuli/correct_out1.png,stimuli/out2.png,,,,,,,,,,,,,,,,,,,,,,,,,,,,,,,,,,,,,,
,,5f13334daab04a01f1bee1bd,23,male,2024-04-16_11h22.47.228,stockport_simplified,2022.2.4,MacIntel,57.14285714,661e456ee6de07e70aa9ef7b,661e51602fc11d4e371ec9e6,,,,,,,,,,,,,,,,,,,,,,,,,,,,,,,,,,377.2411,379.1903,"[3,1,4,8,7,5,2,6]","[[0.3,0.2],[-0.3,0.2]]","[[0.125,-0.2],[-0.125,-0.2]]",-0.077907986,-0.166293403,1,0,0,1.4338,o2_image,379.1912,1,379.6891,379.6892,381.6893,0,0,0,0,1,,,,,,,,,,,,,,,,,,,,,,,,,,,,,,,,,,,,,,,,,,,,,,,,,,
,,5f13334daab04a01f1bee1bd,23,male,2024-04-16_11h22.47.228,stockport_simplified,2022.2.4,MacIntel,57.14285714,661e456ee6de07e70aa9ef7b,661e51602fc11d4e371ec9e6,,,,,,,,,,,,,,,,,,,,,,,,,,,,,,,,,,,,,,,,,,,,,,,,,,,,,,,,0,57,57,44,1,B,X,N,o2_image,stimuli/out2.png,stimuli/out1.png,stimuli/correct_out2.png,,,,,,,,,,,,,,,,,,,,,,,,,,,,,,,,,,,,,,
,,5f13334daab04a01f1bee1bd,23,male,2024-04-16_11h22.47.228,stockport_simplified,2022.2.4,MacIntel,57.14285714,661e456ee6de07e70aa9ef7b,661e51602fc11d4e371ec9e6,,,,,,,,,,,,,,,,,,,,,,,,,,,,,,,,,,381.6902,384.2734,"[3,1,4,8,7,5,2,6]","[[0.3,0.2],[-0.3,0.2]]","[[-0.125,-0.2],[0.125,-0.2]]",-0.095069444,-0.176757813,1,0,0,2.0659,o1_image,384.2744,1,384.7734,384.7734,386.7723,0,0,0,0,1,,,,,,,,,,,,,,,,,,,,,,,,,,,,,,,,,,,,,,,,,,,,,,,,,,
,,5f13334daab04a01f1bee1bd,23,male,2024-04-16_11h22.47.228,stockport_simplified,2022.2.4,MacIntel,57.14285714,661e456ee6de07e70aa9ef7b,661e51602fc11d4e371ec9e6,,,,,,,,,,,,,,,,,,,,,,,,,,,,,,,,,,,,,,,,,,,,,,,,,,,,,,,,0,58,58,24,1,N,M,C,o1_image,stimuli/out1.png,stimuli/correct_out1.png,stimuli/out2.png,,,,,,,,,,,,,,,,,,,,,,,,,,,,,,,,,,,,,,
,,5f13334daab04a01f1bee1bd,23,male,2024-04-16_11h22.47.228,stockport_simplified,2022.2.4,MacIntel,57.14285714,661e456ee6de07e70aa9ef7b,661e51602fc11d4e371ec9e6,,,,,,,,,,,,,,,,,,,,,,,,,,,,,,,,,,386.7729,388.84,"[3,1,4,8,7,5,2,6]","[[-0.3,0.2],[0.3,0.2]]","[[0.125,-0.2],[-0.125,-0.2]]",-0.10094184,-0.21046875,1,0,0,1.5657,o2_image,388.8407,1,389.3401,389.3402,391.3403,0,0,0,0,1,,,,,,,,,,,,,,,,,,,,,,,,,,,,,,,,,,,,,,,,,,,,,,,,,,
,,5f13334daab04a01f1bee1bd,23,male,2024-04-16_11h22.47.228,stockport_simplified,2022.2.4,MacIntel,57.14285714,661e456ee6de07e70aa9ef7b,661e51602fc11d4e371ec9e6,,,,,,,,,,,,,,,,,,,,,,,,,,,,,,,,,,,,,,,,,,,,,,,,,,,,,,,,0,59,59,48,1,B,Y,N,o2_image,stimuli/out2.png,stimuli/out1.png,stimuli/correct_out2.png,,,,,,,,,,,,,,,,,,,,,,,,,,,,,,,,,,,,,,
,,5f13334daab04a01f1bee1bd,23,male,2024-04-16_11h22.47.228,stockport_simplified,2022.2.4,MacIntel,57.14285714,661e456ee6de07e70aa9ef7b,661e51602fc11d4e371ec9e6,,,,,,,,,,,,,,,,,,,,,,,,,,,,,,,,,,391.3409,393.2068,"[3,1,4,8,7,5,2,6]","[[0.3,0.2],[-0.3,0.2]]","[[-0.125,-0.2],[0.125,-0.2]]",0.051514757,-0.169704861,1,0,0,1.3498,o2_image,393.2078,1,393.7068,393.7068,395.7068,0,0,0,0,1,,,,,,,,,,,,,,,,,,,,,,,,,,,,,,,,,,,,,,,,,,,,,,,,,,
,,5f13334daab04a01f1bee1bd,23,male,2024-04-16_11h22.47.228,stockport_simplified,2022.2.4,MacIntel,57.14285714,661e456ee6de07e70aa9ef7b,661e51602fc11d4e371ec9e6,,,,,,,,,,,,,,,,,,,,,,,,,,,,,,,,,,,,,,,,,,,,,,,,,,,,,,,,1,0,60,19,1,B,Y,N,o2_image,stimuli/out2.png,stimuli/out1.png,stimuli/correct_out2.png,,,,,,,,,,,,,,,,,,,,,,,,,,,,,,,,,,,,,,
,,5f13334daab04a01f1bee1bd,23,male,2024-04-16_11h22.47.228,stockport_simplified,2022.2.4,MacIntel,57.14285714,661e456ee6de07e70aa9ef7b,661e51602fc11d4e371ec9e6,,,,,,,,,,,,,,,,,,,,,,,,,,,,,,,,,,395.7074,397.1893,"[3,1,4,8,7,5,2,6]","[[-0.3,0.2],[0.3,0.2]]","[[0.125,-0.2],[-0.125,-0.2]]",-0.125980903,-0.177947049,1,0,0,0.9657,o2_image,397.1902,1,397.689,397.689,399.6901,0,0,0,0,1,,,,,,,,,,,,,,,,,,,,,,,,,,,,,,,,,,,,,,,,,,,,,,,,,,
,,5f13334daab04a01f1bee1bd,23,male,2024-04-16_11h22.47.228,stockport_simplified,2022.2.4,MacIntel,57.14285714,661e456ee6de07e70aa9ef7b,661e51602fc11d4e371ec9e6,,,,,,,,,,,,,,,,,,,,,,,,,,,,,,,,,,,,,,,,,,,,,,,,,,,,,,,,1,1,61,47,1,B,Y,N,o2_image,stimuli/out2.png,stimuli/out1.png,stimuli/correct_out2.png,,,,,,,,,,,,,,,,,,,,,,,,,,,,,,,,,,,,,,
,,5f13334daab04a01f1bee1bd,23,male,2024-04-16_11h22.47.228,stockport_simplified,2022.2.4,MacIntel,57.14285714,661e456ee6de07e70aa9ef7b,661e51602fc11d4e371ec9e6,,,,,,,,,,,,,,,,,,,,,,,,,,,,,,,,,,399.6908,401.3402,"[3,1,4,8,7,5,2,6]","[[0.3,0.2],[-0.3,0.2]]","[[0.125,-0.2],[-0.125,-0.2]]",0.1165625,-0.182057292,1,0,0,1.1332,o1_image,401.3411,1,401.8397,401.8398,403.8392,0,0,0,0,1,,,,,,,,,,,,,,,,,,,,,,,,,,,,,,,,,,,,,,,,,,,,,,,,,,
,,5f13334daab04a01f1bee1bd,23,male,2024-04-16_11h22.47.228,stockport_simplified,2022.2.4,MacIntel,57.14285714,661e456ee6de07e70aa9ef7b,661e51602fc11d4e371ec9e6,,,,,,,,,,,,,,,,,,,,,,,,,,,,,,,,,,,,,,,,,,,,,,,,,,,,,,,,1,2,62,35,1,A,Y,N,o1_image,stimuli/out1.png,stimuli/correct_out1.png,stimuli/out2.png,,,,,,,,,,,,,,,,,,,,,,,,,,,,,,,,,,,,,,
,,5f13334daab04a01f1bee1bd,23,male,2024-04-16_11h22.47.228,stockport_simplified,2022.2.4,MacIntel,57.14285714,661e456ee6de07e70aa9ef7b,661e51602fc11d4e371ec9e6,,,,,,,,,,,,,,,,,,,,,,,,,,,,,,,,,,403.8398,406.8899,"[3,1,4,8,7,5,2,6]","[[0.3,0.2],[-0.3,0.2]]","[[-0.125,-0.2],[0.125,-0.2]]",0.159934896,-0.170368924,1,0,0,2.549,o2_image,406.9002,1,407.3902,407.3902,409.3895,0,0,0,0,1,,,,,,,,,,,,,,,,,,,,,,,,,,,,,,,,,,,,,,,,,,,,,,,,,,
,,5f13334daab04a01f1bee1bd,23,male,2024-04-16_11h22.47.228,stockport_simplified,2022.2.4,MacIntel,57.14285714,661e456ee6de07e70aa9ef7b,661e51602fc11d4e371ec9e6,,,,,,,,,,,,,,,,,,,,,,,,,,,,,,,,,,,,,,,,,,,,,,,,,,,,,,,,1,3,63,55,1,N,M,D,o2_image,stimuli/out2.png,stimuli/out1.png,stimuli/correct_out2.png,,,,,,,,,,,,,,,,,,,,,,,,,,,,,,,,,,,,,,
,,5f13334daab04a01f1bee1bd,23,male,2024-04-16_11h22.47.228,stockport_simplified,2022.2.4,MacIntel,57.14285714,661e456ee6de07e70aa9ef7b,661e51602fc11d4e371ec9e6,,,,,,,,,,,,,,,,,,,,,,,,,,,,,,,,,,409.3901,411.2736,"[3,1,4,8,7,5,2,6]","[[0.3,0.2],[-0.3,0.2]]","[[-0.125,-0.2],[0.125,-0.2]]",-0.145967882,-0.192356771,1,0,0,1.3661,o1_image,411.2743,1,411.7733,411.7733,413.7733,0,0,0,0,1,,,,,,,,,,,,,,,,,,,,,,,,,,,,,,,,,,,,,,,,,,,,,,,,,,
,,5f13334daab04a01f1bee1bd,23,male,2024-04-16_11h22.47.228,stockport_simplified,2022.2.4,MacIntel,57.14285714,661e456ee6de07e70aa9ef7b,661e51602fc11d4e371ec9e6,,,,,,,,,,,,,,,,,,,,,,,,,,,,,,,,,,,,,,,,,,,,,,,,,,,,,,,,1,4,64,7,1,A,Y,N,o1_image,stimuli/out1.png,stimuli/correct_out1.png,stimuli/out2.png,,,,,,,,,,,,,,,,,,,,,,,,,,,,,,,,,,,,,,
,,5f13334daab04a01f1bee1bd,23,male,2024-04-16_11h22.47.228,stockport_simplified,2022.2.4,MacIntel,57.14285714,661e456ee6de07e70aa9ef7b,661e51602fc11d4e371ec9e6,,,,,,,,,,,,,,,,,,,,,,,,,,,,,,,,,,413.7739,416.0566,"[3,1,4,8,7,5,2,6]","[[-0.3,0.2],[0.3,0.2]]","[[0.125,-0.2],[-0.125,-0.2]]",0.141779514,-0.199414062,1,0,0,1.766,o1_image,416.0576,0,416.5567,416.5567,418.5562,0,0,0,0,1,,,,,,,,,,,,,,,,,,,,,,,,,,,,,,,,,,,,,,,,,,,,,,,,,,
,,5f13334daab04a01f1bee1bd,23,male,2024-04-16_11h22.47.228,stockport_simplified,2022.2.4,MacIntel,57.14285714,661e456ee6de07e70aa9ef7b,661e51602fc11d4e371ec9e6,,,,,,,,,,,,,,,,,,,,,,,,,,,,,,,,,,,,,,,,,,,,,,,,,,,,,,,,1,5,65,59,1,N,M,D,o2_image,stimuli/out2.png,stimuli/out1.png,stimuli/correct_out2.png,,,,,,,,,,,,,,,,,,,,,,,,,,,,,,,,,,,,,,
,,5f13334daab04a01f1bee1bd,23,male,2024-04-16_11h22.47.228,stockport_simplified,2022.2.4,MacIntel,57.14285714,661e456ee6de07e70aa9ef7b,661e51602fc11d4e371ec9e6,,,,,,,,,,,,,,,,,,,,,,,,,,,,,,,,,,418.5568,420.5234,"[3,1,4,8,7,5,2,6]","[[-0.3,0.2],[0.3,0.2]]","[[0.125,-0.2],[-0.125,-0.2]]",0.125989583,-0.188767361,1,0,0,1.4505,o1_image,420.5242,1,421.0232,421.0232,423.0225,0,0,0,0,1,,,,,,,,,,,,,,,,,,,,,,,,,,,,,,,,,,,,,,,,,,,,,,,,,,
,,5f13334daab04a01f1bee1bd,23,male,2024-04-16_11h22.47.228,stockport_simplified,2022.2.4,MacIntel,57.14285714,661e456ee6de07e70aa9ef7b,661e51602fc11d4e371ec9e6,,,,,,,,,,,,,,,,,,,,,,,,,,,,,,,,,,,,,,,,,,,,,,,,,,,,,,,,1,6,66,1,1,A,X,N,o1_image,stimuli/out1.png,stimuli/correct_out1.png,stimuli/out2.png,,,,,,,,,,,,,,,,,,,,,,,,,,,,,,,,,,,,,,
,,5f13334daab04a01f1bee1bd,23,male,2024-04-16_11h22.47.228,stockport_simplified,2022.2.4,MacIntel,57.14285714,661e456ee6de07e70aa9ef7b,661e51602fc11d4e371ec9e6,,,,,,,,,,,,,,,,,,,,,,,,,,,,,,,,,,423.0231,424.9898,"[3,1,4,8,7,5,2,6]","[[0.3,0.2],[-0.3,0.2]]","[[-0.125,-0.2],[0.125,-0.2]]",-0.084162326,-0.189969618,1,0,0,1.4661,o1_image,424.9906,1,425.4898,425.4899,427.4899,0,0,0,0,1,,,,,,,,,,,,,,,,,,,,,,,,,,,,,,,,,,,,,,,,,,,,,,,,,,
,,5f13334daab04a01f1bee1bd,23,male,2024-04-16_11h22.47.228,stockport_simplified,2022.2.4,MacIntel,57.14285714,661e456ee6de07e70aa9ef7b,661e51602fc11d4e371ec9e6,,,,,,,,,,,,,,,,,,,,,,,,,,,,,,,,,,,,,,,,,,,,,,,,,,,,,,,,1,7,67,32,1,A,X,N,o1_image,stimuli/out1.png,stimuli/correct_out1.png,stimuli/out2.png,,,,,,,,,,,,,,,,,,,,,,,,,,,,,,,,,,,,,,
,,5f13334daab04a01f1bee1bd,23,male,2024-04-16_11h22.47.228,stockport_simplified,2022.2.4,MacIntel,57.14285714,661e456ee6de07e70aa9ef7b,661e51602fc11d4e371ec9e6,,,,,,,,,,,,,,,,,,,,,,,,,,,,,,,,,,427.4906,428.8898,"[3,1,4,8,7,5,2,6]","[[-0.3,0.2],[0.3,0.2]]","[[0.125,-0.2],[-0.125,-0.2]]",0.100364583,-0.199952257,1,0,0,0.8822,o1_image,428.8906,1,429.3899,429.39,431.3899,0,0,0,0,1,,,,,,,,,,,,,,,,,,,,,,,,,,,,,,,,,,,,,,,,,,,,,,,,,,
,,5f13334daab04a01f1bee1bd,23,male,2024-04-16_11h22.47.228,stockport_simplified,2022.2.4,MacIntel,57.14285714,661e456ee6de07e70aa9ef7b,661e51602fc11d4e371ec9e6,,,,,,,,,,,,,,,,,,,,,,,,,,,,,,,,,,,,,,,,,,,,,,,,,,,,,,,,1,8,68,36,1,A,Y,N,o1_image,stimuli/out1.png,stimuli/correct_out1.png,stimuli/out2.png,,,,,,,,,,,,,,,,,,,,,,,,,,,,,,,,,,,,,,
,,5f13334daab04a01f1bee1bd,23,male,2024-04-16_11h22.47.228,stockport_simplified,2022.2.4,MacIntel,57.14285714,661e456ee6de07e70aa9ef7b,661e51602fc11d4e371ec9e6,,,,,,,,,,,,,,,,,,,,,,,,,,,,,,,,,,431.3905,434.54,"[3,1,4,8,7,5,2,6]","[[-0.3,0.2],[0.3,0.2]]","[[0.125,-0.2],[-0.125,-0.2]]",-0.052135417,-0.216362847,1,0,0,2.6326,o2_image,434.5409,0,435.0384,435.0384,437.04,0,0,0,0,1,,,,,,,,,,,,,,,,,,,,,,,,,,,,,,,,,,,,,,,,,,,,,,,,,,
,,5f13334daab04a01f1bee1bd,23,male,2024-04-16_11h22.47.228,stockport_simplified,2022.2.4,MacIntel,57.14285714,661e456ee6de07e70aa9ef7b,661e51602fc11d4e371ec9e6,,,,,,,,,,,,,,,,,,,,,,,,,,,,,,,,,,,,,,,,,,,,,,,,,,,,,,,,1,9,69,24,1,N,M,C,o1_image,stimuli/out1.png,stimuli/correct_out1.png,stimuli/out2.png,,,,,,,,,,,,,,,,,,,,,,,,,,,,,,,,,,,,,,
,,5f13334daab04a01f1bee1bd,23,male,2024-04-16_11h22.47.228,stockport_simplified,2022.2.4,MacIntel,57.14285714,661e456ee6de07e70aa9ef7b,661e51602fc11d4e371ec9e6,,,,,,,,,,,,,,,,,,,,,,,,,,,,,,,,,,437.0407,440.0227,"[3,1,4,8,7,5,2,6]","[[-0.3,0.2],[0.3,0.2]]","[[-0.125,-0.2],[0.125,-0.2]]",-0.094010417,-0.201744792,1,0,0,2.4671,o1_image,440.0238,1,440.5219,440.5219,442.5224,0,0,0,0,1,,,,,,,,,,,,,,,,,,,,,,,,,,,,,,,,,,,,,,,,,,,,,,,,,,
,,5f13334daab04a01f1bee1bd,23,male,2024-04-16_11h22.47.228,stockport_simplified,2022.2.4,MacIntel,57.14285714,661e456ee6de07e70aa9ef7b,661e51602fc11d4e371ec9e6,,,,,,,,,,,,,,,,,,,,,,,,,,,,,,,,,,,,,,,,,,,,,,,,,,,,,,,,1,10,70,23,1,N,M,C,o1_image,stimuli/out1.png,stimuli/correct_out1.png,stimuli/out2.png,,,,,,,,,,,,,,,,,,,,,,,,,,,,,,,,,,,,,,
,,5f13334daab04a01f1bee1bd,23,male,2024-04-16_11h22.47.228,stockport_simplified,2022.2.4,MacIntel,57.14285714,661e456ee6de07e70aa9ef7b,661e51602fc11d4e371ec9e6,,,,,,,,,,,,,,,,,,,,,,,,,,,,,,,,,,442.5229,444.373,"[3,1,4,8,7,5,2,6]","[[-0.3,0.2],[0.3,0.2]]","[[0.125,-0.2],[-0.125,-0.2]]",0.142196181,-0.186453993,1,0,0,1.3491,o1_image,444.3738,1,444.873,444.8731,446.8731,0,0,0,0,1,,,,,,,,,,,,,,,,,,,,,,,,,,,,,,,,,,,,,,,,,,,,,,,,,,
,,5f13334daab04a01f1bee1bd,23,male,2024-04-16_11h22.47.228,stockport_simplified,2022.2.4,MacIntel,57.14285714,661e456ee6de07e70aa9ef7b,661e51602fc11d4e371ec9e6,,,,,,,,,,,,,,,,,,,,,,,,,,,,,,,,,,,,,,,,,,,,,,,,,,,,,,,,1,11,71,5,1,A,Y,N,o1_image,stimuli/out1.png,stimuli/correct_out1.png,stimuli/out2.png,,,,,,,,,,,,,,,,,,,,,,,,,,,,,,,,,,,,,,
,,5f13334daab04a01f1bee1bd,23,male,2024-04-16_11h22.47.228,stockport_simplified,2022.2.4,MacIntel,57.14285714,661e456ee6de07e70aa9ef7b,661e51602fc11d4e371ec9e6,,,,,,,,,,,,,,,,,,,,,,,,,,,,,,,,,,446.8737,448.3896,"[3,1,4,8,7,5,2,6]","[[0.3,0.2],[-0.3,0.2]]","[[0.125,-0.2],[-0.125,-0.2]]",-0.088389757,-0.208502604,1,0,0,0.9994,o2_image,448.3903,1,448.8896,448.8897,450.8898,0,0,0,0,1,,,,,,,,,,,,,,,,,,,,,,,,,,,,,,,,,,,,,,,,,,,,,,,,,,
,,5f13334daab04a01f1bee1bd,23,male,2024-04-16_11h22.47.228,stockport_simplified,2022.2.4,MacIntel,57.14285714,661e456ee6de07e70aa9ef7b,661e51602fc11d4e371ec9e6,,,,,,,,,,,,,,,,,,,,,,,,,,,,,,,,,,,,,,,,,,,,,,,,,,,,,,,,1,12,72,49,1,B,Y,N,o2_image,stimuli/out2.png,stimuli/out1.png,stimuli/correct_out2.png,,,,,,,,,,,,,,,,,,,,,,,,,,,,,,,,,,,,,,
,,5f13334daab04a01f1bee1bd,23,male,2024-04-16_11h22.47.228,stockport_simplified,2022.2.4,MacIntel,57.14285714,661e456ee6de07e70aa9ef7b,661e51602fc11d4e371ec9e6,,,,,,,,,,,,,,,,,,,,,,,,,,,,,,,,,,450.8903,452.3888,"[3,1,4,8,7,5,2,6]","[[0.3,0.2],[-0.3,0.2]]","[[0.125,-0.2],[-0.125,-0.2]]",0.141106771,-0.190208333,1,0,0,0.9818,o1_image,452.3897,1,452.8896,452.8897,454.8896,0,0,0,0,1,,,,,,,,,,,,,,,,,,,,,,,,,,,,,,,,,,,,,,,,,,,,,,,,,,
,,5f13334daab04a01f1bee1bd,23,male,2024-04-16_11h22.47.228,stockport_simplified,2022.2.4,MacIntel,57.14285714,661e456ee6de07e70aa9ef7b,661e51602fc11d4e371ec9e6,,,,,,,,,,,,,,,,,,,,,,,,,,,,,,,,,,,,,,,,,,,,,,,,,,,,,,,,1,13,73,34,1,A,X,N,o1_image,stimuli/out1.png,stimuli/correct_out1.png,stimuli/out2.png,,,,,,,,,,,,,,,,,,,,,,,,,,,,,,,,,,,,,,
,,5f13334daab04a01f1bee1bd,23,male,2024-04-16_11h22.47.228,stockport_simplified,2022.2.4,MacIntel,57.14285714,661e456ee6de07e70aa9ef7b,661e51602fc11d4e371ec9e6,,,,,,,,,,,,,,,,,,,,,,,,,,,,,,,,,,454.8903,457.0561,"[3,1,4,8,7,5,2,6]","[[-0.3,0.2],[0.3,0.2]]","[[-0.125,-0.2],[0.125,-0.2]]",0.140442708,-0.19187934,1,0,0,1.6493,o2_image,457.057,1,457.5562,457.5563,459.556,0,0,0,0,1,,,,,,,,,,,,,,,,,,,,,,,,,,,,,,,,,,,,,,,,,,,,,,,,,,
,,5f13334daab04a01f1bee1bd,23,male,2024-04-16_11h22.47.228,stockport_simplified,2022.2.4,MacIntel,57.14285714,661e456ee6de07e70aa9ef7b,661e51602fc11d4e371ec9e6,,,,,,,,,,,,,,,,,,,,,,,,,,,,,,,,,,,,,,,,,,,,,,,,,,,,,,,,1,14,74,13,1,B,X,N,o2_image,stimuli/out2.png,stimuli/out1.png,stimuli/correct_out2.png,,,,,,,,,,,,,,,,,,,,,,,,,,,,,,,,,,,,,,
,,5f13334daab04a01f1bee1bd,23,male,2024-04-16_11h22.47.228,stockport_simplified,2022.2.4,MacIntel,57.14285714,661e456ee6de07e70aa9ef7b,661e51602fc11d4e371ec9e6,,,,,,,,,,,,,,,,,,,,,,,,,,,,,,,,,,459.5566,461.6896,"[3,1,4,8,7,5,2,6]","[[-0.3,0.2],[0.3,0.2]]","[[-0.125,-0.2],[0.125,-0.2]]",0.125043403,-0.198602431,1,0,0,1.6167,o2_image,461.6908,1,462.1896,462.1898,464.1895,0,0,0,0,1,,,,,,,,,,,,,,,,,,,,,,,,,,,,,,,,,,,,,,,,,,,,,,,,,,
,,5f13334daab04a01f1bee1bd,23,male,2024-04-16_11h22.47.228,stockport_simplified,2022.2.4,MacIntel,57.14285714,661e456ee6de07e70aa9ef7b,661e51602fc11d4e371ec9e6,,,,,,,,,,,,,,,,,,,,,,,,,,,,,,,,,,,,,,,,,,,,,,,,,,,,,,,,1,15,75,58,1,N,M,D,o2_image,stimuli/out2.png,stimuli/out1.png,stimuli/correct_out2.png,,,,,,,,,,,,,,,,,,,,,,,,,,,,,,,,,,,,,,
,,5f13334daab04a01f1bee1bd,23,male,2024-04-16_11h22.47.228,stockport_simplified,2022.2.4,MacIntel,57.14285714,661e456ee6de07e70aa9ef7b,661e51602fc11d4e371ec9e6,,,,,,,,,,,,,,,,,,,,,,,,,,,,,,,,,,464.1902,466.1563,"[3,1,4,8,7,5,2,6]","[[0.3,0.2],[-0.3,0.2]]","[[-0.125,-0.2],[0.125,-0.2]]",0.118888889,-0.200425347,1,0,0,1.4491,o2_image,466.1571,1,466.6562,466.6562,468.6563,0,0,0,0,1,,,,,,,,,,,,,,,,,,,,,,,,,,,,,,,,,,,,,,,,,,,,,,,,,,
,,5f13334daab04a01f1bee1bd,23,male,2024-04-16_11h22.47.228,stockport_simplified,2022.2.4,MacIntel,57.14285714,661e456ee6de07e70aa9ef7b,661e51602fc11d4e371ec9e6,,,,,,,,,,,,,,,,,,,,,,,,,,,,,,,,,,,,,,,,,,,,,,,,,,,,,,,,1,16,76,16,1,B,Y,N,o2_image,stimuli/out2.png,stimuli/out1.png,stimuli/correct_out2.png,,,,,,,,,,,,,,,,,,,,,,,,,,,,,,,,,,,,,,
,,5f13334daab04a01f1bee1bd,23,male,2024-04-16_11h22.47.228,stockport_simplified,2022.2.4,MacIntel,57.14285714,661e456ee6de07e70aa9ef7b,661e51602fc11d4e371ec9e6,,,,,,,,,,,,,,,,,,,,,,,,,,,,,,,,,,468.6571,470.1729,"[3,1,4,8,7,5,2,6]","[[0.3,0.2],[-0.3,0.2]]","[[-0.125,-0.2],[0.125,-0.2]]",-0.080655382,-0.19843316,1,0,0,0.9994,o1_image,470.1736,1,470.6728,470.6728,472.6728,0,0,0,0,1,,,,,,,,,,,,,,,,,,,,,,,,,,,,,,,,,,,,,,,,,,,,,,,,,,
,,5f13334daab04a01f1bee1bd,23,male,2024-04-16_11h22.47.228,stockport_simplified,2022.2.4,MacIntel,57.14285714,661e456ee6de07e70aa9ef7b,661e51602fc11d4e371ec9e6,,,,,,,,,,,,,,,,,,,,,,,,,,,,,,,,,,,,,,,,,,,,,,,,,,,,,,,,1,17,77,9,1,A,Y,N,o1_image,stimuli/out1.png,stimuli/correct_out1.png,stimuli/out2.png,,,,,,,,,,,,,,,,,,,,,,,,,,,,,,,,,,,,,,
,,5f13334daab04a01f1bee1bd,23,male,2024-04-16_11h22.47.228,stockport_simplified,2022.2.4,MacIntel,57.14285714,661e456ee6de07e70aa9ef7b,661e51602fc11d4e371ec9e6,,,,,,,,,,,,,,,,,,,,,,,,,,,,,,,,,,472.6735,474.3225,"[3,1,4,8,7,5,2,6]","[[-0.3,0.2],[0.3,0.2]]","[[0.125,-0.2],[-0.125,-0.2]]",-0.166319444,-0.19249566,1,0,0,1.1327,o2_image,474.3234,1,474.8228,474.8229,476.8229,0,0,0,0,1,,,,,,,,,,,,,,,,,,,,,,,,,,,,,,,,,,,,,,,,,,,,,,,,,,
,,5f13334daab04a01f1bee1bd,23,male,2024-04-16_11h22.47.228,stockport_simplified,2022.2.4,MacIntel,57.14285714,661e456ee6de07e70aa9ef7b,661e51602fc11d4e371ec9e6,,,,,,,,,,,,,,,,,,,,,,,,,,,,,,,,,,,,,,,,,,,,,,,,,,,,,,,,1,18,78,48,1,B,Y,N,o2_image,stimuli/out2.png,stimuli/out1.png,stimuli/correct_out2.png,,,,,,,,,,,,,,,,,,,,,,,,,,,,,,,,,,,,,,
,,5f13334daab04a01f1bee1bd,23,male,2024-04-16_11h22.47.228,stockport_simplified,2022.2.4,MacIntel,57.14285714,661e456ee6de07e70aa9ef7b,661e51602fc11d4e371ec9e6,,,,,,,,,,,,,,,,,,,,,,,,,,,,,,,,,,476.8236,478.5565,"[3,1,4,8,7,5,2,6]","[[-0.3,0.2],[0.3,0.2]]","[[0.125,-0.2],[-0.125,-0.2]]",0.115039062,-0.195117188,1,0,0,1.2162,o1_image,478.5575,1,479.0564,479.0566,481.0554,0,0,0,0,1,,,,,,,,,,,,,,,,,,,,,,,,,,,,,,,,,,,,,,,,,,,,,,,,,,
,,5f13334daab04a01f1bee1bd,23,male,2024-04-16_11h22.47.228,stockport_simplified,2022.2.4,MacIntel,57.14285714,661e456ee6de07e70aa9ef7b,661e51602fc11d4e371ec9e6,,,,,,,,,,,,,,,,,,,,,,,,,,,,,,,,,,,,,,,,,,,,,,,,,,,,,,,,1,19,79,33,1,A,X,N,o1_image,stimuli/out1.png,stimuli/correct_out1.png,stimuli/out2.png,,,,,,,,,,,,,,,,,,,,,,,,,,,,,,,,,,,,,,
,,5f13334daab04a01f1bee1bd,23,male,2024-04-16_11h22.47.228,stockport_simplified,2022.2.4,MacIntel,57.14285714,661e456ee6de07e70aa9ef7b,661e51602fc11d4e371ec9e6,,,,,,,,,,,,,,,,,,,,,,,,,,,,,,,,,,481.0561,482.9394,"[3,1,4,8,7,5,2,6]","[[0.3,0.2],[-0.3,0.2]]","[[-0.125,-0.2],[0.125,-0.2]]",0.10187066,-0.193528646,1,0,0,1.3659,o2_image,482.9402,1,483.4391,483.4391,485.4396,0,0,0,0,1,,,,,,,,,,,,,,,,,,,,,,,,,,,,,,,,,,,,,,,,,,,,,,,,,,
,,5f13334daab04a01f1bee1bd,23,male,2024-04-16_11h22.47.228,stockport_simplified,2022.2.4,MacIntel,57.14285714,661e456ee6de07e70aa9ef7b,661e51602fc11d4e371ec9e6,,,,,,,,,,,,,,,,,,,,,,,,,,,,,,,,,,,,,,,,,,,,,,,,,,,,,,,,1,20,80,27,1,N,M,D,o2_image,stimuli/out2.png,stimuli/out1.png,stimuli/correct_out2.png,,,,,,,,,,,,,,,,,,,,,,,,,,,,,,,,,,,,,,
,,5f13334daab04a01f1bee1bd,23,male,2024-04-16_11h22.47.228,stockport_simplified,2022.2.4,MacIntel,57.14285714,661e456ee6de07e70aa9ef7b,661e51602fc11d4e371ec9e6,,,,,,,,,,,,,,,,,,,,,,,,,,,,,,,,,,485.4404,487.3061,"[3,1,4,8,7,5,2,6]","[[0.3,0.2],[-0.3,0.2]]","[[0.125,-0.2],[-0.125,-0.2]]",-0.114752604,-0.201453993,1,0,0,1.3491,o2_image,487.307,1,487.8059,487.806,489.8061,0,0,0,0,1,,,,,,,,,,,,,,,,,,,,,,,,,,,,,,,,,,,,,,,,,,,,,,,,,,
,,5f13334daab04a01f1bee1bd,23,male,2024-04-16_11h22.47.228,stockport_simplified,2022.2.4,MacIntel,57.14285714,661e456ee6de07e70aa9ef7b,661e51602fc11d4e371ec9e6,,,,,,,,,,,,,,,,,,,,,,,,,,,,,,,,,,,,,,,,,,,,,,,,,,,,,,,,1,21,81,14,1,B,X,N,o2_image,stimuli/out2.png,stimuli/out1.png,stimuli/correct_out2.png,,,,,,,,,,,,,,,,,,,,,,,,,,,,,,,,,,,,,,
,,5f13334daab04a01f1bee1bd,23,male,2024-04-16_11h22.47.228,stockport_simplified,2022.2.4,MacIntel,57.14285714,661e456ee6de07e70aa9ef7b,661e51602fc11d4e371ec9e6,,,,,,,,,,,,,,,,,,,,,,,,,,,,,,,,,,489.8067,491.2896,"[3,1,4,8,7,5,2,6]","[[-0.3,0.2],[0.3,0.2]]","[[0.125,-0.2],[-0.125,-0.2]]",-0.077894965,-0.195039062,1,0,0,0.9672,o2_image,491.2905,1,491.7894,491.7894,493.7892,0,0,0,0,1,,,,,,,,,,,,,,,,,,,,,,,,,,,,,,,,,,,,,,,,,,,,,,,,,,
,,5f13334daab04a01f1bee1bd,23,male,2024-04-16_11h22.47.228,stockport_simplified,2022.2.4,MacIntel,57.14285714,661e456ee6de07e70aa9ef7b,661e51602fc11d4e371ec9e6,,,,,,,,,,,,,,,,,,,,,,,,,,,,,,,,,,,,,,,,,,,,,,,,,,,,,,,,1,22,82,41,1,B,X,N,o2_image,stimuli/out2.png,stimuli/out1.png,stimuli/correct_out2.png,,,,,,,,,,,,,,,,,,,,,,,,,,,,,,,,,,,,,,
,,5f13334daab04a01f1bee1bd,23,male,2024-04-16_11h22.47.228,stockport_simplified,2022.2.4,MacIntel,57.14285714,661e456ee6de07e70aa9ef7b,661e51602fc11d4e371ec9e6,,,,,,,,,,,,,,,,,,,,,,,,,,,,,,,,,,493.7898,495.6556,"[3,1,4,8,7,5,2,6]","[[0.3,0.2],[-0.3,0.2]]","[[-0.125,-0.2],[0.125,-0.2]]",-0.077517361,-0.187955729,1,0,0,1.3491,o1_image,495.6564,1,496.156,496.1561,498.156,0,0,0,0,1,,,,,,,,,,,,,,,,,,,,,,,,,,,,,,,,,,,,,,,,,,,,,,,,,,
,,5f13334daab04a01f1bee1bd,23,male,2024-04-16_11h22.47.228,stockport_simplified,2022.2.4,MacIntel,57.14285714,661e456ee6de07e70aa9ef7b,661e51602fc11d4e371ec9e6,,,,,,,,,,,,,,,,,,,,,,,,,,,,,,,,,,,,,,,,,,,,,,,,,,,,,,,,1,23,83,38,1,A,Y,N,o1_image,stimuli/out1.png,stimuli/correct_out1.png,stimuli/out2.png,,,,,,,,,,,,,,,,,,,,,,,,,,,,,,,,,,,,,,
,,5f13334daab04a01f1bee1bd,23,male,2024-04-16_11h22.47.228,stockport_simplified,2022.2.4,MacIntel,57.14285714,661e456ee6de07e70aa9ef7b,661e51602fc11d4e371ec9e6,,,,,,,,,,,,,,,,,,,,,,,,,,,,,,,,,,498.1568,500.8893,"[3,1,4,8,7,5,2,6]","[[-0.3,0.2],[0.3,0.2]]","[[-0.125,-0.2],[0.125,-0.2]]",0.099644097,-0.195321181,1,0,0,2.2156,o2_image,500.9018,1,501.4059,501.406,503.4059,0,0,0,0,1,,,,,,,,,,,,,,,,,,,,,,,,,,,,,,,,,,,,,,,,,,,,,,,,,,
,,5f13334daab04a01f1bee1bd,23,male,2024-04-16_11h22.47.228,stockport_simplified,2022.2.4,MacIntel,57.14285714,661e456ee6de07e70aa9ef7b,661e51602fc11d4e371ec9e6,,,,,,,,,,,,,,,,,,,,,,,,,,,,,,,,,,,,,,,,,,,,,,,,,,,,,,,,1,24,84,11,1,B,X,N,o2_image,stimuli/out2.png,stimuli/out1.png,stimuli/correct_out2.png,,,,,,,,,,,,,,,,,,,,,,,,,,,,,,,,,,,,,,
,,5f13334daab04a01f1bee1bd,23,male,2024-04-16_11h22.47.228,stockport_simplified,2022.2.4,MacIntel,57.14285714,661e456ee6de07e70aa9ef7b,661e51602fc11d4e371ec9e6,,,,,,,,,,,,,,,,,,,,,,,,,,,,,,,,,,503.4066,505.3889,"[3,1,4,8,7,5,2,6]","[[-0.3,0.2],[0.3,0.2]]","[[0.125,-0.2],[-0.125,-0.2]]",-0.064769965,-0.216111111,1,0,0,1.4658,o2_image,505.3893,1,505.8893,505.8893,507.8896,0,0,0,0,1,,,,,,,,,,,,,,,,,,,,,,,,,,,,,,,,,,,,,,,,,,,,,,,,,,
,,5f13334daab04a01f1bee1bd,23,male,2024-04-16_11h22.47.228,stockport_simplified,2022.2.4,MacIntel,57.14285714,661e456ee6de07e70aa9ef7b,661e51602fc11d4e371ec9e6,,,,,,,,,,,,,,,,,,,,,,,,,,,,,,,,,,,,,,,,,,,,,,,,,,,,,,,,1,25,85,29,1,N,M,D,o2_image,stimuli/out2.png,stimuli/out1.png,stimuli/correct_out2.png,,,,,,,,,,,,,,,,,,,,,,,,,,,,,,,,,,,,,,
,,5f13334daab04a01f1bee1bd,23,male,2024-04-16_11h22.47.228,stockport_simplified,2022.2.4,MacIntel,57.14285714,661e456ee6de07e70aa9ef7b,661e51602fc11d4e371ec9e6,,,,,,,,,,,,,,,,,,,,,,,,,,,,,,,,,,507.8903,509.6893,"[3,1,4,8,7,5,2,6]","[[-0.3,0.2],[0.3,0.2]]","[[-0.125,-0.2],[0.125,-0.2]]",-0.12749566,-0.212217882,1,0,0,1.283,o1_image,509.6906,1,510.1892,510.1892,512.1892,0,0,0,0,1,,,,,,,,,,,,,,,,,,,,,,,,,,,,,,,,,,,,,,,,,,,,,,,,,,
,,5f13334daab04a01f1bee1bd,23,male,2024-04-16_11h22.47.228,stockport_simplified,2022.2.4,MacIntel,57.14285714,661e456ee6de07e70aa9ef7b,661e51602fc11d4e371ec9e6,,,,,,,,,,,,,,,,,,,,,,,,,,,,,,,,,,,,,,,,,,,,,,,,,,,,,,,,1,26,86,3,1,A,X,N,o1_image,stimuli/out1.png,stimuli/correct_out1.png,stimuli/out2.png,,,,,,,,,,,,,,,,,,,,,,,,,,,,,,,,,,,,,,
,,5f13334daab04a01f1bee1bd,23,male,2024-04-16_11h22.47.228,stockport_simplified,2022.2.4,MacIntel,57.14285714,661e456ee6de07e70aa9ef7b,661e51602fc11d4e371ec9e6,,,,,,,,,,,,,,,,,,,,,,,,,,,,,,,,,,512.1898,513.7059,"[3,1,4,8,7,5,2,6]","[[-0.3,0.2],[0.3,0.2]]","[[0.125,-0.2],[-0.125,-0.2]]",-0.075377604,-0.196571181,1,0,0,1,o2_image,513.7069,1,514.2058,514.206,516.2054,0,0,0,0,1,,,,,,,,,,,,,,,,,,,,,,,,,,,,,,,,,,,,,,,,,,,,,,,,,,
,,5f13334daab04a01f1bee1bd,23,male,2024-04-16_11h22.47.228,stockport_simplified,2022.2.4,MacIntel,57.14285714,661e456ee6de07e70aa9ef7b,661e51602fc11d4e371ec9e6,,,,,,,,,,,,,,,,,,,,,,,,,,,,,,,,,,,,,,,,,,,,,,,,,,,,,,,,1,27,87,46,1,B,Y,N,o2_image,stimuli/out2.png,stimuli/out1.png,stimuli/correct_out2.png,,,,,,,,,,,,,,,,,,,,,,,,,,,,,,,,,,,,,,
,,5f13334daab04a01f1bee1bd,23,male,2024-04-16_11h22.47.228,stockport_simplified,2022.2.4,MacIntel,57.14285714,661e456ee6de07e70aa9ef7b,661e51602fc11d4e371ec9e6,,,,,,,,,,,,,,,,,,,,,,,,,,,,,,,,,,516.206,517.4891,"[3,1,4,8,7,5,2,6]","[[-0.3,0.2],[0.3,0.2]]","[[0.125,-0.2],[-0.125,-0.2]]",-0.08922309,-0.187669271,1,0,0,0.7663,o2_image,517.49,1,517.9891,517.9892,519.9892,0,0,0,0,1,,,,,,,,,,,,,,,,,,,,,,,,,,,,,,,,,,,,,,,,,,,,,,,,,,
,,5f13334daab04a01f1bee1bd,23,male,2024-04-16_11h22.47.228,stockport_simplified,2022.2.4,MacIntel,57.14285714,661e456ee6de07e70aa9ef7b,661e51602fc11d4e371ec9e6,,,,,,,,,,,,,,,,,,,,,,,,,,,,,,,,,,,,,,,,,,,,,,,,,,,,,,,,1,28,88,44,1,B,X,N,o2_image,stimuli/out2.png,stimuli/out1.png,stimuli/correct_out2.png,,,,,,,,,,,,,,,,,,,,,,,,,,,,,,,,,,,,,,
,,5f13334daab04a01f1bee1bd,23,male,2024-04-16_11h22.47.228,stockport_simplified,2022.2.4,MacIntel,57.14285714,661e456ee6de07e70aa9ef7b,661e51602fc11d4e371ec9e6,,,,,,,,,,,,,,,,,,,,,,,,,,,,,,,,,,519.9899,521.4224,"[3,1,4,8,7,5,2,6]","[[0.3,0.2],[-0.3,0.2]]","[[0.125,-0.2],[-0.125,-0.2]]",-0.107278646,-0.188164063,1,0,0,0.916,o2_image,521.4232,1,521.9225,521.9225,523.9226,0,0,0,0,1,,,,,,,,,,,,,,,,,,,,,,,,,,,,,,,,,,,,,,,,,,,,,,,,,,
,,5f13334daab04a01f1bee1bd,23,male,2024-04-16_11h22.47.228,stockport_simplified,2022.2.4,MacIntel,57.14285714,661e456ee6de07e70aa9ef7b,661e51602fc11d4e371ec9e6,,,,,,,,,,,,,,,,,,,,,,,,,,,,,,,,,,,,,,,,,,,,,,,,,,,,,,,,1,29,89,18,1,B,Y,N,o2_image,stimuli/out2.png,stimuli/out1.png,stimuli/correct_out2.png,,,,,,,,,,,,,,,,,,,,,,,,,,,,,,,,,,,,,,
,,5f13334daab04a01f1bee1bd,23,male,2024-04-16_11h22.47.228,stockport_simplified,2022.2.4,MacIntel,57.14285714,661e456ee6de07e70aa9ef7b,661e51602fc11d4e371ec9e6,,,,,,,,,,,,,,,,,,,,,,,,,,,,,,,,,,523.9232,525.1227,"[3,1,4,8,7,5,2,6]","[[0.3,0.2],[-0.3,0.2]]","[[-0.125,-0.2],[0.125,-0.2]]",-0.110342882,-0.182947049,1,0,0,0.6834,o1_image,525.1235,0,525.6227,525.6227,527.6224,0,0,0,0,1,,,,,,,,,,,,,,,,,,,,,,,,,,,,,,,,,,,,,,,,,,,,,,,,,,
,,5f13334daab04a01f1bee1bd,23,male,2024-04-16_11h22.47.228,stockport_simplified,2022.2.4,MacIntel,57.14285714,661e456ee6de07e70aa9ef7b,661e51602fc11d4e371ec9e6,,,,,,,,,,,,,,,,,,,,,,,,,,,,,,,,,,,,,,,,,,,,,,,,,,,,,,,,1,30,90,15,1,B,Y,N,o2_image,stimuli/out2.png,stimuli/out1.png,stimuli/correct_out2.png,,,,,,,,,,,,,,,,,,,,,,,,,,,,,,,,,,,,,,
,,5f13334daab04a01f1bee1bd,23,male,2024-04-16_11h22.47.228,stockport_simplified,2022.2.4,MacIntel,57.14285714,661e456ee6de07e70aa9ef7b,661e51602fc11d4e371ec9e6,,,,,,,,,,,,,,,,,,,,,,,,,,,,,,,,,,527.623,530.289,"[3,1,4,8,7,5,2,6]","[[0.3,0.2],[-0.3,0.2]]","[[-0.125,-0.2],[0.125,-0.2]]",-0.0834375,-0.206705729,1,0,0,2.149,o1_image,530.2898,1,530.7891,530.7891,532.7889,0,0,0,0,1,,,,,,,,,,,,,,,,,,,,,,,,,,,,,,,,,,,,,,,,,,,,,,,,,,
,,5f13334daab04a01f1bee1bd,23,male,2024-04-16_11h22.47.228,stockport_simplified,2022.2.4,MacIntel,57.14285714,661e456ee6de07e70aa9ef7b,661e51602fc11d4e371ec9e6,,,,,,,,,,,,,,,,,,,,,,,,,,,,,,,,,,,,,,,,,,,,,,,,,,,,,,,,1,31,91,54,1,N,M,C,o1_image,stimuli/out1.png,stimuli/correct_out1.png,stimuli/out2.png,,,,,,,,,,,,,,,,,,,,,,,,,,,,,,,,,,,,,,
,,5f13334daab04a01f1bee1bd,23,male,2024-04-16_11h22.47.228,stockport_simplified,2022.2.4,MacIntel,57.14285714,661e456ee6de07e70aa9ef7b,661e51602fc11d4e371ec9e6,,,,,,,,,,,,,,,,,,,,,,,,,,,,,,,,,,532.7895,534.4224,"[3,1,4,8,7,5,2,6]","[[-0.3,0.2],[0.3,0.2]]","[[0.125,-0.2],[-0.125,-0.2]]",0.123315972,-0.173376736,1,0,0,1.1159,o1_image,534.4233,1,534.9223,534.9224,536.9224,0,0,0,0,1,,,,,,,,,,,,,,,,,,,,,,,,,,,,,,,,,,,,,,,,,,,,,,,,,,
,,5f13334daab04a01f1bee1bd,23,male,2024-04-16_11h22.47.228,stockport_simplified,2022.2.4,MacIntel,57.14285714,661e456ee6de07e70aa9ef7b,661e51602fc11d4e371ec9e6,,,,,,,,,,,,,,,,,,,,,,,,,,,,,,,,,,,,,,,,,,,,,,,,,,,,,,,,1,32,92,2,1,A,X,N,o1_image,stimuli/out1.png,stimuli/correct_out1.png,stimuli/out2.png,,,,,,,,,,,,,,,,,,,,,,,,,,,,,,,,,,,,,,
,,5f13334daab04a01f1bee1bd,23,male,2024-04-16_11h22.47.228,stockport_simplified,2022.2.4,MacIntel,57.14285714,661e456ee6de07e70aa9ef7b,661e51602fc11d4e371ec9e6,,,,,,,,,,,,,,,,,,,,,,,,,,,,,,,,,,536.923,538.9392,"[3,1,4,8,7,5,2,6]","[[0.3,0.2],[-0.3,0.2]]","[[-0.125,-0.2],[0.125,-0.2]]",0.123723958,-0.188138021,1,0,0,1.4991,o2_image,538.9402,1,539.4393,539.4394,541.4391,0,0,0,0,1,,,,,,,,,,,,,,,,,,,,,,,,,,,,,,,,,,,,,,,,,,,,,,,,,,
,,5f13334daab04a01f1bee1bd,23,male,2024-04-16_11h22.47.228,stockport_simplified,2022.2.4,MacIntel,57.14285714,661e456ee6de07e70aa9ef7b,661e51602fc11d4e371ec9e6,,,,,,,,,,,,,,,,,,,,,,,,,,,,,,,,,,,,,,,,,,,,,,,,,,,,,,,,1,33,93,45,1,B,Y,N,o2_image,stimuli/out2.png,stimuli/out1.png,stimuli/correct_out2.png,,,,,,,,,,,,,,,,,,,,,,,,,,,,,,,,,,,,,,
,,5f13334daab04a01f1bee1bd,23,male,2024-04-16_11h22.47.228,stockport_simplified,2022.2.4,MacIntel,57.14285714,661e456ee6de07e70aa9ef7b,661e51602fc11d4e371ec9e6,,,,,,,,,,,,,,,,,,,,,,,,,,,,,,,,,,541.4398,543.2224,"[3,1,4,8,7,5,2,6]","[[0.3,0.2],[-0.3,0.2]]","[[0.125,-0.2],[-0.125,-0.2]]",0.122686632,-0.191471354,1,0,0,1.2662,o1_image,543.2235,1,543.7222,543.7222,545.7227,0,0,0,0,1,,,,,,,,,,,,,,,,,,,,,,,,,,,,,,,,,,,,,,,,,,,,,,,,,,
,,5f13334daab04a01f1bee1bd,23,male,2024-04-16_11h22.47.228,stockport_simplified,2022.2.4,MacIntel,57.14285714,661e456ee6de07e70aa9ef7b,661e51602fc11d4e371ec9e6,,,,,,,,,,,,,,,,,,,,,,,,,,,,,,,,,,,,,,,,,,,,,,,,,,,,,,,,1,34,94,22,1,N,M,C,o1_image,stimuli/out1.png,stimuli/correct_out1.png,stimuli/out2.png,,,,,,,,,,,,,,,,,,,,,,,,,,,,,,,,,,,,,,
,,5f13334daab04a01f1bee1bd,23,male,2024-04-16_11h22.47.228,stockport_simplified,2022.2.4,MacIntel,57.14285714,661e456ee6de07e70aa9ef7b,661e51602fc11d4e371ec9e6,,,,,,,,,,,,,,,,,,,,,,,,,,,,,,,,,,545.7232,547.2557,"[3,1,4,8,7,5,2,6]","[[-0.3,0.2],[0.3,0.2]]","[[-0.125,-0.2],[0.125,-0.2]]",-0.125364583,-0.197009549,1,0,0,1.0158,o1_image,547.2566,1,547.7556,547.7557,549.7556,0,0,0,0,1,,,,,,,,,,,,,,,,,,,,,,,,,,,,,,,,,,,,,,,,,,,,,,,,,,
,,5f13334daab04a01f1bee1bd,23,male,2024-04-16_11h22.47.228,stockport_simplified,2022.2.4,MacIntel,57.14285714,661e456ee6de07e70aa9ef7b,661e51602fc11d4e371ec9e6,,,,,,,,,,,,,,,,,,,,,,,,,,,,,,,,,,,,,,,,,,,,,,,,,,,,,,,,1,35,95,4,1,A,X,N,o1_image,stimuli/out1.png,stimuli/correct_out1.png,stimuli/out2.png,,,,,,,,,,,,,,,,,,,,,,,,,,,,,,,,,,,,,,
,,5f13334daab04a01f1bee1bd,23,male,2024-04-16_11h22.47.228,stockport_simplified,2022.2.4,MacIntel,57.14285714,661e456ee6de07e70aa9ef7b,661e51602fc11d4e371ec9e6,,,,,,,,,,,,,,,,,,,,,,,,,,,,,,,,,,549.7563,551.2894,"[3,1,4,8,7,5,2,6]","[[0.3,0.2],[-0.3,0.2]]","[[-0.125,-0.2],[0.125,-0.2]]",-0.099249132,-0.200516493,1,0,0,1.0165,o1_image,551.2901,1,551.7889,551.7889,553.789,0,0,0,0,1,,,,,,,,,,,,,,,,,,,,,,,,,,,,,,,,,,,,,,,,,,,,,,,,,,
,,5f13334daab04a01f1bee1bd,23,male,2024-04-16_11h22.47.228,stockport_simplified,2022.2.4,MacIntel,57.14285714,661e456ee6de07e70aa9ef7b,661e51602fc11d4e371ec9e6,,,,,,,,,,,,,,,,,,,,,,,,,,,,,,,,,,,,,,,,,,,,,,,,,,,,,,,,1,36,96,37,1,A,Y,N,o1_image,stimuli/out1.png,stimuli/correct_out1.png,stimuli/out2.png,,,,,,,,,,,,,,,,,,,,,,,,,,,,,,,,,,,,,,
,,5f13334daab04a01f1bee1bd,23,male,2024-04-16_11h22.47.228,stockport_simplified,2022.2.4,MacIntel,57.14285714,661e456ee6de07e70aa9ef7b,661e51602fc11d4e371ec9e6,,,,,,,,,,,,,,,,,,,,,,,,,,,,,,,,,,553.7897,555.3555,"[3,1,4,8,7,5,2,6]","[[0.3,0.2],[-0.3,0.2]]","[[-0.125,-0.2],[0.125,-0.2]]",-0.087686632,-0.198025174,1,0,0,1.0498,o1_image,555.3563,1,555.8557,555.8557,557.8554,0,0,0,0,1,,,,,,,,,,,,,,,,,,,,,,,,,,,,,,,,,,,,,,,,,,,,,,,,,,
,,5f13334daab04a01f1bee1bd,23,male,2024-04-16_11h22.47.228,stockport_simplified,2022.2.4,MacIntel,57.14285714,661e456ee6de07e70aa9ef7b,661e51602fc11d4e371ec9e6,,,,,,,,,,,,,,,,,,,,,,,,,,,,,,,,,,,,,,,,,,,,,,,,,,,,,,,,1,37,97,39,1,A,Y,N,o1_image,stimuli/out1.png,stimuli/correct_out1.png,stimuli/out2.png,,,,,,,,,,,,,,,,,,,,,,,,,,,,,,,,,,,,,,
,,5f13334daab04a01f1bee1bd,23,male,2024-04-16_11h22.47.228,stockport_simplified,2022.2.4,MacIntel,57.14285714,661e456ee6de07e70aa9ef7b,661e51602fc11d4e371ec9e6,,,,,,,,,,,,,,,,,,,,,,,,,,,,,,,,,,557.8557,559.3722,"[3,1,4,8,7,5,2,6]","[[-0.3,0.2],[0.3,0.2]]","[[-0.125,-0.2],[0.125,-0.2]]",0.092595486,-0.183845486,1,0,0,0.9992,o2_image,559.373,1,559.8722,559.8722,561.8722,0,0,0,0,1,,,,,,,,,,,,,,,,,,,,,,,,,,,,,,,,,,,,,,,,,,,,,,,,,,
,,5f13334daab04a01f1bee1bd,23,male,2024-04-16_11h22.47.228,stockport_simplified,2022.2.4,MacIntel,57.14285714,661e456ee6de07e70aa9ef7b,661e51602fc11d4e371ec9e6,,,,,,,,,,,,,,,,,,,,,,,,,,,,,,,,,,,,,,,,,,,,,,,,,,,,,,,,1,38,98,12,1,B,X,N,o2_image,stimuli/out2.png,stimuli/out1.png,stimuli/correct_out2.png,,,,,,,,,,,,,,,,,,,,,,,,,,,,,,,,,,,,,,
,,5f13334daab04a01f1bee1bd,23,male,2024-04-16_11h22.47.228,stockport_simplified,2022.2.4,MacIntel,57.14285714,661e456ee6de07e70aa9ef7b,661e51602fc11d4e371ec9e6,,,,,,,,,,,,,,,,,,,,,,,,,,,,,,,,,,561.8728,563.5223,"[3,1,4,8,7,5,2,6]","[[0.3,0.2],[-0.3,0.2]]","[[-0.125,-0.2],[0.125,-0.2]]",-0.08375434,-0.190833333,1,0,0,1.1331,o1_image,563.5231,0,564.0221,564.0222,566.0226,0,0,0,0,1,,,,,,,,,,,,,,,,,,,,,,,,,,,,,,,,,,,,,,,,,,,,,,,,,,
,,5f13334daab04a01f1bee1bd,23,male,2024-04-16_11h22.47.228,stockport_simplified,2022.2.4,MacIntel,57.14285714,661e456ee6de07e70aa9ef7b,661e51602fc11d4e371ec9e6,,,,,,,,,,,,,,,,,,,,,,,,,,,,,,,,,,,,,,,,,,,,,,,,,,,,,,,,1,39,99,10,1,B,X,N,o2_image,stimuli/out2.png,stimuli/out1.png,stimuli/correct_out2.png,,,,,,,,,,,,,,,,,,,,,,,,,,,,,,,,,,,,,,
,,5f13334daab04a01f1bee1bd,23,male,2024-04-16_11h22.47.228,stockport_simplified,2022.2.4,MacIntel,57.14285714,661e456ee6de07e70aa9ef7b,661e51602fc11d4e371ec9e6,,,,,,,,,,,,,,,,,,,,,,,,,,,,,,,,,,566.0233,567.4721,"[3,1,4,8,7,5,2,6]","[[0.3,0.2],[-0.3,0.2]]","[[0.125,-0.2],[-0.125,-0.2]]",-0.074552951,-0.188763021,1,0,0,0.9329,o2_image,567.4729,1,567.9722,567.9722,569.9722,0,0,0,0,1,,,,,,,,,,,,,,,,,,,,,,,,,,,,,,,,,,,,,,,,,,,,,,,,,,
,,5f13334daab04a01f1bee1bd,23,male,2024-04-16_11h22.47.228,stockport_simplified,2022.2.4,MacIntel,57.14285714,661e456ee6de07e70aa9ef7b,661e51602fc11d4e371ec9e6,,,,,,,,,,,,,,,,,,,,,,,,,,,,,,,,,,,,,,,,,,,,,,,,,,,,,,,,1,40,100,42,1,B,X,N,o2_image,stimuli/out2.png,stimuli/out1.png,stimuli/correct_out2.png,,,,,,,,,,,,,,,,,,,,,,,,,,,,,,,,,,,,,,
,,5f13334daab04a01f1bee1bd,23,male,2024-04-16_11h22.47.228,stockport_simplified,2022.2.4,MacIntel,57.14285714,661e456ee6de07e70aa9ef7b,661e51602fc11d4e371ec9e6,,,,,,,,,,,,,,,,,,,,,,,,,,,,,,,,,,569.9728,571.9226,"[3,1,4,8,7,5,2,6]","[[-0.3,0.2],[0.3,0.2]]","[[0.125,-0.2],[-0.125,-0.2]]",-0.093168403,-0.233203125,1,0,0,1.4327,o2_image,571.9233,1,572.4222,572.4222,574.4221,0,0,0,0,1,,,,,,,,,,,,,,,,,,,,,,,,,,,,,,,,,,,,,,,,,,,,,,,,,,
,,5f13334daab04a01f1bee1bd,23,male,2024-04-16_11h22.47.228,stockport_simplified,2022.2.4,MacIntel,57.14285714,661e456ee6de07e70aa9ef7b,661e51602fc11d4e371ec9e6,,,,,,,,,,,,,,,,,,,,,,,,,,,,,,,,,,,,,,,,,,,,,,,,,,,,,,,,1,41,101,28,1,N,M,D,o2_image,stimuli/out2.png,stimuli/out1.png,stimuli/correct_out2.png,,,,,,,,,,,,,,,,,,,,,,,,,,,,,,,,,,,,,,
,,5f13334daab04a01f1bee1bd,23,male,2024-04-16_11h22.47.228,stockport_simplified,2022.2.4,MacIntel,57.14285714,661e456ee6de07e70aa9ef7b,661e51602fc11d4e371ec9e6,,,,,,,,,,,,,,,,,,,,,,,,,,,,,,,,,,574.4227,576.2055,"[3,1,4,8,7,5,2,6]","[[0.3,0.2],[-0.3,0.2]]","[[-0.125,-0.2],[0.125,-0.2]]",-0.067847222,-0.213229167,1,0,0,1.266,o1_image,576.2064,1,576.7054,576.7055,578.7056,0,0,0,0,1,,,,,,,,,,,,,,,,,,,,,,,,,,,,,,,,,,,,,,,,,,,,,,,,,,
,,5f13334daab04a01f1bee1bd,23,male,2024-04-16_11h22.47.228,stockport_simplified,2022.2.4,MacIntel,57.14285714,661e456ee6de07e70aa9ef7b,661e51602fc11d4e371ec9e6,,,,,,,,,,,,,,,,,,,,,,,,,,,,,,,,,,,,,,,,,,,,,,,,,,,,,,,,1,42,102,50,1,N,M,C,o1_image,stimuli/out1.png,stimuli/correct_out1.png,stimuli/out2.png,,,,,,,,,,,,,,,,,,,,,,,,,,,,,,,,,,,,,,
,,5f13334daab04a01f1bee1bd,23,male,2024-04-16_11h22.47.228,stockport_simplified,2022.2.4,MacIntel,57.14285714,661e456ee6de07e70aa9ef7b,661e51602fc11d4e371ec9e6,,,,,,,,,,,,,,,,,,,,,,,,,,,,,,,,,,578.7062,580.4221,"[3,1,4,8,7,5,2,6]","[[0.3,0.2],[-0.3,0.2]]","[[0.125,-0.2],[-0.125,-0.2]]",-0.140195313,-0.18578125,1,0,0,1.2003,o2_image,580.4231,1,580.9213,580.9214,582.922,0,0,0,0,1,,,,,,,,,,,,,,,,,,,,,,,,,,,,,,,,,,,,,,,,,,,,,,,,,,
,,5f13334daab04a01f1bee1bd,23,male,2024-04-16_11h22.47.228,stockport_simplified,2022.2.4,MacIntel,57.14285714,661e456ee6de07e70aa9ef7b,661e51602fc11d4e371ec9e6,,,,,,,,,,,,,,,,,,,,,,,,,,,,,,,,,,,,,,,,,,,,,,,,,,,,,,,,1,43,103,57,1,N,M,D,o2_image,stimuli/out2.png,stimuli/out1.png,stimuli/correct_out2.png,,,,,,,,,,,,,,,,,,,,,,,,,,,,,,,,,,,,,,
,,5f13334daab04a01f1bee1bd,23,male,2024-04-16_11h22.47.228,stockport_simplified,2022.2.4,MacIntel,57.14285714,661e456ee6de07e70aa9ef7b,661e51602fc11d4e371ec9e6,,,,,,,,,,,,,,,,,,,,,,,,,,,,,,,,,,582.9225,585.3391,"[3,1,4,8,7,5,2,6]","[[0.3,0.2],[-0.3,0.2]]","[[-0.125,-0.2],[0.125,-0.2]]",0.096171875,-0.201041667,1,0,0,1.8995,o2_image,585.34,1,585.8387,585.8387,587.8387,0,0,0,0,1,,,,,,,,,,,,,,,,,,,,,,,,,,,,,,,,,,,,,,,,,,,,,,,,,,
,,5f13334daab04a01f1bee1bd,23,male,2024-04-16_11h22.47.228,stockport_simplified,2022.2.4,MacIntel,57.14285714,661e456ee6de07e70aa9ef7b,661e51602fc11d4e371ec9e6,,,,,,,,,,,,,,,,,,,,,,,,,,,,,,,,,,,,,,,,,,,,,,,,,,,,,,,,1,44,104,17,1,B,Y,N,o2_image,stimuli/out2.png,stimuli/out1.png,stimuli/correct_out2.png,,,,,,,,,,,,,,,,,,,,,,,,,,,,,,,,,,,,,,
,,5f13334daab04a01f1bee1bd,23,male,2024-04-16_11h22.47.228,stockport_simplified,2022.2.4,MacIntel,57.14285714,661e456ee6de07e70aa9ef7b,661e51602fc11d4e371ec9e6,,,,,,,,,,,,,,,,,,,,,,,,,,,,,,,,,,587.8393,589.4721,"[3,1,4,8,7,5,2,6]","[[-0.3,0.2],[0.3,0.2]]","[[-0.125,-0.2],[0.125,-0.2]]",-0.12124566,-0.206032986,1,0,0,1.1161,o1_image,589.473,1,589.972,589.972,591.9721,0,0,0,0,1,,,,,,,,,,,,,,,,,,,,,,,,,,,,,,,,,,,,,,,,,,,,,,,,,,
,,5f13334daab04a01f1bee1bd,23,male,2024-04-16_11h22.47.228,stockport_simplified,2022.2.4,MacIntel,57.14285714,661e456ee6de07e70aa9ef7b,661e51602fc11d4e371ec9e6,,,,,,,,,,,,,,,,,,,,,,,,,,,,,,,,,,,,,,,,,,,,,,,,,,,,,,,,1,45,105,0,1,A,X,N,o1_image,stimuli/out1.png,stimuli/correct_out1.png,stimuli/out2.png,,,,,,,,,,,,,,,,,,,,,,,,,,,,,,,,,,,,,,
,,5f13334daab04a01f1bee1bd,23,male,2024-04-16_11h22.47.228,stockport_simplified,2022.2.4,MacIntel,57.14285714,661e456ee6de07e70aa9ef7b,661e51602fc11d4e371ec9e6,,,,,,,,,,,,,,,,,,,,,,,,,,,,,,,,,,591.9726,593.8387,"[3,1,4,8,7,5,2,6]","[[0.3,0.2],[-0.3,0.2]]","[[-0.125,-0.2],[0.125,-0.2]]",0.106467014,-0.197799479,1,0,0,1.3496,o2_image,593.8396,1,594.3387,594.3388,596.3387,0,0,0,0,1,,,,,,,,,,,,,,,,,,,,,,,,,,,,,,,,,,,,,,,,,,,,,,,,,,
,,5f13334daab04a01f1bee1bd,23,male,2024-04-16_11h22.47.228,stockport_simplified,2022.2.4,MacIntel,57.14285714,661e456ee6de07e70aa9ef7b,661e51602fc11d4e371ec9e6,,,,,,,,,,,,,,,,,,,,,,,,,,,,,,,,,,,,,,,,,,,,,,,,,,,,,,,,1,46,106,56,1,N,M,D,o2_image,stimuli/out2.png,stimuli/out1.png,stimuli/correct_out2.png,,,,,,,,,,,,,,,,,,,,,,,,,,,,,,,,,,,,,,
,,5f13334daab04a01f1bee1bd,23,male,2024-04-16_11h22.47.228,stockport_simplified,2022.2.4,MacIntel,57.14285714,661e456ee6de07e70aa9ef7b,661e51602fc11d4e371ec9e6,,,,,,,,,,,,,,,,,,,,,,,,,,,,,,,,,,596.3394,598.5886,"[3,1,4,8,7,5,2,6]","[[-0.3,0.2],[0.3,0.2]]","[[0.125,-0.2],[-0.125,-0.2]]",0.118459201,-0.200351562,1,0,0,1.7325,o1_image,598.5894,1,599.0886,599.0887,601.0886,0,0,0,0,1,,,,,,,,,,,,,,,,,,,,,,,,,,,,,,,,,,,,,,,,,,,,,,,,,,
,,5f13334daab04a01f1bee1bd,23,male,2024-04-16_11h22.47.228,stockport_simplified,2022.2.4,MacIntel,57.14285714,661e456ee6de07e70aa9ef7b,661e51602fc11d4e371ec9e6,,,,,,,,,,,,,,,,,,,,,,,,,,,,,,,,,,,,,,,,,,,,,,,,,,,,,,,,1,47,107,6,1,A,Y,N,o1_image,stimuli/out1.png,stimuli/correct_out1.png,stimuli/out2.png,,,,,,,,,,,,,,,,,,,,,,,,,,,,,,,,,,,,,,
,,5f13334daab04a01f1bee1bd,23,male,2024-04-16_11h22.47.228,stockport_simplified,2022.2.4,MacIntel,57.14285714,661e456ee6de07e70aa9ef7b,661e51602fc11d4e371ec9e6,,,,,,,,,,,,,,,,,,,,,,,,,,,,,,,,,,601.0892,603.3886,"[3,1,4,8,7,5,2,6]","[[-0.3,0.2],[0.3,0.2]]","[[0.125,-0.2],[-0.125,-0.2]]",0.120516493,-0.201332465,1,0,0,1.7827,o1_image,603.3894,1,603.8883,603.8883,605.8886,0,0,0,0,1,,,,,,,,,,,,,,,,,,,,,,,,,,,,,,,,,,,,,,,,,,,,,,,,,,
,,5f13334daab04a01f1bee1bd,23,male,2024-04-16_11h22.47.228,stockport_simplified,2022.2.4,MacIntel,57.14285714,661e456ee6de07e70aa9ef7b,661e51602fc11d4e371ec9e6,,,,,,,,,,,,,,,,,,,,,,,,,,,,,,,,,,,,,,,,,,,,,,,,,,,,,,,,1,48,108,31,1,A,X,N,o1_image,stimuli/out1.png,stimuli/correct_out1.png,stimuli/out2.png,,,,,,,,,,,,,,,,,,,,,,,,,,,,,,,,,,,,,,
,,5f13334daab04a01f1bee1bd,23,male,2024-04-16_11h22.47.228,stockport_simplified,2022.2.4,MacIntel,57.14285714,661e456ee6de07e70aa9ef7b,661e51602fc11d4e371ec9e6,,,,,,,,,,,,,,,,,,,,,,,,,,,,,,,,,,605.8893,607.6219,"[3,1,4,8,7,5,2,6]","[[0.3,0.2],[-0.3,0.2]]","[[0.125,-0.2],[-0.125,-0.2]]",-0.122052951,-0.220460069,1,0,0,1.2163,o2_image,607.6228,1,608.1209,608.1209,610.1208,0,0,0,0,1,,,,,,,,,,,,,,,,,,,,,,,,,,,,,,,,,,,,,,,,,,,,,,,,,,
,,5f13334daab04a01f1bee1bd,23,male,2024-04-16_11h22.47.228,stockport_simplified,2022.2.4,MacIntel,57.14285714,661e456ee6de07e70aa9ef7b,661e51602fc11d4e371ec9e6,,,,,,,,,,,,,,,,,,,,,,,,,,,,,,,,,,,,,,,,,,,,,,,,,,,,,,,,1,49,109,26,1,N,M,D,o2_image,stimuli/out2.png,stimuli/out1.png,stimuli/correct_out2.png,,,,,,,,,,,,,,,,,,,,,,,,,,,,,,,,,,,,,,
,,5f13334daab04a01f1bee1bd,23,male,2024-04-16_11h22.47.228,stockport_simplified,2022.2.4,MacIntel,57.14285714,661e456ee6de07e70aa9ef7b,661e51602fc11d4e371ec9e6,,,,,,,,,,,,,,,,,,,,,,,,,,,,,,,,,,610.1215,611.971,"[3,1,4,8,7,5,2,6]","[[0.3,0.2],[-0.3,0.2]]","[[0.125,-0.2],[-0.125,-0.2]]",0.106106771,-0.201024306,1,0,0,1.3488,o1_image,611.9718,1,612.4708,612.4709,614.4719,0,0,0,0,1,,,,,,,,,,,,,,,,,,,,,,,,,,,,,,,,,,,,,,,,,,,,,,,,,,
,,5f13334daab04a01f1bee1bd,23,male,2024-04-16_11h22.47.228,stockport_simplified,2022.2.4,MacIntel,57.14285714,661e456ee6de07e70aa9ef7b,661e51602fc11d4e371ec9e6,,,,,,,,,,,,,,,,,,,,,,,,,,,,,,,,,,,,,,,,,,,,,,,,,,,,,,,,1,50,110,52,1,N,M,C,o1_image,stimuli/out1.png,stimuli/correct_out1.png,stimuli/out2.png,,,,,,,,,,,,,,,,,,,,,,,,,,,,,,,,,,,,,,
,,5f13334daab04a01f1bee1bd,23,male,2024-04-16_11h22.47.228,stockport_simplified,2022.2.4,MacIntel,57.14285714,661e456ee6de07e70aa9ef7b,661e51602fc11d4e371ec9e6,,,,,,,,,,,,,,,,,,,,,,,,,,,,,,,,,,614.4726,615.9542,"[3,1,4,8,7,5,2,6]","[[-0.3,0.2],[0.3,0.2]]","[[-0.125,-0.2],[0.125,-0.2]]",-0.071536458,-0.214787326,1,0,0,0.9652,o1_image,615.955,1,616.4551,616.4552,618.4553,0,0,0,0,1,,,,,,,,,,,,,,,,,,,,,,,,,,,,,,,,,,,,,,,,,,,,,,,,,,
,,5f13334daab04a01f1bee1bd,23,male,2024-04-16_11h22.47.228,stockport_simplified,2022.2.4,MacIntel,57.14285714,661e456ee6de07e70aa9ef7b,661e51602fc11d4e371ec9e6,,,,,,,,,,,,,,,,,,,,,,,,,,,,,,,,,,,,,,,,,,,,,,,,,,,,,,,,1,51,111,30,1,A,X,N,o1_image,stimuli/out1.png,stimuli/correct_out1.png,stimuli/out2.png,,,,,,,,,,,,,,,,,,,,,,,,,,,,,,,,,,,,,,
,,5f13334daab04a01f1bee1bd,23,male,2024-04-16_11h22.47.228,stockport_simplified,2022.2.4,MacIntel,57.14285714,661e456ee6de07e70aa9ef7b,661e51602fc11d4e371ec9e6,,,,,,,,,,,,,,,,,,,,,,,,,,,,,,,,,,618.4559,621.1042,"[3,1,4,8,7,5,2,6]","[[0.3,0.2],[-0.3,0.2]]","[[0.125,-0.2],[-0.125,-0.2]]",0.100928819,-0.198923611,1,0,0,2.1315,o1_image,621.1146,0,621.6041,621.6041,623.6041,0,0,0,0,1,,,,,,,,,,,,,,,,,,,,,,,,,,,,,,,,,,,,,,,,,,,,,,,,,,
,,5f13334daab04a01f1bee1bd,23,male,2024-04-16_11h22.47.228,stockport_simplified,2022.2.4,MacIntel,57.14285714,661e456ee6de07e70aa9ef7b,661e51602fc11d4e371ec9e6,,,,,,,,,,,,,,,,,,,,,,,,,,,,,,,,,,,,,,,,,,,,,,,,,,,,,,,,1,52,112,25,1,N,M,D,o2_image,stimuli/out2.png,stimuli/out1.png,stimuli/correct_out2.png,,,,,,,,,,,,,,,,,,,,,,,,,,,,,,,,,,,,,,
,,5f13334daab04a01f1bee1bd,23,male,2024-04-16_11h22.47.228,stockport_simplified,2022.2.4,MacIntel,57.14285714,661e456ee6de07e70aa9ef7b,661e51602fc11d4e371ec9e6,,,,,,,,,,,,,,,,,,,,,,,,,,,,,,,,,,623.6047,625.2373,"[3,1,4,8,7,5,2,6]","[[0.3,0.2],[-0.3,0.2]]","[[-0.125,-0.2],[0.125,-0.2]]",-0.104583333,-0.188020833,1,0,0,1.1316,o1_image,625.2376,1,625.7384,625.7385,627.7382,0,0,0,0,1,,,,,,,,,,,,,,,,,,,,,,,,,,,,,,,,,,,,,,,,,,,,,,,,,,
,,5f13334daab04a01f1bee1bd,23,male,2024-04-16_11h22.47.228,stockport_simplified,2022.2.4,MacIntel,57.14285714,661e456ee6de07e70aa9ef7b,661e51602fc11d4e371ec9e6,,,,,,,,,,,,,,,,,,,,,,,,,,,,,,,,,,,,,,,,,,,,,,,,,,,,,,,,1,53,113,8,1,A,Y,N,o1_image,stimuli/out1.png,stimuli/correct_out1.png,stimuli/out2.png,,,,,,,,,,,,,,,,,,,,,,,,,,,,,,,,,,,,,,
,,5f13334daab04a01f1bee1bd,23,male,2024-04-16_11h22.47.228,stockport_simplified,2022.2.4,MacIntel,57.14285714,661e456ee6de07e70aa9ef7b,661e51602fc11d4e371ec9e6,,,,,,,,,,,,,,,,,,,,,,,,,,,,,,,,,,627.7388,630.2884,"[3,1,4,8,7,5,2,6]","[[-0.3,0.2],[0.3,0.2]]","[[-0.125,-0.2],[0.125,-0.2]]",-0.095533854,-0.196111111,1,0,0,2.0327,o1_image,630.2893,1,630.7884,630.7884,632.7884,0,0,0,0,1,,,,,,,,,,,,,,,,,,,,,,,,,,,,,,,,,,,,,,,,,,,,,,,,,,
,,5f13334daab04a01f1bee1bd,23,male,2024-04-16_11h22.47.228,stockport_simplified,2022.2.4,MacIntel,57.14285714,661e456ee6de07e70aa9ef7b,661e51602fc11d4e371ec9e6,,,,,,,,,,,,,,,,,,,,,,,,,,,,,,,,,,,,,,,,,,,,,,,,,,,,,,,,1,54,114,53,1,N,M,C,o1_image,stimuli/out1.png,stimuli/correct_out1.png,stimuli/out2.png,,,,,,,,,,,,,,,,,,,,,,,,,,,,,,,,,,,,,,
,,5f13334daab04a01f1bee1bd,23,male,2024-04-16_11h22.47.228,stockport_simplified,2022.2.4,MacIntel,57.14285714,661e456ee6de07e70aa9ef7b,661e51602fc11d4e371ec9e6,,,,,,,,,,,,,,,,,,,,,,,,,,,,,,,,,,632.7893,635.0382,"[3,1,4,8,7,5,2,6]","[[0.3,0.2],[-0.3,0.2]]","[[0.125,-0.2],[-0.125,-0.2]]",-0.061523438,-0.194709201,1,0,0,1.7335,o2_image,635.0392,1,635.5384,635.5385,637.5384,0,0,0,0,1,,,,,,,,,,,,,,,,,,,,,,,,,,,,,,,,,,,,,,,,,,,,,,,,,,
,,5f13334daab04a01f1bee1bd,23,male,2024-04-16_11h22.47.228,stockport_simplified,2022.2.4,MacIntel,57.14285714,661e456ee6de07e70aa9ef7b,661e51602fc11d4e371ec9e6,,,,,,,,,,,,,,,,,,,,,,,,,,,,,,,,,,,,,,,,,,,,,,,,,,,,,,,,1,55,115,43,1,B,X,N,o2_image,stimuli/out2.png,stimuli/out1.png,stimuli/correct_out2.png,,,,,,,,,,,,,,,,,,,,,,,,,,,,,,,,,,,,,,
,,5f13334daab04a01f1bee1bd,23,male,2024-04-16_11h22.47.228,stockport_simplified,2022.2.4,MacIntel,57.14285714,661e456ee6de07e70aa9ef7b,661e51602fc11d4e371ec9e6,,,,,,,,,,,,,,,,,,,,,,,,,,,,,,,,,,637.539,640.3873,"[3,1,4,8,7,5,2,6]","[[0.3,0.2],[-0.3,0.2]]","[[0.125,-0.2],[-0.125,-0.2]]",0.110412326,-0.199874132,1,0,0,2.3315,o1_image,640.3881,1,640.8883,640.8883,642.8883,0,0,0,0,1,,,,,,,,,,,,,,,,,,,,,,,,,,,,,,,,,,,,,,,,,,,,,,,,,,
,,5f13334daab04a01f1bee1bd,23,male,2024-04-16_11h22.47.228,stockport_simplified,2022.2.4,MacIntel,57.14285714,661e456ee6de07e70aa9ef7b,661e51602fc11d4e371ec9e6,,,,,,,,,,,,,,,,,,,,,,,,,,,,,,,,,,,,,,,,,,,,,,,,,,,,,,,,1,56,116,20,1,N,M,C,o1_image,stimuli/out1.png,stimuli/correct_out1.png,stimuli/out2.png,,,,,,,,,,,,,,,,,,,,,,,,,,,,,,,,,,,,,,
,,5f13334daab04a01f1bee1bd,23,male,2024-04-16_11h22.47.228,stockport_simplified,2022.2.4,MacIntel,57.14285714,661e456ee6de07e70aa9ef7b,661e51602fc11d4e371ec9e6,,,,,,,,,,,,,,,,,,,,,,,,,,,,,,,,,,642.889,644.3383,"[3,1,4,8,7,5,2,6]","[[-0.3,0.2],[0.3,0.2]]","[[-0.125,-0.2],[0.125,-0.2]]",-0.065269097,-0.218693576,1,0,0,0.9331,o1_image,644.3391,1,644.8377,644.8377,646.8374,0,0,0,0,1,,,,,,,,,,,,,,,,,,,,,,,,,,,,,,,,,,,,,,,,,,,,,,,,,,
,,5f13334daab04a01f1bee1bd,23,male,2024-04-16_11h22.47.228,stockport_simplified,2022.2.4,MacIntel,57.14285714,661e456ee6de07e70aa9ef7b,661e51602fc11d4e371ec9e6,,,,,,,,,,,,,,,,,,,,,,,,,,,,,,,,,,,,,,,,,,,,,,,,,,,,,,,,1,57,117,51,1,N,M,C,o1_image,stimuli/out1.png,stimuli/correct_out1.png,stimuli/out2.png,,,,,,,,,,,,,,,,,,,,,,,,,,,,,,,,,,,,,,
,,5f13334daab04a01f1bee1bd,23,male,2024-04-16_11h22.47.228,stockport_simplified,2022.2.4,MacIntel,57.14285714,661e456ee6de07e70aa9ef7b,661e51602fc11d4e371ec9e6,,,,,,,,,,,,,,,,,,,,,,,,,,,,,,,,,,646.8381,648.4715,"[3,1,4,8,7,5,2,6]","[[0.3,0.2],[-0.3,0.2]]","[[-0.125,-0.2],[0.125,-0.2]]",0.14906684,-0.206332465,1,0,0,1.1324,o2_image,648.4725,1,648.9708,648.9708,650.9707,0,0,0,0,1,,,,,,,,,,,,,,,,,,,,,,,,,,,,,,,,,,,,,,,,,,,,,,,,,,
,,5f13334daab04a01f1bee1bd,23,male,2024-04-16_11h22.47.228,stockport_simplified,2022.2.4,MacIntel,57.14285714,661e456ee6de07e70aa9ef7b,661e51602fc11d4e371ec9e6,,,,,,,,,,,,,,,,,,,,,,,,,,,,,,,,,,,,,,,,,,,,,,,,,,,,,,,,1,58,118,40,1,B,X,N,o2_image,stimuli/out2.png,stimuli/out1.png,stimuli/correct_out2.png,,,,,,,,,,,,,,,,,,,,,,,,,,,,,,,,,,,,,,
,,5f13334daab04a01f1bee1bd,23,male,2024-04-16_11h22.47.228,stockport_simplified,2022.2.4,MacIntel,57.14285714,661e456ee6de07e70aa9ef7b,661e51602fc11d4e371ec9e6,,,,,,,,,,,,,,,,,,,,,,,,,,,,,,,,,,650.9713,652.7049,"[3,1,4,8,7,5,2,6]","[[-0.3,0.2],[0.3,0.2]]","[[0.125,-0.2],[-0.125,-0.2]]",0.108263889,-0.217300347,1,0,0,1.2326,o1_image,652.7058,1,653.2039,653.204,655.2039,0,0,0,0,1,,,,,,,,,,,,,,,,,,,,,,,,,,,,,,,,,,,,,,,,,,,,,,,,,,
,,5f13334daab04a01f1bee1bd,23,male,2024-04-16_11h22.47.228,stockport_simplified,2022.2.4,MacIntel,57.14285714,661e456ee6de07e70aa9ef7b,661e51602fc11d4e371ec9e6,,,,,,,,,,,,,,,,,,,,,,,,,,,,,,,,,,,,,,,,,,,,,,,,,,,,,,,,1,59,119,21,1,N,M,C,o1_image,stimuli/out1.png,stimuli/correct_out1.png,stimuli/out2.png,,,,,,,,,,,,,,,,,,,,,,,,,,,,,,,,,,,,,,
,,5f13334daab04a01f1bee1bd,23,male,2024-04-16_11h22.47.228,stockport_simplified,2022.2.4,MacIntel,57.14285714,661e456ee6de07e70aa9ef7b,661e51602fc11d4e371ec9e6,,,,,,,,,,,,,,,,,,,,,,,,,,,,,,,,,,655.2211,656.8373,"[3,1,4,8,7,5,2,6]","[[-0.3,0.2],[0.3,0.2]]","[[-0.125,-0.2],[0.125,-0.2]]",0.14062934,-0.211966146,1,0,0,1.1151,o2_image,656.8385,1,657.3382,657.3383,659.3382,,,,,,,,,,,,,,,,,,0,0,0,0,1,,,,,,,,,,,,,,,,,,,,,,,,,,,,,,,,,
,,5f13334daab04a01f1bee1bd,23,male,2024-04-16_11h22.47.228,stockport_simplified,2022.2.4,MacIntel,57.14285714,661e456ee6de07e70aa9ef7b,661e51602fc11d4e371ec9e6,,,,,,,,,,,,,,,,,,,,,,,,,,,,,,,,,,,,,,,,,,,,,,,,,,,,,,,,,,,,,B,X,N,o2_image,stimuli/out2.png,stimuli/out1.png,stimuli/correct_out2.png,,,,,,0,0,0,24,1,,,,,,,,,,,,,,,,,,,,,,,,,,,,
,,5f13334daab04a01f1bee1bd,23,male,2024-04-16_11h22.47.228,stockport_simplified,2022.2.4,MacIntel,57.14285714,661e456ee6de07e70aa9ef7b,661e51602fc11d4e371ec9e6,,,,,,,,,,,,,,,,,,,,,,,,,,,,,,,,,,659.3394,660.7715,"[3,1,4,8,7,5,2,6]","[[-0.3,0.2],[0.3,0.2]]","[[0.125,-0.2],[-0.125,-0.2]]",-0.126992187,-0.219835069,1,0,0,0.9164,o2_image,660.7722,1,661.2706,661.2706,663.2705,,,,,,,,,,,,,,,,,,0,0,0,0,1,,,,,,,,,,,,,,,,,,,,,,,,,,,,,,,,,
,,5f13334daab04a01f1bee1bd,23,male,2024-04-16_11h22.47.228,stockport_simplified,2022.2.4,MacIntel,57.14285714,661e456ee6de07e70aa9ef7b,661e51602fc11d4e371ec9e6,,,,,,,,,,,,,,,,,,,,,,,,,,,,,,,,,,,,,,,,,,,,,,,,,,,,,,,,,,,,,B,X,N,o2_image,stimuli/out2.png,stimuli/out1.png,stimuli/correct_out2.png,,,,,,0,1,1,22,1,,,,,,,,,,,,,,,,,,,,,,,,,,,,
,,5f13334daab04a01f1bee1bd,23,male,2024-04-16_11h22.47.228,stockport_simplified,2022.2.4,MacIntel,57.14285714,661e456ee6de07e70aa9ef7b,661e51602fc11d4e371ec9e6,,,,,,,,,,,,,,,,,,,,,,,,,,,,,,,,,,663.271,664.7381,"[3,1,4,8,7,5,2,6]","[[0.3,0.2],[-0.3,0.2]]","[[0.125,-0.2],[-0.125,-0.2]]",-0.123480903,-0.210568576,1,0,0,0.9663,o2_image,664.7389,1,665.2381,665.2382,667.2383,,,,,,,,,,,,,,,,,,0,0,0,0,1,,,,,,,,,,,,,,,,,,,,,,,,,,,,,,,,,
,,5f13334daab04a01f1bee1bd,23,male,2024-04-16_11h22.47.228,stockport_simplified,2022.2.4,MacIntel,57.14285714,661e456ee6de07e70aa9ef7b,661e51602fc11d4e371ec9e6,,,,,,,,,,,,,,,,,,,,,,,,,,,,,,,,,,,,,,,,,,,,,,,,,,,,,,,,,,,,,B,Y,N,o2_image,stimuli/out2.png,stimuli/out1.png,stimuli/correct_out2.png,,,,,,0,2,2,30,1,,,,,,,,,,,,,,,,,,,,,,,,,,,,
,,5f13334daab04a01f1bee1bd,23,male,2024-04-16_11h22.47.228,stockport_simplified,2022.2.4,MacIntel,57.14285714,661e456ee6de07e70aa9ef7b,661e51602fc11d4e371ec9e6,,,,,,,,,,,,,,,,,,,,,,,,,,,,,,,,,,667.239,668.7539,"[3,1,4,8,7,5,2,6]","[[-0.3,0.2],[0.3,0.2]]","[[0.125,-0.2],[-0.125,-0.2]]",0.052070313,-0.204075521,1,0,0,0.9983,o1_image,668.7548,1,669.2548,669.2548,671.255,,,,,,,,,,,,,,,,,,0,0,0,0,1,,,,,,,,,,,,,,,,,,,,,,,,,,,,,,,,,
