counterbalance_2.started,counterbalance_2.stopped,participant,age,gender,date,expName,psychopyVersion,OS,frameRate,STUDY_ID,SESSION_ID,information_2.started,information_2.stopped,information_loop.thisRepN,information_loop.thisTrialN,information_loop.thisN,information_loop.thisIndex,information_loop.ran,information,consent_2.started,consent_2.stopped,slider_1.response,slider_2.response,slider_3.response,slider_4.response,slider_5.response,slider_6.response,instructions.started,instructions.stopped,task1_instr.thisRepN,task1_instr.thisTrialN,task1_instr.thisN,task1_instr.thisIndex,task1_instr.ran,task1,comprehension1_2.started,comprehension1_2.stopped,comp1_mouse.x,comp1_mouse.y,comp1_mouse.leftButton,comp1_mouse.midButton,comp1_mouse.rightButton,comp1_mouse.time,comp1_mouse.clicked_name,cue_o__trial_2.started,cue_o__trial_2.stopped,order,cue_order,out_order,cue_o_mouse.x,cue_o_mouse.y,cue_o_mouse.leftButton,cue_o_mouse.midButton,cue_o_mouse.rightButton,cue_o_mouse.time,cue_o_mouse.clicked_name,cue_selection_2.started,correct_answer,cue_selection_2.stopped,feedback_2.started,feedback_2.stopped,feedback_loop.thisRepN,feedback_loop.thisTrialN,feedback_loop.thisN,feedback_loop.thisIndex,feedback_loop.ran,stage1_trials.thisRepN,stage1_trials.thisTrialN,stage1_trials.thisN,stage1_trials.thisIndex,stage1_trials.ran,cue1,cue2,cue3,outcome,correct_out,o1_feedback,o2_feedback,stage2_feedback_loop.thisRepN,stage2_feedback_loop.thisTrialN,stage2_feedback_loop.thisN,stage2_feedback_loop.thisIndex,stage2_feedback_loop.ran,stage2_trials.thisRepN,stage2_trials.thisTrialN,stage2_trials.thisN,stage2_trials.thisIndex,stage2_trials.ran,stage3_feedback_loop.thisRepN,stage3_feedback_loop.thisTrialN,stage3_feedback_loop.thisN,stage3_feedback_loop.thisIndex,stage3_feedback_loop.ran,stage3_trials.thisRepN,stage3_trials.thisTrialN,stage3_trials.thisN,stage3_trials.thisIndex,stage3_trials.ran,debrief_2.started,debrief_2.stopped,debrief_loop.thisRepN,debrief_loop.thisTrialN,debrief_loop.thisN,debrief_loop.thisIndex,debrief_loop.ran,debrief_img,compr1_completed.thisRepN,compr1_completed.thisTrialN,compr1_completed.thisN,compr1_completed.thisIndex,compr1_completed.ran,consent_loop.thisRepN,consent_loop.thisTrialN,consent_loop.thisN,consent_loop.thisIndex,consent_loop.ran
0.003,0.0032,5fb6d9267fe54f14f515bcf1,31,female,2024-04-16_13h26.26.205,stockport_simplified,2022.2.4,Win32,59.88023952,661e456ee6de07e70aa9ef7b,661e51372a1676097f2f0a92,,,,,,,,,,,,,,,,,,,,,,,,,,,,,,,,,,,,,,,,,,,,,,,,,,,,,,,,,,,,,,,,,,,,,,,,,,,,,,,,,,,,,,,,,,,,,,,,,,,,,,,,,
,,5fb6d9267fe54f14f515bcf1,31,female,2024-04-16_13h26.26.205,stockport_simplified,2022.2.4,Win32,59.88023952,661e456ee6de07e70aa9ef7b,661e51372a1676097f2f0a92,0.0148,11.0147,0,0,0,0,1,instructions/info1.png,,,,,,,,,,,,,,,,,,,,,,,,,,,,,,,,,,,,,,,,,,,,,,,,,,,,,,,,,,,,,,,,,,,,,,,,,,,,,,,,,,,,,,,,,,,,,,,,,
,,5fb6d9267fe54f14f515bcf1,31,female,2024-04-16_13h26.26.205,stockport_simplified,2022.2.4,Win32,59.88023952,661e456ee6de07e70aa9ef7b,661e51372a1676097f2f0a92,11.0156,12.7808,0,1,1,1,1,instructions/info2.png,,,,,,,,,,,,,,,,,,,,,,,,,,,,,,,,,,,,,,,,,,,,,,,,,,,,,,,,,,,,,,,,,,,,,,,,,,,,,,,,,,,,,,,,,,,,,,,,,
,,5fb6d9267fe54f14f515bcf1,31,female,2024-04-16_13h26.26.205,stockport_simplified,2022.2.4,Win32,59.88023952,661e456ee6de07e70aa9ef7b,661e51372a1676097f2f0a92,12.7814,14.4477,0,2,2,2,1,instructions/info3.png,,,,,,,,,,,,,,,,,,,,,,,,,,,,,,,,,,,,,,,,,,,,,,,,,,,,,,,,,,,,,,,,,,,,,,,,,,,,,,,,,,,,,,,,,,,,,,,,,
,,5fb6d9267fe54f14f515bcf1,31,female,2024-04-16_13h26.26.205,stockport_simplified,2022.2.4,Win32,59.88023952,661e456ee6de07e70aa9ef7b,661e51372a1676097f2f0a92,,,,,,,,,14.4484,29.4151,1,1,1,1,1,1,,,,,,,,,,,,,,,,,,,,,,,,,,,,,,,,,,,,,,,,,,,,,,,,,,,,,,,,,,,,,,,,,,,,,,,,,,,,,,,,,,,,,,,,,
,,5fb6d9267fe54f14f515bcf1,31,female,2024-04-16_13h26.26.205,stockport_simplified,2022.2.4,Win32,59.88023952,661e456ee6de07e70aa9ef7b,661e51372a1676097f2f0a92,,,,,,,,,,,,,,,,,29.4245,47.2653,0,0,0,0,1,instructions/task1_1.png,,,,,,,,,,,,,,,,,,,,,,,,,,,,,,,,,,,,,,,,,,,,,,,,,,,,,,,,,,,,,,,,,,,,,,,,,,,,,,,,,
,,5fb6d9267fe54f14f515bcf1,31,female,2024-04-16_13h26.26.205,stockport_simplified,2022.2.4,Win32,59.88023952,661e456ee6de07e70aa9ef7b,661e51372a1676097f2f0a92,,,,,,,,,,,,,,,,,47.2659,61.6154,0,1,1,1,1,instructions/task1_2.png,,,,,,,,,,,,,,,,,,,,,,,,,,,,,,,,,,,,,,,,,,,,,,,,,,,,,,,,,,,,,,,,,,,,,,,,,,,,,,,,,
,,5fb6d9267fe54f14f515bcf1,31,female,2024-04-16_13h26.26.205,stockport_simplified,2022.2.4,Win32,59.88023952,661e456ee6de07e70aa9ef7b,661e51372a1676097f2f0a92,,,,,,,,,,,,,,,,,61.6221,101.5004,0,2,2,2,1,instructions/task1_3.png,,,,,,,,,,,,,,,,,,,,,,,,,,,,,,,,,,,,,,,,,,,,,,,,,,,,,,,,,,,,,,,,,,,,,,,,,,,,,,,,,
,,5fb6d9267fe54f14f515bcf1,31,female,2024-04-16_13h26.26.205,stockport_simplified,2022.2.4,Win32,59.88023952,661e456ee6de07e70aa9ef7b,661e51372a1676097f2f0a92,,,,,,,,,,,,,,,,,,,,,,,,,101.5072,108.9675,0.047222208,-0.462037051,1,0,0,0.3261,comp1_resp1,108.9853,113.8844,"[1,7,2,8,5,4,3,6]","[[-0.3,0.2],[0.3,0.2]]","[[-0.125,-0.2],[0.125,-0.2]]",0.131481524,-0.194444444,1,0,0,4.3831,o2_image,113.891,0,114.3838,114.384,116.3841,0,0,0,0,1,,,,,,,,,,,,,,,,,,,,,,,,,,,,,,,,,,,,,,,,,,,,,,,,,,
,,5fb6d9267fe54f14f515bcf1,31,female,2024-04-16_13h26.26.205,stockport_simplified,2022.2.4,Win32,59.88023952,661e456ee6de07e70aa9ef7b,661e51372a1676097f2f0a92,,,,,,,,,,,,,,,,,,,,,,,,,,,,,,,,,,,,,,,,,,,,,,,,,,,,,,,,0,0,0,54,1,N,M,C,o1_image,stimuli/out1.png,stimuli/correct_out1.png,stimuli/out2.png,,,,,,,,,,,,,,,,,,,,,,,,,,,,,,,,,,,,,,
,,5fb6d9267fe54f14f515bcf1,31,female,2024-04-16_13h26.26.205,stockport_simplified,2022.2.4,Win32,59.88023952,661e456ee6de07e70aa9ef7b,661e51372a1676097f2f0a92,,,,,,,,,,,,,,,,,,,,,,,,,,,,,,,,,,116.3845,120.1008,"[1,7,2,8,5,4,3,6]","[[0.3,0.2],[-0.3,0.2]]","[[0.125,-0.2],[-0.125,-0.2]]",-0.101851852,-0.212962963,1,0,0,3.199299999,o2_image,120.107,1,120.6004,120.6005,122.6006,0,0,0,0,1,,,,,,,,,,,,,,,,,,,,,,,,,,,,,,,,,,,,,,,,,,,,,,,,,,
,,5fb6d9267fe54f14f515bcf1,31,female,2024-04-16_13h26.26.205,stockport_simplified,2022.2.4,Win32,59.88023952,661e456ee6de07e70aa9ef7b,661e51372a1676097f2f0a92,,,,,,,,,,,,,,,,,,,,,,,,,,,,,,,,,,,,,,,,,,,,,,,,,,,,,,,,0,1,1,48,1,B,Y,N,o2_image,stimuli/out2.png,stimuli/out1.png,stimuli/correct_out2.png,,,,,,,,,,,,,,,,,,,,,,,,,,,,,,,,,,,,,,
,,5fb6d9267fe54f14f515bcf1,31,female,2024-04-16_13h26.26.205,stockport_simplified,2022.2.4,Win32,59.88023952,661e456ee6de07e70aa9ef7b,661e51372a1676097f2f0a92,,,,,,,,,,,,,,,,,,,,,,,,,,,,,,,,,,122.601,125.9011,"[1,7,2,8,5,4,3,6]","[[-0.3,0.2],[0.3,0.2]]","[[0.125,-0.2],[-0.125,-0.2]]",-0.101851852,-0.212962963,1,0,0,2.7825,o2_image,125.9071,0,126.4033,126.4033,128.4009,0,0,0,0,1,,,,,,,,,,,,,,,,,,,,,,,,,,,,,,,,,,,,,,,,,,,,,,,,,,
,,5fb6d9267fe54f14f515bcf1,31,female,2024-04-16_13h26.26.205,stockport_simplified,2022.2.4,Win32,59.88023952,661e456ee6de07e70aa9ef7b,661e51372a1676097f2f0a92,,,,,,,,,,,,,,,,,,,,,,,,,,,,,,,,,,,,,,,,,,,,,,,,,,,,,,,,0,2,2,38,1,A,Y,N,o1_image,stimuli/out1.png,stimuli/correct_out1.png,stimuli/out2.png,,,,,,,,,,,,,,,,,,,,,,,,,,,,,,,,,,,,,,
,,5fb6d9267fe54f14f515bcf1,31,female,2024-04-16_13h26.26.205,stockport_simplified,2022.2.4,Win32,59.88023952,661e456ee6de07e70aa9ef7b,661e51372a1676097f2f0a92,,,,,,,,,,,,,,,,,,,,,,,,,,,,,,,,,,128.4014,129.8844,"[1,7,2,8,5,4,3,6]","[[-0.3,0.2],[0.3,0.2]]","[[0.125,-0.2],[-0.125,-0.2]]",-0.101851852,-0.212962963,1,0,0,0.966,o2_image,129.885,1,130.3843,130.3843,132.3844,0,0,0,0,1,,,,,,,,,,,,,,,,,,,,,,,,,,,,,,,,,,,,,,,,,,,,,,,,,,
,,5fb6d9267fe54f14f515bcf1,31,female,2024-04-16_13h26.26.205,stockport_simplified,2022.2.4,Win32,59.88023952,661e456ee6de07e70aa9ef7b,661e51372a1676097f2f0a92,,,,,,,,,,,,,,,,,,,,,,,,,,,,,,,,,,,,,,,,,,,,,,,,,,,,,,,,0,3,3,14,1,B,X,N,o2_image,stimuli/out2.png,stimuli/out1.png,stimuli/correct_out2.png,,,,,,,,,,,,,,,,,,,,,,,,,,,,,,,,,,,,,,
,,5fb6d9267fe54f14f515bcf1,31,female,2024-04-16_13h26.26.205,stockport_simplified,2022.2.4,Win32,59.88023952,661e456ee6de07e70aa9ef7b,661e51372a1676097f2f0a92,,,,,,,,,,,,,,,,,,,,,,,,,,,,,,,,,,132.3848,134.6507,"[1,7,2,8,5,4,3,6]","[[-0.3,0.2],[0.3,0.2]]","[[-0.125,-0.2],[0.125,-0.2]]",-0.151851866,-0.199999986,1,0,0,1.7492,o1_image,134.6512,1,135.151,135.1511,137.1509,0,0,0,0,1,,,,,,,,,,,,,,,,,,,,,,,,,,,,,,,,,,,,,,,,,,,,,,,,,,
,,5fb6d9267fe54f14f515bcf1,31,female,2024-04-16_13h26.26.205,stockport_simplified,2022.2.4,Win32,59.88023952,661e456ee6de07e70aa9ef7b,661e51372a1676097f2f0a92,,,,,,,,,,,,,,,,,,,,,,,,,,,,,,,,,,,,,,,,,,,,,,,,,,,,,,,,0,4,4,39,1,A,Y,N,o1_image,stimuli/out1.png,stimuli/correct_out1.png,stimuli/out2.png,,,,,,,,,,,,,,,,,,,,,,,,,,,,,,,,,,,,,,
,,5fb6d9267fe54f14f515bcf1,31,female,2024-04-16_13h26.26.205,stockport_simplified,2022.2.4,Win32,59.88023952,661e456ee6de07e70aa9ef7b,661e51372a1676097f2f0a92,,,,,,,,,,,,,,,,,,,,,,,,,,,,,,,,,,137.1512,139.1349,"[1,7,2,8,5,4,3,6]","[[-0.3,0.2],[0.3,0.2]]","[[0.125,-0.2],[-0.125,-0.2]]",-0.151851866,-0.199999986,1,0,0,1.4666,o2_image,139.1356,1,139.6342,139.6342,141.6345,0,0,0,0,1,,,,,,,,,,,,,,,,,,,,,,,,,,,,,,,,,,,,,,,,,,,,,,,,,,
,,5fb6d9267fe54f14f515bcf1,31,female,2024-04-16_13h26.26.205,stockport_simplified,2022.2.4,Win32,59.88023952,661e456ee6de07e70aa9ef7b,661e51372a1676097f2f0a92,,,,,,,,,,,,,,,,,,,,,,,,,,,,,,,,,,,,,,,,,,,,,,,,,,,,,,,,0,5,5,56,1,N,M,D,o2_image,stimuli/out2.png,stimuli/out1.png,stimuli/correct_out2.png,,,,,,,,,,,,,,,,,,,,,,,,,,,,,,,,,,,,,,
,,5fb6d9267fe54f14f515bcf1,31,female,2024-04-16_13h26.26.205,stockport_simplified,2022.2.4,Win32,59.88023952,661e456ee6de07e70aa9ef7b,661e51372a1676097f2f0a92,,,,,,,,,,,,,,,,,,,,,,,,,,,,,,,,,,141.6348,143.6346,"[1,7,2,8,5,4,3,6]","[[0.3,0.2],[-0.3,0.2]]","[[-0.125,-0.2],[0.125,-0.2]]",0.18240745,-0.181481467,1,0,0,1.483400001,o2_image,143.6352,1,144.1345,144.1346,146.1343,0,0,0,0,1,,,,,,,,,,,,,,,,,,,,,,,,,,,,,,,,,,,,,,,,,,,,,,,,,,
,,5fb6d9267fe54f14f515bcf1,31,female,2024-04-16_13h26.26.205,stockport_simplified,2022.2.4,Win32,59.88023952,661e456ee6de07e70aa9ef7b,661e51372a1676097f2f0a92,,,,,,,,,,,,,,,,,,,,,,,,,,,,,,,,,,,,,,,,,,,,,,,,,,,,,,,,0,6,6,58,1,N,M,D,o2_image,stimuli/out2.png,stimuli/out1.png,stimuli/correct_out2.png,,,,,,,,,,,,,,,,,,,,,,,,,,,,,,,,,,,,,,
,,5fb6d9267fe54f14f515bcf1,31,female,2024-04-16_13h26.26.205,stockport_simplified,2022.2.4,Win32,59.88023952,661e456ee6de07e70aa9ef7b,661e51372a1676097f2f0a92,,,,,,,,,,,,,,,,,,,,,,,,,,,,,,,,,,146.1347,149.8015,"[1,7,2,8,5,4,3,6]","[[-0.3,0.2],[0.3,0.2]]","[[-0.125,-0.2],[0.125,-0.2]]",0.166666667,-0.141666695,1,0,0,3.1645,o2_image,149.8077,0,150.3018,150.3018,152.3014,0,0,0,0,1,,,,,,,,,,,,,,,,,,,,,,,,,,,,,,,,,,,,,,,,,,,,,,,,,,
,,5fb6d9267fe54f14f515bcf1,31,female,2024-04-16_13h26.26.205,stockport_simplified,2022.2.4,Win32,59.88023952,661e456ee6de07e70aa9ef7b,661e51372a1676097f2f0a92,,,,,,,,,,,,,,,,,,,,,,,,,,,,,,,,,,,,,,,,,,,,,,,,,,,,,,,,0,7,7,32,1,A,X,N,o1_image,stimuli/out1.png,stimuli/correct_out1.png,stimuli/out2.png,,,,,,,,,,,,,,,,,,,,,,,,,,,,,,,,,,,,,,
,,5fb6d9267fe54f14f515bcf1,31,female,2024-04-16_13h26.26.205,stockport_simplified,2022.2.4,Win32,59.88023952,661e456ee6de07e70aa9ef7b,661e51372a1676097f2f0a92,,,,,,,,,,,,,,,,,,,,,,,,,,,,,,,,,,152.3018,154.0848,"[1,7,2,8,5,4,3,6]","[[0.3,0.2],[-0.3,0.2]]","[[0.125,-0.2],[-0.125,-0.2]]",-0.136111083,-0.162962949,1,0,0,1.2663,o2_image,154.0854,1,154.5847,154.5847,156.5847,0,0,0,0,1,,,,,,,,,,,,,,,,,,,,,,,,,,,,,,,,,,,,,,,,,,,,,,,,,,
,,5fb6d9267fe54f14f515bcf1,31,female,2024-04-16_13h26.26.205,stockport_simplified,2022.2.4,Win32,59.88023952,661e456ee6de07e70aa9ef7b,661e51372a1676097f2f0a92,,,,,,,,,,,,,,,,,,,,,,,,,,,,,,,,,,,,,,,,,,,,,,,,,,,,,,,,0,8,8,25,1,N,M,D,o2_image,stimuli/out2.png,stimuli/out1.png,stimuli/correct_out2.png,,,,,,,,,,,,,,,,,,,,,,,,,,,,,,,,,,,,,,
,,5fb6d9267fe54f14f515bcf1,31,female,2024-04-16_13h26.26.205,stockport_simplified,2022.2.4,Win32,59.88023952,661e456ee6de07e70aa9ef7b,661e51372a1676097f2f0a92,,,,,,,,,,,,,,,,,,,,,,,,,,,,,,,,,,156.585,159.2517,"[1,7,2,8,5,4,3,6]","[[0.3,0.2],[-0.3,0.2]]","[[-0.125,-0.2],[0.125,-0.2]]",-0.164814772,-0.167592578,1,0,0,2.166,o1_image,159.2523,1,159.7516,159.7516,161.7516,0,0,0,0,1,,,,,,,,,,,,,,,,,,,,,,,,,,,,,,,,,,,,,,,,,,,,,,,,,,
,,5fb6d9267fe54f14f515bcf1,31,female,2024-04-16_13h26.26.205,stockport_simplified,2022.2.4,Win32,59.88023952,661e456ee6de07e70aa9ef7b,661e51372a1676097f2f0a92,,,,,,,,,,,,,,,,,,,,,,,,,,,,,,,,,,,,,,,,,,,,,,,,,,,,,,,,0,9,9,2,1,A,X,N,o1_image,stimuli/out1.png,stimuli/correct_out1.png,stimuli/out2.png,,,,,,,,,,,,,,,,,,,,,,,,,,,,,,,,,,,,,,
,,5fb6d9267fe54f14f515bcf1,31,female,2024-04-16_13h26.26.205,stockport_simplified,2022.2.4,Win32,59.88023952,661e456ee6de07e70aa9ef7b,661e51372a1676097f2f0a92,,,,,,,,,,,,,,,,,,,,,,,,,,,,,,,,,,161.7519,163.5852,"[1,7,2,8,5,4,3,6]","[[0.3,0.2],[-0.3,0.2]]","[[-0.125,-0.2],[0.125,-0.2]]",-0.164814772,-0.167592578,1,0,0,1.315099999,o1_image,163.5857,1,164.0851,164.0852,166.085,0,0,0,0,1,,,,,,,,,,,,,,,,,,,,,,,,,,,,,,,,,,,,,,,,,,,,,,,,,,
,,5fb6d9267fe54f14f515bcf1,31,female,2024-04-16_13h26.26.205,stockport_simplified,2022.2.4,Win32,59.88023952,661e456ee6de07e70aa9ef7b,661e51372a1676097f2f0a92,,,,,,,,,,,,,,,,,,,,,,,,,,,,,,,,,,,,,,,,,,,,,,,,,,,,,,,,0,10,10,1,1,A,X,N,o1_image,stimuli/out1.png,stimuli/correct_out1.png,stimuli/out2.png,,,,,,,,,,,,,,,,,,,,,,,,,,,,,,,,,,,,,,
,,5fb6d9267fe54f14f515bcf1,31,female,2024-04-16_13h26.26.205,stockport_simplified,2022.2.4,Win32,59.88023952,661e456ee6de07e70aa9ef7b,661e51372a1676097f2f0a92,,,,,,,,,,,,,,,,,,,,,,,,,,,,,,,,,,166.0853,168.8714,"[1,7,2,8,5,4,3,6]","[[0.3,0.2],[-0.3,0.2]]","[[0.125,-0.2],[-0.125,-0.2]]",-0.103703675,-0.183333362,1,0,0,2.2687,o2_image,168.8719,1,169.3684,169.3685,171.3685,0,0,0,0,1,,,,,,,,,,,,,,,,,,,,,,,,,,,,,,,,,,,,,,,,,,,,,,,,,,
,,5fb6d9267fe54f14f515bcf1,31,female,2024-04-16_13h26.26.205,stockport_simplified,2022.2.4,Win32,59.88023952,661e456ee6de07e70aa9ef7b,661e51372a1676097f2f0a92,,,,,,,,,,,,,,,,,,,,,,,,,,,,,,,,,,,,,,,,,,,,,,,,,,,,,,,,0,11,11,19,1,B,Y,N,o2_image,stimuli/out2.png,stimuli/out1.png,stimuli/correct_out2.png,,,,,,,,,,,,,,,,,,,,,,,,,,,,,,,,,,,,,,
,,5fb6d9267fe54f14f515bcf1,31,female,2024-04-16_13h26.26.205,stockport_simplified,2022.2.4,Win32,59.88023952,661e456ee6de07e70aa9ef7b,661e51372a1676097f2f0a92,,,,,,,,,,,,,,,,,,,,,,,,,,,,,,,,,,171.3689,173.1695,"[1,7,2,8,5,4,3,6]","[[0.3,0.2],[-0.3,0.2]]","[[0.125,-0.2],[-0.125,-0.2]]",0.10555557,-0.189814815,1,0,0,1.284,o1_image,173.1699,1,173.6686,173.6686,175.6687,0,0,0,0,1,,,,,,,,,,,,,,,,,,,,,,,,,,,,,,,,,,,,,,,,,,,,,,,,,,
,,5fb6d9267fe54f14f515bcf1,31,female,2024-04-16_13h26.26.205,stockport_simplified,2022.2.4,Win32,59.88023952,661e456ee6de07e70aa9ef7b,661e51372a1676097f2f0a92,,,,,,,,,,,,,,,,,,,,,,,,,,,,,,,,,,,,,,,,,,,,,,,,,,,,,,,,0,12,12,33,1,A,X,N,o1_image,stimuli/out1.png,stimuli/correct_out1.png,stimuli/out2.png,,,,,,,,,,,,,,,,,,,,,,,,,,,,,,,,,,,,,,
,,5fb6d9267fe54f14f515bcf1,31,female,2024-04-16_13h26.26.205,stockport_simplified,2022.2.4,Win32,59.88023952,661e456ee6de07e70aa9ef7b,661e51372a1676097f2f0a92,,,,,,,,,,,,,,,,,,,,,,,,,,,,,,,,,,175.6691,177.2354,"[1,7,2,8,5,4,3,6]","[[0.3,0.2],[-0.3,0.2]]","[[-0.125,-0.2],[0.125,-0.2]]",0.10555557,-0.189814815,1,0,0,1.0495,o2_image,177.236,1,177.7354,177.7354,179.7355,0,0,0,0,1,,,,,,,,,,,,,,,,,,,,,,,,,,,,,,,,,,,,,,,,,,,,,,,,,,
,,5fb6d9267fe54f14f515bcf1,31,female,2024-04-16_13h26.26.205,stockport_simplified,2022.2.4,Win32,59.88023952,661e456ee6de07e70aa9ef7b,661e51372a1676097f2f0a92,,,,,,,,,,,,,,,,,,,,,,,,,,,,,,,,,,,,,,,,,,,,,,,,,,,,,,,,0,13,13,29,1,N,M,D,o2_image,stimuli/out2.png,stimuli/out1.png,stimuli/correct_out2.png,,,,,,,,,,,,,,,,,,,,,,,,,,,,,,,,,,,,,,
,,5fb6d9267fe54f14f515bcf1,31,female,2024-04-16_13h26.26.205,stockport_simplified,2022.2.4,Win32,59.88023952,661e456ee6de07e70aa9ef7b,661e51372a1676097f2f0a92,,,,,,,,,,,,,,,,,,,,,,,,,,,,,,,,,,179.736,181.0356,"[1,7,2,8,5,4,3,6]","[[-0.3,0.2],[0.3,0.2]]","[[-0.125,-0.2],[0.125,-0.2]]",0.106481481,-0.189814815,1,0,0,0.7834,o2_image,181.0362,1,181.5356,181.5356,183.5357,0,0,0,0,1,,,,,,,,,,,,,,,,,,,,,,,,,,,,,,,,,,,,,,,,,,,,,,,,,,
,,5fb6d9267fe54f14f515bcf1,31,female,2024-04-16_13h26.26.205,stockport_simplified,2022.2.4,Win32,59.88023952,661e456ee6de07e70aa9ef7b,661e51372a1676097f2f0a92,,,,,,,,,,,,,,,,,,,,,,,,,,,,,,,,,,,,,,,,,,,,,,,,,,,,,,,,0,14,14,57,1,N,M,D,o2_image,stimuli/out2.png,stimuli/out1.png,stimuli/correct_out2.png,,,,,,,,,,,,,,,,,,,,,,,,,,,,,,,,,,,,,,
,,5fb6d9267fe54f14f515bcf1,31,female,2024-04-16_13h26.26.205,stockport_simplified,2022.2.4,Win32,59.88023952,661e456ee6de07e70aa9ef7b,661e51372a1676097f2f0a92,,,,,,,,,,,,,,,,,,,,,,,,,,,,,,,,,,183.5361,185.6355,"[1,7,2,8,5,4,3,6]","[[0.3,0.2],[-0.3,0.2]]","[[-0.125,-0.2],[0.125,-0.2]]",0.106481481,-0.189814815,1,0,0,1.5829,o2_image,185.6359,1,186.1357,186.1357,188.1356,0,0,0,0,1,,,,,,,,,,,,,,,,,,,,,,,,,,,,,,,,,,,,,,,,,,,,,,,,,,
,,5fb6d9267fe54f14f515bcf1,31,female,2024-04-16_13h26.26.205,stockport_simplified,2022.2.4,Win32,59.88023952,661e456ee6de07e70aa9ef7b,661e51372a1676097f2f0a92,,,,,,,,,,,,,,,,,,,,,,,,,,,,,,,,,,,,,,,,,,,,,,,,,,,,,,,,0,15,15,10,1,B,X,N,o2_image,stimuli/out2.png,stimuli/out1.png,stimuli/correct_out2.png,,,,,,,,,,,,,,,,,,,,,,,,,,,,,,,,,,,,,,
,,5fb6d9267fe54f14f515bcf1,31,female,2024-04-16_13h26.26.205,stockport_simplified,2022.2.4,Win32,59.88023952,661e456ee6de07e70aa9ef7b,661e51372a1676097f2f0a92,,,,,,,,,,,,,,,,,,,,,,,,,,,,,,,,,,188.1359,190.2523,"[1,7,2,8,5,4,3,6]","[[0.3,0.2],[-0.3,0.2]]","[[-0.125,-0.2],[0.125,-0.2]]",-0.094444416,-0.181481467,1,0,0,1.5991,o1_image,190.2529,1,190.7523,190.7524,192.7526,0,0,0,0,1,,,,,,,,,,,,,,,,,,,,,,,,,,,,,,,,,,,,,,,,,,,,,,,,,,
,,5fb6d9267fe54f14f515bcf1,31,female,2024-04-16_13h26.26.205,stockport_simplified,2022.2.4,Win32,59.88023952,661e456ee6de07e70aa9ef7b,661e51372a1676097f2f0a92,,,,,,,,,,,,,,,,,,,,,,,,,,,,,,,,,,,,,,,,,,,,,,,,,,,,,,,,0,16,16,51,1,N,M,C,o1_image,stimuli/out1.png,stimuli/correct_out1.png,stimuli/out2.png,,,,,,,,,,,,,,,,,,,,,,,,,,,,,,,,,,,,,,
,,5fb6d9267fe54f14f515bcf1,31,female,2024-04-16_13h26.26.205,stockport_simplified,2022.2.4,Win32,59.88023952,661e456ee6de07e70aa9ef7b,661e51372a1676097f2f0a92,,,,,,,,,,,,,,,,,,,,,,,,,,,,,,,,,,192.753,194.3525,"[1,7,2,8,5,4,3,6]","[[0.3,0.2],[-0.3,0.2]]","[[-0.125,-0.2],[0.125,-0.2]]",-0.094444416,-0.181481467,1,0,0,1.083,o1_image,194.3531,1,194.8525,194.8525,196.8525,0,0,0,0,1,,,,,,,,,,,,,,,,,,,,,,,,,,,,,,,,,,,,,,,,,,,,,,,,,,
,,5fb6d9267fe54f14f515bcf1,31,female,2024-04-16_13h26.26.205,stockport_simplified,2022.2.4,Win32,59.88023952,661e456ee6de07e70aa9ef7b,661e51372a1676097f2f0a92,,,,,,,,,,,,,,,,,,,,,,,,,,,,,,,,,,,,,,,,,,,,,,,,,,,,,,,,0,17,17,0,1,A,X,N,o1_image,stimuli/out1.png,stimuli/correct_out1.png,stimuli/out2.png,,,,,,,,,,,,,,,,,,,,,,,,,,,,,,,,,,,,,,
,,5fb6d9267fe54f14f515bcf1,31,female,2024-04-16_13h26.26.205,stockport_simplified,2022.2.4,Win32,59.88023952,661e456ee6de07e70aa9ef7b,661e51372a1676097f2f0a92,,,,,,,,,,,,,,,,,,,,,,,,,,,,,,,,,,196.8528,198.7861,"[1,7,2,8,5,4,3,6]","[[0.3,0.2],[-0.3,0.2]]","[[0.125,-0.2],[-0.125,-0.2]]",-0.069444444,-0.180555556,1,0,0,1.4165,o2_image,198.7867,1,199.286,199.286,201.2859,0,0,0,0,1,,,,,,,,,,,,,,,,,,,,,,,,,,,,,,,,,,,,,,,,,,,,,,,,,,
,,5fb6d9267fe54f14f515bcf1,31,female,2024-04-16_13h26.26.205,stockport_simplified,2022.2.4,Win32,59.88023952,661e456ee6de07e70aa9ef7b,661e51372a1676097f2f0a92,,,,,,,,,,,,,,,,,,,,,,,,,,,,,,,,,,,,,,,,,,,,,,,,,,,,,,,,0,18,18,12,1,B,X,N,o2_image,stimuli/out2.png,stimuli/out1.png,stimuli/correct_out2.png,,,,,,,,,,,,,,,,,,,,,,,,,,,,,,,,,,,,,,
,,5fb6d9267fe54f14f515bcf1,31,female,2024-04-16_13h26.26.205,stockport_simplified,2022.2.4,Win32,59.88023952,661e456ee6de07e70aa9ef7b,661e51372a1676097f2f0a92,,,,,,,,,,,,,,,,,,,,,,,,,,,,,,,,,,201.2862,202.9861,"[1,7,2,8,5,4,3,6]","[[0.3,0.2],[-0.3,0.2]]","[[0.125,-0.2],[-0.125,-0.2]]",0.073148162,-0.17777782,1,0,0,1.1831,o1_image,202.9866,1,203.486,203.4861,205.4864,0,0,0,0,1,,,,,,,,,,,,,,,,,,,,,,,,,,,,,,,,,,,,,,,,,,,,,,,,,,
,,5fb6d9267fe54f14f515bcf1,31,female,2024-04-16_13h26.26.205,stockport_simplified,2022.2.4,Win32,59.88023952,661e456ee6de07e70aa9ef7b,661e51372a1676097f2f0a92,,,,,,,,,,,,,,,,,,,,,,,,,,,,,,,,,,,,,,,,,,,,,,,,,,,,,,,,0,19,19,24,1,N,M,C,o1_image,stimuli/out1.png,stimuli/correct_out1.png,stimuli/out2.png,,,,,,,,,,,,,,,,,,,,,,,,,,,,,,,,,,,,,,
,,5fb6d9267fe54f14f515bcf1,31,female,2024-04-16_13h26.26.205,stockport_simplified,2022.2.4,Win32,59.88023952,661e456ee6de07e70aa9ef7b,661e51372a1676097f2f0a92,,,,,,,,,,,,,,,,,,,,,,,,,,,,,,,,,,205.4867,207.3695,"[1,7,2,8,5,4,3,6]","[[0.3,0.2],[-0.3,0.2]]","[[-0.125,-0.2],[0.125,-0.2]]",-0.12962963,-0.173148191,1,0,0,1.3663,o1_image,207.3701,1,207.8696,207.8696,209.8696,0,0,0,0,1,,,,,,,,,,,,,,,,,,,,,,,,,,,,,,,,,,,,,,,,,,,,,,,,,,
,,5fb6d9267fe54f14f515bcf1,31,female,2024-04-16_13h26.26.205,stockport_simplified,2022.2.4,Win32,59.88023952,661e456ee6de07e70aa9ef7b,661e51372a1676097f2f0a92,,,,,,,,,,,,,,,,,,,,,,,,,,,,,,,,,,,,,,,,,,,,,,,,,,,,,,,,0,20,20,8,1,A,Y,N,o1_image,stimuli/out1.png,stimuli/correct_out1.png,stimuli/out2.png,,,,,,,,,,,,,,,,,,,,,,,,,,,,,,,,,,,,,,
,,5fb6d9267fe54f14f515bcf1,31,female,2024-04-16_13h26.26.205,stockport_simplified,2022.2.4,Win32,59.88023952,661e456ee6de07e70aa9ef7b,661e51372a1676097f2f0a92,,,,,,,,,,,,,,,,,,,,,,,,,,,,,,,,,,209.8701,211.6197,"[1,7,2,8,5,4,3,6]","[[-0.3,0.2],[0.3,0.2]]","[[0.125,-0.2],[-0.125,-0.2]]",0.140740783,-0.167592578,1,0,0,1.233,o1_image,211.6201,1,212.1196,212.1197,214.1198,0,0,0,0,1,,,,,,,,,,,,,,,,,,,,,,,,,,,,,,,,,,,,,,,,,,,,,,,,,,
,,5fb6d9267fe54f14f515bcf1,31,female,2024-04-16_13h26.26.205,stockport_simplified,2022.2.4,Win32,59.88023952,661e456ee6de07e70aa9ef7b,661e51372a1676097f2f0a92,,,,,,,,,,,,,,,,,,,,,,,,,,,,,,,,,,,,,,,,,,,,,,,,,,,,,,,,0,21,21,20,1,N,M,C,o1_image,stimuli/out1.png,stimuli/correct_out1.png,stimuli/out2.png,,,,,,,,,,,,,,,,,,,,,,,,,,,,,,,,,,,,,,
,,5fb6d9267fe54f14f515bcf1,31,female,2024-04-16_13h26.26.205,stockport_simplified,2022.2.4,Win32,59.88023952,661e456ee6de07e70aa9ef7b,661e51372a1676097f2f0a92,,,,,,,,,,,,,,,,,,,,,,,,,,,,,,,,,,214.1201,215.8364,"[1,7,2,8,5,4,3,6]","[[0.3,0.2],[-0.3,0.2]]","[[-0.125,-0.2],[0.125,-0.2]]",-0.112037023,-0.167592578,1,0,0,1.1993,o1_image,215.8371,1,216.3371,216.3371,218.3364,0,0,0,0,1,,,,,,,,,,,,,,,,,,,,,,,,,,,,,,,,,,,,,,,,,,,,,,,,,,
,,5fb6d9267fe54f14f515bcf1,31,female,2024-04-16_13h26.26.205,stockport_simplified,2022.2.4,Win32,59.88023952,661e456ee6de07e70aa9ef7b,661e51372a1676097f2f0a92,,,,,,,,,,,,,,,,,,,,,,,,,,,,,,,,,,,,,,,,,,,,,,,,,,,,,,,,0,22,22,6,1,A,Y,N,o1_image,stimuli/out1.png,stimuli/correct_out1.png,stimuli/out2.png,,,,,,,,,,,,,,,,,,,,,,,,,,,,,,,,,,,,,,
,,5fb6d9267fe54f14f515bcf1,31,female,2024-04-16_13h26.26.205,stockport_simplified,2022.2.4,Win32,59.88023952,661e456ee6de07e70aa9ef7b,661e51372a1676097f2f0a92,,,,,,,,,,,,,,,,,,,,,,,,,,,,,,,,,,218.3367,220.3238,"[1,7,2,8,5,4,3,6]","[[0.3,0.2],[-0.3,0.2]]","[[0.125,-0.2],[-0.125,-0.2]]",-0.06759255,-0.156481496,1,0,0,1.4703,o2_image,220.3243,1,220.8199,220.82,222.8198,0,0,0,0,1,,,,,,,,,,,,,,,,,,,,,,,,,,,,,,,,,,,,,,,,,,,,,,,,,,
,,5fb6d9267fe54f14f515bcf1,31,female,2024-04-16_13h26.26.205,stockport_simplified,2022.2.4,Win32,59.88023952,661e456ee6de07e70aa9ef7b,661e51372a1676097f2f0a92,,,,,,,,,,,,,,,,,,,,,,,,,,,,,,,,,,,,,,,,,,,,,,,,,,,,,,,,0,23,23,27,1,N,M,D,o2_image,stimuli/out2.png,stimuli/out1.png,stimuli/correct_out2.png,,,,,,,,,,,,,,,,,,,,,,,,,,,,,,,,,,,,,,
,,5fb6d9267fe54f14f515bcf1,31,female,2024-04-16_13h26.26.205,stockport_simplified,2022.2.4,Win32,59.88023952,661e456ee6de07e70aa9ef7b,661e51372a1676097f2f0a92,,,,,,,,,,,,,,,,,,,,,,,,,,,,,,,,,,222.8201,226.3702,"[1,7,2,8,5,4,3,6]","[[-0.3,0.2],[0.3,0.2]]","[[0.125,-0.2],[-0.125,-0.2]]",0.07685188,-0.170370384,1,0,0,3.033400001,o1_image,226.3765,1,226.8701,226.8702,228.8706,0,0,0,0,1,,,,,,,,,,,,,,,,,,,,,,,,,,,,,,,,,,,,,,,,,,,,,,,,,,
,,5fb6d9267fe54f14f515bcf1,31,female,2024-04-16_13h26.26.205,stockport_simplified,2022.2.4,Win32,59.88023952,661e456ee6de07e70aa9ef7b,661e51372a1676097f2f0a92,,,,,,,,,,,,,,,,,,,,,,,,,,,,,,,,,,,,,,,,,,,,,,,,,,,,,,,,0,24,24,23,1,N,M,C,o1_image,stimuli/out1.png,stimuli/correct_out1.png,stimuli/out2.png,,,,,,,,,,,,,,,,,,,,,,,,,,,,,,,,,,,,,,
,,5fb6d9267fe54f14f515bcf1,31,female,2024-04-16_13h26.26.205,stockport_simplified,2022.2.4,Win32,59.88023952,661e456ee6de07e70aa9ef7b,661e51372a1676097f2f0a92,,,,,,,,,,,,,,,,,,,,,,,,,,,,,,,,,,228.8712,232.487,"[1,7,2,8,5,4,3,6]","[[-0.3,0.2],[0.3,0.2]]","[[0.125,-0.2],[-0.125,-0.2]]",-0.111111111,-0.175000014,1,0,0,3.1144,o2_image,232.493,1,232.987,232.987,234.9907,0,0,0,0,1,,,,,,,,,,,,,,,,,,,,,,,,,,,,,,,,,,,,,,,,,,,,,,,,,,
,,5fb6d9267fe54f14f515bcf1,31,female,2024-04-16_13h26.26.205,stockport_simplified,2022.2.4,Win32,59.88023952,661e456ee6de07e70aa9ef7b,661e51372a1676097f2f0a92,,,,,,,,,,,,,,,,,,,,,,,,,,,,,,,,,,,,,,,,,,,,,,,,,,,,,,,,0,25,25,46,1,B,Y,N,o2_image,stimuli/out2.png,stimuli/out1.png,stimuli/correct_out2.png,,,,,,,,,,,,,,,,,,,,,,,,,,,,,,,,,,,,,,
,,5fb6d9267fe54f14f515bcf1,31,female,2024-04-16_13h26.26.205,stockport_simplified,2022.2.4,Win32,59.88023952,661e456ee6de07e70aa9ef7b,661e51372a1676097f2f0a92,,,,,,,,,,,,,,,,,,,,,,,,,,,,,,,,,,234.9911,236.6035,"[1,7,2,8,5,4,3,6]","[[-0.3,0.2],[0.3,0.2]]","[[-0.125,-0.2],[0.125,-0.2]]",-0.099999958,-0.172222208,1,0,0,1.0973,o1_image,236.604,1,237.1035,237.1036,239.1036,0,0,0,0,1,,,,,,,,,,,,,,,,,,,,,,,,,,,,,,,,,,,,,,,,,,,,,,,,,,
,,5fb6d9267fe54f14f515bcf1,31,female,2024-04-16_13h26.26.205,stockport_simplified,2022.2.4,Win32,59.88023952,661e456ee6de07e70aa9ef7b,661e51372a1676097f2f0a92,,,,,,,,,,,,,,,,,,,,,,,,,,,,,,,,,,,,,,,,,,,,,,,,,,,,,,,,0,26,26,7,1,A,Y,N,o1_image,stimuli/out1.png,stimuli/correct_out1.png,stimuli/out2.png,,,,,,,,,,,,,,,,,,,,,,,,,,,,,,,,,,,,,,
,,5fb6d9267fe54f14f515bcf1,31,female,2024-04-16_13h26.26.205,stockport_simplified,2022.2.4,Win32,59.88023952,661e456ee6de07e70aa9ef7b,661e51372a1676097f2f0a92,,,,,,,,,,,,,,,,,,,,,,,,,,,,,,,,,,239.104,240.737,"[1,7,2,8,5,4,3,6]","[[0.3,0.2],[-0.3,0.2]]","[[0.125,-0.2],[-0.125,-0.2]]",0.200925968,-0.18240745,1,0,0,1.1164,o1_image,240.7373,1,241.237,241.237,243.2372,0,0,0,0,1,,,,,,,,,,,,,,,,,,,,,,,,,,,,,,,,,,,,,,,,,,,,,,,,,,
,,5fb6d9267fe54f14f515bcf1,31,female,2024-04-16_13h26.26.205,stockport_simplified,2022.2.4,Win32,59.88023952,661e456ee6de07e70aa9ef7b,661e51372a1676097f2f0a92,,,,,,,,,,,,,,,,,,,,,,,,,,,,,,,,,,,,,,,,,,,,,,,,,,,,,,,,0,27,27,31,1,A,X,N,o1_image,stimuli/out1.png,stimuli/correct_out1.png,stimuli/out2.png,,,,,,,,,,,,,,,,,,,,,,,,,,,,,,,,,,,,,,
,,5fb6d9267fe54f14f515bcf1,31,female,2024-04-16_13h26.26.205,stockport_simplified,2022.2.4,Win32,59.88023952,661e456ee6de07e70aa9ef7b,661e51372a1676097f2f0a92,,,,,,,,,,,,,,,,,,,,,,,,,,,,,,,,,,243.2376,245.2412,"[1,7,2,8,5,4,3,6]","[[0.3,0.2],[-0.3,0.2]]","[[-0.125,-0.2],[0.125,-0.2]]",-0.040740755,-0.169444473,1,0,0,1.0496,o1_image,245.2416,1,245.7371,245.7372,247.7375,0,0,0,0,1,,,,,,,,,,,,,,,,,,,,,,,,,,,,,,,,,,,,,,,,,,,,,,,,,,
,,5fb6d9267fe54f14f515bcf1,31,female,2024-04-16_13h26.26.205,stockport_simplified,2022.2.4,Win32,59.88023952,661e456ee6de07e70aa9ef7b,661e51372a1676097f2f0a92,,,,,,,,,,,,,,,,,,,,,,,,,,,,,,,,,,,,,,,,,,,,,,,,,,,,,,,,0,28,28,53,1,N,M,C,o1_image,stimuli/out1.png,stimuli/correct_out1.png,stimuli/out2.png,,,,,,,,,,,,,,,,,,,,,,,,,,,,,,,,,,,,,,
,,5fb6d9267fe54f14f515bcf1,31,female,2024-04-16_13h26.26.205,stockport_simplified,2022.2.4,Win32,59.88023952,661e456ee6de07e70aa9ef7b,661e51372a1676097f2f0a92,,,,,,,,,,,,,,,,,,,,,,,,,,,,,,,,,,247.738,250.8373,"[1,7,2,8,5,4,3,6]","[[0.3,0.2],[-0.3,0.2]]","[[-0.125,-0.2],[0.125,-0.2]]",-0.068518533,-0.170370384,1,0,0,2.582900001,o1_image,250.8431,1,251.3373,251.3373,253.3374,0,0,0,0,1,,,,,,,,,,,,,,,,,,,,,,,,,,,,,,,,,,,,,,,,,,,,,,,,,,
,,5fb6d9267fe54f14f515bcf1,31,female,2024-04-16_13h26.26.205,stockport_simplified,2022.2.4,Win32,59.88023952,661e456ee6de07e70aa9ef7b,661e51372a1676097f2f0a92,,,,,,,,,,,,,,,,,,,,,,,,,,,,,,,,,,,,,,,,,,,,,,,,,,,,,,,,0,29,29,5,1,A,Y,N,o1_image,stimuli/out1.png,stimuli/correct_out1.png,stimuli/out2.png,,,,,,,,,,,,,,,,,,,,,,,,,,,,,,,,,,,,,,
,,5fb6d9267fe54f14f515bcf1,31,female,2024-04-16_13h26.26.205,stockport_simplified,2022.2.4,Win32,59.88023952,661e456ee6de07e70aa9ef7b,661e51372a1676097f2f0a92,,,,,,,,,,,,,,,,,,,,,,,,,,,,,,,,,,253.3377,254.8043,"[1,7,2,8,5,4,3,6]","[[-0.3,0.2],[0.3,0.2]]","[[-0.125,-0.2],[0.125,-0.2]]",0.047222208,-0.170370384,1,0,0,0.9497,o2_image,254.8047,1,255.3041,255.3042,257.3042,0,0,0,0,1,,,,,,,,,,,,,,,,,,,,,,,,,,,,,,,,,,,,,,,,,,,,,,,,,,
,,5fb6d9267fe54f14f515bcf1,31,female,2024-04-16_13h26.26.205,stockport_simplified,2022.2.4,Win32,59.88023952,661e456ee6de07e70aa9ef7b,661e51372a1676097f2f0a92,,,,,,,,,,,,,,,,,,,,,,,,,,,,,,,,,,,,,,,,,,,,,,,,,,,,,,,,0,30,30,26,1,N,M,D,o2_image,stimuli/out2.png,stimuli/out1.png,stimuli/correct_out2.png,,,,,,,,,,,,,,,,,,,,,,,,,,,,,,,,,,,,,,
,,5fb6d9267fe54f14f515bcf1,31,female,2024-04-16_13h26.26.205,stockport_simplified,2022.2.4,Win32,59.88023952,661e456ee6de07e70aa9ef7b,661e51372a1676097f2f0a92,,,,,,,,,,,,,,,,,,,,,,,,,,,,,,,,,,257.3044,259.1542,"[1,7,2,8,5,4,3,6]","[[-0.3,0.2],[0.3,0.2]]","[[-0.125,-0.2],[0.125,-0.2]]",0.135185171,-0.17777782,1,0,0,1.332799999,o2_image,259.1547,1,259.6542,259.6543,261.6542,0,0,0,0,1,,,,,,,,,,,,,,,,,,,,,,,,,,,,,,,,,,,,,,,,,,,,,,,,,,
,,5fb6d9267fe54f14f515bcf1,31,female,2024-04-16_13h26.26.205,stockport_simplified,2022.2.4,Win32,59.88023952,661e456ee6de07e70aa9ef7b,661e51372a1676097f2f0a92,,,,,,,,,,,,,,,,,,,,,,,,,,,,,,,,,,,,,,,,,,,,,,,,,,,,,,,,0,31,31,41,1,B,X,N,o2_image,stimuli/out2.png,stimuli/out1.png,stimuli/correct_out2.png,,,,,,,,,,,,,,,,,,,,,,,,,,,,,,,,,,,,,,
,,5fb6d9267fe54f14f515bcf1,31,female,2024-04-16_13h26.26.205,stockport_simplified,2022.2.4,Win32,59.88023952,661e456ee6de07e70aa9ef7b,661e51372a1676097f2f0a92,,,,,,,,,,,,,,,,,,,,,,,,,,,,,,,,,,261.6545,263.4914,"[1,7,2,8,5,4,3,6]","[[-0.3,0.2],[0.3,0.2]]","[[0.125,-0.2],[-0.125,-0.2]]",-0.095370328,-0.167592578,1,0,0,1.320200001,o2_image,263.4919,1,263.9877,263.9878,265.9877,0,0,0,0,1,,,,,,,,,,,,,,,,,,,,,,,,,,,,,,,,,,,,,,,,,,,,,,,,,,
,,5fb6d9267fe54f14f515bcf1,31,female,2024-04-16_13h26.26.205,stockport_simplified,2022.2.4,Win32,59.88023952,661e456ee6de07e70aa9ef7b,661e51372a1676097f2f0a92,,,,,,,,,,,,,,,,,,,,,,,,,,,,,,,,,,,,,,,,,,,,,,,,,,,,,,,,0,32,32,17,1,B,Y,N,o2_image,stimuli/out2.png,stimuli/out1.png,stimuli/correct_out2.png,,,,,,,,,,,,,,,,,,,,,,,,,,,,,,,,,,,,,,
,,5fb6d9267fe54f14f515bcf1,31,female,2024-04-16_13h26.26.205,stockport_simplified,2022.2.4,Win32,59.88023952,661e456ee6de07e70aa9ef7b,661e51372a1676097f2f0a92,,,,,,,,,,,,,,,,,,,,,,,,,,,,,,,,,,265.9881,267.1712,"[1,7,2,8,5,4,3,6]","[[0.3,0.2],[-0.3,0.2]]","[[0.125,-0.2],[-0.125,-0.2]]",-0.091666681,-0.163888931,1,0,0,0.6665,o2_image,267.1719,1,267.671,267.671,269.671,0,0,0,0,1,,,,,,,,,,,,,,,,,,,,,,,,,,,,,,,,,,,,,,,,,,,,,,,,,,
,,5fb6d9267fe54f14f515bcf1,31,female,2024-04-16_13h26.26.205,stockport_simplified,2022.2.4,Win32,59.88023952,661e456ee6de07e70aa9ef7b,661e51372a1676097f2f0a92,,,,,,,,,,,,,,,,,,,,,,,,,,,,,,,,,,,,,,,,,,,,,,,,,,,,,,,,0,33,33,59,1,N,M,D,o2_image,stimuli/out2.png,stimuli/out1.png,stimuli/correct_out2.png,,,,,,,,,,,,,,,,,,,,,,,,,,,,,,,,,,,,,,
,,5fb6d9267fe54f14f515bcf1,31,female,2024-04-16_13h26.26.205,stockport_simplified,2022.2.4,Win32,59.88023952,661e456ee6de07e70aa9ef7b,661e51372a1676097f2f0a92,,,,,,,,,,,,,,,,,,,,,,,,,,,,,,,,,,269.6713,271.3045,"[1,7,2,8,5,4,3,6]","[[-0.3,0.2],[0.3,0.2]]","[[-0.125,-0.2],[0.125,-0.2]]",0.111111111,-0.171296296,1,0,0,1.1313,o2_image,271.305,0,271.8045,271.8045,273.8047,0,0,0,0,1,,,,,,,,,,,,,,,,,,,,,,,,,,,,,,,,,,,,,,,,,,,,,,,,,,
,,5fb6d9267fe54f14f515bcf1,31,female,2024-04-16_13h26.26.205,stockport_simplified,2022.2.4,Win32,59.88023952,661e456ee6de07e70aa9ef7b,661e51372a1676097f2f0a92,,,,,,,,,,,,,,,,,,,,,,,,,,,,,,,,,,,,,,,,,,,,,,,,,,,,,,,,0,34,34,4,1,A,X,N,o1_image,stimuli/out1.png,stimuli/correct_out1.png,stimuli/out2.png,,,,,,,,,,,,,,,,,,,,,,,,,,,,,,,,,,,,,,
,,5fb6d9267fe54f14f515bcf1,31,female,2024-04-16_13h26.26.205,stockport_simplified,2022.2.4,Win32,59.88023952,661e456ee6de07e70aa9ef7b,661e51372a1676097f2f0a92,,,,,,,,,,,,,,,,,,,,,,,,,,,,,,,,,,273.805,276.0546,"[1,7,2,8,5,4,3,6]","[[0.3,0.2],[-0.3,0.2]]","[[0.125,-0.2],[-0.125,-0.2]]",-0.089814787,-0.169444473,1,0,0,1.732299999,o2_image,276.0606,1,276.5547,276.5547,278.5548,0,0,0,0,1,,,,,,,,,,,,,,,,,,,,,,,,,,,,,,,,,,,,,,,,,,,,,,,,,,
,,5fb6d9267fe54f14f515bcf1,31,female,2024-04-16_13h26.26.205,stockport_simplified,2022.2.4,Win32,59.88023952,661e456ee6de07e70aa9ef7b,661e51372a1676097f2f0a92,,,,,,,,,,,,,,,,,,,,,,,,,,,,,,,,,,,,,,,,,,,,,,,,,,,,,,,,0,35,35,16,1,B,Y,N,o2_image,stimuli/out2.png,stimuli/out1.png,stimuli/correct_out2.png,,,,,,,,,,,,,,,,,,,,,,,,,,,,,,,,,,,,,,
,,5fb6d9267fe54f14f515bcf1,31,female,2024-04-16_13h26.26.205,stockport_simplified,2022.2.4,Win32,59.88023952,661e456ee6de07e70aa9ef7b,661e51372a1676097f2f0a92,,,,,,,,,,,,,,,,,,,,,,,,,,,,,,,,,,278.5551,280.0047,"[1,7,2,8,5,4,3,6]","[[-0.3,0.2],[0.3,0.2]]","[[-0.125,-0.2],[0.125,-0.2]]",-0.087037051,-0.169444473,1,0,0,0.9329,o1_image,280.0053,1,280.5047,280.5047,282.5049,0,0,0,0,1,,,,,,,,,,,,,,,,,,,,,,,,,,,,,,,,,,,,,,,,,,,,,,,,,,
,,5fb6d9267fe54f14f515bcf1,31,female,2024-04-16_13h26.26.205,stockport_simplified,2022.2.4,Win32,59.88023952,661e456ee6de07e70aa9ef7b,661e51372a1676097f2f0a92,,,,,,,,,,,,,,,,,,,,,,,,,,,,,,,,,,,,,,,,,,,,,,,,,,,,,,,,0,36,36,36,1,A,Y,N,o1_image,stimuli/out1.png,stimuli/correct_out1.png,stimuli/out2.png,,,,,,,,,,,,,,,,,,,,,,,,,,,,,,,,,,,,,,
,,5fb6d9267fe54f14f515bcf1,31,female,2024-04-16_13h26.26.205,stockport_simplified,2022.2.4,Win32,59.88023952,661e456ee6de07e70aa9ef7b,661e51372a1676097f2f0a92,,,,,,,,,,,,,,,,,,,,,,,,,,,,,,,,,,282.5053,284.2715,"[1,7,2,8,5,4,3,6]","[[0.3,0.2],[-0.3,0.2]]","[[0.125,-0.2],[-0.125,-0.2]]",0.12962963,-0.17777782,1,0,0,1.2498,o1_image,284.272,1,284.7717,284.7717,286.7715,0,0,0,0,1,,,,,,,,,,,,,,,,,,,,,,,,,,,,,,,,,,,,,,,,,,,,,,,,,,
,,5fb6d9267fe54f14f515bcf1,31,female,2024-04-16_13h26.26.205,stockport_simplified,2022.2.4,Win32,59.88023952,661e456ee6de07e70aa9ef7b,661e51372a1676097f2f0a92,,,,,,,,,,,,,,,,,,,,,,,,,,,,,,,,,,,,,,,,,,,,,,,,,,,,,,,,0,37,37,9,1,A,Y,N,o1_image,stimuli/out1.png,stimuli/correct_out1.png,stimuli/out2.png,,,,,,,,,,,,,,,,,,,,,,,,,,,,,,,,,,,,,,
,,5fb6d9267fe54f14f515bcf1,31,female,2024-04-16_13h26.26.205,stockport_simplified,2022.2.4,Win32,59.88023952,661e456ee6de07e70aa9ef7b,661e51372a1676097f2f0a92,,,,,,,,,,,,,,,,,,,,,,,,,,,,,,,,,,286.7717,288.6384,"[1,7,2,8,5,4,3,6]","[[-0.3,0.2],[0.3,0.2]]","[[0.125,-0.2],[-0.125,-0.2]]",-0.062037009,-0.175925926,1,0,0,1.349900001,o2_image,288.6388,1,289.1382,289.1383,291.1383,0,0,0,0,1,,,,,,,,,,,,,,,,,,,,,,,,,,,,,,,,,,,,,,,,,,,,,,,,,,
,,5fb6d9267fe54f14f515bcf1,31,female,2024-04-16_13h26.26.205,stockport_simplified,2022.2.4,Win32,59.88023952,661e456ee6de07e70aa9ef7b,661e51372a1676097f2f0a92,,,,,,,,,,,,,,,,,,,,,,,,,,,,,,,,,,,,,,,,,,,,,,,,,,,,,,,,0,38,38,45,1,B,Y,N,o2_image,stimuli/out2.png,stimuli/out1.png,stimuli/correct_out2.png,,,,,,,,,,,,,,,,,,,,,,,,,,,,,,,,,,,,,,
,,5fb6d9267fe54f14f515bcf1,31,female,2024-04-16_13h26.26.205,stockport_simplified,2022.2.4,Win32,59.88023952,661e456ee6de07e70aa9ef7b,661e51372a1676097f2f0a92,,,,,,,,,,,,,,,,,,,,,,,,,,,,,,,,,,291.1386,292.5717,"[1,7,2,8,5,4,3,6]","[[0.3,0.2],[-0.3,0.2]]","[[-0.125,-0.2],[0.125,-0.2]]",-0.062037009,-0.175925926,1,0,0,0.916299999,o1_image,292.5722,1,293.0717,293.0717,295.0718,0,0,0,0,1,,,,,,,,,,,,,,,,,,,,,,,,,,,,,,,,,,,,,,,,,,,,,,,,,,
,,5fb6d9267fe54f14f515bcf1,31,female,2024-04-16_13h26.26.205,stockport_simplified,2022.2.4,Win32,59.88023952,661e456ee6de07e70aa9ef7b,661e51372a1676097f2f0a92,,,,,,,,,,,,,,,,,,,,,,,,,,,,,,,,,,,,,,,,,,,,,,,,,,,,,,,,0,39,39,22,1,N,M,C,o1_image,stimuli/out1.png,stimuli/correct_out1.png,stimuli/out2.png,,,,,,,,,,,,,,,,,,,,,,,,,,,,,,,,,,,,,,
,,5fb6d9267fe54f14f515bcf1,31,female,2024-04-16_13h26.26.205,stockport_simplified,2022.2.4,Win32,59.88023952,661e456ee6de07e70aa9ef7b,661e51372a1676097f2f0a92,,,,,,,,,,,,,,,,,,,,,,,,,,,,,,,,,,295.072,296.6219,"[1,7,2,8,5,4,3,6]","[[0.3,0.2],[-0.3,0.2]]","[[0.125,-0.2],[-0.125,-0.2]]",0.152777778,-0.175925926,1,0,0,1.0334,o1_image,296.6226,1,297.1217,297.1218,299.1219,0,0,0,0,1,,,,,,,,,,,,,,,,,,,,,,,,,,,,,,,,,,,,,,,,,,,,,,,,,,
,,5fb6d9267fe54f14f515bcf1,31,female,2024-04-16_13h26.26.205,stockport_simplified,2022.2.4,Win32,59.88023952,661e456ee6de07e70aa9ef7b,661e51372a1676097f2f0a92,,,,,,,,,,,,,,,,,,,,,,,,,,,,,,,,,,,,,,,,,,,,,,,,,,,,,,,,0,40,40,50,1,N,M,C,o1_image,stimuli/out1.png,stimuli/correct_out1.png,stimuli/out2.png,,,,,,,,,,,,,,,,,,,,,,,,,,,,,,,,,,,,,,
,,5fb6d9267fe54f14f515bcf1,31,female,2024-04-16_13h26.26.205,stockport_simplified,2022.2.4,Win32,59.88023952,661e456ee6de07e70aa9ef7b,661e51372a1676097f2f0a92,,,,,,,,,,,,,,,,,,,,,,,,,,,,,,,,,,299.1221,301.2417,"[1,7,2,8,5,4,3,6]","[[0.3,0.2],[-0.3,0.2]]","[[-0.125,-0.2],[0.125,-0.2]]",0.114814829,-0.173148191,1,0,0,1.617099999,o2_image,301.242,1,301.7386,301.7387,303.7387,0,0,0,0,1,,,,,,,,,,,,,,,,,,,,,,,,,,,,,,,,,,,,,,,,,,,,,,,,,,
,,5fb6d9267fe54f14f515bcf1,31,female,2024-04-16_13h26.26.205,stockport_simplified,2022.2.4,Win32,59.88023952,661e456ee6de07e70aa9ef7b,661e51372a1676097f2f0a92,,,,,,,,,,,,,,,,,,,,,,,,,,,,,,,,,,,,,,,,,,,,,,,,,,,,,,,,0,41,41,40,1,B,X,N,o2_image,stimuli/out2.png,stimuli/out1.png,stimuli/correct_out2.png,,,,,,,,,,,,,,,,,,,,,,,,,,,,,,,,,,,,,,
,,5fb6d9267fe54f14f515bcf1,31,female,2024-04-16_13h26.26.205,stockport_simplified,2022.2.4,Win32,59.88023952,661e456ee6de07e70aa9ef7b,661e51372a1676097f2f0a92,,,,,,,,,,,,,,,,,,,,,,,,,,,,,,,,,,303.739,305.2721,"[1,7,2,8,5,4,3,6]","[[-0.3,0.2],[0.3,0.2]]","[[0.125,-0.2],[-0.125,-0.2]]",0.114814829,-0.173148191,1,0,0,1.016599999,o1_image,305.2726,1,305.772,305.7722,307.7721,0,0,0,0,1,,,,,,,,,,,,,,,,,,,,,,,,,,,,,,,,,,,,,,,,,,,,,,,,,,
,,5fb6d9267fe54f14f515bcf1,31,female,2024-04-16_13h26.26.205,stockport_simplified,2022.2.4,Win32,59.88023952,661e456ee6de07e70aa9ef7b,661e51372a1676097f2f0a92,,,,,,,,,,,,,,,,,,,,,,,,,,,,,,,,,,,,,,,,,,,,,,,,,,,,,,,,0,42,42,30,1,A,X,N,o1_image,stimuli/out1.png,stimuli/correct_out1.png,stimuli/out2.png,,,,,,,,,,,,,,,,,,,,,,,,,,,,,,,,,,,,,,
,,5fb6d9267fe54f14f515bcf1,31,female,2024-04-16_13h26.26.205,stockport_simplified,2022.2.4,Win32,59.88023952,661e456ee6de07e70aa9ef7b,661e51372a1676097f2f0a92,,,,,,,,,,,,,,,,,,,,,,,,,,,,,,,,,,307.7724,309.489,"[1,7,2,8,5,4,3,6]","[[0.3,0.2],[-0.3,0.2]]","[[0.125,-0.2],[-0.125,-0.2]]",-0.091666681,-0.162037037,1,0,0,1.1997,o2_image,309.4895,1,309.989,309.989,311.989,0,0,0,0,1,,,,,,,,,,,,,,,,,,,,,,,,,,,,,,,,,,,,,,,,,,,,,,,,,,
,,5fb6d9267fe54f14f515bcf1,31,female,2024-04-16_13h26.26.205,stockport_simplified,2022.2.4,Win32,59.88023952,661e456ee6de07e70aa9ef7b,661e51372a1676097f2f0a92,,,,,,,,,,,,,,,,,,,,,,,,,,,,,,,,,,,,,,,,,,,,,,,,,,,,,,,,0,43,43,55,1,N,M,D,o2_image,stimuli/out2.png,stimuli/out1.png,stimuli/correct_out2.png,,,,,,,,,,,,,,,,,,,,,,,,,,,,,,,,,,,,,,
,,5fb6d9267fe54f14f515bcf1,31,female,2024-04-16_13h26.26.205,stockport_simplified,2022.2.4,Win32,59.88023952,661e456ee6de07e70aa9ef7b,661e51372a1676097f2f0a92,,,,,,,,,,,,,,,,,,,,,,,,,,,,,,,,,,311.9893,313.742,"[1,7,2,8,5,4,3,6]","[[-0.3,0.2],[0.3,0.2]]","[[0.125,-0.2],[-0.125,-0.2]]",-0.075925898,-0.155555584,1,0,0,1.2361,o2_image,313.7423,1,314.2392,314.2392,316.2392,0,0,0,0,1,,,,,,,,,,,,,,,,,,,,,,,,,,,,,,,,,,,,,,,,,,,,,,,,,,
,,5fb6d9267fe54f14f515bcf1,31,female,2024-04-16_13h26.26.205,stockport_simplified,2022.2.4,Win32,59.88023952,661e456ee6de07e70aa9ef7b,661e51372a1676097f2f0a92,,,,,,,,,,,,,,,,,,,,,,,,,,,,,,,,,,,,,,,,,,,,,,,,,,,,,,,,0,44,44,11,1,B,X,N,o2_image,stimuli/out2.png,stimuli/out1.png,stimuli/correct_out2.png,,,,,,,,,,,,,,,,,,,,,,,,,,,,,,,,,,,,,,
,,5fb6d9267fe54f14f515bcf1,31,female,2024-04-16_13h26.26.205,stockport_simplified,2022.2.4,Win32,59.88023952,661e456ee6de07e70aa9ef7b,661e51372a1676097f2f0a92,,,,,,,,,,,,,,,,,,,,,,,,,,,,,,,,,,316.2394,317.9225,"[1,7,2,8,5,4,3,6]","[[-0.3,0.2],[0.3,0.2]]","[[0.125,-0.2],[-0.125,-0.2]]",-0.074074074,-0.152777778,1,0,0,1.1665,o2_image,317.9229,1,318.4224,318.4224,320.4226,0,0,0,0,1,,,,,,,,,,,,,,,,,,,,,,,,,,,,,,,,,,,,,,,,,,,,,,,,,,
,,5fb6d9267fe54f14f515bcf1,31,female,2024-04-16_13h26.26.205,stockport_simplified,2022.2.4,Win32,59.88023952,661e456ee6de07e70aa9ef7b,661e51372a1676097f2f0a92,,,,,,,,,,,,,,,,,,,,,,,,,,,,,,,,,,,,,,,,,,,,,,,,,,,,,,,,0,45,45,42,1,B,X,N,o2_image,stimuli/out2.png,stimuli/out1.png,stimuli/correct_out2.png,,,,,,,,,,,,,,,,,,,,,,,,,,,,,,,,,,,,,,
,,5fb6d9267fe54f14f515bcf1,31,female,2024-04-16_13h26.26.205,stockport_simplified,2022.2.4,Win32,59.88023952,661e456ee6de07e70aa9ef7b,661e51372a1676097f2f0a92,,,,,,,,,,,,,,,,,,,,,,,,,,,,,,,,,,320.423,322.2394,"[1,7,2,8,5,4,3,6]","[[0.3,0.2],[-0.3,0.2]]","[[-0.125,-0.2],[0.125,-0.2]]",0.145370413,-0.183333362,1,0,0,1.3001,o2_image,322.2398,1,322.7393,322.7393,324.7393,0,0,0,0,1,,,,,,,,,,,,,,,,,,,,,,,,,,,,,,,,,,,,,,,,,,,,,,,,,,
,,5fb6d9267fe54f14f515bcf1,31,female,2024-04-16_13h26.26.205,stockport_simplified,2022.2.4,Win32,59.88023952,661e456ee6de07e70aa9ef7b,661e51372a1676097f2f0a92,,,,,,,,,,,,,,,,,,,,,,,,,,,,,,,,,,,,,,,,,,,,,,,,,,,,,,,,0,46,46,13,1,B,X,N,o2_image,stimuli/out2.png,stimuli/out1.png,stimuli/correct_out2.png,,,,,,,,,,,,,,,,,,,,,,,,,,,,,,,,,,,,,,
,,5fb6d9267fe54f14f515bcf1,31,female,2024-04-16_13h26.26.205,stockport_simplified,2022.2.4,Win32,59.88023952,661e456ee6de07e70aa9ef7b,661e51372a1676097f2f0a92,,,,,,,,,,,,,,,,,,,,,,,,,,,,,,,,,,324.7395,326.7062,"[1,7,2,8,5,4,3,6]","[[0.3,0.2],[-0.3,0.2]]","[[0.125,-0.2],[-0.125,-0.2]]",0.150925954,-0.183333362,1,0,0,1.4499,o1_image,326.7066,1,327.2063,327.2064,329.1929,0,0,0,0,1,,,,,,,,,,,,,,,,,,,,,,,,,,,,,,,,,,,,,,,,,,,,,,,,,,
,,5fb6d9267fe54f14f515bcf1,31,female,2024-04-16_13h26.26.205,stockport_simplified,2022.2.4,Win32,59.88023952,661e456ee6de07e70aa9ef7b,661e51372a1676097f2f0a92,,,,,,,,,,,,,,,,,,,,,,,,,,,,,,,,,,,,,,,,,,,,,,,,,,,,,,,,0,47,47,3,1,A,X,N,o1_image,stimuli/out1.png,stimuli/correct_out1.png,stimuli/out2.png,,,,,,,,,,,,,,,,,,,,,,,,,,,,,,,,,,,,,,
,,5fb6d9267fe54f14f515bcf1,31,female,2024-04-16_13h26.26.205,stockport_simplified,2022.2.4,Win32,59.88023952,661e456ee6de07e70aa9ef7b,661e51372a1676097f2f0a92,,,,,,,,,,,,,,,,,,,,,,,,,,,,,,,,,,329.1932,330.7561,"[1,7,2,8,5,4,3,6]","[[-0.3,0.2],[0.3,0.2]]","[[-0.125,-0.2],[0.125,-0.2]]",0.113888917,-0.20185188,1,0,0,1.0497,o2_image,330.7566,1,331.2594,331.2595,333.2563,0,0,0,0,1,,,,,,,,,,,,,,,,,,,,,,,,,,,,,,,,,,,,,,,,,,,,,,,,,,
,,5fb6d9267fe54f14f515bcf1,31,female,2024-04-16_13h26.26.205,stockport_simplified,2022.2.4,Win32,59.88023952,661e456ee6de07e70aa9ef7b,661e51372a1676097f2f0a92,,,,,,,,,,,,,,,,,,,,,,,,,,,,,,,,,,,,,,,,,,,,,,,,,,,,,,,,0,48,48,49,1,B,Y,N,o2_image,stimuli/out2.png,stimuli/out1.png,stimuli/correct_out2.png,,,,,,,,,,,,,,,,,,,,,,,,,,,,,,,,,,,,,,
,,5fb6d9267fe54f14f515bcf1,31,female,2024-04-16_13h26.26.205,stockport_simplified,2022.2.4,Win32,59.88023952,661e456ee6de07e70aa9ef7b,661e51372a1676097f2f0a92,,,,,,,,,,,,,,,,,,,,,,,,,,,,,,,,,,333.2565,334.7397,"[1,7,2,8,5,4,3,6]","[[-0.3,0.2],[0.3,0.2]]","[[0.125,-0.2],[-0.125,-0.2]]",-0.122222194,-0.18240745,1,0,0,0.9664,o2_image,334.7401,1,335.2396,335.2396,337.2396,0,0,0,0,1,,,,,,,,,,,,,,,,,,,,,,,,,,,,,,,,,,,,,,,,,,,,,,,,,,
,,5fb6d9267fe54f14f515bcf1,31,female,2024-04-16_13h26.26.205,stockport_simplified,2022.2.4,Win32,59.88023952,661e456ee6de07e70aa9ef7b,661e51372a1676097f2f0a92,,,,,,,,,,,,,,,,,,,,,,,,,,,,,,,,,,,,,,,,,,,,,,,,,,,,,,,,0,49,49,43,1,B,X,N,o2_image,stimuli/out2.png,stimuli/out1.png,stimuli/correct_out2.png,,,,,,,,,,,,,,,,,,,,,,,,,,,,,,,,,,,,,,
,,5fb6d9267fe54f14f515bcf1,31,female,2024-04-16_13h26.26.205,stockport_simplified,2022.2.4,Win32,59.88023952,661e456ee6de07e70aa9ef7b,661e51372a1676097f2f0a92,,,,,,,,,,,,,,,,,,,,,,,,,,,,,,,,,,337.2398,339.1065,"[1,7,2,8,5,4,3,6]","[[-0.3,0.2],[0.3,0.2]]","[[-0.125,-0.2],[0.125,-0.2]]",0.119444459,-0.193518533,1,0,0,1.3498,o2_image,339.1072,1,339.6064,339.6064,341.6064,0,0,0,0,1,,,,,,,,,,,,,,,,,,,,,,,,,,,,,,,,,,,,,,,,,,,,,,,,,,
,,5fb6d9267fe54f14f515bcf1,31,female,2024-04-16_13h26.26.205,stockport_simplified,2022.2.4,Win32,59.88023952,661e456ee6de07e70aa9ef7b,661e51372a1676097f2f0a92,,,,,,,,,,,,,,,,,,,,,,,,,,,,,,,,,,,,,,,,,,,,,,,,,,,,,,,,0,50,50,28,1,N,M,D,o2_image,stimuli/out2.png,stimuli/out1.png,stimuli/correct_out2.png,,,,,,,,,,,,,,,,,,,,,,,,,,,,,,,,,,,,,,
,,5fb6d9267fe54f14f515bcf1,31,female,2024-04-16_13h26.26.205,stockport_simplified,2022.2.4,Win32,59.88023952,661e456ee6de07e70aa9ef7b,661e51372a1676097f2f0a92,,,,,,,,,,,,,,,,,,,,,,,,,,,,,,,,,,341.6066,343.2897,"[1,7,2,8,5,4,3,6]","[[-0.3,0.2],[0.3,0.2]]","[[0.125,-0.2],[-0.125,-0.2]]",0.158333319,-0.189814815,1,0,0,1.1659,o1_image,343.2902,1,343.7897,343.7897,345.7905,0,0,0,0,1,,,,,,,,,,,,,,,,,,,,,,,,,,,,,,,,,,,,,,,,,,,,,,,,,,
,,5fb6d9267fe54f14f515bcf1,31,female,2024-04-16_13h26.26.205,stockport_simplified,2022.2.4,Win32,59.88023952,661e456ee6de07e70aa9ef7b,661e51372a1676097f2f0a92,,,,,,,,,,,,,,,,,,,,,,,,,,,,,,,,,,,,,,,,,,,,,,,,,,,,,,,,0,51,51,35,1,A,Y,N,o1_image,stimuli/out1.png,stimuli/correct_out1.png,stimuli/out2.png,,,,,,,,,,,,,,,,,,,,,,,,,,,,,,,,,,,,,,
,,5fb6d9267fe54f14f515bcf1,31,female,2024-04-16_13h26.26.205,stockport_simplified,2022.2.4,Win32,59.88023952,661e456ee6de07e70aa9ef7b,661e51372a1676097f2f0a92,,,,,,,,,,,,,,,,,,,,,,,,,,,,,,,,,,345.7908,347.3232,"[1,7,2,8,5,4,3,6]","[[0.3,0.2],[-0.3,0.2]]","[[0.125,-0.2],[-0.125,-0.2]]",0.137962977,-0.189814815,1,0,0,1.0168,o1_image,347.3236,1,347.8231,347.8232,349.8233,0,0,0,0,1,,,,,,,,,,,,,,,,,,,,,,,,,,,,,,,,,,,,,,,,,,,,,,,,,,
,,5fb6d9267fe54f14f515bcf1,31,female,2024-04-16_13h26.26.205,stockport_simplified,2022.2.4,Win32,59.88023952,661e456ee6de07e70aa9ef7b,661e51372a1676097f2f0a92,,,,,,,,,,,,,,,,,,,,,,,,,,,,,,,,,,,,,,,,,,,,,,,,,,,,,,,,0,52,52,37,1,A,Y,N,o1_image,stimuli/out1.png,stimuli/correct_out1.png,stimuli/out2.png,,,,,,,,,,,,,,,,,,,,,,,,,,,,,,,,,,,,,,
,,5fb6d9267fe54f14f515bcf1,31,female,2024-04-16_13h26.26.205,stockport_simplified,2022.2.4,Win32,59.88023952,661e456ee6de07e70aa9ef7b,661e51372a1676097f2f0a92,,,,,,,,,,,,,,,,,,,,,,,,,,,,,,,,,,349.8236,351.34,"[1,7,2,8,5,4,3,6]","[[-0.3,0.2],[0.3,0.2]]","[[-0.125,-0.2],[0.125,-0.2]]",-0.101851852,-0.181481467,1,0,0,1,o1_image,351.3406,1,351.84,351.8401,353.84,0,0,0,0,1,,,,,,,,,,,,,,,,,,,,,,,,,,,,,,,,,,,,,,,,,,,,,,,,,,
,,5fb6d9267fe54f14f515bcf1,31,female,2024-04-16_13h26.26.205,stockport_simplified,2022.2.4,Win32,59.88023952,661e456ee6de07e70aa9ef7b,661e51372a1676097f2f0a92,,,,,,,,,,,,,,,,,,,,,,,,,,,,,,,,,,,,,,,,,,,,,,,,,,,,,,,,0,53,53,34,1,A,X,N,o1_image,stimuli/out1.png,stimuli/correct_out1.png,stimuli/out2.png,,,,,,,,,,,,,,,,,,,,,,,,,,,,,,,,,,,,,,
,,5fb6d9267fe54f14f515bcf1,31,female,2024-04-16_13h26.26.205,stockport_simplified,2022.2.4,Win32,59.88023952,661e456ee6de07e70aa9ef7b,661e51372a1676097f2f0a92,,,,,,,,,,,,,,,,,,,,,,,,,,,,,,,,,,353.8403,355.2234,"[1,7,2,8,5,4,3,6]","[[-0.3,0.2],[0.3,0.2]]","[[0.125,-0.2],[-0.125,-0.2]]",-0.102777764,-0.181481467,1,0,0,0.8664,o2_image,355.224,1,355.7234,355.7234,357.7235,0,0,0,0,1,,,,,,,,,,,,,,,,,,,,,,,,,,,,,,,,,,,,,,,,,,,,,,,,,,
,,5fb6d9267fe54f14f515bcf1,31,female,2024-04-16_13h26.26.205,stockport_simplified,2022.2.4,Win32,59.88023952,661e456ee6de07e70aa9ef7b,661e51372a1676097f2f0a92,,,,,,,,,,,,,,,,,,,,,,,,,,,,,,,,,,,,,,,,,,,,,,,,,,,,,,,,0,54,54,44,1,B,X,N,o2_image,stimuli/out2.png,stimuli/out1.png,stimuli/correct_out2.png,,,,,,,,,,,,,,,,,,,,,,,,,,,,,,,,,,,,,,
,,5fb6d9267fe54f14f515bcf1,31,female,2024-04-16_13h26.26.205,stockport_simplified,2022.2.4,Win32,59.88023952,661e456ee6de07e70aa9ef7b,661e51372a1676097f2f0a92,,,,,,,,,,,,,,,,,,,,,,,,,,,,,,,,,,357.7238,359.3903,"[1,7,2,8,5,4,3,6]","[[-0.3,0.2],[0.3,0.2]]","[[0.125,-0.2],[-0.125,-0.2]]",-0.102777764,-0.181481467,1,0,0,1.1499,o2_image,359.3908,1,359.8902,359.8902,361.8902,0,0,0,0,1,,,,,,,,,,,,,,,,,,,,,,,,,,,,,,,,,,,,,,,,,,,,,,,,,,
,,5fb6d9267fe54f14f515bcf1,31,female,2024-04-16_13h26.26.205,stockport_simplified,2022.2.4,Win32,59.88023952,661e456ee6de07e70aa9ef7b,661e51372a1676097f2f0a92,,,,,,,,,,,,,,,,,,,,,,,,,,,,,,,,,,,,,,,,,,,,,,,,,,,,,,,,0,55,55,47,1,B,Y,N,o2_image,stimuli/out2.png,stimuli/out1.png,stimuli/correct_out2.png,,,,,,,,,,,,,,,,,,,,,,,,,,,,,,,,,,,,,,
,,5fb6d9267fe54f14f515bcf1,31,female,2024-04-16_13h26.26.205,stockport_simplified,2022.2.4,Win32,59.88023952,661e456ee6de07e70aa9ef7b,661e51372a1676097f2f0a92,,,,,,,,,,,,,,,,,,,,,,,,,,,,,,,,,,361.8905,363.357,"[1,7,2,8,5,4,3,6]","[[-0.3,0.2],[0.3,0.2]]","[[-0.125,-0.2],[0.125,-0.2]]",-0.102777764,-0.181481467,1,0,0,0.9497,o1_image,363.3576,1,363.857,363.857,365.8571,0,0,0,0,1,,,,,,,,,,,,,,,,,,,,,,,,,,,,,,,,,,,,,,,,,,,,,,,,,,
,,5fb6d9267fe54f14f515bcf1,31,female,2024-04-16_13h26.26.205,stockport_simplified,2022.2.4,Win32,59.88023952,661e456ee6de07e70aa9ef7b,661e51372a1676097f2f0a92,,,,,,,,,,,,,,,,,,,,,,,,,,,,,,,,,,,,,,,,,,,,,,,,,,,,,,,,0,56,56,52,1,N,M,C,o1_image,stimuli/out1.png,stimuli/correct_out1.png,stimuli/out2.png,,,,,,,,,,,,,,,,,,,,,,,,,,,,,,,,,,,,,,
,,5fb6d9267fe54f14f515bcf1,31,female,2024-04-16_13h26.26.205,stockport_simplified,2022.2.4,Win32,59.88023952,661e456ee6de07e70aa9ef7b,661e51372a1676097f2f0a92,,,,,,,,,,,,,,,,,,,,,,,,,,,,,,,,,,365.8574,367.307,"[1,7,2,8,5,4,3,6]","[[0.3,0.2],[-0.3,0.2]]","[[0.125,-0.2],[-0.125,-0.2]]",-0.102777764,-0.181481467,1,0,0,0.9323,o2_image,367.3075,1,367.807,367.807,369.807,0,0,0,0,1,,,,,,,,,,,,,,,,,,,,,,,,,,,,,,,,,,,,,,,,,,,,,,,,,,
,,5fb6d9267fe54f14f515bcf1,31,female,2024-04-16_13h26.26.205,stockport_simplified,2022.2.4,Win32,59.88023952,661e456ee6de07e70aa9ef7b,661e51372a1676097f2f0a92,,,,,,,,,,,,,,,,,,,,,,,,,,,,,,,,,,,,,,,,,,,,,,,,,,,,,,,,0,57,57,15,1,B,Y,N,o2_image,stimuli/out2.png,stimuli/out1.png,stimuli/correct_out2.png,,,,,,,,,,,,,,,,,,,,,,,,,,,,,,,,,,,,,,
,,5fb6d9267fe54f14f515bcf1,31,female,2024-04-16_13h26.26.205,stockport_simplified,2022.2.4,Win32,59.88023952,661e456ee6de07e70aa9ef7b,661e51372a1676097f2f0a92,,,,,,,,,,,,,,,,,,,,,,,,,,,,,,,,,,369.8072,371.2405,"[1,7,2,8,5,4,3,6]","[[0.3,0.2],[-0.3,0.2]]","[[-0.125,-0.2],[0.125,-0.2]]",-0.102777764,-0.181481467,1,0,0,0.9163,o1_image,371.2409,1,371.7405,371.7405,373.7405,0,0,0,0,1,,,,,,,,,,,,,,,,,,,,,,,,,,,,,,,,,,,,,,,,,,,,,,,,,,
,,5fb6d9267fe54f14f515bcf1,31,female,2024-04-16_13h26.26.205,stockport_simplified,2022.2.4,Win32,59.88023952,661e456ee6de07e70aa9ef7b,661e51372a1676097f2f0a92,,,,,,,,,,,,,,,,,,,,,,,,,,,,,,,,,,,,,,,,,,,,,,,,,,,,,,,,0,58,58,21,1,N,M,C,o1_image,stimuli/out1.png,stimuli/correct_out1.png,stimuli/out2.png,,,,,,,,,,,,,,,,,,,,,,,,,,,,,,,,,,,,,,
,,5fb6d9267fe54f14f515bcf1,31,female,2024-04-16_13h26.26.205,stockport_simplified,2022.2.4,Win32,59.88023952,661e456ee6de07e70aa9ef7b,661e51372a1676097f2f0a92,,,,,,,,,,,,,,,,,,,,,,,,,,,,,,,,,,373.7408,375.6073,"[1,7,2,8,5,4,3,6]","[[0.3,0.2],[-0.3,0.2]]","[[0.125,-0.2],[-0.125,-0.2]]",-0.102777764,-0.181481467,1,0,0,1.3498,o2_image,375.6077,1,376.1072,376.1072,378.1074,0,0,0,0,1,,,,,,,,,,,,,,,,,,,,,,,,,,,,,,,,,,,,,,,,,,,,,,,,,,
,,5fb6d9267fe54f14f515bcf1,31,female,2024-04-16_13h26.26.205,stockport_simplified,2022.2.4,Win32,59.88023952,661e456ee6de07e70aa9ef7b,661e51372a1676097f2f0a92,,,,,,,,,,,,,,,,,,,,,,,,,,,,,,,,,,,,,,,,,,,,,,,,,,,,,,,,0,59,59,18,1,B,Y,N,o2_image,stimuli/out2.png,stimuli/out1.png,stimuli/correct_out2.png,,,,,,,,,,,,,,,,,,,,,,,,,,,,,,,,,,,,,,
,,5fb6d9267fe54f14f515bcf1,31,female,2024-04-16_13h26.26.205,stockport_simplified,2022.2.4,Win32,59.88023952,661e456ee6de07e70aa9ef7b,661e51372a1676097f2f0a92,,,,,,,,,,,,,,,,,,,,,,,,,,,,,,,,,,378.1078,379.8574,"[1,7,2,8,5,4,3,6]","[[0.3,0.2],[-0.3,0.2]]","[[0.125,-0.2],[-0.125,-0.2]]",0.141666695,-0.181481467,1,0,0,1.2332,o1_image,379.8578,1,380.3575,380.3575,382.3575,0,0,0,0,1,,,,,,,,,,,,,,,,,,,,,,,,,,,,,,,,,,,,,,,,,,,,,,,,,,
,,5fb6d9267fe54f14f515bcf1,31,female,2024-04-16_13h26.26.205,stockport_simplified,2022.2.4,Win32,59.88023952,661e456ee6de07e70aa9ef7b,661e51372a1676097f2f0a92,,,,,,,,,,,,,,,,,,,,,,,,,,,,,,,,,,,,,,,,,,,,,,,,,,,,,,,,1,0,60,37,1,A,Y,N,o1_image,stimuli/out1.png,stimuli/correct_out1.png,stimuli/out2.png,,,,,,,,,,,,,,,,,,,,,,,,,,,,,,,,,,,,,,
,,5fb6d9267fe54f14f515bcf1,31,female,2024-04-16_13h26.26.205,stockport_simplified,2022.2.4,Win32,59.88023952,661e456ee6de07e70aa9ef7b,661e51372a1676097f2f0a92,,,,,,,,,,,,,,,,,,,,,,,,,,,,,,,,,,382.3578,385.6742,"[1,7,2,8,5,4,3,6]","[[-0.3,0.2],[0.3,0.2]]","[[-0.125,-0.2],[0.125,-0.2]]",0.100000028,-0.160185213,1,0,0,2.814099999,o2_image,385.6747,1,386.1742,386.1742,388.1743,0,0,0,0,1,,,,,,,,,,,,,,,,,,,,,,,,,,,,,,,,,,,,,,,,,,,,,,,,,,
,,5fb6d9267fe54f14f515bcf1,31,female,2024-04-16_13h26.26.205,stockport_simplified,2022.2.4,Win32,59.88023952,661e456ee6de07e70aa9ef7b,661e51372a1676097f2f0a92,,,,,,,,,,,,,,,,,,,,,,,,,,,,,,,,,,,,,,,,,,,,,,,,,,,,,,,,1,1,61,43,1,B,X,N,o2_image,stimuli/out2.png,stimuli/out1.png,stimuli/correct_out2.png,,,,,,,,,,,,,,,,,,,,,,,,,,,,,,,,,,,,,,
,,5fb6d9267fe54f14f515bcf1,31,female,2024-04-16_13h26.26.205,stockport_simplified,2022.2.4,Win32,59.88023952,661e456ee6de07e70aa9ef7b,661e51372a1676097f2f0a92,,,,,,,,,,,,,,,,,,,,,,,,,,,,,,,,,,388.1745,389.7244,"[1,7,2,8,5,4,3,6]","[[0.3,0.2],[-0.3,0.2]]","[[0.125,-0.2],[-0.125,-0.2]]",0.163888931,-0.162037037,1,0,0,1.032900001,o1_image,389.7248,1,390.2243,390.2243,392.2243,0,0,0,0,1,,,,,,,,,,,,,,,,,,,,,,,,,,,,,,,,,,,,,,,,,,,,,,,,,,
,,5fb6d9267fe54f14f515bcf1,31,female,2024-04-16_13h26.26.205,stockport_simplified,2022.2.4,Win32,59.88023952,661e456ee6de07e70aa9ef7b,661e51372a1676097f2f0a92,,,,,,,,,,,,,,,,,,,,,,,,,,,,,,,,,,,,,,,,,,,,,,,,,,,,,,,,1,2,62,21,1,N,M,C,o1_image,stimuli/out1.png,stimuli/correct_out1.png,stimuli/out2.png,,,,,,,,,,,,,,,,,,,,,,,,,,,,,,,,,,,,,,
,,5fb6d9267fe54f14f515bcf1,31,female,2024-04-16_13h26.26.205,stockport_simplified,2022.2.4,Win32,59.88023952,661e456ee6de07e70aa9ef7b,661e51372a1676097f2f0a92,,,,,,,,,,,,,,,,,,,,,,,,,,,,,,,,,,392.2246,393.6611,"[1,7,2,8,5,4,3,6]","[[0.3,0.2],[-0.3,0.2]]","[[0.125,-0.2],[-0.125,-0.2]]",0.15370369,-0.162037037,1,0,0,0.919599999,o1_image,393.6615,1,394.1579,394.1579,396.1579,0,0,0,0,1,,,,,,,,,,,,,,,,,,,,,,,,,,,,,,,,,,,,,,,,,,,,,,,,,,
,,5fb6d9267fe54f14f515bcf1,31,female,2024-04-16_13h26.26.205,stockport_simplified,2022.2.4,Win32,59.88023952,661e456ee6de07e70aa9ef7b,661e51372a1676097f2f0a92,,,,,,,,,,,,,,,,,,,,,,,,,,,,,,,,,,,,,,,,,,,,,,,,,,,,,,,,1,3,63,7,1,A,Y,N,o1_image,stimuli/out1.png,stimuli/correct_out1.png,stimuli/out2.png,,,,,,,,,,,,,,,,,,,,,,,,,,,,,,,,,,,,,,
,,5fb6d9267fe54f14f515bcf1,31,female,2024-04-16_13h26.26.205,stockport_simplified,2022.2.4,Win32,59.88023952,661e456ee6de07e70aa9ef7b,661e51372a1676097f2f0a92,,,,,,,,,,,,,,,,,,,,,,,,,,,,,,,,,,396.1581,397.8442,"[1,7,2,8,5,4,3,6]","[[-0.3,0.2],[0.3,0.2]]","[[-0.125,-0.2],[0.125,-0.2]]",-0.127777735,-0.161111125,1,0,0,1.1692,o1_image,397.8446,1,398.3412,398.3412,400.3415,0,0,0,0,1,,,,,,,,,,,,,,,,,,,,,,,,,,,,,,,,,,,,,,,,,,,,,,,,,,
,,5fb6d9267fe54f14f515bcf1,31,female,2024-04-16_13h26.26.205,stockport_simplified,2022.2.4,Win32,59.88023952,661e456ee6de07e70aa9ef7b,661e51372a1676097f2f0a92,,,,,,,,,,,,,,,,,,,,,,,,,,,,,,,,,,,,,,,,,,,,,,,,,,,,,,,,1,4,64,33,1,A,X,N,o1_image,stimuli/out1.png,stimuli/correct_out1.png,stimuli/out2.png,,,,,,,,,,,,,,,,,,,,,,,,,,,,,,,,,,,,,,
,,5fb6d9267fe54f14f515bcf1,31,female,2024-04-16_13h26.26.205,stockport_simplified,2022.2.4,Win32,59.88023952,661e456ee6de07e70aa9ef7b,661e51372a1676097f2f0a92,,,,,,,,,,,,,,,,,,,,,,,,,,,,,,,,,,400.3418,402.1415,"[1,7,2,8,5,4,3,6]","[[0.3,0.2],[-0.3,0.2]]","[[-0.125,-0.2],[0.125,-0.2]]",0.123148176,-0.143518519,1,0,0,1.297099999,o2_image,402.142,1,402.6414,402.6414,404.6416,0,0,0,0,1,,,,,,,,,,,,,,,,,,,,,,,,,,,,,,,,,,,,,,,,,,,,,,,,,,
,,5fb6d9267fe54f14f515bcf1,31,female,2024-04-16_13h26.26.205,stockport_simplified,2022.2.4,Win32,59.88023952,661e456ee6de07e70aa9ef7b,661e51372a1676097f2f0a92,,,,,,,,,,,,,,,,,,,,,,,,,,,,,,,,,,,,,,,,,,,,,,,,,,,,,,,,1,5,65,46,1,B,Y,N,o2_image,stimuli/out2.png,stimuli/out1.png,stimuli/correct_out2.png,,,,,,,,,,,,,,,,,,,,,,,,,,,,,,,,,,,,,,
,,5fb6d9267fe54f14f515bcf1,31,female,2024-04-16_13h26.26.205,stockport_simplified,2022.2.4,Win32,59.88023952,661e456ee6de07e70aa9ef7b,661e51372a1676097f2f0a92,,,,,,,,,,,,,,,,,,,,,,,,,,,,,,,,,,404.642,406.0083,"[1,7,2,8,5,4,3,6]","[[0.3,0.2],[-0.3,0.2]]","[[0.125,-0.2],[-0.125,-0.2]]",0.123148176,-0.143518519,1,0,0,0.8492,o1_image,406.0089,1,406.5084,406.5085,408.5083,0,0,0,0,1,,,,,,,,,,,,,,,,,,,,,,,,,,,,,,,,,,,,,,,,,,,,,,,,,,
,,5fb6d9267fe54f14f515bcf1,31,female,2024-04-16_13h26.26.205,stockport_simplified,2022.2.4,Win32,59.88023952,661e456ee6de07e70aa9ef7b,661e51372a1676097f2f0a92,,,,,,,,,,,,,,,,,,,,,,,,,,,,,,,,,,,,,,,,,,,,,,,,,,,,,,,,1,6,66,34,1,A,X,N,o1_image,stimuli/out1.png,stimuli/correct_out1.png,stimuli/out2.png,,,,,,,,,,,,,,,,,,,,,,,,,,,,,,,,,,,,,,
,,5fb6d9267fe54f14f515bcf1,31,female,2024-04-16_13h26.26.205,stockport_simplified,2022.2.4,Win32,59.88023952,661e456ee6de07e70aa9ef7b,661e51372a1676097f2f0a92,,,,,,,,,,,,,,,,,,,,,,,,,,,,,,,,,,408.5087,409.8254,"[1,7,2,8,5,4,3,6]","[[0.3,0.2],[-0.3,0.2]]","[[0.125,-0.2],[-0.125,-0.2]]",0.111111111,-0.146296325,1,0,0,0.8,o1_image,409.8261,1,410.325,410.325,412.3251,0,0,0,0,1,,,,,,,,,,,,,,,,,,,,,,,,,,,,,,,,,,,,,,,,,,,,,,,,,,
,,5fb6d9267fe54f14f515bcf1,31,female,2024-04-16_13h26.26.205,stockport_simplified,2022.2.4,Win32,59.88023952,661e456ee6de07e70aa9ef7b,661e51372a1676097f2f0a92,,,,,,,,,,,,,,,,,,,,,,,,,,,,,,,,,,,,,,,,,,,,,,,,,,,,,,,,1,7,67,24,1,N,M,C,o1_image,stimuli/out1.png,stimuli/correct_out1.png,stimuli/out2.png,,,,,,,,,,,,,,,,,,,,,,,,,,,,,,,,,,,,,,
,,5fb6d9267fe54f14f515bcf1,31,female,2024-04-16_13h26.26.205,stockport_simplified,2022.2.4,Win32,59.88023952,661e456ee6de07e70aa9ef7b,661e51372a1676097f2f0a92,,,,,,,,,,,,,,,,,,,,,,,,,,,,,,,,,,412.3253,414.1751,"[1,7,2,8,5,4,3,6]","[[0.3,0.2],[-0.3,0.2]]","[[-0.125,-0.2],[0.125,-0.2]]",-0.069444444,-0.147222236,1,0,0,1.333099999,o1_image,414.1755,1,414.6752,414.6752,416.6752,0,0,0,0,1,,,,,,,,,,,,,,,,,,,,,,,,,,,,,,,,,,,,,,,,,,,,,,,,,,
,,5fb6d9267fe54f14f515bcf1,31,female,2024-04-16_13h26.26.205,stockport_simplified,2022.2.4,Win32,59.88023952,661e456ee6de07e70aa9ef7b,661e51372a1676097f2f0a92,,,,,,,,,,,,,,,,,,,,,,,,,,,,,,,,,,,,,,,,,,,,,,,,,,,,,,,,1,8,68,38,1,A,Y,N,o1_image,stimuli/out1.png,stimuli/correct_out1.png,stimuli/out2.png,,,,,,,,,,,,,,,,,,,,,,,,,,,,,,,,,,,,,,
,,5fb6d9267fe54f14f515bcf1,31,female,2024-04-16_13h26.26.205,stockport_simplified,2022.2.4,Win32,59.88023952,661e456ee6de07e70aa9ef7b,661e51372a1676097f2f0a92,,,,,,,,,,,,,,,,,,,,,,,,,,,,,,,,,,416.6754,418.0754,"[1,7,2,8,5,4,3,6]","[[-0.3,0.2],[0.3,0.2]]","[[-0.125,-0.2],[0.125,-0.2]]",-0.069444444,-0.147222236,1,0,0,0.883599999,o1_image,418.0759,1,418.5754,418.5754,420.5753,0,0,0,0,1,,,,,,,,,,,,,,,,,,,,,,,,,,,,,,,,,,,,,,,,,,,,,,,,,,
,,5fb6d9267fe54f14f515bcf1,31,female,2024-04-16_13h26.26.205,stockport_simplified,2022.2.4,Win32,59.88023952,661e456ee6de07e70aa9ef7b,661e51372a1676097f2f0a92,,,,,,,,,,,,,,,,,,,,,,,,,,,,,,,,,,,,,,,,,,,,,,,,,,,,,,,,1,9,69,39,1,A,Y,N,o1_image,stimuli/out1.png,stimuli/correct_out1.png,stimuli/out2.png,,,,,,,,,,,,,,,,,,,,,,,,,,,,,,,,,,,,,,
,,5fb6d9267fe54f14f515bcf1,31,female,2024-04-16_13h26.26.205,stockport_simplified,2022.2.4,Win32,59.88023952,661e456ee6de07e70aa9ef7b,661e51372a1676097f2f0a92,,,,,,,,,,,,,,,,,,,,,,,,,,,,,,,,,,420.5755,422.0588,"[1,7,2,8,5,4,3,6]","[[-0.3,0.2],[0.3,0.2]]","[[-0.125,-0.2],[0.125,-0.2]]",0.087962963,-0.147222236,1,0,0,0.9666,o2_image,422.0593,1,422.5586,422.5586,424.5589,0,0,0,0,1,,,,,,,,,,,,,,,,,,,,,,,,,,,,,,,,,,,,,,,,,,,,,,,,,,
,,5fb6d9267fe54f14f515bcf1,31,female,2024-04-16_13h26.26.205,stockport_simplified,2022.2.4,Win32,59.88023952,661e456ee6de07e70aa9ef7b,661e51372a1676097f2f0a92,,,,,,,,,,,,,,,,,,,,,,,,,,,,,,,,,,,,,,,,,,,,,,,,,,,,,,,,1,10,70,45,1,B,Y,N,o2_image,stimuli/out2.png,stimuli/out1.png,stimuli/correct_out2.png,,,,,,,,,,,,,,,,,,,,,,,,,,,,,,,,,,,,,,
,,5fb6d9267fe54f14f515bcf1,31,female,2024-04-16_13h26.26.205,stockport_simplified,2022.2.4,Win32,59.88023952,661e456ee6de07e70aa9ef7b,661e51372a1676097f2f0a92,,,,,,,,,,,,,,,,,,,,,,,,,,,,,,,,,,424.5593,426.043,"[1,7,2,8,5,4,3,6]","[[-0.3,0.2],[0.3,0.2]]","[[0.125,-0.2],[-0.125,-0.2]]",-0.077777792,-0.147222236,1,0,0,0.9669,o2_image,426.0435,1,426.5423,426.5424,428.5422,0,0,0,0,1,,,,,,,,,,,,,,,,,,,,,,,,,,,,,,,,,,,,,,,,,,,,,,,,,,
,,5fb6d9267fe54f14f515bcf1,31,female,2024-04-16_13h26.26.205,stockport_simplified,2022.2.4,Win32,59.88023952,661e456ee6de07e70aa9ef7b,661e51372a1676097f2f0a92,,,,,,,,,,,,,,,,,,,,,,,,,,,,,,,,,,,,,,,,,,,,,,,,,,,,,,,,1,11,71,41,1,B,X,N,o2_image,stimuli/out2.png,stimuli/out1.png,stimuli/correct_out2.png,,,,,,,,,,,,,,,,,,,,,,,,,,,,,,,,,,,,,,
,,5fb6d9267fe54f14f515bcf1,31,female,2024-04-16_13h26.26.205,stockport_simplified,2022.2.4,Win32,59.88023952,661e456ee6de07e70aa9ef7b,661e51372a1676097f2f0a92,,,,,,,,,,,,,,,,,,,,,,,,,,,,,,,,,,428.5424,430.0088,"[1,7,2,8,5,4,3,6]","[[-0.3,0.2],[0.3,0.2]]","[[-0.125,-0.2],[0.125,-0.2]]",0.145370413,-0.147222236,1,0,0,0.9498,o2_image,430.0092,1,430.5088,430.5088,432.5088,0,0,0,0,1,,,,,,,,,,,,,,,,,,,,,,,,,,,,,,,,,,,,,,,,,,,,,,,,,,
,,5fb6d9267fe54f14f515bcf1,31,female,2024-04-16_13h26.26.205,stockport_simplified,2022.2.4,Win32,59.88023952,661e456ee6de07e70aa9ef7b,661e51372a1676097f2f0a92,,,,,,,,,,,,,,,,,,,,,,,,,,,,,,,,,,,,,,,,,,,,,,,,,,,,,,,,1,12,72,55,1,N,M,D,o2_image,stimuli/out2.png,stimuli/out1.png,stimuli/correct_out2.png,,,,,,,,,,,,,,,,,,,,,,,,,,,,,,,,,,,,,,
,,5fb6d9267fe54f14f515bcf1,31,female,2024-04-16_13h26.26.205,stockport_simplified,2022.2.4,Win32,59.88023952,661e456ee6de07e70aa9ef7b,661e51372a1676097f2f0a92,,,,,,,,,,,,,,,,,,,,,,,,,,,,,,,,,,432.5091,433.9588,"[1,7,2,8,5,4,3,6]","[[0.3,0.2],[-0.3,0.2]]","[[0.125,-0.2],[-0.125,-0.2]]",0.103703746,-0.148148148,1,0,0,0.933200001,o1_image,433.9593,1,434.4588,434.4589,436.459,0,0,0,0,1,,,,,,,,,,,,,,,,,,,,,,,,,,,,,,,,,,,,,,,,,,,,,,,,,,
,,5fb6d9267fe54f14f515bcf1,31,female,2024-04-16_13h26.26.205,stockport_simplified,2022.2.4,Win32,59.88023952,661e456ee6de07e70aa9ef7b,661e51372a1676097f2f0a92,,,,,,,,,,,,,,,,,,,,,,,,,,,,,,,,,,,,,,,,,,,,,,,,,,,,,,,,1,13,73,53,1,N,M,C,o1_image,stimuli/out1.png,stimuli/correct_out1.png,stimuli/out2.png,,,,,,,,,,,,,,,,,,,,,,,,,,,,,,,,,,,,,,
,,5fb6d9267fe54f14f515bcf1,31,female,2024-04-16_13h26.26.205,stockport_simplified,2022.2.4,Win32,59.88023952,661e456ee6de07e70aa9ef7b,661e51372a1676097f2f0a92,,,,,,,,,,,,,,,,,,,,,,,,,,,,,,,,,,436.4594,438.2423,"[1,7,2,8,5,4,3,6]","[[-0.3,0.2],[0.3,0.2]]","[[-0.125,-0.2],[0.125,-0.2]]",-0.070370356,-0.14907406,1,0,0,1.266400001,o1_image,438.2427,1,438.7424,438.7424,440.7424,0,0,0,0,1,,,,,,,,,,,,,,,,,,,,,,,,,,,,,,,,,,,,,,,,,,,,,,,,,,
,,5fb6d9267fe54f14f515bcf1,31,female,2024-04-16_13h26.26.205,stockport_simplified,2022.2.4,Win32,59.88023952,661e456ee6de07e70aa9ef7b,661e51372a1676097f2f0a92,,,,,,,,,,,,,,,,,,,,,,,,,,,,,,,,,,,,,,,,,,,,,,,,,,,,,,,,1,14,74,35,1,A,Y,N,o1_image,stimuli/out1.png,stimuli/correct_out1.png,stimuli/out2.png,,,,,,,,,,,,,,,,,,,,,,,,,,,,,,,,,,,,,,
,,5fb6d9267fe54f14f515bcf1,31,female,2024-04-16_13h26.26.205,stockport_simplified,2022.2.4,Win32,59.88023952,661e456ee6de07e70aa9ef7b,661e51372a1676097f2f0a92,,,,,,,,,,,,,,,,,,,,,,,,,,,,,,,,,,440.7426,442.5591,"[1,7,2,8,5,4,3,6]","[[-0.3,0.2],[0.3,0.2]]","[[-0.125,-0.2],[0.125,-0.2]]",0.123148176,-0.148148148,1,0,0,1.299900001,o2_image,442.5596,1,443.0591,443.0591,445.0593,0,0,0,0,1,,,,,,,,,,,,,,,,,,,,,,,,,,,,,,,,,,,,,,,,,,,,,,,,,,
,,5fb6d9267fe54f14f515bcf1,31,female,2024-04-16_13h26.26.205,stockport_simplified,2022.2.4,Win32,59.88023952,661e456ee6de07e70aa9ef7b,661e51372a1676097f2f0a92,,,,,,,,,,,,,,,,,,,,,,,,,,,,,,,,,,,,,,,,,,,,,,,,,,,,,,,,1,15,75,12,1,B,X,N,o2_image,stimuli/out2.png,stimuli/out1.png,stimuli/correct_out2.png,,,,,,,,,,,,,,,,,,,,,,,,,,,,,,,,,,,,,,
,,5fb6d9267fe54f14f515bcf1,31,female,2024-04-16_13h26.26.205,stockport_simplified,2022.2.4,Win32,59.88023952,661e456ee6de07e70aa9ef7b,661e51372a1676097f2f0a92,,,,,,,,,,,,,,,,,,,,,,,,,,,,,,,,,,445.0596,446.6592,"[1,7,2,8,5,4,3,6]","[[0.3,0.2],[-0.3,0.2]]","[[0.125,-0.2],[-0.125,-0.2]]",0.069444444,-0.151851866,1,0,0,1.083,o1_image,446.6595,1,447.1592,447.1592,449.1592,0,0,0,0,1,,,,,,,,,,,,,,,,,,,,,,,,,,,,,,,,,,,,,,,,,,,,,,,,,,
,,5fb6d9267fe54f14f515bcf1,31,female,2024-04-16_13h26.26.205,stockport_simplified,2022.2.4,Win32,59.88023952,661e456ee6de07e70aa9ef7b,661e51372a1676097f2f0a92,,,,,,,,,,,,,,,,,,,,,,,,,,,,,,,,,,,,,,,,,,,,,,,,,,,,,,,,1,16,76,20,1,N,M,C,o1_image,stimuli/out1.png,stimuli/correct_out1.png,stimuli/out2.png,,,,,,,,,,,,,,,,,,,,,,,,,,,,,,,,,,,,,,
,,5fb6d9267fe54f14f515bcf1,31,female,2024-04-16_13h26.26.205,stockport_simplified,2022.2.4,Win32,59.88023952,661e456ee6de07e70aa9ef7b,661e51372a1676097f2f0a92,,,,,,,,,,,,,,,,,,,,,,,,,,,,,,,,,,449.1595,450.8926,"[1,7,2,8,5,4,3,6]","[[-0.3,0.2],[0.3,0.2]]","[[0.125,-0.2],[-0.125,-0.2]]",-0.054629644,-0.152777778,1,0,0,1.2165,o2_image,450.8931,1,451.3926,451.3926,453.3927,0,0,0,0,1,,,,,,,,,,,,,,,,,,,,,,,,,,,,,,,,,,,,,,,,,,,,,,,,,,
,,5fb6d9267fe54f14f515bcf1,31,female,2024-04-16_13h26.26.205,stockport_simplified,2022.2.4,Win32,59.88023952,661e456ee6de07e70aa9ef7b,661e51372a1676097f2f0a92,,,,,,,,,,,,,,,,,,,,,,,,,,,,,,,,,,,,,,,,,,,,,,,,,,,,,,,,1,17,77,49,1,B,Y,N,o2_image,stimuli/out2.png,stimuli/out1.png,stimuli/correct_out2.png,,,,,,,,,,,,,,,,,,,,,,,,,,,,,,,,,,,,,,
,,5fb6d9267fe54f14f515bcf1,31,female,2024-04-16_13h26.26.205,stockport_simplified,2022.2.4,Win32,59.88023952,661e456ee6de07e70aa9ef7b,661e51372a1676097f2f0a92,,,,,,,,,,,,,,,,,,,,,,,,,,,,,,,,,,453.3929,455.2429,"[1,7,2,8,5,4,3,6]","[[0.3,0.2],[-0.3,0.2]]","[[-0.125,-0.2],[0.125,-0.2]]",0.164814843,-0.164814843,1,0,0,1.333200001,o2_image,455.2432,1,455.7428,455.7429,457.7429,0,0,0,0,1,,,,,,,,,,,,,,,,,,,,,,,,,,,,,,,,,,,,,,,,,,,,,,,,,,
,,5fb6d9267fe54f14f515bcf1,31,female,2024-04-16_13h26.26.205,stockport_simplified,2022.2.4,Win32,59.88023952,661e456ee6de07e70aa9ef7b,661e51372a1676097f2f0a92,,,,,,,,,,,,,,,,,,,,,,,,,,,,,,,,,,,,,,,,,,,,,,,,,,,,,,,,1,18,78,29,1,N,M,D,o2_image,stimuli/out2.png,stimuli/out1.png,stimuli/correct_out2.png,,,,,,,,,,,,,,,,,,,,,,,,,,,,,,,,,,,,,,
,,5fb6d9267fe54f14f515bcf1,31,female,2024-04-16_13h26.26.205,stockport_simplified,2022.2.4,Win32,59.88023952,661e456ee6de07e70aa9ef7b,661e51372a1676097f2f0a92,,,,,,,,,,,,,,,,,,,,,,,,,,,,,,,,,,457.7432,459.3097,"[1,7,2,8,5,4,3,6]","[[-0.3,0.2],[0.3,0.2]]","[[-0.125,-0.2],[0.125,-0.2]]",-0.140740712,-0.158333319,1,0,0,1.05,o1_image,459.31,1,459.8096,459.8096,461.8096,0,0,0,0,1,,,,,,,,,,,,,,,,,,,,,,,,,,,,,,,,,,,,,,,,,,,,,,,,,,
,,5fb6d9267fe54f14f515bcf1,31,female,2024-04-16_13h26.26.205,stockport_simplified,2022.2.4,Win32,59.88023952,661e456ee6de07e70aa9ef7b,661e51372a1676097f2f0a92,,,,,,,,,,,,,,,,,,,,,,,,,,,,,,,,,,,,,,,,,,,,,,,,,,,,,,,,1,19,79,22,1,N,M,C,o1_image,stimuli/out1.png,stimuli/correct_out1.png,stimuli/out2.png,,,,,,,,,,,,,,,,,,,,,,,,,,,,,,,,,,,,,,
,,5fb6d9267fe54f14f515bcf1,31,female,2024-04-16_13h26.26.205,stockport_simplified,2022.2.4,Win32,59.88023952,661e456ee6de07e70aa9ef7b,661e51372a1676097f2f0a92,,,,,,,,,,,,,,,,,,,,,,,,,,,,,,,,,,461.8098,464.643,"[1,7,2,8,5,4,3,6]","[[-0.3,0.2],[0.3,0.2]]","[[-0.125,-0.2],[0.125,-0.2]]",-0.118518476,-0.150925954,1,0,0,2.316400001,o1_image,464.6492,1,465.1431,465.1431,467.1433,0,0,0,0,1,,,,,,,,,,,,,,,,,,,,,,,,,,,,,,,,,,,,,,,,,,,,,,,,,,
,,5fb6d9267fe54f14f515bcf1,31,female,2024-04-16_13h26.26.205,stockport_simplified,2022.2.4,Win32,59.88023952,661e456ee6de07e70aa9ef7b,661e51372a1676097f2f0a92,,,,,,,,,,,,,,,,,,,,,,,,,,,,,,,,,,,,,,,,,,,,,,,,,,,,,,,,1,20,80,36,1,A,Y,N,o1_image,stimuli/out1.png,stimuli/correct_out1.png,stimuli/out2.png,,,,,,,,,,,,,,,,,,,,,,,,,,,,,,,,,,,,,,
,,5fb6d9267fe54f14f515bcf1,31,female,2024-04-16_13h26.26.205,stockport_simplified,2022.2.4,Win32,59.88023952,661e456ee6de07e70aa9ef7b,661e51372a1676097f2f0a92,,,,,,,,,,,,,,,,,,,,,,,,,,,,,,,,,,467.1436,468.5766,"[1,7,2,8,5,4,3,6]","[[0.3,0.2],[-0.3,0.2]]","[[-0.125,-0.2],[0.125,-0.2]]",-0.118518476,-0.150925954,1,0,0,0.9167,o1_image,468.577,1,469.0765,469.0765,471.0765,0,0,0,0,1,,,,,,,,,,,,,,,,,,,,,,,,,,,,,,,,,,,,,,,,,,,,,,,,,,
,,5fb6d9267fe54f14f515bcf1,31,female,2024-04-16_13h26.26.205,stockport_simplified,2022.2.4,Win32,59.88023952,661e456ee6de07e70aa9ef7b,661e51372a1676097f2f0a92,,,,,,,,,,,,,,,,,,,,,,,,,,,,,,,,,,,,,,,,,,,,,,,,,,,,,,,,1,21,81,6,1,A,Y,N,o1_image,stimuli/out1.png,stimuli/correct_out1.png,stimuli/out2.png,,,,,,,,,,,,,,,,,,,,,,,,,,,,,,,,,,,,,,
,,5fb6d9267fe54f14f515bcf1,31,female,2024-04-16_13h26.26.205,stockport_simplified,2022.2.4,Win32,59.88023952,661e456ee6de07e70aa9ef7b,661e51372a1676097f2f0a92,,,,,,,,,,,,,,,,,,,,,,,,,,,,,,,,,,471.0768,473.1266,"[1,7,2,8,5,4,3,6]","[[0.3,0.2],[-0.3,0.2]]","[[-0.125,-0.2],[0.125,-0.2]]",0.10555557,-0.161111125,1,0,0,1.5331,o2_image,473.127,1,473.6265,473.6265,475.6266,0,0,0,0,1,,,,,,,,,,,,,,,,,,,,,,,,,,,,,,,,,,,,,,,,,,,,,,,,,,
,,5fb6d9267fe54f14f515bcf1,31,female,2024-04-16_13h26.26.205,stockport_simplified,2022.2.4,Win32,59.88023952,661e456ee6de07e70aa9ef7b,661e51372a1676097f2f0a92,,,,,,,,,,,,,,,,,,,,,,,,,,,,,,,,,,,,,,,,,,,,,,,,,,,,,,,,1,22,82,48,1,B,Y,N,o2_image,stimuli/out2.png,stimuli/out1.png,stimuli/correct_out2.png,,,,,,,,,,,,,,,,,,,,,,,,,,,,,,,,,,,,,,
,,5fb6d9267fe54f14f515bcf1,31,female,2024-04-16_13h26.26.205,stockport_simplified,2022.2.4,Win32,59.88023952,661e456ee6de07e70aa9ef7b,661e51372a1676097f2f0a92,,,,,,,,,,,,,,,,,,,,,,,,,,,,,,,,,,475.6268,477.1267,"[1,7,2,8,5,4,3,6]","[[0.3,0.2],[-0.3,0.2]]","[[-0.125,-0.2],[0.125,-0.2]]",0.10555557,-0.161111125,1,0,0,0.9996,o2_image,477.1271,1,477.6267,477.6267,479.6269,0,0,0,0,1,,,,,,,,,,,,,,,,,,,,,,,,,,,,,,,,,,,,,,,,,,,,,,,,,,
,,5fb6d9267fe54f14f515bcf1,31,female,2024-04-16_13h26.26.205,stockport_simplified,2022.2.4,Win32,59.88023952,661e456ee6de07e70aa9ef7b,661e51372a1676097f2f0a92,,,,,,,,,,,,,,,,,,,,,,,,,,,,,,,,,,,,,,,,,,,,,,,,,,,,,,,,1,23,83,14,1,B,X,N,o2_image,stimuli/out2.png,stimuli/out1.png,stimuli/correct_out2.png,,,,,,,,,,,,,,,,,,,,,,,,,,,,,,,,,,,,,,
,,5fb6d9267fe54f14f515bcf1,31,female,2024-04-16_13h26.26.205,stockport_simplified,2022.2.4,Win32,59.88023952,661e456ee6de07e70aa9ef7b,661e51372a1676097f2f0a92,,,,,,,,,,,,,,,,,,,,,,,,,,,,,,,,,,479.6271,481.4602,"[1,7,2,8,5,4,3,6]","[[0.3,0.2],[-0.3,0.2]]","[[0.125,-0.2],[-0.125,-0.2]]",0.092592593,-0.162037037,1,0,0,1.3165,o1_image,481.4605,1,481.9603,481.9603,483.9602,0,0,0,0,1,,,,,,,,,,,,,,,,,,,,,,,,,,,,,,,,,,,,,,,,,,,,,,,,,,
,,5fb6d9267fe54f14f515bcf1,31,female,2024-04-16_13h26.26.205,stockport_simplified,2022.2.4,Win32,59.88023952,661e456ee6de07e70aa9ef7b,661e51372a1676097f2f0a92,,,,,,,,,,,,,,,,,,,,,,,,,,,,,,,,,,,,,,,,,,,,,,,,,,,,,,,,1,24,84,30,1,A,X,N,o1_image,stimuli/out1.png,stimuli/correct_out1.png,stimuli/out2.png,,,,,,,,,,,,,,,,,,,,,,,,,,,,,,,,,,,,,,
,,5fb6d9267fe54f14f515bcf1,31,female,2024-04-16_13h26.26.205,stockport_simplified,2022.2.4,Win32,59.88023952,661e456ee6de07e70aa9ef7b,661e51372a1676097f2f0a92,,,,,,,,,,,,,,,,,,,,,,,,,,,,,,,,,,483.9604,485.6271,"[1,7,2,8,5,4,3,6]","[[-0.3,0.2],[0.3,0.2]]","[[-0.125,-0.2],[0.125,-0.2]]",-0.050925926,-0.167592578,1,0,0,1.1501,o1_image,485.6276,1,486.1272,486.1273,488.1274,0,0,0,0,1,,,,,,,,,,,,,,,,,,,,,,,,,,,,,,,,,,,,,,,,,,,,,,,,,,
,,5fb6d9267fe54f14f515bcf1,31,female,2024-04-16_13h26.26.205,stockport_simplified,2022.2.4,Win32,59.88023952,661e456ee6de07e70aa9ef7b,661e51372a1676097f2f0a92,,,,,,,,,,,,,,,,,,,,,,,,,,,,,,,,,,,,,,,,,,,,,,,,,,,,,,,,1,25,85,2,1,A,X,N,o1_image,stimuli/out1.png,stimuli/correct_out1.png,stimuli/out2.png,,,,,,,,,,,,,,,,,,,,,,,,,,,,,,,,,,,,,,
,,5fb6d9267fe54f14f515bcf1,31,female,2024-04-16_13h26.26.205,stockport_simplified,2022.2.4,Win32,59.88023952,661e456ee6de07e70aa9ef7b,661e51372a1676097f2f0a92,,,,,,,,,,,,,,,,,,,,,,,,,,,,,,,,,,488.1281,489.7104,"[1,7,2,8,5,4,3,6]","[[-0.3,0.2],[0.3,0.2]]","[[-0.125,-0.2],[0.125,-0.2]]",0.114814829,-0.162962949,1,0,0,1.066,o2_image,489.7108,1,490.2103,490.2104,492.2104,0,0,0,0,1,,,,,,,,,,,,,,,,,,,,,,,,,,,,,,,,,,,,,,,,,,,,,,,,,,
,,5fb6d9267fe54f14f515bcf1,31,female,2024-04-16_13h26.26.205,stockport_simplified,2022.2.4,Win32,59.88023952,661e456ee6de07e70aa9ef7b,661e51372a1676097f2f0a92,,,,,,,,,,,,,,,,,,,,,,,,,,,,,,,,,,,,,,,,,,,,,,,,,,,,,,,,1,26,86,11,1,B,X,N,o2_image,stimuli/out2.png,stimuli/out1.png,stimuli/correct_out2.png,,,,,,,,,,,,,,,,,,,,,,,,,,,,,,,,,,,,,,
,,5fb6d9267fe54f14f515bcf1,31,female,2024-04-16_13h26.26.205,stockport_simplified,2022.2.4,Win32,59.88023952,661e456ee6de07e70aa9ef7b,661e51372a1676097f2f0a92,,,,,,,,,,,,,,,,,,,,,,,,,,,,,,,,,,492.2106,493.8444,"[1,7,2,8,5,4,3,6]","[[0.3,0.2],[-0.3,0.2]]","[[-0.125,-0.2],[0.125,-0.2]]",0.115740741,-0.162962949,1,0,0,1.1167,o2_image,493.8451,1,494.3442,494.3443,496.3441,0,0,0,0,1,,,,,,,,,,,,,,,,,,,,,,,,,,,,,,,,,,,,,,,,,,,,,,,,,,
,,5fb6d9267fe54f14f515bcf1,31,female,2024-04-16_13h26.26.205,stockport_simplified,2022.2.4,Win32,59.88023952,661e456ee6de07e70aa9ef7b,661e51372a1676097f2f0a92,,,,,,,,,,,,,,,,,,,,,,,,,,,,,,,,,,,,,,,,,,,,,,,,,,,,,,,,1,27,87,10,1,B,X,N,o2_image,stimuli/out2.png,stimuli/out1.png,stimuli/correct_out2.png,,,,,,,,,,,,,,,,,,,,,,,,,,,,,,,,,,,,,,
,,5fb6d9267fe54f14f515bcf1,31,female,2024-04-16_13h26.26.205,stockport_simplified,2022.2.4,Win32,59.88023952,661e456ee6de07e70aa9ef7b,661e51372a1676097f2f0a92,,,,,,,,,,,,,,,,,,,,,,,,,,,,,,,,,,496.3446,497.8944,"[1,7,2,8,5,4,3,6]","[[0.3,0.2],[-0.3,0.2]]","[[-0.125,-0.2],[0.125,-0.2]]",0.115740741,-0.162962949,1,0,0,1.0333,o2_image,497.8951,1,498.3941,498.3941,500.3942,0,0,0,0,1,,,,,,,,,,,,,,,,,,,,,,,,,,,,,,,,,,,,,,,,,,,,,,,,,,
,,5fb6d9267fe54f14f515bcf1,31,female,2024-04-16_13h26.26.205,stockport_simplified,2022.2.4,Win32,59.88023952,661e456ee6de07e70aa9ef7b,661e51372a1676097f2f0a92,,,,,,,,,,,,,,,,,,,,,,,,,,,,,,,,,,,,,,,,,,,,,,,,,,,,,,,,1,28,88,17,1,B,Y,N,o2_image,stimuli/out2.png,stimuli/out1.png,stimuli/correct_out2.png,,,,,,,,,,,,,,,,,,,,,,,,,,,,,,,,,,,,,,
,,5fb6d9267fe54f14f515bcf1,31,female,2024-04-16_13h26.26.205,stockport_simplified,2022.2.4,Win32,59.88023952,661e456ee6de07e70aa9ef7b,661e51372a1676097f2f0a92,,,,,,,,,,,,,,,,,,,,,,,,,,,,,,,,,,500.3944,501.8608,"[1,7,2,8,5,4,3,6]","[[-0.3,0.2],[0.3,0.2]]","[[-0.125,-0.2],[0.125,-0.2]]",-0.054629644,-0.162037037,1,0,0,0.9496,o1_image,501.8613,1,502.3608,502.3608,504.3608,0,0,0,0,1,,,,,,,,,,,,,,,,,,,,,,,,,,,,,,,,,,,,,,,,,,,,,,,,,,
,,5fb6d9267fe54f14f515bcf1,31,female,2024-04-16_13h26.26.205,stockport_simplified,2022.2.4,Win32,59.88023952,661e456ee6de07e70aa9ef7b,661e51372a1676097f2f0a92,,,,,,,,,,,,,,,,,,,,,,,,,,,,,,,,,,,,,,,,,,,,,,,,,,,,,,,,1,29,89,52,1,N,M,C,o1_image,stimuli/out1.png,stimuli/correct_out1.png,stimuli/out2.png,,,,,,,,,,,,,,,,,,,,,,,,,,,,,,,,,,,,,,
,,5fb6d9267fe54f14f515bcf1,31,female,2024-04-16_13h26.26.205,stockport_simplified,2022.2.4,Win32,59.88023952,661e456ee6de07e70aa9ef7b,661e51372a1676097f2f0a92,,,,,,,,,,,,,,,,,,,,,,,,,,,,,,,,,,504.3612,505.7108,"[1,7,2,8,5,4,3,6]","[[-0.3,0.2],[0.3,0.2]]","[[-0.125,-0.2],[0.125,-0.2]]",0.146296325,-0.162962949,1,0,0,0.833,o2_image,505.7114,1,506.211,506.211,508.2111,0,0,0,0,1,,,,,,,,,,,,,,,,,,,,,,,,,,,,,,,,,,,,,,,,,,,,,,,,,,
,,5fb6d9267fe54f14f515bcf1,31,female,2024-04-16_13h26.26.205,stockport_simplified,2022.2.4,Win32,59.88023952,661e456ee6de07e70aa9ef7b,661e51372a1676097f2f0a92,,,,,,,,,,,,,,,,,,,,,,,,,,,,,,,,,,,,,,,,,,,,,,,,,,,,,,,,1,30,90,27,1,N,M,D,o2_image,stimuli/out2.png,stimuli/out1.png,stimuli/correct_out2.png,,,,,,,,,,,,,,,,,,,,,,,,,,,,,,,,,,,,,,
,,5fb6d9267fe54f14f515bcf1,31,female,2024-04-16_13h26.26.205,stockport_simplified,2022.2.4,Win32,59.88023952,661e456ee6de07e70aa9ef7b,661e51372a1676097f2f0a92,,,,,,,,,,,,,,,,,,,,,,,,,,,,,,,,,,508.2114,509.9479,"[1,7,2,8,5,4,3,6]","[[0.3,0.2],[-0.3,0.2]]","[[-0.125,-0.2],[0.125,-0.2]]",-0.055555556,-0.162037037,1,0,0,1.219900001,o1_image,509.9483,1,510.4444,510.4444,512.4445,0,0,0,0,1,,,,,,,,,,,,,,,,,,,,,,,,,,,,,,,,,,,,,,,,,,,,,,,,,,
,,5fb6d9267fe54f14f515bcf1,31,female,2024-04-16_13h26.26.205,stockport_simplified,2022.2.4,Win32,59.88023952,661e456ee6de07e70aa9ef7b,661e51372a1676097f2f0a92,,,,,,,,,,,,,,,,,,,,,,,,,,,,,,,,,,,,,,,,,,,,,,,,,,,,,,,,1,31,91,0,1,A,X,N,o1_image,stimuli/out1.png,stimuli/correct_out1.png,stimuli/out2.png,,,,,,,,,,,,,,,,,,,,,,,,,,,,,,,,,,,,,,
,,5fb6d9267fe54f14f515bcf1,31,female,2024-04-16_13h26.26.205,stockport_simplified,2022.2.4,Win32,59.88023952,661e456ee6de07e70aa9ef7b,661e51372a1676097f2f0a92,,,,,,,,,,,,,,,,,,,,,,,,,,,,,,,,,,512.4453,513.778,"[1,7,2,8,5,4,3,6]","[[-0.3,0.2],[0.3,0.2]]","[[-0.125,-0.2],[0.125,-0.2]]",-0.055555556,-0.162037037,1,0,0,0.8167,o1_image,513.7785,1,514.2778,514.2779,516.2779,0,0,0,0,1,,,,,,,,,,,,,,,,,,,,,,,,,,,,,,,,,,,,,,,,,,,,,,,,,,
,,5fb6d9267fe54f14f515bcf1,31,female,2024-04-16_13h26.26.205,stockport_simplified,2022.2.4,Win32,59.88023952,661e456ee6de07e70aa9ef7b,661e51372a1676097f2f0a92,,,,,,,,,,,,,,,,,,,,,,,,,,,,,,,,,,,,,,,,,,,,,,,,,,,,,,,,1,32,92,4,1,A,X,N,o1_image,stimuli/out1.png,stimuli/correct_out1.png,stimuli/out2.png,,,,,,,,,,,,,,,,,,,,,,,,,,,,,,,,,,,,,,
,,5fb6d9267fe54f14f515bcf1,31,female,2024-04-16_13h26.26.205,stockport_simplified,2022.2.4,Win32,59.88023952,661e456ee6de07e70aa9ef7b,661e51372a1676097f2f0a92,,,,,,,,,,,,,,,,,,,,,,,,,,,,,,,,,,516.2782,518.0115,"[1,7,2,8,5,4,3,6]","[[-0.3,0.2],[0.3,0.2]]","[[0.125,-0.2],[-0.125,-0.2]]",-0.077777792,-0.161111125,1,0,0,1.2169,o2_image,518.012,1,518.5115,518.5116,520.5112,0,0,0,0,1,,,,,,,,,,,,,,,,,,,,,,,,,,,,,,,,,,,,,,,,,,,,,,,,,,
,,5fb6d9267fe54f14f515bcf1,31,female,2024-04-16_13h26.26.205,stockport_simplified,2022.2.4,Win32,59.88023952,661e456ee6de07e70aa9ef7b,661e51372a1676097f2f0a92,,,,,,,,,,,,,,,,,,,,,,,,,,,,,,,,,,,,,,,,,,,,,,,,,,,,,,,,1,33,93,15,1,B,Y,N,o2_image,stimuli/out2.png,stimuli/out1.png,stimuli/correct_out2.png,,,,,,,,,,,,,,,,,,,,,,,,,,,,,,,,,,,,,,
,,5fb6d9267fe54f14f515bcf1,31,female,2024-04-16_13h26.26.205,stockport_simplified,2022.2.4,Win32,59.88023952,661e456ee6de07e70aa9ef7b,661e51372a1676097f2f0a92,,,,,,,,,,,,,,,,,,,,,,,,,,,,,,,,,,520.5115,522.5447,"[1,7,2,8,5,4,3,6]","[[-0.3,0.2],[0.3,0.2]]","[[-0.125,-0.2],[0.125,-0.2]]",0.194444444,-0.161111125,1,0,0,1.5167,o2_image,522.5451,1,523.0447,523.0447,525.0447,0,0,0,0,1,,,,,,,,,,,,,,,,,,,,,,,,,,,,,,,,,,,,,,,,,,,,,,,,,,
,,5fb6d9267fe54f14f515bcf1,31,female,2024-04-16_13h26.26.205,stockport_simplified,2022.2.4,Win32,59.88023952,661e456ee6de07e70aa9ef7b,661e51372a1676097f2f0a92,,,,,,,,,,,,,,,,,,,,,,,,,,,,,,,,,,,,,,,,,,,,,,,,,,,,,,,,1,34,94,47,1,B,Y,N,o2_image,stimuli/out2.png,stimuli/out1.png,stimuli/correct_out2.png,,,,,,,,,,,,,,,,,,,,,,,,,,,,,,,,,,,,,,
,,5fb6d9267fe54f14f515bcf1,31,female,2024-04-16_13h26.26.205,stockport_simplified,2022.2.4,Win32,59.88023952,661e456ee6de07e70aa9ef7b,661e51372a1676097f2f0a92,,,,,,,,,,,,,,,,,,,,,,,,,,,,,,,,,,525.0449,526.7783,"[1,7,2,8,5,4,3,6]","[[0.3,0.2],[-0.3,0.2]]","[[-0.125,-0.2],[0.125,-0.2]]",-0.083333333,-0.154629672,1,0,0,1.2167,o1_image,526.7788,1,527.2783,527.2784,529.2783,0,0,0,0,1,,,,,,,,,,,,,,,,,,,,,,,,,,,,,,,,,,,,,,,,,,,,,,,,,,
,,5fb6d9267fe54f14f515bcf1,31,female,2024-04-16_13h26.26.205,stockport_simplified,2022.2.4,Win32,59.88023952,661e456ee6de07e70aa9ef7b,661e51372a1676097f2f0a92,,,,,,,,,,,,,,,,,,,,,,,,,,,,,,,,,,,,,,,,,,,,,,,,,,,,,,,,1,35,95,5,1,A,Y,N,o1_image,stimuli/out1.png,stimuli/correct_out1.png,stimuli/out2.png,,,,,,,,,,,,,,,,,,,,,,,,,,,,,,,,,,,,,,
,,5fb6d9267fe54f14f515bcf1,31,female,2024-04-16_13h26.26.205,stockport_simplified,2022.2.4,Win32,59.88023952,661e456ee6de07e70aa9ef7b,661e51372a1676097f2f0a92,,,,,,,,,,,,,,,,,,,,,,,,,,,,,,,,,,529.2788,530.6949,"[1,7,2,8,5,4,3,6]","[[-0.3,0.2],[0.3,0.2]]","[[-0.125,-0.2],[0.125,-0.2]]",-0.068518533,-0.155555584,1,0,0,0.899700001,o1_image,530.6954,1,531.1949,531.1949,533.1951,0,0,0,0,1,,,,,,,,,,,,,,,,,,,,,,,,,,,,,,,,,,,,,,,,,,,,,,,,,,
,,5fb6d9267fe54f14f515bcf1,31,female,2024-04-16_13h26.26.205,stockport_simplified,2022.2.4,Win32,59.88023952,661e456ee6de07e70aa9ef7b,661e51372a1676097f2f0a92,,,,,,,,,,,,,,,,,,,,,,,,,,,,,,,,,,,,,,,,,,,,,,,,,,,,,,,,1,36,96,54,1,N,M,C,o1_image,stimuli/out1.png,stimuli/correct_out1.png,stimuli/out2.png,,,,,,,,,,,,,,,,,,,,,,,,,,,,,,,,,,,,,,
,,5fb6d9267fe54f14f515bcf1,31,female,2024-04-16_13h26.26.205,stockport_simplified,2022.2.4,Win32,59.88023952,661e456ee6de07e70aa9ef7b,661e51372a1676097f2f0a92,,,,,,,,,,,,,,,,,,,,,,,,,,,,,,,,,,533.1954,534.8618,"[1,7,2,8,5,4,3,6]","[[0.3,0.2],[-0.3,0.2]]","[[0.125,-0.2],[-0.125,-0.2]]",-0.10092594,-0.163888931,1,0,0,1.1501,o2_image,534.8624,1,535.3652,535.3652,537.365,0,0,0,0,1,,,,,,,,,,,,,,,,,,,,,,,,,,,,,,,,,,,,,,,,,,,,,,,,,,
,,5fb6d9267fe54f14f515bcf1,31,female,2024-04-16_13h26.26.205,stockport_simplified,2022.2.4,Win32,59.88023952,661e456ee6de07e70aa9ef7b,661e51372a1676097f2f0a92,,,,,,,,,,,,,,,,,,,,,,,,,,,,,,,,,,,,,,,,,,,,,,,,,,,,,,,,1,37,97,28,1,N,M,D,o2_image,stimuli/out2.png,stimuli/out1.png,stimuli/correct_out2.png,,,,,,,,,,,,,,,,,,,,,,,,,,,,,,,,,,,,,,
,,5fb6d9267fe54f14f515bcf1,31,female,2024-04-16_13h26.26.205,stockport_simplified,2022.2.4,Win32,59.88023952,661e456ee6de07e70aa9ef7b,661e51372a1676097f2f0a92,,,,,,,,,,,,,,,,,,,,,,,,,,,,,,,,,,537.3654,538.9984,"[1,7,2,8,5,4,3,6]","[[-0.3,0.2],[0.3,0.2]]","[[0.125,-0.2],[-0.125,-0.2]]",-0.10555557,-0.200925968,1,0,0,1.1197,o2_image,538.9989,1,539.4951,539.4951,541.4954,0,0,0,0,1,,,,,,,,,,,,,,,,,,,,,,,,,,,,,,,,,,,,,,,,,,,,,,,,,,
,,5fb6d9267fe54f14f515bcf1,31,female,2024-04-16_13h26.26.205,stockport_simplified,2022.2.4,Win32,59.88023952,661e456ee6de07e70aa9ef7b,661e51372a1676097f2f0a92,,,,,,,,,,,,,,,,,,,,,,,,,,,,,,,,,,,,,,,,,,,,,,,,,,,,,,,,1,38,98,18,1,B,Y,N,o2_image,stimuli/out2.png,stimuli/out1.png,stimuli/correct_out2.png,,,,,,,,,,,,,,,,,,,,,,,,,,,,,,,,,,,,,,
,,5fb6d9267fe54f14f515bcf1,31,female,2024-04-16_13h26.26.205,stockport_simplified,2022.2.4,Win32,59.88023952,661e456ee6de07e70aa9ef7b,661e51372a1676097f2f0a92,,,,,,,,,,,,,,,,,,,,,,,,,,,,,,,,,,541.4957,542.8454,"[1,7,2,8,5,4,3,6]","[[0.3,0.2],[-0.3,0.2]]","[[0.125,-0.2],[-0.125,-0.2]]",-0.106481481,-0.200925968,1,0,0,0.8328,o2_image,542.8461,1,543.3454,543.3454,545.3454,0,0,0,0,1,,,,,,,,,,,,,,,,,,,,,,,,,,,,,,,,,,,,,,,,,,,,,,,,,,
,,5fb6d9267fe54f14f515bcf1,31,female,2024-04-16_13h26.26.205,stockport_simplified,2022.2.4,Win32,59.88023952,661e456ee6de07e70aa9ef7b,661e51372a1676097f2f0a92,,,,,,,,,,,,,,,,,,,,,,,,,,,,,,,,,,,,,,,,,,,,,,,,,,,,,,,,1,39,99,26,1,N,M,D,o2_image,stimuli/out2.png,stimuli/out1.png,stimuli/correct_out2.png,,,,,,,,,,,,,,,,,,,,,,,,,,,,,,,,,,,,,,
,,5fb6d9267fe54f14f515bcf1,31,female,2024-04-16_13h26.26.205,stockport_simplified,2022.2.4,Win32,59.88023952,661e456ee6de07e70aa9ef7b,661e51372a1676097f2f0a92,,,,,,,,,,,,,,,,,,,,,,,,,,,,,,,,,,545.3458,546.3788,"[1,7,2,8,5,4,3,6]","[[0.3,0.2],[-0.3,0.2]]","[[0.125,-0.2],[-0.125,-0.2]]",-0.106481481,-0.200925968,1,0,0,0.5166,o2_image,546.3795,1,546.8804,546.8804,548.8789,0,0,0,0,1,,,,,,,,,,,,,,,,,,,,,,,,,,,,,,,,,,,,,,,,,,,,,,,,,,
,,5fb6d9267fe54f14f515bcf1,31,female,2024-04-16_13h26.26.205,stockport_simplified,2022.2.4,Win32,59.88023952,661e456ee6de07e70aa9ef7b,661e51372a1676097f2f0a92,,,,,,,,,,,,,,,,,,,,,,,,,,,,,,,,,,,,,,,,,,,,,,,,,,,,,,,,1,40,100,57,1,N,M,D,o2_image,stimuli/out2.png,stimuli/out1.png,stimuli/correct_out2.png,,,,,,,,,,,,,,,,,,,,,,,,,,,,,,,,,,,,,,
,,5fb6d9267fe54f14f515bcf1,31,female,2024-04-16_13h26.26.205,stockport_simplified,2022.2.4,Win32,59.88023952,661e456ee6de07e70aa9ef7b,661e51372a1676097f2f0a92,,,,,,,,,,,,,,,,,,,,,,,,,,,,,,,,,,548.8793,550.5122,"[1,7,2,8,5,4,3,6]","[[-0.3,0.2],[0.3,0.2]]","[[-0.125,-0.2],[0.125,-0.2]]",-0.106481481,-0.213888875,1,0,0,1.113799999,o1_image,550.5129,1,551.0122,551.0122,553.0122,0,0,0,0,1,,,,,,,,,,,,,,,,,,,,,,,,,,,,,,,,,,,,,,,,,,,,,,,,,,
,,5fb6d9267fe54f14f515bcf1,31,female,2024-04-16_13h26.26.205,stockport_simplified,2022.2.4,Win32,59.88023952,661e456ee6de07e70aa9ef7b,661e51372a1676097f2f0a92,,,,,,,,,,,,,,,,,,,,,,,,,,,,,,,,,,,,,,,,,,,,,,,,,,,,,,,,1,41,101,9,1,A,Y,N,o1_image,stimuli/out1.png,stimuli/correct_out1.png,stimuli/out2.png,,,,,,,,,,,,,,,,,,,,,,,,,,,,,,,,,,,,,,
,,5fb6d9267fe54f14f515bcf1,31,female,2024-04-16_13h26.26.205,stockport_simplified,2022.2.4,Win32,59.88023952,661e456ee6de07e70aa9ef7b,661e51372a1676097f2f0a92,,,,,,,,,,,,,,,,,,,,,,,,,,,,,,,,,,553.0126,555.0957,"[1,7,2,8,5,4,3,6]","[[0.3,0.2],[-0.3,0.2]]","[[0.125,-0.2],[-0.125,-0.2]]",-0.093518504,-0.214814857,1,0,0,1.5662,o2_image,555.0963,1,555.5957,555.5957,557.5957,0,0,0,0,1,,,,,,,,,,,,,,,,,,,,,,,,,,,,,,,,,,,,,,,,,,,,,,,,,,
,,5fb6d9267fe54f14f515bcf1,31,female,2024-04-16_13h26.26.205,stockport_simplified,2022.2.4,Win32,59.88023952,661e456ee6de07e70aa9ef7b,661e51372a1676097f2f0a92,,,,,,,,,,,,,,,,,,,,,,,,,,,,,,,,,,,,,,,,,,,,,,,,,,,,,,,,1,42,102,13,1,B,X,N,o2_image,stimuli/out2.png,stimuli/out1.png,stimuli/correct_out2.png,,,,,,,,,,,,,,,,,,,,,,,,,,,,,,,,,,,,,,
,,5fb6d9267fe54f14f515bcf1,31,female,2024-04-16_13h26.26.205,stockport_simplified,2022.2.4,Win32,59.88023952,661e456ee6de07e70aa9ef7b,661e51372a1676097f2f0a92,,,,,,,,,,,,,,,,,,,,,,,,,,,,,,,,,,557.596,559.2963,"[1,7,2,8,5,4,3,6]","[[0.3,0.2],[-0.3,0.2]]","[[-0.125,-0.2],[0.125,-0.2]]",-0.083333333,-0.215740769,1,0,0,1.1835,o1_image,559.2972,1,559.7958,559.7958,561.7959,0,0,0,0,1,,,,,,,,,,,,,,,,,,,,,,,,,,,,,,,,,,,,,,,,,,,,,,,,,,
,,5fb6d9267fe54f14f515bcf1,31,female,2024-04-16_13h26.26.205,stockport_simplified,2022.2.4,Win32,59.88023952,661e456ee6de07e70aa9ef7b,661e51372a1676097f2f0a92,,,,,,,,,,,,,,,,,,,,,,,,,,,,,,,,,,,,,,,,,,,,,,,,,,,,,,,,1,43,103,32,1,A,X,N,o1_image,stimuli/out1.png,stimuli/correct_out1.png,stimuli/out2.png,,,,,,,,,,,,,,,,,,,,,,,,,,,,,,,,,,,,,,
,,5fb6d9267fe54f14f515bcf1,31,female,2024-04-16_13h26.26.205,stockport_simplified,2022.2.4,Win32,59.88023952,661e456ee6de07e70aa9ef7b,661e51372a1676097f2f0a92,,,,,,,,,,,,,,,,,,,,,,,,,,,,,,,,,,561.7963,564.7627,"[1,7,2,8,5,4,3,6]","[[0.3,0.2],[-0.3,0.2]]","[[-0.125,-0.2],[0.125,-0.2]]",0.150925954,-0.233333376,1,0,0,2.4497,o2_image,564.7691,1,565.2628,565.2628,567.2624,0,0,0,0,1,,,,,,,,,,,,,,,,,,,,,,,,,,,,,,,,,,,,,,,,,,,,,,,,,,
,,5fb6d9267fe54f14f515bcf1,31,female,2024-04-16_13h26.26.205,stockport_simplified,2022.2.4,Win32,59.88023952,661e456ee6de07e70aa9ef7b,661e51372a1676097f2f0a92,,,,,,,,,,,,,,,,,,,,,,,,,,,,,,,,,,,,,,,,,,,,,,,,,,,,,,,,1,44,104,40,1,B,X,N,o2_image,stimuli/out2.png,stimuli/out1.png,stimuli/correct_out2.png,,,,,,,,,,,,,,,,,,,,,,,,,,,,,,,,,,,,,,
,,5fb6d9267fe54f14f515bcf1,31,female,2024-04-16_13h26.26.205,stockport_simplified,2022.2.4,Win32,59.88023952,661e456ee6de07e70aa9ef7b,661e51372a1676097f2f0a92,,,,,,,,,,,,,,,,,,,,,,,,,,,,,,,,,,567.2626,568.6958,"[1,7,2,8,5,4,3,6]","[[-0.3,0.2],[0.3,0.2]]","[[-0.125,-0.2],[0.125,-0.2]]",0.111111111,-0.237037023,1,0,0,0.916400001,o2_image,568.6962,1,569.196,569.1961,571.1959,0,0,0,0,1,,,,,,,,,,,,,,,,,,,,,,,,,,,,,,,,,,,,,,,,,,,,,,,,,,
,,5fb6d9267fe54f14f515bcf1,31,female,2024-04-16_13h26.26.205,stockport_simplified,2022.2.4,Win32,59.88023952,661e456ee6de07e70aa9ef7b,661e51372a1676097f2f0a92,,,,,,,,,,,,,,,,,,,,,,,,,,,,,,,,,,,,,,,,,,,,,,,,,,,,,,,,1,45,105,59,1,N,M,D,o2_image,stimuli/out2.png,stimuli/out1.png,stimuli/correct_out2.png,,,,,,,,,,,,,,,,,,,,,,,,,,,,,,,,,,,,,,
,,5fb6d9267fe54f14f515bcf1,31,female,2024-04-16_13h26.26.205,stockport_simplified,2022.2.4,Win32,59.88023952,661e456ee6de07e70aa9ef7b,661e51372a1676097f2f0a92,,,,,,,,,,,,,,,,,,,,,,,,,,,,,,,,,,571.1962,572.8293,"[1,7,2,8,5,4,3,6]","[[0.3,0.2],[-0.3,0.2]]","[[0.125,-0.2],[-0.125,-0.2]]",-0.090740698,-0.228703746,1,0,0,1.116700001,o2_image,572.8297,1,573.3293,573.3293,575.3294,0,0,0,0,1,,,,,,,,,,,,,,,,,,,,,,,,,,,,,,,,,,,,,,,,,,,,,,,,,,
,,5fb6d9267fe54f14f515bcf1,31,female,2024-04-16_13h26.26.205,stockport_simplified,2022.2.4,Win32,59.88023952,661e456ee6de07e70aa9ef7b,661e51372a1676097f2f0a92,,,,,,,,,,,,,,,,,,,,,,,,,,,,,,,,,,,,,,,,,,,,,,,,,,,,,,,,1,46,106,58,1,N,M,D,o2_image,stimuli/out2.png,stimuli/out1.png,stimuli/correct_out2.png,,,,,,,,,,,,,,,,,,,,,,,,,,,,,,,,,,,,,,
,,5fb6d9267fe54f14f515bcf1,31,female,2024-04-16_13h26.26.205,stockport_simplified,2022.2.4,Win32,59.88023952,661e456ee6de07e70aa9ef7b,661e51372a1676097f2f0a92,,,,,,,,,,,,,,,,,,,,,,,,,,,,,,,,,,575.3296,577.096,"[1,7,2,8,5,4,3,6]","[[0.3,0.2],[-0.3,0.2]]","[[-0.125,-0.2],[0.125,-0.2]]",-0.078703704,-0.194444444,1,0,0,1.2496,o1_image,577.0966,1,577.5963,577.5963,579.5962,0,0,0,0,1,,,,,,,,,,,,,,,,,,,,,,,,,,,,,,,,,,,,,,,,,,,,,,,,,,
,,5fb6d9267fe54f14f515bcf1,31,female,2024-04-16_13h26.26.205,stockport_simplified,2022.2.4,Win32,59.88023952,661e456ee6de07e70aa9ef7b,661e51372a1676097f2f0a92,,,,,,,,,,,,,,,,,,,,,,,,,,,,,,,,,,,,,,,,,,,,,,,,,,,,,,,,1,47,107,8,1,A,Y,N,o1_image,stimuli/out1.png,stimuli/correct_out1.png,stimuli/out2.png,,,,,,,,,,,,,,,,,,,,,,,,,,,,,,,,,,,,,,
,,5fb6d9267fe54f14f515bcf1,31,female,2024-04-16_13h26.26.205,stockport_simplified,2022.2.4,Win32,59.88023952,661e456ee6de07e70aa9ef7b,661e51372a1676097f2f0a92,,,,,,,,,,,,,,,,,,,,,,,,,,,,,,,,,,579.5964,581.613,"[1,7,2,8,5,4,3,6]","[[-0.3,0.2],[0.3,0.2]]","[[0.125,-0.2],[-0.125,-0.2]]",-0.074074074,-0.203703704,1,0,0,1.4998,o2_image,581.6135,1,582.1128,582.1129,584.1129,0,0,0,0,1,,,,,,,,,,,,,,,,,,,,,,,,,,,,,,,,,,,,,,,,,,,,,,,,,,
,,5fb6d9267fe54f14f515bcf1,31,female,2024-04-16_13h26.26.205,stockport_simplified,2022.2.4,Win32,59.88023952,661e456ee6de07e70aa9ef7b,661e51372a1676097f2f0a92,,,,,,,,,,,,,,,,,,,,,,,,,,,,,,,,,,,,,,,,,,,,,,,,,,,,,,,,1,48,108,44,1,B,X,N,o2_image,stimuli/out2.png,stimuli/out1.png,stimuli/correct_out2.png,,,,,,,,,,,,,,,,,,,,,,,,,,,,,,,,,,,,,,
,,5fb6d9267fe54f14f515bcf1,31,female,2024-04-16_13h26.26.205,stockport_simplified,2022.2.4,Win32,59.88023952,661e456ee6de07e70aa9ef7b,661e51372a1676097f2f0a92,,,,,,,,,,,,,,,,,,,,,,,,,,,,,,,,,,584.1132,585.7632,"[1,7,2,8,5,4,3,6]","[[-0.3,0.2],[0.3,0.2]]","[[-0.125,-0.2],[0.125,-0.2]]",0.135185171,-0.217592593,1,0,0,1.133299999,o2_image,585.7638,1,586.2668,586.2668,588.2663,0,0,0,0,1,,,,,,,,,,,,,,,,,,,,,,,,,,,,,,,,,,,,,,,,,,,,,,,,,,
,,5fb6d9267fe54f14f515bcf1,31,female,2024-04-16_13h26.26.205,stockport_simplified,2022.2.4,Win32,59.88023952,661e456ee6de07e70aa9ef7b,661e51372a1676097f2f0a92,,,,,,,,,,,,,,,,,,,,,,,,,,,,,,,,,,,,,,,,,,,,,,,,,,,,,,,,1,49,109,25,1,N,M,D,o2_image,stimuli/out2.png,stimuli/out1.png,stimuli/correct_out2.png,,,,,,,,,,,,,,,,,,,,,,,,,,,,,,,,,,,,,,
,,5fb6d9267fe54f14f515bcf1,31,female,2024-04-16_13h26.26.205,stockport_simplified,2022.2.4,Win32,59.88023952,661e456ee6de07e70aa9ef7b,661e51372a1676097f2f0a92,,,,,,,,,,,,,,,,,,,,,,,,,,,,,,,,,,588.2666,589.6667,"[1,7,2,8,5,4,3,6]","[[-0.3,0.2],[0.3,0.2]]","[[0.125,-0.2],[-0.125,-0.2]]",-0.14444443,-0.178703732,1,0,0,0.8846,o2_image,589.6672,1,590.1634,590.1634,592.1633,0,0,0,0,1,,,,,,,,,,,,,,,,,,,,,,,,,,,,,,,,,,,,,,,,,,,,,,,,,,
,,5fb6d9267fe54f14f515bcf1,31,female,2024-04-16_13h26.26.205,stockport_simplified,2022.2.4,Win32,59.88023952,661e456ee6de07e70aa9ef7b,661e51372a1676097f2f0a92,,,,,,,,,,,,,,,,,,,,,,,,,,,,,,,,,,,,,,,,,,,,,,,,,,,,,,,,1,50,110,56,1,N,M,D,o2_image,stimuli/out2.png,stimuli/out1.png,stimuli/correct_out2.png,,,,,,,,,,,,,,,,,,,,,,,,,,,,,,,,,,,,,,
,,5fb6d9267fe54f14f515bcf1,31,female,2024-04-16_13h26.26.205,stockport_simplified,2022.2.4,Win32,59.88023952,661e456ee6de07e70aa9ef7b,661e51372a1676097f2f0a92,,,,,,,,,,,,,,,,,,,,,,,,,,,,,,,,,,592.1637,593.8968,"[1,7,2,8,5,4,3,6]","[[0.3,0.2],[-0.3,0.2]]","[[-0.125,-0.2],[0.125,-0.2]]",0.104629658,-0.173148191,1,0,0,1.2164,o2_image,593.8973,1,594.3966,594.3966,596.3967,0,0,0,0,1,,,,,,,,,,,,,,,,,,,,,,,,,,,,,,,,,,,,,,,,,,,,,,,,,,
,,5fb6d9267fe54f14f515bcf1,31,female,2024-04-16_13h26.26.205,stockport_simplified,2022.2.4,Win32,59.88023952,661e456ee6de07e70aa9ef7b,661e51372a1676097f2f0a92,,,,,,,,,,,,,,,,,,,,,,,,,,,,,,,,,,,,,,,,,,,,,,,,,,,,,,,,1,51,111,42,1,B,X,N,o2_image,stimuli/out2.png,stimuli/out1.png,stimuli/correct_out2.png,,,,,,,,,,,,,,,,,,,,,,,,,,,,,,,,,,,,,,
,,5fb6d9267fe54f14f515bcf1,31,female,2024-04-16_13h26.26.205,stockport_simplified,2022.2.4,Win32,59.88023952,661e456ee6de07e70aa9ef7b,661e51372a1676097f2f0a92,,,,,,,,,,,,,,,,,,,,,,,,,,,,,,,,,,596.3971,597.7966,"[1,7,2,8,5,4,3,6]","[[-0.3,0.2],[0.3,0.2]]","[[-0.125,-0.2],[0.125,-0.2]]",-0.09629631,-0.215740769,1,0,0,0.883,o1_image,597.7971,1,598.3004,598.3004,600.2968,0,0,0,0,1,,,,,,,,,,,,,,,,,,,,,,,,,,,,,,,,,,,,,,,,,,,,,,,,,,
,,5fb6d9267fe54f14f515bcf1,31,female,2024-04-16_13h26.26.205,stockport_simplified,2022.2.4,Win32,59.88023952,661e456ee6de07e70aa9ef7b,661e51372a1676097f2f0a92,,,,,,,,,,,,,,,,,,,,,,,,,,,,,,,,,,,,,,,,,,,,,,,,,,,,,,,,1,52,112,23,1,N,M,C,o1_image,stimuli/out1.png,stimuli/correct_out1.png,stimuli/out2.png,,,,,,,,,,,,,,,,,,,,,,,,,,,,,,,,,,,,,,
,,5fb6d9267fe54f14f515bcf1,31,female,2024-04-16_13h26.26.205,stockport_simplified,2022.2.4,Win32,59.88023952,661e456ee6de07e70aa9ef7b,661e51372a1676097f2f0a92,,,,,,,,,,,,,,,,,,,,,,,,,,,,,,,,,,600.2971,602.0974,"[1,7,2,8,5,4,3,6]","[[0.3,0.2],[-0.3,0.2]]","[[0.125,-0.2],[-0.125,-0.2]]",-0.204629616,-0.213888875,1,0,0,1.2998,o2_image,602.0982,1,602.5968,602.5969,604.5968,0,0,0,0,1,,,,,,,,,,,,,,,,,,,,,,,,,,,,,,,,,,,,,,,,,,,,,,,,,,
,,5fb6d9267fe54f14f515bcf1,31,female,2024-04-16_13h26.26.205,stockport_simplified,2022.2.4,Win32,59.88023952,661e456ee6de07e70aa9ef7b,661e51372a1676097f2f0a92,,,,,,,,,,,,,,,,,,,,,,,,,,,,,,,,,,,,,,,,,,,,,,,,,,,,,,,,1,53,113,19,1,B,Y,N,o2_image,stimuli/out2.png,stimuli/out1.png,stimuli/correct_out2.png,,,,,,,,,,,,,,,,,,,,,,,,,,,,,,,,,,,,,,
,,5fb6d9267fe54f14f515bcf1,31,female,2024-04-16_13h26.26.205,stockport_simplified,2022.2.4,Win32,59.88023952,661e456ee6de07e70aa9ef7b,661e51372a1676097f2f0a92,,,,,,,,,,,,,,,,,,,,,,,,,,,,,,,,,,604.5971,606.5303,"[1,7,2,8,5,4,3,6]","[[-0.3,0.2],[0.3,0.2]]","[[0.125,-0.2],[-0.125,-0.2]]",-0.10092594,-0.195370356,1,0,0,1.4168,o2_image,606.5308,1,607.0303,607.0303,609.0307,0,0,0,0,1,,,,,,,,,,,,,,,,,,,,,,,,,,,,,,,,,,,,,,,,,,,,,,,,,,
,,5fb6d9267fe54f14f515bcf1,31,female,2024-04-16_13h26.26.205,stockport_simplified,2022.2.4,Win32,59.88023952,661e456ee6de07e70aa9ef7b,661e51372a1676097f2f0a92,,,,,,,,,,,,,,,,,,,,,,,,,,,,,,,,,,,,,,,,,,,,,,,,,,,,,,,,1,54,114,16,1,B,Y,N,o2_image,stimuli/out2.png,stimuli/out1.png,stimuli/correct_out2.png,,,,,,,,,,,,,,,,,,,,,,,,,,,,,,,,,,,,,,
,,5fb6d9267fe54f14f515bcf1,31,female,2024-04-16_13h26.26.205,stockport_simplified,2022.2.4,Win32,59.88023952,661e456ee6de07e70aa9ef7b,661e51372a1676097f2f0a92,,,,,,,,,,,,,,,,,,,,,,,,,,,,,,,,,,609.0311,610.7304,"[1,7,2,8,5,4,3,6]","[[-0.3,0.2],[0.3,0.2]]","[[-0.125,-0.2],[0.125,-0.2]]",-0.113888847,-0.202777792,1,0,0,1.1829,o1_image,610.7309,1,611.2306,611.2306,613.2306,0,0,0,0,1,,,,,,,,,,,,,,,,,,,,,,,,,,,,,,,,,,,,,,,,,,,,,,,,,,
,,5fb6d9267fe54f14f515bcf1,31,female,2024-04-16_13h26.26.205,stockport_simplified,2022.2.4,Win32,59.88023952,661e456ee6de07e70aa9ef7b,661e51372a1676097f2f0a92,,,,,,,,,,,,,,,,,,,,,,,,,,,,,,,,,,,,,,,,,,,,,,,,,,,,,,,,1,55,115,31,1,A,X,N,o1_image,stimuli/out1.png,stimuli/correct_out1.png,stimuli/out2.png,,,,,,,,,,,,,,,,,,,,,,,,,,,,,,,,,,,,,,
,,5fb6d9267fe54f14f515bcf1,31,female,2024-04-16_13h26.26.205,stockport_simplified,2022.2.4,Win32,59.88023952,661e456ee6de07e70aa9ef7b,661e51372a1676097f2f0a92,,,,,,,,,,,,,,,,,,,,,,,,,,,,,,,,,,613.2309,614.5642,"[1,7,2,8,5,4,3,6]","[[0.3,0.2],[-0.3,0.2]]","[[-0.125,-0.2],[0.125,-0.2]]",-0.099074046,-0.20185188,1,0,0,0.8325,o1_image,614.565,1,615.064,615.0641,617.064,0,0,0,0,1,,,,,,,,,,,,,,,,,,,,,,,,,,,,,,,,,,,,,,,,,,,,,,,,,,
,,5fb6d9267fe54f14f515bcf1,31,female,2024-04-16_13h26.26.205,stockport_simplified,2022.2.4,Win32,59.88023952,661e456ee6de07e70aa9ef7b,661e51372a1676097f2f0a92,,,,,,,,,,,,,,,,,,,,,,,,,,,,,,,,,,,,,,,,,,,,,,,,,,,,,,,,1,56,116,50,1,N,M,C,o1_image,stimuli/out1.png,stimuli/correct_out1.png,stimuli/out2.png,,,,,,,,,,,,,,,,,,,,,,,,,,,,,,,,,,,,,,
,,5fb6d9267fe54f14f515bcf1,31,female,2024-04-16_13h26.26.205,stockport_simplified,2022.2.4,Win32,59.88023952,661e456ee6de07e70aa9ef7b,661e51372a1676097f2f0a92,,,,,,,,,,,,,,,,,,,,,,,,,,,,,,,,,,617.0644,619.6307,"[1,7,2,8,5,4,3,6]","[[0.3,0.2],[-0.3,0.2]]","[[0.125,-0.2],[-0.125,-0.2]]",0.226851852,-0.222222222,1,0,0,1.4328,o1_image,619.6313,1,620.131,620.131,622.1309,0,0,0,0,1,,,,,,,,,,,,,,,,,,,,,,,,,,,,,,,,,,,,,,,,,,,,,,,,,,
,,5fb6d9267fe54f14f515bcf1,31,female,2024-04-16_13h26.26.205,stockport_simplified,2022.2.4,Win32,59.88023952,661e456ee6de07e70aa9ef7b,661e51372a1676097f2f0a92,,,,,,,,,,,,,,,,,,,,,,,,,,,,,,,,,,,,,,,,,,,,,,,,,,,,,,,,1,57,117,1,1,A,X,N,o1_image,stimuli/out1.png,stimuli/correct_out1.png,stimuli/out2.png,,,,,,,,,,,,,,,,,,,,,,,,,,,,,,,,,,,,,,
,,5fb6d9267fe54f14f515bcf1,31,female,2024-04-16_13h26.26.205,stockport_simplified,2022.2.4,Win32,59.88023952,661e456ee6de07e70aa9ef7b,661e51372a1676097f2f0a92,,,,,,,,,,,,,,,,,,,,,,,,,,,,,,,,,,622.1314,623.5979,"[1,7,2,8,5,4,3,6]","[[-0.3,0.2],[0.3,0.2]]","[[-0.125,-0.2],[0.125,-0.2]]",-0.047222208,-0.219444487,1,0,0,0.9502,o1_image,623.5983,1,624.0975,624.0975,626.1005,0,0,0,0,1,,,,,,,,,,,,,,,,,,,,,,,,,,,,,,,,,,,,,,,,,,,,,,,,,,
,,5fb6d9267fe54f14f515bcf1,31,female,2024-04-16_13h26.26.205,stockport_simplified,2022.2.4,Win32,59.88023952,661e456ee6de07e70aa9ef7b,661e51372a1676097f2f0a92,,,,,,,,,,,,,,,,,,,,,,,,,,,,,,,,,,,,,,,,,,,,,,,,,,,,,,,,1,58,118,3,1,A,X,N,o1_image,stimuli/out1.png,stimuli/correct_out1.png,stimuli/out2.png,,,,,,,,,,,,,,,,,,,,,,,,,,,,,,,,,,,,,,
,,5fb6d9267fe54f14f515bcf1,31,female,2024-04-16_13h26.26.205,stockport_simplified,2022.2.4,Win32,59.88023952,661e456ee6de07e70aa9ef7b,661e51372a1676097f2f0a92,,,,,,,,,,,,,,,,,,,,,,,,,,,,,,,,,,626.1007,627.6309,"[1,7,2,8,5,4,3,6]","[[-0.3,0.2],[0.3,0.2]]","[[0.125,-0.2],[-0.125,-0.2]]",0.175000014,-0.187962991,1,0,0,1.0163,o1_image,627.6312,1,628.1308,628.1308,630.131,0,0,0,0,1,,,,,,,,,,,,,,,,,,,,,,,,,,,,,,,,,,,,,,,,,,,,,,,,,,
,,5fb6d9267fe54f14f515bcf1,31,female,2024-04-16_13h26.26.205,stockport_simplified,2022.2.4,Win32,59.88023952,661e456ee6de07e70aa9ef7b,661e51372a1676097f2f0a92,,,,,,,,,,,,,,,,,,,,,,,,,,,,,,,,,,,,,,,,,,,,,,,,,,,,,,,,1,59,119,51,1,N,M,C,o1_image,stimuli/out1.png,stimuli/correct_out1.png,stimuli/out2.png,,,,,,,,,,,,,,,,,,,,,,,,,,,,,,,,,,,,,,
,,5fb6d9267fe54f14f515bcf1,31,female,2024-04-16_13h26.26.205,stockport_simplified,2022.2.4,Win32,59.88023952,661e456ee6de07e70aa9ef7b,661e51372a1676097f2f0a92,,,,,,,,,,,,,,,,,,,,,,,,,,,,,,,,,,630.1411,631.931,"[1,7,2,8,5,4,3,6]","[[0.3,0.2],[-0.3,0.2]]","[[0.125,-0.2],[-0.125,-0.2]]",-0.103703675,-0.171296296,1,0,0,1.2828,o2_image,631.9319,1,632.4311,632.4311,634.4312,,,,,,,,,,,,,,,,,,0,0,0,0,1,,,,,,,,,,,,,,,,,,,,,,,,,,,,,,,,,
,,5fb6d9267fe54f14f515bcf1,31,female,2024-04-16_13h26.26.205,stockport_simplified,2022.2.4,Win32,59.88023952,661e456ee6de07e70aa9ef7b,661e51372a1676097f2f0a92,,,,,,,,,,,,,,,,,,,,,,,,,,,,,,,,,,,,,,,,,,,,,,,,,,,,,,,,,,,,,B,Y,N,o2_image,stimuli/out2.png,stimuli/out1.png,stimuli/correct_out2.png,,,,,,0,0,0,31,1,,,,,,,,,,,,,,,,,,,,,,,,,,,,
,,5fb6d9267fe54f14f515bcf1,31,female,2024-04-16_13h26.26.205,stockport_simplified,2022.2.4,Win32,59.88023952,661e456ee6de07e70aa9ef7b,661e51372a1676097f2f0a92,,,,,,,,,,,,,,,,,,,,,,,,,,,,,,,,,,634.432,636.4981,"[1,7,2,8,5,4,3,6]","[[0.3,0.2],[-0.3,0.2]]","[[0.125,-0.2],[-0.125,-0.2]]",0.071296339,-0.167592578,1,0,0,1.549900001,o1_image,636.4991,1,636.9979,636.9979,638.9982,,,,,,,,,,,,,,,,,,0,0,0,0,1,,,,,,,,,,,,,,,,,,,,,,,,,,,,,,,,,
,,5fb6d9267fe54f14f515bcf1,31,female,2024-04-16_13h26.26.205,stockport_simplified,2022.2.4,Win32,59.88023952,661e456ee6de07e70aa9ef7b,661e51372a1676097f2f0a92,,,,,,,,,,,,,,,,,,,,,,,,,,,,,,,,,,,,,,,,,,,,,,,,,,,,,,,,,,,,,A,Y,N,o1_image,stimuli/out1.png,stimuli/correct_out1.png,stimuli/out2.png,,,,,,0,1,1,16,1,,,,,,,,,,,,,,,,,,,,,,,,,,,,
,,5fb6d9267fe54f14f515bcf1,31,female,2024-04-16_13h26.26.205,stockport_simplified,2022.2.4,Win32,59.88023952,661e456ee6de07e70aa9ef7b,661e51372a1676097f2f0a92,,,,,,,,,,,,,,,,,,,,,,,,,,,,,,,,,,638.9985,642.3148,"[1,7,2,8,5,4,3,6]","[[0.3,0.2],[-0.3,0.2]]","[[-0.125,-0.2],[0.125,-0.2]]",-0.095370328,-0.164814843,1,0,0,2.8144,o1_image,642.321,1,642.8148,642.8148,644.8147,,,,,,,,,,,,,,,,,,0,0,0,0,1,,,,,,,,,,,,,,,,,,,,,,,,,,,,,,,,,
,,5fb6d9267fe54f14f515bcf1,31,female,2024-04-16_13h26.26.205,stockport_simplified,2022.2.4,Win32,59.88023952,661e456ee6de07e70aa9ef7b,661e51372a1676097f2f0a92,,,,,,,,,,,,,,,,,,,,,,,,,,,,,,,,,,,,,,,,,,,,,,,,,,,,,,,,,,,,,A,Y,N,o1_image,stimuli/out1.png,stimuli/correct_out1.png,stimuli/out2.png,,,,,,0,2,2,11,1,,,,,,,,,,,,,,,,,,,,,,,,,,,,
,,5fb6d9267fe54f14f515bcf1,31,female,2024-04-16_13h26.26.205,stockport_simplified,2022.2.4,Win32,59.88023952,661e456ee6de07e70aa9ef7b,661e51372a1676097f2f0a92,,,,,,,,,,,,,,,,,,,,,,,,,,,,,,,,,,644.8151,646.5015,"[1,7,2,8,5,4,3,6]","[[-0.3,0.2],[0.3,0.2]]","[[-0.125,-0.2],[0.125,-0.2]]",-0.081481439,-0.162037037,1,0,0,1.169900001,o1_image,646.502,0,647.001,647.001,649.0012,,,,,,,,,,,,,,,,,,0,0,0,0,1,,,,,,,,,,,,,,,,,,,,,,,,,,,,,,,,,
