counterbalance_2.started,counterbalance_2.stopped,participant,age,gender,date,expName,psychopyVersion,OS,frameRate,STUDY_ID,SESSION_ID,information_2.started,information_2.stopped,information_loop.thisRepN,information_loop.thisTrialN,information_loop.thisN,information_loop.thisIndex,information_loop.ran,information,consent_2.started,consent_2.stopped,slider_1.response,slider_2.response,slider_3.response,slider_4.response,slider_5.response,slider_6.response,instructions.started,instructions.stopped,task1_instr.thisRepN,task1_instr.thisTrialN,task1_instr.thisN,task1_instr.thisIndex,task1_instr.ran,task1,comprehension1_2.started,comprehension1_2.stopped,comp1_mouse.x,comp1_mouse.y,comp1_mouse.leftButton,comp1_mouse.midButton,comp1_mouse.rightButton,comp1_mouse.time,comp1_mouse.clicked_name,cue_o__trial_2.started,cue_o__trial_2.stopped,order,cue_order,out_order,cue_o_mouse.x,cue_o_mouse.y,cue_o_mouse.leftButton,cue_o_mouse.midButton,cue_o_mouse.rightButton,cue_o_mouse.time,cue_o_mouse.clicked_name,cue_selection_2.started,correct_answer,cue_selection_2.stopped,feedback_2.started,feedback_2.stopped,feedback_loop.thisRepN,feedback_loop.thisTrialN,feedback_loop.thisN,feedback_loop.thisIndex,feedback_loop.ran,stage1_trials.thisRepN,stage1_trials.thisTrialN,stage1_trials.thisN,stage1_trials.thisIndex,stage1_trials.ran,cue1,cue2,cue3,outcome,correct_out,o1_feedback,o2_feedback,stage2_feedback_loop.thisRepN,stage2_feedback_loop.thisTrialN,stage2_feedback_loop.thisN,stage2_feedback_loop.thisIndex,stage2_feedback_loop.ran,stage2_trials.thisRepN,stage2_trials.thisTrialN,stage2_trials.thisN,stage2_trials.thisIndex,stage2_trials.ran,stage3_feedback_loop.thisRepN,stage3_feedback_loop.thisTrialN,stage3_feedback_loop.thisN,stage3_feedback_loop.thisIndex,stage3_feedback_loop.ran,stage3_trials.thisRepN,stage3_trials.thisTrialN,stage3_trials.thisN,stage3_trials.thisIndex,stage3_trials.ran,debrief_2.started,debrief_2.stopped,debrief_loop.thisRepN,debrief_loop.thisTrialN,debrief_loop.thisN,debrief_loop.thisIndex,debrief_loop.ran,debrief_img,compr1_completed.thisRepN,compr1_completed.thisTrialN,compr1_completed.thisN,compr1_completed.thisIndex,compr1_completed.ran,consent_loop.thisRepN,consent_loop.thisTrialN,consent_loop.thisN,consent_loop.thisIndex,consent_loop.ran
0.0001,0.0003,66156b2dc0794709cb34b38b,34,male,2024-04-19_18h38.49.613,stockport_simplified,2022.2.4,MacIntel,119.047619,661e456ee6de07e70aa9ef7b,66229d9ed9bbb9183e1996bd,,,,,,,,,,,,,,,,,,,,,,,,,,,,,,,,,,,,,,,,,,,,,,,,,,,,,,,,,,,,,,,,,,,,,,,,,,,,,,,,,,,,,,,,,,,,,,,,,,,,,,,,,
,,66156b2dc0794709cb34b38b,34,male,2024-04-19_18h38.49.613,stockport_simplified,2022.2.4,MacIntel,119.047619,661e456ee6de07e70aa9ef7b,66229d9ed9bbb9183e1996bd,0.0096,43.5007,0,0,0,0,1,instructions/info1.png,,,,,,,,,,,,,,,,,,,,,,,,,,,,,,,,,,,,,,,,,,,,,,,,,,,,,,,,,,,,,,,,,,,,,,,,,,,,,,,,,,,,,,,,,,,,,,,,,
,,66156b2dc0794709cb34b38b,34,male,2024-04-19_18h38.49.613,stockport_simplified,2022.2.4,MacIntel,119.047619,661e456ee6de07e70aa9ef7b,66229d9ed9bbb9183e1996bd,43.5014,57.9582,0,1,1,1,1,instructions/info2.png,,,,,,,,,,,,,,,,,,,,,,,,,,,,,,,,,,,,,,,,,,,,,,,,,,,,,,,,,,,,,,,,,,,,,,,,,,,,,,,,,,,,,,,,,,,,,,,,,
,,66156b2dc0794709cb34b38b,34,male,2024-04-19_18h38.49.613,stockport_simplified,2022.2.4,MacIntel,119.047619,661e456ee6de07e70aa9ef7b,66229d9ed9bbb9183e1996bd,57.9709,92.6206,0,2,2,2,1,instructions/info3.png,,,,,,,,,,,,,,,,,,,,,,,,,,,,,,,,,,,,,,,,,,,,,,,,,,,,,,,,,,,,,,,,,,,,,,,,,,,,,,,,,,,,,,,,,,,,,,,,,
,,66156b2dc0794709cb34b38b,34,male,2024-04-19_18h38.49.613,stockport_simplified,2022.2.4,MacIntel,119.047619,661e456ee6de07e70aa9ef7b,66229d9ed9bbb9183e1996bd,,,,,,,,,92.6341,174.9368,1,1,1,1,1,1,,,,,,,,,,,,,,,,,,,,,,,,,,,,,,,,,,,,,,,,,,,,,,,,,,,,,,,,,,,,,,,,,,,,,,,,,,,,,,,,,,,,,,,,,
,,66156b2dc0794709cb34b38b,34,male,2024-04-19_18h38.49.613,stockport_simplified,2022.2.4,MacIntel,119.047619,661e456ee6de07e70aa9ef7b,66229d9ed9bbb9183e1996bd,,,,,,,,,,,,,,,,,174.9508,229.6403,0,0,0,0,1,instructions/task1_1.png,,,,,,,,,,,,,,,,,,,,,,,,,,,,,,,,,,,,,,,,,,,,,,,,,,,,,,,,,,,,,,,,,,,,,,,,,,,,,,,,,
,,66156b2dc0794709cb34b38b,34,male,2024-04-19_18h38.49.613,stockport_simplified,2022.2.4,MacIntel,119.047619,661e456ee6de07e70aa9ef7b,66229d9ed9bbb9183e1996bd,,,,,,,,,,,,,,,,,229.6517,269.4316,0,1,1,1,1,instructions/task1_2.png,,,,,,,,,,,,,,,,,,,,,,,,,,,,,,,,,,,,,,,,,,,,,,,,,,,,,,,,,,,,,,,,,,,,,,,,,,,,,,,,,
,,66156b2dc0794709cb34b38b,34,male,2024-04-19_18h38.49.613,stockport_simplified,2022.2.4,MacIntel,119.047619,661e456ee6de07e70aa9ef7b,66229d9ed9bbb9183e1996bd,,,,,,,,,,,,,,,,,269.4437,324.2563,0,2,2,2,1,instructions/task1_3.png,,,,,,,,,,,,,,,,,,,,,,,,,,,,,,,,,,,,,,,,,,,,,,,,,,,,,,,,,,,,,,,,,,,,,,,,,,,,,,,,,
,,66156b2dc0794709cb34b38b,34,male,2024-04-19_18h38.49.613,stockport_simplified,2022.2.4,MacIntel,119.047619,661e456ee6de07e70aa9ef7b,66229d9ed9bbb9183e1996bd,,,,,,,,,,,,,,,,,,,,,,,,,324.2571,355.9499,-0.163785549,-0.330700231,1,0,0,31.6921,comp1_resp1,355.9727,360.8568,"[1,7,3,4,8,6,5,2]","[[-0.3,0.2],[0.3,0.2]]","[[0.125,-0.2],[-0.125,-0.2]]",0.108143188,-0.176591435,1,0,0,4.3783,o1_image,360.8698,1,361.3685,361.3687,363.3642,0,0,0,0,1,,,,,,,,,,,,,,,,,,,,,,,,,,,,,,,,,,,,,,,,,,,,,,,,,,
,,66156b2dc0794709cb34b38b,34,male,2024-04-19_18h38.49.613,stockport_simplified,2022.2.4,MacIntel,119.047619,661e456ee6de07e70aa9ef7b,66229d9ed9bbb9183e1996bd,,,,,,,,,,,,,,,,,,,,,,,,,,,,,,,,,,,,,,,,,,,,,,,,,,,,,,,,0,0,0,34,1,A,X,N,o1_image,stimuli/out1.png,stimuli/correct_out1.png,stimuli/out2.png,,,,,,,,,,,,,,,,,,,,,,,,,,,,,,,,,,,,,,
,,66156b2dc0794709cb34b38b,34,male,2024-04-19_18h38.49.613,stockport_simplified,2022.2.4,MacIntel,119.047619,661e456ee6de07e70aa9ef7b,66229d9ed9bbb9183e1996bd,,,,,,,,,,,,,,,,,,,,,,,,,,,,,,,,,,363.3649,367.1321,"[1,7,3,4,8,6,5,2]","[[0.3,0.2],[-0.3,0.2]]","[[0.125,-0.2],[-0.125,-0.2]]",0.133833499,-0.189021164,1,0,0,3.2595,o1_image,367.1445,1,367.6391,367.6392,369.6394,0,0,0,0,1,,,,,,,,,,,,,,,,,,,,,,,,,,,,,,,,,,,,,,,,,,,,,,,,,,
,,66156b2dc0794709cb34b38b,34,male,2024-04-19_18h38.49.613,stockport_simplified,2022.2.4,MacIntel,119.047619,661e456ee6de07e70aa9ef7b,66229d9ed9bbb9183e1996bd,,,,,,,,,,,,,,,,,,,,,,,,,,,,,,,,,,,,,,,,,,,,,,,,,,,,,,,,0,1,1,2,1,A,X,N,o1_image,stimuli/out1.png,stimuli/correct_out1.png,stimuli/out2.png,,,,,,,,,,,,,,,,,,,,,,,,,,,,,,,,,,,,,,
,,66156b2dc0794709cb34b38b,34,male,2024-04-19_18h38.49.613,stockport_simplified,2022.2.4,MacIntel,119.047619,661e456ee6de07e70aa9ef7b,66229d9ed9bbb9183e1996bd,,,,,,,,,,,,,,,,,,,,,,,,,,,,,,,,,,369.6401,373.2058,"[1,7,3,4,8,6,5,2]","[[-0.3,0.2],[0.3,0.2]]","[[-0.125,-0.2],[0.125,-0.2]]",-0.126876653,-0.188111772,1,0,0,3.0567,o1_image,373.2175,0,373.7146,373.7147,375.7145,0,0,0,0,1,,,,,,,,,,,,,,,,,,,,,,,,,,,,,,,,,,,,,,,,,,,,,,,,,,
,,66156b2dc0794709cb34b38b,34,male,2024-04-19_18h38.49.613,stockport_simplified,2022.2.4,MacIntel,119.047619,661e456ee6de07e70aa9ef7b,66229d9ed9bbb9183e1996bd,,,,,,,,,,,,,,,,,,,,,,,,,,,,,,,,,,,,,,,,,,,,,,,,,,,,,,,,0,2,2,41,1,B,X,N,o2_image,stimuli/out2.png,stimuli/out1.png,stimuli/correct_out2.png,,,,,,,,,,,,,,,,,,,,,,,,,,,,,,,,,,,,,,
,,66156b2dc0794709cb34b38b,34,male,2024-04-19_18h38.49.613,stockport_simplified,2022.2.4,MacIntel,119.047619,661e456ee6de07e70aa9ef7b,66229d9ed9bbb9183e1996bd,,,,,,,,,,,,,,,,,,,,,,,,,,,,,,,,,,375.7154,377.6392,"[1,7,3,4,8,6,5,2]","[[-0.3,0.2],[0.3,0.2]]","[[0.125,-0.2],[-0.125,-0.2]]",-0.130911045,-0.184850364,1,0,0,1.4154,o2_image,377.6401,0,378.1394,378.1395,380.1395,0,0,0,0,1,,,,,,,,,,,,,,,,,,,,,,,,,,,,,,,,,,,,,,,,,,,,,,,,,,
,,66156b2dc0794709cb34b38b,34,male,2024-04-19_18h38.49.613,stockport_simplified,2022.2.4,MacIntel,119.047619,661e456ee6de07e70aa9ef7b,66229d9ed9bbb9183e1996bd,,,,,,,,,,,,,,,,,,,,,,,,,,,,,,,,,,,,,,,,,,,,,,,,,,,,,,,,0,3,3,52,1,N,M,C,o1_image,stimuli/out1.png,stimuli/correct_out1.png,stimuli/out2.png,,,,,,,,,,,,,,,,,,,,,,,,,,,,,,,,,,,,,,
,,66156b2dc0794709cb34b38b,34,male,2024-04-19_18h38.49.613,stockport_simplified,2022.2.4,MacIntel,119.047619,661e456ee6de07e70aa9ef7b,66229d9ed9bbb9183e1996bd,,,,,,,,,,,,,,,,,,,,,,,,,,,,,,,,,,380.1403,382.4312,"[1,7,3,4,8,6,5,2]","[[-0.3,0.2],[0.3,0.2]]","[[-0.125,-0.2],[0.125,-0.2]]",-0.138996362,-0.190864749,1,0,0,1.7832,o1_image,382.4318,1,382.9306,382.9307,384.9312,0,0,0,0,1,,,,,,,,,,,,,,,,,,,,,,,,,,,,,,,,,,,,,,,,,,,,,,,,,,
,,66156b2dc0794709cb34b38b,34,male,2024-04-19_18h38.49.613,stockport_simplified,2022.2.4,MacIntel,119.047619,661e456ee6de07e70aa9ef7b,66229d9ed9bbb9183e1996bd,,,,,,,,,,,,,,,,,,,,,,,,,,,,,,,,,,,,,,,,,,,,,,,,,,,,,,,,0,4,4,50,1,N,M,C,o1_image,stimuli/out1.png,stimuli/correct_out1.png,stimuli/out2.png,,,,,,,,,,,,,,,,,,,,,,,,,,,,,,,,,,,,,,
,,66156b2dc0794709cb34b38b,34,male,2024-04-19_18h38.49.613,stockport_simplified,2022.2.4,MacIntel,119.047619,661e456ee6de07e70aa9ef7b,66229d9ed9bbb9183e1996bd,,,,,,,,,,,,,,,,,,,,,,,,,,,,,,,,,,384.9324,387.331,"[1,7,3,4,8,6,5,2]","[[0.3,0.2],[-0.3,0.2]]","[[-0.125,-0.2],[0.125,-0.2]]",-0.110003307,-0.206675761,1,0,0,1.8908,o1_image,387.3317,0,387.831,387.8311,389.8269,0,0,0,0,1,,,,,,,,,,,,,,,,,,,,,,,,,,,,,,,,,,,,,,,,,,,,,,,,,,
,,66156b2dc0794709cb34b38b,34,male,2024-04-19_18h38.49.613,stockport_simplified,2022.2.4,MacIntel,119.047619,661e456ee6de07e70aa9ef7b,66229d9ed9bbb9183e1996bd,,,,,,,,,,,,,,,,,,,,,,,,,,,,,,,,,,,,,,,,,,,,,,,,,,,,,,,,0,5,5,12,1,B,X,N,o2_image,stimuli/out2.png,stimuli/out1.png,stimuli/correct_out2.png,,,,,,,,,,,,,,,,,,,,,,,,,,,,,,,,,,,,,,
,,66156b2dc0794709cb34b38b,34,male,2024-04-19_18h38.49.613,stockport_simplified,2022.2.4,MacIntel,119.047619,661e456ee6de07e70aa9ef7b,66229d9ed9bbb9183e1996bd,,,,,,,,,,,,,,,,,,,,,,,,,,,,,,,,,,389.8276,392.7758,"[1,7,3,4,8,6,5,2]","[[-0.3,0.2],[0.3,0.2]]","[[-0.125,-0.2],[0.125,-0.2]]",-0.113231647,-0.180849041,1,0,0,2.4403,o1_image,392.7879,0,393.285,393.285,395.2852,0,0,0,0,1,,,,,,,,,,,,,,,,,,,,,,,,,,,,,,,,,,,,,,,,,,,,,,,,,,
,,66156b2dc0794709cb34b38b,34,male,2024-04-19_18h38.49.613,stockport_simplified,2022.2.4,MacIntel,119.047619,661e456ee6de07e70aa9ef7b,66229d9ed9bbb9183e1996bd,,,,,,,,,,,,,,,,,,,,,,,,,,,,,,,,,,,,,,,,,,,,,,,,,,,,,,,,0,6,6,17,1,B,Y,N,o2_image,stimuli/out2.png,stimuli/out1.png,stimuli/correct_out2.png,,,,,,,,,,,,,,,,,,,,,,,,,,,,,,,,,,,,,,
,,66156b2dc0794709cb34b38b,34,male,2024-04-19_18h38.49.613,stockport_simplified,2022.2.4,MacIntel,119.047619,661e456ee6de07e70aa9ef7b,66229d9ed9bbb9183e1996bd,,,,,,,,,,,,,,,,,,,,,,,,,,,,,,,,,,395.2861,398.4183,"[1,7,3,4,8,6,5,2]","[[0.3,0.2],[-0.3,0.2]]","[[0.125,-0.2],[-0.125,-0.2]]",-0.142361111,-0.178476356,1,0,0,2.6239,o2_image,398.4306,1,398.9267,398.9268,400.9266,0,0,0,0,1,,,,,,,,,,,,,,,,,,,,,,,,,,,,,,,,,,,,,,,,,,,,,,,,,,
,,66156b2dc0794709cb34b38b,34,male,2024-04-19_18h38.49.613,stockport_simplified,2022.2.4,MacIntel,119.047619,661e456ee6de07e70aa9ef7b,66229d9ed9bbb9183e1996bd,,,,,,,,,,,,,,,,,,,,,,,,,,,,,,,,,,,,,,,,,,,,,,,,,,,,,,,,0,7,7,44,1,B,X,N,o2_image,stimuli/out2.png,stimuli/out1.png,stimuli/correct_out2.png,,,,,,,,,,,,,,,,,,,,,,,,,,,,,,,,,,,,,,
,,66156b2dc0794709cb34b38b,34,male,2024-04-19_18h38.49.613,stockport_simplified,2022.2.4,MacIntel,119.047619,661e456ee6de07e70aa9ef7b,66229d9ed9bbb9183e1996bd,,,,,,,,,,,,,,,,,,,,,,,,,,,,,,,,,,400.9274,403.2683,"[1,7,3,4,8,6,5,2]","[[0.3,0.2],[-0.3,0.2]]","[[-0.125,-0.2],[0.125,-0.2]]",0.115017361,-0.163843419,1,0,0,1.8324,o2_image,403.2691,0,403.7686,403.7687,405.7683,0,0,0,0,1,,,,,,,,,,,,,,,,,,,,,,,,,,,,,,,,,,,,,,,,,,,,,,,,,,
,,66156b2dc0794709cb34b38b,34,male,2024-04-19_18h38.49.613,stockport_simplified,2022.2.4,MacIntel,119.047619,661e456ee6de07e70aa9ef7b,66229d9ed9bbb9183e1996bd,,,,,,,,,,,,,,,,,,,,,,,,,,,,,,,,,,,,,,,,,,,,,,,,,,,,,,,,0,8,8,31,1,A,X,N,o1_image,stimuli/out1.png,stimuli/correct_out1.png,stimuli/out2.png,,,,,,,,,,,,,,,,,,,,,,,,,,,,,,,,,,,,,,
,,66156b2dc0794709cb34b38b,34,male,2024-04-19_18h38.49.613,stockport_simplified,2022.2.4,MacIntel,119.047619,661e456ee6de07e70aa9ef7b,66229d9ed9bbb9183e1996bd,,,,,,,,,,,,,,,,,,,,,,,,,,,,,,,,,,405.7694,408.5592,"[1,7,3,4,8,6,5,2]","[[-0.3,0.2],[0.3,0.2]]","[[0.125,-0.2],[-0.125,-0.2]]",0.120738261,-0.190112434,1,0,0,2.281,o1_image,408.5711,0,409.0671,409.0671,411.0689,0,0,0,0,1,,,,,,,,,,,,,,,,,,,,,,,,,,,,,,,,,,,,,,,,,,,,,,,,,,
,,66156b2dc0794709cb34b38b,34,male,2024-04-19_18h38.49.613,stockport_simplified,2022.2.4,MacIntel,119.047619,661e456ee6de07e70aa9ef7b,66229d9ed9bbb9183e1996bd,,,,,,,,,,,,,,,,,,,,,,,,,,,,,,,,,,,,,,,,,,,,,,,,,,,,,,,,0,9,9,47,1,B,Y,N,o2_image,stimuli/out2.png,stimuli/out1.png,stimuli/correct_out2.png,,,,,,,,,,,,,,,,,,,,,,,,,,,,,,,,,,,,,,
,,66156b2dc0794709cb34b38b,34,male,2024-04-19_18h38.49.613,stockport_simplified,2022.2.4,MacIntel,119.047619,661e456ee6de07e70aa9ef7b,66229d9ed9bbb9183e1996bd,,,,,,,,,,,,,,,,,,,,,,,,,,,,,,,,,,411.0697,413.8511,"[1,7,3,4,8,6,5,2]","[[-0.3,0.2],[0.3,0.2]]","[[-0.125,-0.2],[0.125,-0.2]]",-0.121941138,-0.193473049,1,0,0,2.2749,o1_image,413.8518,0,414.3519,414.3519,416.354,0,0,0,0,1,,,,,,,,,,,,,,,,,,,,,,,,,,,,,,,,,,,,,,,,,,,,,,,,,,
,,66156b2dc0794709cb34b38b,34,male,2024-04-19_18h38.49.613,stockport_simplified,2022.2.4,MacIntel,119.047619,661e456ee6de07e70aa9ef7b,66229d9ed9bbb9183e1996bd,,,,,,,,,,,,,,,,,,,,,,,,,,,,,,,,,,,,,,,,,,,,,,,,,,,,,,,,0,10,10,15,1,B,Y,N,o2_image,stimuli/out2.png,stimuli/out1.png,stimuli/correct_out2.png,,,,,,,,,,,,,,,,,,,,,,,,,,,,,,,,,,,,,,
,,66156b2dc0794709cb34b38b,34,male,2024-04-19_18h38.49.613,stockport_simplified,2022.2.4,MacIntel,119.047619,661e456ee6de07e70aa9ef7b,66229d9ed9bbb9183e1996bd,,,,,,,,,,,,,,,,,,,,,,,,,,,,,,,,,,416.3542,418.9347,"[1,7,3,4,8,6,5,2]","[[0.3,0.2],[-0.3,0.2]]","[[-0.125,-0.2],[0.125,-0.2]]",0.120767196,-0.196445106,1,0,0,2.0746,o2_image,418.9353,1,419.435,419.435,421.435,0,0,0,0,1,,,,,,,,,,,,,,,,,,,,,,,,,,,,,,,,,,,,,,,,,,,,,,,,,,
,,66156b2dc0794709cb34b38b,34,male,2024-04-19_18h38.49.613,stockport_simplified,2022.2.4,MacIntel,119.047619,661e456ee6de07e70aa9ef7b,66229d9ed9bbb9183e1996bd,,,,,,,,,,,,,,,,,,,,,,,,,,,,,,,,,,,,,,,,,,,,,,,,,,,,,,,,0,11,11,27,1,N,M,D,o2_image,stimuli/out2.png,stimuli/out1.png,stimuli/correct_out2.png,,,,,,,,,,,,,,,,,,,,,,,,,,,,,,,,,,,,,,
,,66156b2dc0794709cb34b38b,34,male,2024-04-19_18h38.49.613,stockport_simplified,2022.2.4,MacIntel,119.047619,661e456ee6de07e70aa9ef7b,66229d9ed9bbb9183e1996bd,,,,,,,,,,,,,,,,,,,,,,,,,,,,,,,,,,421.4362,423.1015,"[1,7,3,4,8,6,5,2]","[[0.3,0.2],[-0.3,0.2]]","[[-0.125,-0.2],[0.125,-0.2]]",0.13130787,-0.184858631,1,0,0,1.1577,o2_image,423.102,0,423.6014,423.6015,425.6007,0,0,0,0,1,,,,,,,,,,,,,,,,,,,,,,,,,,,,,,,,,,,,,,,,,,,,,,,,,,
,,66156b2dc0794709cb34b38b,34,male,2024-04-19_18h38.49.613,stockport_simplified,2022.2.4,MacIntel,119.047619,661e456ee6de07e70aa9ef7b,66229d9ed9bbb9183e1996bd,,,,,,,,,,,,,,,,,,,,,,,,,,,,,,,,,,,,,,,,,,,,,,,,,,,,,,,,0,12,12,51,1,N,M,C,o1_image,stimuli/out1.png,stimuli/correct_out1.png,stimuli/out2.png,,,,,,,,,,,,,,,,,,,,,,,,,,,,,,,,,,,,,,
,,66156b2dc0794709cb34b38b,34,male,2024-04-19_18h38.49.613,stockport_simplified,2022.2.4,MacIntel,119.047619,661e456ee6de07e70aa9ef7b,66229d9ed9bbb9183e1996bd,,,,,,,,,,,,,,,,,,,,,,,,,,,,,,,,,,425.6014,428.3512,"[1,7,3,4,8,6,5,2]","[[-0.3,0.2],[0.3,0.2]]","[[0.125,-0.2],[-0.125,-0.2]]",0.12640129,-0.178517692,1,0,0,2.2404,o1_image,428.3634,0,428.8641,428.8641,430.8636,0,0,0,0,1,,,,,,,,,,,,,,,,,,,,,,,,,,,,,,,,,,,,,,,,,,,,,,,,,,
,,66156b2dc0794709cb34b38b,34,male,2024-04-19_18h38.49.613,stockport_simplified,2022.2.4,MacIntel,119.047619,661e456ee6de07e70aa9ef7b,66229d9ed9bbb9183e1996bd,,,,,,,,,,,,,,,,,,,,,,,,,,,,,,,,,,,,,,,,,,,,,,,,,,,,,,,,0,13,13,14,1,B,X,N,o2_image,stimuli/out2.png,stimuli/out1.png,stimuli/correct_out2.png,,,,,,,,,,,,,,,,,,,,,,,,,,,,,,,,,,,,,,
,,66156b2dc0794709cb34b38b,34,male,2024-04-19_18h38.49.613,stockport_simplified,2022.2.4,MacIntel,119.047619,661e456ee6de07e70aa9ef7b,66229d9ed9bbb9183e1996bd,,,,,,,,,,,,,,,,,,,,,,,,,,,,,,,,,,430.8646,433.7384,"[1,7,3,4,8,6,5,2]","[[0.3,0.2],[-0.3,0.2]]","[[0.125,-0.2],[-0.125,-0.2]]",0.131051587,-0.205373677,1,0,0,2.3655,o1_image,433.7391,0,434.2393,434.2394,436.2391,0,0,0,0,1,,,,,,,,,,,,,,,,,,,,,,,,,,,,,,,,,,,,,,,,,,,,,,,,,,
,,66156b2dc0794709cb34b38b,34,male,2024-04-19_18h38.49.613,stockport_simplified,2022.2.4,MacIntel,119.047619,661e456ee6de07e70aa9ef7b,66229d9ed9bbb9183e1996bd,,,,,,,,,,,,,,,,,,,,,,,,,,,,,,,,,,,,,,,,,,,,,,,,,,,,,,,,0,14,14,49,1,B,Y,N,o2_image,stimuli/out2.png,stimuli/out1.png,stimuli/correct_out2.png,,,,,,,,,,,,,,,,,,,,,,,,,,,,,,,,,,,,,,
,,66156b2dc0794709cb34b38b,34,male,2024-04-19_18h38.49.613,stockport_simplified,2022.2.4,MacIntel,119.047619,661e456ee6de07e70aa9ef7b,66229d9ed9bbb9183e1996bd,,,,,,,,,,,,,,,,,,,,,,,,,,,,,,,,,,436.2399,439.5141,"[1,7,3,4,8,6,5,2]","[[-0.3,0.2],[0.3,0.2]]","[[0.125,-0.2],[-0.125,-0.2]]",-0.113624339,-0.185714286,1,0,0,2.767,o2_image,439.5148,1,440.014,440.014,442.0141,0,0,0,0,1,,,,,,,,,,,,,,,,,,,,,,,,,,,,,,,,,,,,,,,,,,,,,,,,,,
,,66156b2dc0794709cb34b38b,34,male,2024-04-19_18h38.49.613,stockport_simplified,2022.2.4,MacIntel,119.047619,661e456ee6de07e70aa9ef7b,66229d9ed9bbb9183e1996bd,,,,,,,,,,,,,,,,,,,,,,,,,,,,,,,,,,,,,,,,,,,,,,,,,,,,,,,,0,15,15,48,1,B,Y,N,o2_image,stimuli/out2.png,stimuli/out1.png,stimuli/correct_out2.png,,,,,,,,,,,,,,,,,,,,,,,,,,,,,,,,,,,,,,
,,66156b2dc0794709cb34b38b,34,male,2024-04-19_18h38.49.613,stockport_simplified,2022.2.4,MacIntel,119.047619,661e456ee6de07e70aa9ef7b,66229d9ed9bbb9183e1996bd,,,,,,,,,,,,,,,,,,,,,,,,,,,,,,,,,,442.0146,443.8721,"[1,7,3,4,8,6,5,2]","[[0.3,0.2],[-0.3,0.2]]","[[0.125,-0.2],[-0.125,-0.2]]",-0.099685847,-0.153988922,1,0,0,1.3487,o2_image,443.8728,1,444.3723,444.3724,446.3724,0,0,0,0,1,,,,,,,,,,,,,,,,,,,,,,,,,,,,,,,,,,,,,,,,,,,,,,,,,,
,,66156b2dc0794709cb34b38b,34,male,2024-04-19_18h38.49.613,stockport_simplified,2022.2.4,MacIntel,119.047619,661e456ee6de07e70aa9ef7b,66229d9ed9bbb9183e1996bd,,,,,,,,,,,,,,,,,,,,,,,,,,,,,,,,,,,,,,,,,,,,,,,,,,,,,,,,0,16,16,55,1,N,M,D,o2_image,stimuli/out2.png,stimuli/out1.png,stimuli/correct_out2.png,,,,,,,,,,,,,,,,,,,,,,,,,,,,,,,,,,,,,,
,,66156b2dc0794709cb34b38b,34,male,2024-04-19_18h38.49.613,stockport_simplified,2022.2.4,MacIntel,119.047619,661e456ee6de07e70aa9ef7b,66229d9ed9bbb9183e1996bd,,,,,,,,,,,,,,,,,,,,,,,,,,,,,,,,,,446.373,448.8805,"[1,7,3,4,8,6,5,2]","[[-0.3,0.2],[0.3,0.2]]","[[-0.125,-0.2],[0.125,-0.2]]",0.121387235,-0.195109954,1,0,0,1.9987,o2_image,448.8811,1,449.3807,449.3807,451.3794,0,0,0,0,1,,,,,,,,,,,,,,,,,,,,,,,,,,,,,,,,,,,,,,,,,,,,,,,,,,
,,66156b2dc0794709cb34b38b,34,male,2024-04-19_18h38.49.613,stockport_simplified,2022.2.4,MacIntel,119.047619,661e456ee6de07e70aa9ef7b,66229d9ed9bbb9183e1996bd,,,,,,,,,,,,,,,,,,,,,,,,,,,,,,,,,,,,,,,,,,,,,,,,,,,,,,,,0,17,17,16,1,B,Y,N,o2_image,stimuli/out2.png,stimuli/out1.png,stimuli/correct_out2.png,,,,,,,,,,,,,,,,,,,,,,,,,,,,,,,,,,,,,,
,,66156b2dc0794709cb34b38b,34,male,2024-04-19_18h38.49.613,stockport_simplified,2022.2.4,MacIntel,119.047619,661e456ee6de07e70aa9ef7b,66229d9ed9bbb9183e1996bd,,,,,,,,,,,,,,,,,,,,,,,,,,,,,,,,,,451.3797,453.7639,"[1,7,3,4,8,6,5,2]","[[0.3,0.2],[-0.3,0.2]]","[[0.125,-0.2],[-0.125,-0.2]]",0.164517196,-0.179108796,1,0,0,1.8826,o1_image,453.7646,1,454.2639,454.264,456.2638,0,0,0,0,1,,,,,,,,,,,,,,,,,,,,,,,,,,,,,,,,,,,,,,,,,,,,,,,,,,
,,66156b2dc0794709cb34b38b,34,male,2024-04-19_18h38.49.613,stockport_simplified,2022.2.4,MacIntel,119.047619,661e456ee6de07e70aa9ef7b,66229d9ed9bbb9183e1996bd,,,,,,,,,,,,,,,,,,,,,,,,,,,,,,,,,,,,,,,,,,,,,,,,,,,,,,,,0,18,18,9,1,A,Y,N,o1_image,stimuli/out1.png,stimuli/correct_out1.png,stimuli/out2.png,,,,,,,,,,,,,,,,,,,,,,,,,,,,,,,,,,,,,,
,,66156b2dc0794709cb34b38b,34,male,2024-04-19_18h38.49.613,stockport_simplified,2022.2.4,MacIntel,119.047619,661e456ee6de07e70aa9ef7b,66229d9ed9bbb9183e1996bd,,,,,,,,,,,,,,,,,,,,,,,,,,,,,,,,,,456.2647,458.0719,"[1,7,3,4,8,6,5,2]","[[0.3,0.2],[-0.3,0.2]]","[[0.125,-0.2],[-0.125,-0.2]]",-0.123611111,-0.17989418,1,0,0,1.2987,o2_image,458.0724,1,458.5726,458.5727,460.5721,0,0,0,0,1,,,,,,,,,,,,,,,,,,,,,,,,,,,,,,,,,,,,,,,,,,,,,,,,,,
,,66156b2dc0794709cb34b38b,34,male,2024-04-19_18h38.49.613,stockport_simplified,2022.2.4,MacIntel,119.047619,661e456ee6de07e70aa9ef7b,66229d9ed9bbb9183e1996bd,,,,,,,,,,,,,,,,,,,,,,,,,,,,,,,,,,,,,,,,,,,,,,,,,,,,,,,,0,19,19,26,1,N,M,D,o2_image,stimuli/out2.png,stimuli/out1.png,stimuli/correct_out2.png,,,,,,,,,,,,,,,,,,,,,,,,,,,,,,,,,,,,,,
,,66156b2dc0794709cb34b38b,34,male,2024-04-19_18h38.49.613,stockport_simplified,2022.2.4,MacIntel,119.047619,661e456ee6de07e70aa9ef7b,66229d9ed9bbb9183e1996bd,,,,,,,,,,,,,,,,,,,,,,,,,,,,,,,,,,460.5728,463.0813,"[1,7,3,4,8,6,5,2]","[[0.3,0.2],[-0.3,0.2]]","[[-0.125,-0.2],[0.125,-0.2]]",-0.128889716,-0.204406415,1,0,0,1.9997,o1_image,463.0823,0,463.5802,463.5803,465.5805,0,0,0,0,1,,,,,,,,,,,,,,,,,,,,,,,,,,,,,,,,,,,,,,,,,,,,,,,,,,
,,66156b2dc0794709cb34b38b,34,male,2024-04-19_18h38.49.613,stockport_simplified,2022.2.4,MacIntel,119.047619,661e456ee6de07e70aa9ef7b,66229d9ed9bbb9183e1996bd,,,,,,,,,,,,,,,,,,,,,,,,,,,,,,,,,,,,,,,,,,,,,,,,,,,,,,,,0,20,20,13,1,B,X,N,o2_image,stimuli/out2.png,stimuli/out1.png,stimuli/correct_out2.png,,,,,,,,,,,,,,,,,,,,,,,,,,,,,,,,,,,,,,
,,66156b2dc0794709cb34b38b,34,male,2024-04-19_18h38.49.613,stockport_simplified,2022.2.4,MacIntel,119.047619,661e456ee6de07e70aa9ef7b,66229d9ed9bbb9183e1996bd,,,,,,,,,,,,,,,,,,,,,,,,,,,,,,,,,,465.5815,467.2053,"[1,7,3,4,8,6,5,2]","[[-0.3,0.2],[0.3,0.2]]","[[-0.125,-0.2],[0.125,-0.2]]",0.134986772,-0.181584821,1,0,0,1.1159,o2_image,467.2059,0,467.7058,467.7058,469.7055,0,0,0,0,1,,,,,,,,,,,,,,,,,,,,,,,,,,,,,,,,,,,,,,,,,,,,,,,,,,
,,66156b2dc0794709cb34b38b,34,male,2024-04-19_18h38.49.613,stockport_simplified,2022.2.4,MacIntel,119.047619,661e456ee6de07e70aa9ef7b,66229d9ed9bbb9183e1996bd,,,,,,,,,,,,,,,,,,,,,,,,,,,,,,,,,,,,,,,,,,,,,,,,,,,,,,,,0,21,21,36,1,A,Y,N,o1_image,stimuli/out1.png,stimuli/correct_out1.png,stimuli/out2.png,,,,,,,,,,,,,,,,,,,,,,,,,,,,,,,,,,,,,,
,,66156b2dc0794709cb34b38b,34,male,2024-04-19_18h38.49.613,stockport_simplified,2022.2.4,MacIntel,119.047619,661e456ee6de07e70aa9ef7b,66229d9ed9bbb9183e1996bd,,,,,,,,,,,,,,,,,,,,,,,,,,,,,,,,,,469.7064,471.6311,"[1,7,3,4,8,6,5,2]","[[0.3,0.2],[-0.3,0.2]]","[[0.125,-0.2],[-0.125,-0.2]]",0.113359788,-0.199313823,1,0,0,1.4164,o1_image,471.6316,0,472.1308,472.1308,474.1306,0,0,0,0,1,,,,,,,,,,,,,,,,,,,,,,,,,,,,,,,,,,,,,,,,,,,,,,,,,,
,,66156b2dc0794709cb34b38b,34,male,2024-04-19_18h38.49.613,stockport_simplified,2022.2.4,MacIntel,119.047619,661e456ee6de07e70aa9ef7b,66229d9ed9bbb9183e1996bd,,,,,,,,,,,,,,,,,,,,,,,,,,,,,,,,,,,,,,,,,,,,,,,,,,,,,,,,0,22,22,11,1,B,X,N,o2_image,stimuli/out2.png,stimuli/out1.png,stimuli/correct_out2.png,,,,,,,,,,,,,,,,,,,,,,,,,,,,,,,,,,,,,,
,,66156b2dc0794709cb34b38b,34,male,2024-04-19_18h38.49.613,stockport_simplified,2022.2.4,MacIntel,119.047619,661e456ee6de07e70aa9ef7b,66229d9ed9bbb9183e1996bd,,,,,,,,,,,,,,,,,,,,,,,,,,,,,,,,,,474.1315,476.1888,"[1,7,3,4,8,6,5,2]","[[0.3,0.2],[-0.3,0.2]]","[[-0.125,-0.2],[0.125,-0.2]]",0.125520833,-0.163169643,1,0,0,1.5492,o2_image,476.1894,1,476.6876,476.6876,478.6844,0,0,0,0,1,,,,,,,,,,,,,,,,,,,,,,,,,,,,,,,,,,,,,,,,,,,,,,,,,,
,,66156b2dc0794709cb34b38b,34,male,2024-04-19_18h38.49.613,stockport_simplified,2022.2.4,MacIntel,119.047619,661e456ee6de07e70aa9ef7b,66229d9ed9bbb9183e1996bd,,,,,,,,,,,,,,,,,,,,,,,,,,,,,,,,,,,,,,,,,,,,,,,,,,,,,,,,0,23,23,56,1,N,M,D,o2_image,stimuli/out2.png,stimuli/out1.png,stimuli/correct_out2.png,,,,,,,,,,,,,,,,,,,,,,,,,,,,,,,,,,,,,,
,,66156b2dc0794709cb34b38b,34,male,2024-04-19_18h38.49.613,stockport_simplified,2022.2.4,MacIntel,119.047619,661e456ee6de07e70aa9ef7b,66229d9ed9bbb9183e1996bd,,,,,,,,,,,,,,,,,,,,,,,,,,,,,,,,,,478.6852,480.5594,"[1,7,3,4,8,6,5,2]","[[-0.3,0.2],[0.3,0.2]]","[[0.125,-0.2],[-0.125,-0.2]]",-0.127542163,-0.198797123,1,0,0,1.3658,o2_image,480.56,0,481.0594,481.0595,483.0596,0,0,0,0,1,,,,,,,,,,,,,,,,,,,,,,,,,,,,,,,,,,,,,,,,,,,,,,,,,,
,,66156b2dc0794709cb34b38b,34,male,2024-04-19_18h38.49.613,stockport_simplified,2022.2.4,MacIntel,119.047619,661e456ee6de07e70aa9ef7b,66229d9ed9bbb9183e1996bd,,,,,,,,,,,,,,,,,,,,,,,,,,,,,,,,,,,,,,,,,,,,,,,,,,,,,,,,0,24,24,22,1,N,M,C,o1_image,stimuli/out1.png,stimuli/correct_out1.png,stimuli/out2.png,,,,,,,,,,,,,,,,,,,,,,,,,,,,,,,,,,,,,,
,,66156b2dc0794709cb34b38b,34,male,2024-04-19_18h38.49.613,stockport_simplified,2022.2.4,MacIntel,119.047619,661e456ee6de07e70aa9ef7b,66229d9ed9bbb9183e1996bd,,,,,,,,,,,,,,,,,,,,,,,,,,,,,,,,,,483.0602,485.4842,"[1,7,3,4,8,6,5,2]","[[0.3,0.2],[-0.3,0.2]]","[[0.125,-0.2],[-0.125,-0.2]]",0.131427745,-0.146068948,1,0,0,1.9156,o1_image,485.4847,0,485.9845,485.9845,487.9843,0,0,0,0,1,,,,,,,,,,,,,,,,,,,,,,,,,,,,,,,,,,,,,,,,,,,,,,,,,,
,,66156b2dc0794709cb34b38b,34,male,2024-04-19_18h38.49.613,stockport_simplified,2022.2.4,MacIntel,119.047619,661e456ee6de07e70aa9ef7b,66229d9ed9bbb9183e1996bd,,,,,,,,,,,,,,,,,,,,,,,,,,,,,,,,,,,,,,,,,,,,,,,,,,,,,,,,0,25,25,18,1,B,Y,N,o2_image,stimuli/out2.png,stimuli/out1.png,stimuli/correct_out2.png,,,,,,,,,,,,,,,,,,,,,,,,,,,,,,,,,,,,,,
,,66156b2dc0794709cb34b38b,34,male,2024-04-19_18h38.49.613,stockport_simplified,2022.2.4,MacIntel,119.047619,661e456ee6de07e70aa9ef7b,66229d9ed9bbb9183e1996bd,,,,,,,,,,,,,,,,,,,,,,,,,,,,,,,,,,487.9849,490.2262,"[1,7,3,4,8,6,5,2]","[[-0.3,0.2],[0.3,0.2]]","[[0.125,-0.2],[-0.125,-0.2]]",0.129311343,-0.205543155,1,0,0,1.7324,o1_image,490.2382,0,490.7344,490.7346,492.7349,0,0,0,0,1,,,,,,,,,,,,,,,,,,,,,,,,,,,,,,,,,,,,,,,,,,,,,,,,,,
,,66156b2dc0794709cb34b38b,34,male,2024-04-19_18h38.49.613,stockport_simplified,2022.2.4,MacIntel,119.047619,661e456ee6de07e70aa9ef7b,66229d9ed9bbb9183e1996bd,,,,,,,,,,,,,,,,,,,,,,,,,,,,,,,,,,,,,,,,,,,,,,,,,,,,,,,,0,26,26,29,1,N,M,D,o2_image,stimuli/out2.png,stimuli/out1.png,stimuli/correct_out2.png,,,,,,,,,,,,,,,,,,,,,,,,,,,,,,,,,,,,,,
,,66156b2dc0794709cb34b38b,34,male,2024-04-19_18h38.49.613,stockport_simplified,2022.2.4,MacIntel,119.047619,661e456ee6de07e70aa9ef7b,66229d9ed9bbb9183e1996bd,,,,,,,,,,,,,,,,,,,,,,,,,,,,,,,,,,492.7357,495.3756,"[1,7,3,4,8,6,5,2]","[[0.3,0.2],[-0.3,0.2]]","[[-0.125,-0.2],[0.125,-0.2]]",-0.107940642,-0.189058366,1,0,0,2.1325,o1_image,495.3763,1,495.8763,495.8764,497.876,0,0,0,0,1,,,,,,,,,,,,,,,,,,,,,,,,,,,,,,,,,,,,,,,,,,,,,,,,,,
,,66156b2dc0794709cb34b38b,34,male,2024-04-19_18h38.49.613,stockport_simplified,2022.2.4,MacIntel,119.047619,661e456ee6de07e70aa9ef7b,66229d9ed9bbb9183e1996bd,,,,,,,,,,,,,,,,,,,,,,,,,,,,,,,,,,,,,,,,,,,,,,,,,,,,,,,,0,27,27,53,1,N,M,C,o1_image,stimuli/out1.png,stimuli/correct_out1.png,stimuli/out2.png,,,,,,,,,,,,,,,,,,,,,,,,,,,,,,,,,,,,,,
,,66156b2dc0794709cb34b38b,34,male,2024-04-19_18h38.49.613,stockport_simplified,2022.2.4,MacIntel,119.047619,661e456ee6de07e70aa9ef7b,66229d9ed9bbb9183e1996bd,,,,,,,,,,,,,,,,,,,,,,,,,,,,,,,,,,497.8768,500.2924,"[1,7,3,4,8,6,5,2]","[[-0.3,0.2],[0.3,0.2]]","[[-0.125,-0.2],[0.125,-0.2]]",-0.119229497,-0.185139716,1,0,0,1.907,o1_image,500.3042,0,500.8011,500.8013,502.8008,0,0,0,0,1,,,,,,,,,,,,,,,,,,,,,,,,,,,,,,,,,,,,,,,,,,,,,,,,,,
,,66156b2dc0794709cb34b38b,34,male,2024-04-19_18h38.49.613,stockport_simplified,2022.2.4,MacIntel,119.047619,661e456ee6de07e70aa9ef7b,66229d9ed9bbb9183e1996bd,,,,,,,,,,,,,,,,,,,,,,,,,,,,,,,,,,,,,,,,,,,,,,,,,,,,,,,,0,28,28,59,1,N,M,D,o2_image,stimuli/out2.png,stimuli/out1.png,stimuli/correct_out2.png,,,,,,,,,,,,,,,,,,,,,,,,,,,,,,,,,,,,,,
,,66156b2dc0794709cb34b38b,34,male,2024-04-19_18h38.49.613,stockport_simplified,2022.2.4,MacIntel,119.047619,661e456ee6de07e70aa9ef7b,66229d9ed9bbb9183e1996bd,,,,,,,,,,,,,,,,,,,,,,,,,,,,,,,,,,502.8014,504.8257,"[1,7,3,4,8,6,5,2]","[[-0.3,0.2],[0.3,0.2]]","[[0.125,-0.2],[-0.125,-0.2]]",-0.111259921,-0.206688161,1,0,0,1.5157,o2_image,504.8263,0,505.3259,505.326,507.3261,0,0,0,0,1,,,,,,,,,,,,,,,,,,,,,,,,,,,,,,,,,,,,,,,,,,,,,,,,,,
,,66156b2dc0794709cb34b38b,34,male,2024-04-19_18h38.49.613,stockport_simplified,2022.2.4,MacIntel,119.047619,661e456ee6de07e70aa9ef7b,66229d9ed9bbb9183e1996bd,,,,,,,,,,,,,,,,,,,,,,,,,,,,,,,,,,,,,,,,,,,,,,,,,,,,,,,,0,29,29,38,1,A,Y,N,o1_image,stimuli/out1.png,stimuli/correct_out1.png,stimuli/out2.png,,,,,,,,,,,,,,,,,,,,,,,,,,,,,,,,,,,,,,
,,66156b2dc0794709cb34b38b,34,male,2024-04-19_18h38.49.613,stockport_simplified,2022.2.4,MacIntel,119.047619,661e456ee6de07e70aa9ef7b,66229d9ed9bbb9183e1996bd,,,,,,,,,,,,,,,,,,,,,,,,,,,,,,,,,,507.3271,508.9751,"[1,7,3,4,8,6,5,2]","[[-0.3,0.2],[0.3,0.2]]","[[-0.125,-0.2],[0.125,-0.2]]",0.091307044,-0.196143353,1,0,0,1.1398,o2_image,508.9757,1,509.4761,509.4762,511.4758,0,0,0,0,1,,,,,,,,,,,,,,,,,,,,,,,,,,,,,,,,,,,,,,,,,,,,,,,,,,
,,66156b2dc0794709cb34b38b,34,male,2024-04-19_18h38.49.613,stockport_simplified,2022.2.4,MacIntel,119.047619,661e456ee6de07e70aa9ef7b,66229d9ed9bbb9183e1996bd,,,,,,,,,,,,,,,,,,,,,,,,,,,,,,,,,,,,,,,,,,,,,,,,,,,,,,,,0,30,30,57,1,N,M,D,o2_image,stimuli/out2.png,stimuli/out1.png,stimuli/correct_out2.png,,,,,,,,,,,,,,,,,,,,,,,,,,,,,,,,,,,,,,
,,66156b2dc0794709cb34b38b,34,male,2024-04-19_18h38.49.613,stockport_simplified,2022.2.4,MacIntel,119.047619,661e456ee6de07e70aa9ef7b,66229d9ed9bbb9183e1996bd,,,,,,,,,,,,,,,,,,,,,,,,,,,,,,,,,,511.4767,513.1426,"[1,7,3,4,8,6,5,2]","[[-0.3,0.2],[0.3,0.2]]","[[0.125,-0.2],[-0.125,-0.2]]",-0.114525463,-0.181055721,1,0,0,1.1577,o2_image,513.1432,0,513.6426,513.6427,515.6426,0,0,0,0,1,,,,,,,,,,,,,,,,,,,,,,,,,,,,,,,,,,,,,,,,,,,,,,,,,,
,,66156b2dc0794709cb34b38b,34,male,2024-04-19_18h38.49.613,stockport_simplified,2022.2.4,MacIntel,119.047619,661e456ee6de07e70aa9ef7b,66229d9ed9bbb9183e1996bd,,,,,,,,,,,,,,,,,,,,,,,,,,,,,,,,,,,,,,,,,,,,,,,,,,,,,,,,0,31,31,23,1,N,M,C,o1_image,stimuli/out1.png,stimuli/correct_out1.png,stimuli/out2.png,,,,,,,,,,,,,,,,,,,,,,,,,,,,,,,,,,,,,,
,,66156b2dc0794709cb34b38b,34,male,2024-04-19_18h38.49.613,stockport_simplified,2022.2.4,MacIntel,119.047619,661e456ee6de07e70aa9ef7b,66229d9ed9bbb9183e1996bd,,,,,,,,,,,,,,,,,,,,,,,,,,,,,,,,,,515.6434,518.3342,"[1,7,3,4,8,6,5,2]","[[0.3,0.2],[-0.3,0.2]]","[[-0.125,-0.2],[0.125,-0.2]]",0.125281085,-0.191054894,1,0,0,2.1824,o2_image,518.3468,0,518.8467,518.8467,520.8465,0,0,0,0,1,,,,,,,,,,,,,,,,,,,,,,,,,,,,,,,,,,,,,,,,,,,,,,,,,,
,,66156b2dc0794709cb34b38b,34,male,2024-04-19_18h38.49.613,stockport_simplified,2022.2.4,MacIntel,119.047619,661e456ee6de07e70aa9ef7b,66229d9ed9bbb9183e1996bd,,,,,,,,,,,,,,,,,,,,,,,,,,,,,,,,,,,,,,,,,,,,,,,,,,,,,,,,0,32,32,33,1,A,X,N,o1_image,stimuli/out1.png,stimuli/correct_out1.png,stimuli/out2.png,,,,,,,,,,,,,,,,,,,,,,,,,,,,,,,,,,,,,,
,,66156b2dc0794709cb34b38b,34,male,2024-04-19_18h38.49.613,stockport_simplified,2022.2.4,MacIntel,119.047619,661e456ee6de07e70aa9ef7b,66229d9ed9bbb9183e1996bd,,,,,,,,,,,,,,,,,,,,,,,,,,,,,,,,,,520.8468,523.4635,"[1,7,3,4,8,6,5,2]","[[0.3,0.2],[-0.3,0.2]]","[[0.125,-0.2],[-0.125,-0.2]]",-0.116596396,-0.166125165,1,0,0,2.1158,o2_image,523.464,0,523.9632,523.9632,525.9634,0,0,0,0,1,,,,,,,,,,,,,,,,,,,,,,,,,,,,,,,,,,,,,,,,,,,,,,,,,,
,,66156b2dc0794709cb34b38b,34,male,2024-04-19_18h38.49.613,stockport_simplified,2022.2.4,MacIntel,119.047619,661e456ee6de07e70aa9ef7b,66229d9ed9bbb9183e1996bd,,,,,,,,,,,,,,,,,,,,,,,,,,,,,,,,,,,,,,,,,,,,,,,,,,,,,,,,0,33,33,5,1,A,Y,N,o1_image,stimuli/out1.png,stimuli/correct_out1.png,stimuli/out2.png,,,,,,,,,,,,,,,,,,,,,,,,,,,,,,,,,,,,,,
,,66156b2dc0794709cb34b38b,34,male,2024-04-19_18h38.49.613,stockport_simplified,2022.2.4,MacIntel,119.047619,661e456ee6de07e70aa9ef7b,66229d9ed9bbb9183e1996bd,,,,,,,,,,,,,,,,,,,,,,,,,,,,,,,,,,525.964,527.6457,"[1,7,3,4,8,6,5,2]","[[-0.3,0.2],[0.3,0.2]]","[[0.125,-0.2],[-0.125,-0.2]]",0.126430225,-0.1916708,1,0,0,1.1735,o1_image,527.6463,1,528.1458,528.1458,530.1467,0,0,0,0,1,,,,,,,,,,,,,,,,,,,,,,,,,,,,,,,,,,,,,,,,,,,,,,,,,,
,,66156b2dc0794709cb34b38b,34,male,2024-04-19_18h38.49.613,stockport_simplified,2022.2.4,MacIntel,119.047619,661e456ee6de07e70aa9ef7b,66229d9ed9bbb9183e1996bd,,,,,,,,,,,,,,,,,,,,,,,,,,,,,,,,,,,,,,,,,,,,,,,,,,,,,,,,0,34,34,32,1,A,X,N,o1_image,stimuli/out1.png,stimuli/correct_out1.png,stimuli/out2.png,,,,,,,,,,,,,,,,,,,,,,,,,,,,,,,,,,,,,,
,,66156b2dc0794709cb34b38b,34,male,2024-04-19_18h38.49.613,stockport_simplified,2022.2.4,MacIntel,119.047619,661e456ee6de07e70aa9ef7b,66229d9ed9bbb9183e1996bd,,,,,,,,,,,,,,,,,,,,,,,,,,,,,,,,,,530.1474,532.3318,"[1,7,3,4,8,6,5,2]","[[0.3,0.2],[-0.3,0.2]]","[[-0.125,-0.2],[0.125,-0.2]]",-0.119510582,-0.181262401,1,0,0,1.6756,o1_image,532.3323,1,532.8301,532.8302,534.8298,0,0,0,0,1,,,,,,,,,,,,,,,,,,,,,,,,,,,,,,,,,,,,,,,,,,,,,,,,,,
,,66156b2dc0794709cb34b38b,34,male,2024-04-19_18h38.49.613,stockport_simplified,2022.2.4,MacIntel,119.047619,661e456ee6de07e70aa9ef7b,66229d9ed9bbb9183e1996bd,,,,,,,,,,,,,,,,,,,,,,,,,,,,,,,,,,,,,,,,,,,,,,,,,,,,,,,,0,35,35,24,1,N,M,C,o1_image,stimuli/out1.png,stimuli/correct_out1.png,stimuli/out2.png,,,,,,,,,,,,,,,,,,,,,,,,,,,,,,,,,,,,,,
,,66156b2dc0794709cb34b38b,34,male,2024-04-19_18h38.49.613,stockport_simplified,2022.2.4,MacIntel,119.047619,661e456ee6de07e70aa9ef7b,66229d9ed9bbb9183e1996bd,,,,,,,,,,,,,,,,,,,,,,,,,,,,,,,,,,534.8305,536.7797,"[1,7,3,4,8,6,5,2]","[[0.3,0.2],[-0.3,0.2]]","[[-0.125,-0.2],[0.125,-0.2]]",-0.097040344,-0.200479497,1,0,0,1.4407,o1_image,536.7805,0,537.28,537.2801,539.28,0,0,0,0,1,,,,,,,,,,,,,,,,,,,,,,,,,,,,,,,,,,,,,,,,,,,,,,,,,,
,,66156b2dc0794709cb34b38b,34,male,2024-04-19_18h38.49.613,stockport_simplified,2022.2.4,MacIntel,119.047619,661e456ee6de07e70aa9ef7b,66229d9ed9bbb9183e1996bd,,,,,,,,,,,,,,,,,,,,,,,,,,,,,,,,,,,,,,,,,,,,,,,,,,,,,,,,0,36,36,10,1,B,X,N,o2_image,stimuli/out2.png,stimuli/out1.png,stimuli/correct_out2.png,,,,,,,,,,,,,,,,,,,,,,,,,,,,,,,,,,,,,,
,,66156b2dc0794709cb34b38b,34,male,2024-04-19_18h38.49.613,stockport_simplified,2022.2.4,MacIntel,119.047619,661e456ee6de07e70aa9ef7b,66229d9ed9bbb9183e1996bd,,,,,,,,,,,,,,,,,,,,,,,,,,,,,,,,,,539.2807,541.2381,"[1,7,3,4,8,6,5,2]","[[-0.3,0.2],[0.3,0.2]]","[[0.125,-0.2],[-0.125,-0.2]]",-0.121626984,-0.206291336,1,0,0,1.4489,o2_image,541.2386,1,541.7384,541.7384,543.7382,0,0,0,0,1,,,,,,,,,,,,,,,,,,,,,,,,,,,,,,,,,,,,,,,,,,,,,,,,,,
,,66156b2dc0794709cb34b38b,34,male,2024-04-19_18h38.49.613,stockport_simplified,2022.2.4,MacIntel,119.047619,661e456ee6de07e70aa9ef7b,66229d9ed9bbb9183e1996bd,,,,,,,,,,,,,,,,,,,,,,,,,,,,,,,,,,,,,,,,,,,,,,,,,,,,,,,,0,37,37,28,1,N,M,D,o2_image,stimuli/out2.png,stimuli/out1.png,stimuli/correct_out2.png,,,,,,,,,,,,,,,,,,,,,,,,,,,,,,,,,,,,,,
,,66156b2dc0794709cb34b38b,34,male,2024-04-19_18h38.49.613,stockport_simplified,2022.2.4,MacIntel,119.047619,661e456ee6de07e70aa9ef7b,66229d9ed9bbb9183e1996bd,,,,,,,,,,,,,,,,,,,,,,,,,,,,,,,,,,543.7389,545.7306,"[1,7,3,4,8,6,5,2]","[[0.3,0.2],[-0.3,0.2]]","[[0.125,-0.2],[-0.125,-0.2]]",0.129617229,-0.180485284,1,0,0,1.4826,o1_image,545.7314,1,546.2298,546.2299,548.2298,0,0,0,0,1,,,,,,,,,,,,,,,,,,,,,,,,,,,,,,,,,,,,,,,,,,,,,,,,,,
,,66156b2dc0794709cb34b38b,34,male,2024-04-19_18h38.49.613,stockport_simplified,2022.2.4,MacIntel,119.047619,661e456ee6de07e70aa9ef7b,66229d9ed9bbb9183e1996bd,,,,,,,,,,,,,,,,,,,,,,,,,,,,,,,,,,,,,,,,,,,,,,,,,,,,,,,,0,38,38,4,1,A,X,N,o1_image,stimuli/out1.png,stimuli/correct_out1.png,stimuli/out2.png,,,,,,,,,,,,,,,,,,,,,,,,,,,,,,,,,,,,,,
,,66156b2dc0794709cb34b38b,34,male,2024-04-19_18h38.49.613,stockport_simplified,2022.2.4,MacIntel,119.047619,661e456ee6de07e70aa9ef7b,66229d9ed9bbb9183e1996bd,,,,,,,,,,,,,,,,,,,,,,,,,,,,,,,,,,548.2306,550.3384,"[1,7,3,4,8,6,5,2]","[[0.3,0.2],[-0.3,0.2]]","[[0.125,-0.2],[-0.125,-0.2]]",0.118212632,-0.194981812,1,0,0,1.6,o1_image,550.339,1,550.8383,550.8384,552.838,0,0,0,0,1,,,,,,,,,,,,,,,,,,,,,,,,,,,,,,,,,,,,,,,,,,,,,,,,,,
,,66156b2dc0794709cb34b38b,34,male,2024-04-19_18h38.49.613,stockport_simplified,2022.2.4,MacIntel,119.047619,661e456ee6de07e70aa9ef7b,66229d9ed9bbb9183e1996bd,,,,,,,,,,,,,,,,,,,,,,,,,,,,,,,,,,,,,,,,,,,,,,,,,,,,,,,,0,39,39,3,1,A,X,N,o1_image,stimuli/out1.png,stimuli/correct_out1.png,stimuli/out2.png,,,,,,,,,,,,,,,,,,,,,,,,,,,,,,,,,,,,,,
,,66156b2dc0794709cb34b38b,34,male,2024-04-19_18h38.49.613,stockport_simplified,2022.2.4,MacIntel,119.047619,661e456ee6de07e70aa9ef7b,66229d9ed9bbb9183e1996bd,,,,,,,,,,,,,,,,,,,,,,,,,,,,,,,,,,552.8385,554.5547,"[1,7,3,4,8,6,5,2]","[[-0.3,0.2],[0.3,0.2]]","[[0.125,-0.2],[-0.125,-0.2]]",-0.089616402,-0.18530506,1,0,0,1.2079,o2_image,554.5553,0,555.0546,555.0546,557.0545,0,0,0,0,1,,,,,,,,,,,,,,,,,,,,,,,,,,,,,,,,,,,,,,,,,,,,,,,,,,
,,66156b2dc0794709cb34b38b,34,male,2024-04-19_18h38.49.613,stockport_simplified,2022.2.4,MacIntel,119.047619,661e456ee6de07e70aa9ef7b,66229d9ed9bbb9183e1996bd,,,,,,,,,,,,,,,,,,,,,,,,,,,,,,,,,,,,,,,,,,,,,,,,,,,,,,,,0,40,40,35,1,A,Y,N,o1_image,stimuli/out1.png,stimuli/correct_out1.png,stimuli/out2.png,,,,,,,,,,,,,,,,,,,,,,,,,,,,,,,,,,,,,,
,,66156b2dc0794709cb34b38b,34,male,2024-04-19_18h38.49.613,stockport_simplified,2022.2.4,MacIntel,119.047619,661e456ee6de07e70aa9ef7b,66229d9ed9bbb9183e1996bd,,,,,,,,,,,,,,,,,,,,,,,,,,,,,,,,,,557.0549,558.5141,"[1,7,3,4,8,6,5,2]","[[-0.3,0.2],[0.3,0.2]]","[[-0.125,-0.2],[0.125,-0.2]]",0.10906498,-0.197577712,1,0,0,0.9509,o2_image,558.5147,0,559.0125,559.0126,561.0132,0,0,0,0,1,,,,,,,,,,,,,,,,,,,,,,,,,,,,,,,,,,,,,,,,,,,,,,,,,,
,,66156b2dc0794709cb34b38b,34,male,2024-04-19_18h38.49.613,stockport_simplified,2022.2.4,MacIntel,119.047619,661e456ee6de07e70aa9ef7b,66229d9ed9bbb9183e1996bd,,,,,,,,,,,,,,,,,,,,,,,,,,,,,,,,,,,,,,,,,,,,,,,,,,,,,,,,0,41,41,37,1,A,Y,N,o1_image,stimuli/out1.png,stimuli/correct_out1.png,stimuli/out2.png,,,,,,,,,,,,,,,,,,,,,,,,,,,,,,,,,,,,,,
,,66156b2dc0794709cb34b38b,34,male,2024-04-19_18h38.49.613,stockport_simplified,2022.2.4,MacIntel,119.047619,661e456ee6de07e70aa9ef7b,66229d9ed9bbb9183e1996bd,,,,,,,,,,,,,,,,,,,,,,,,,,,,,,,,,,561.014,562.6547,"[1,7,3,4,8,6,5,2]","[[0.3,0.2],[-0.3,0.2]]","[[0.125,-0.2],[-0.125,-0.2]]",0.076430225,-0.179753638,1,0,0,1.1329,o1_image,562.6554,1,563.1547,563.1547,565.1547,0,0,0,0,1,,,,,,,,,,,,,,,,,,,,,,,,,,,,,,,,,,,,,,,,,,,,,,,,,,
,,66156b2dc0794709cb34b38b,34,male,2024-04-19_18h38.49.613,stockport_simplified,2022.2.4,MacIntel,119.047619,661e456ee6de07e70aa9ef7b,66229d9ed9bbb9183e1996bd,,,,,,,,,,,,,,,,,,,,,,,,,,,,,,,,,,,,,,,,,,,,,,,,,,,,,,,,0,42,42,7,1,A,Y,N,o1_image,stimuli/out1.png,stimuli/correct_out1.png,stimuli/out2.png,,,,,,,,,,,,,,,,,,,,,,,,,,,,,,,,,,,,,,
,,66156b2dc0794709cb34b38b,34,male,2024-04-19_18h38.49.613,stockport_simplified,2022.2.4,MacIntel,119.047619,661e456ee6de07e70aa9ef7b,66229d9ed9bbb9183e1996bd,,,,,,,,,,,,,,,,,,,,,,,,,,,,,,,,,,565.1554,566.8054,"[1,7,3,4,8,6,5,2]","[[0.3,0.2],[-0.3,0.2]]","[[-0.125,-0.2],[0.125,-0.2]]",-0.119477513,-0.210817626,1,0,0,1.142,o1_image,566.8063,1,567.3042,567.3043,569.3038,0,0,0,0,1,,,,,,,,,,,,,,,,,,,,,,,,,,,,,,,,,,,,,,,,,,,,,,,,,,
,,66156b2dc0794709cb34b38b,34,male,2024-04-19_18h38.49.613,stockport_simplified,2022.2.4,MacIntel,119.047619,661e456ee6de07e70aa9ef7b,66229d9ed9bbb9183e1996bd,,,,,,,,,,,,,,,,,,,,,,,,,,,,,,,,,,,,,,,,,,,,,,,,,,,,,,,,0,43,43,6,1,A,Y,N,o1_image,stimuli/out1.png,stimuli/correct_out1.png,stimuli/out2.png,,,,,,,,,,,,,,,,,,,,,,,,,,,,,,,,,,,,,,
,,66156b2dc0794709cb34b38b,34,male,2024-04-19_18h38.49.613,stockport_simplified,2022.2.4,MacIntel,119.047619,661e456ee6de07e70aa9ef7b,66229d9ed9bbb9183e1996bd,,,,,,,,,,,,,,,,,,,,,,,,,,,,,,,,,,569.3045,570.8464,"[1,7,3,4,8,6,5,2]","[[0.3,0.2],[-0.3,0.2]]","[[-0.125,-0.2],[0.125,-0.2]]",-0.115881283,-0.210371197,1,0,0,1.0404,o1_image,570.847,0,571.3464,571.3464,573.3466,0,0,0,0,1,,,,,,,,,,,,,,,,,,,,,,,,,,,,,,,,,,,,,,,,,,,,,,,,,,
,,66156b2dc0794709cb34b38b,34,male,2024-04-19_18h38.49.613,stockport_simplified,2022.2.4,MacIntel,119.047619,661e456ee6de07e70aa9ef7b,66229d9ed9bbb9183e1996bd,,,,,,,,,,,,,,,,,,,,,,,,,,,,,,,,,,,,,,,,,,,,,,,,,,,,,,,,0,44,44,40,1,B,X,N,o2_image,stimuli/out2.png,stimuli/out1.png,stimuli/correct_out2.png,,,,,,,,,,,,,,,,,,,,,,,,,,,,,,,,,,,,,,
,,66156b2dc0794709cb34b38b,34,male,2024-04-19_18h38.49.613,stockport_simplified,2022.2.4,MacIntel,119.047619,661e456ee6de07e70aa9ef7b,66229d9ed9bbb9183e1996bd,,,,,,,,,,,,,,,,,,,,,,,,,,,,,,,,,,573.3475,577.4877,"[1,7,3,4,8,6,5,2]","[[0.3,0.2],[-0.3,0.2]]","[[-0.125,-0.2],[0.125,-0.2]]",0.097800926,-0.12900959,1,0,0,3.6321,o2_image,577.4996,0,577.9965,577.9966,579.9952,0,0,0,0,1,,,,,,,,,,,,,,,,,,,,,,,,,,,,,,,,,,,,,,,,,,,,,,,,,,
,,66156b2dc0794709cb34b38b,34,male,2024-04-19_18h38.49.613,stockport_simplified,2022.2.4,MacIntel,119.047619,661e456ee6de07e70aa9ef7b,66229d9ed9bbb9183e1996bd,,,,,,,,,,,,,,,,,,,,,,,,,,,,,,,,,,,,,,,,,,,,,,,,,,,,,,,,0,45,45,1,1,A,X,N,o1_image,stimuli/out1.png,stimuli/correct_out1.png,stimuli/out2.png,,,,,,,,,,,,,,,,,,,,,,,,,,,,,,,,,,,,,,
,,66156b2dc0794709cb34b38b,34,male,2024-04-19_18h38.49.613,stockport_simplified,2022.2.4,MacIntel,119.047619,661e456ee6de07e70aa9ef7b,66229d9ed9bbb9183e1996bd,,,,,,,,,,,,,,,,,,,,,,,,,,,,,,,,,,579.9957,582.3213,"[1,7,3,4,8,6,5,2]","[[0.3,0.2],[-0.3,0.2]]","[[0.125,-0.2],[-0.125,-0.2]]",-0.108130787,-0.201107804,1,0,0,1.8245,o2_image,582.3332,0,582.8291,582.8292,584.8295,0,0,0,0,1,,,,,,,,,,,,,,,,,,,,,,,,,,,,,,,,,,,,,,,,,,,,,,,,,,
,,66156b2dc0794709cb34b38b,34,male,2024-04-19_18h38.49.613,stockport_simplified,2022.2.4,MacIntel,119.047619,661e456ee6de07e70aa9ef7b,66229d9ed9bbb9183e1996bd,,,,,,,,,,,,,,,,,,,,,,,,,,,,,,,,,,,,,,,,,,,,,,,,,,,,,,,,0,46,46,20,1,N,M,C,o1_image,stimuli/out1.png,stimuli/correct_out1.png,stimuli/out2.png,,,,,,,,,,,,,,,,,,,,,,,,,,,,,,,,,,,,,,
,,66156b2dc0794709cb34b38b,34,male,2024-04-19_18h38.49.613,stockport_simplified,2022.2.4,MacIntel,119.047619,661e456ee6de07e70aa9ef7b,66229d9ed9bbb9183e1996bd,,,,,,,,,,,,,,,,,,,,,,,,,,,,,,,,,,584.8299,586.421,"[1,7,3,4,8,6,5,2]","[[0.3,0.2],[-0.3,0.2]]","[[-0.125,-0.2],[0.125,-0.2]]",-0.143592923,-0.190732474,1,0,0,1.0831,o1_image,586.4216,0,586.9214,586.9214,588.9211,0,0,0,0,1,,,,,,,,,,,,,,,,,,,,,,,,,,,,,,,,,,,,,,,,,,,,,,,,,,
,,66156b2dc0794709cb34b38b,34,male,2024-04-19_18h38.49.613,stockport_simplified,2022.2.4,MacIntel,119.047619,661e456ee6de07e70aa9ef7b,66229d9ed9bbb9183e1996bd,,,,,,,,,,,,,,,,,,,,,,,,,,,,,,,,,,,,,,,,,,,,,,,,,,,,,,,,0,47,47,19,1,B,Y,N,o2_image,stimuli/out2.png,stimuli/out1.png,stimuli/correct_out2.png,,,,,,,,,,,,,,,,,,,,,,,,,,,,,,,,,,,,,,
,,66156b2dc0794709cb34b38b,34,male,2024-04-19_18h38.49.613,stockport_simplified,2022.2.4,MacIntel,119.047619,661e456ee6de07e70aa9ef7b,66229d9ed9bbb9183e1996bd,,,,,,,,,,,,,,,,,,,,,,,,,,,,,,,,,,588.9217,590.7976,"[1,7,3,4,8,6,5,2]","[[-0.3,0.2],[0.3,0.2]]","[[0.125,-0.2],[-0.125,-0.2]]",-0.074685847,-0.175529101,1,0,0,1.3671,o2_image,590.7982,1,591.2964,591.2964,593.2963,0,0,0,0,1,,,,,,,,,,,,,,,,,,,,,,,,,,,,,,,,,,,,,,,,,,,,,,,,,,
,,66156b2dc0794709cb34b38b,34,male,2024-04-19_18h38.49.613,stockport_simplified,2022.2.4,MacIntel,119.047619,661e456ee6de07e70aa9ef7b,66229d9ed9bbb9183e1996bd,,,,,,,,,,,,,,,,,,,,,,,,,,,,,,,,,,,,,,,,,,,,,,,,,,,,,,,,0,48,48,58,1,N,M,D,o2_image,stimuli/out2.png,stimuli/out1.png,stimuli/correct_out2.png,,,,,,,,,,,,,,,,,,,,,,,,,,,,,,,,,,,,,,
,,66156b2dc0794709cb34b38b,34,male,2024-04-19_18h38.49.613,stockport_simplified,2022.2.4,MacIntel,119.047619,661e456ee6de07e70aa9ef7b,66229d9ed9bbb9183e1996bd,,,,,,,,,,,,,,,,,,,,,,,,,,,,,,,,,,593.2971,595.7627,"[1,7,3,4,8,6,5,2]","[[0.3,0.2],[-0.3,0.2]]","[[0.125,-0.2],[-0.125,-0.2]]",0.118510251,-0.205869709,1,0,0,1.9576,o1_image,595.7632,0,596.2627,596.2628,598.262,0,0,0,0,1,,,,,,,,,,,,,,,,,,,,,,,,,,,,,,,,,,,,,,,,,,,,,,,,,,
,,66156b2dc0794709cb34b38b,34,male,2024-04-19_18h38.49.613,stockport_simplified,2022.2.4,MacIntel,119.047619,661e456ee6de07e70aa9ef7b,66229d9ed9bbb9183e1996bd,,,,,,,,,,,,,,,,,,,,,,,,,,,,,,,,,,,,,,,,,,,,,,,,,,,,,,,,0,49,49,42,1,B,X,N,o2_image,stimuli/out2.png,stimuli/out1.png,stimuli/correct_out2.png,,,,,,,,,,,,,,,,,,,,,,,,,,,,,,,,,,,,,,
,,66156b2dc0794709cb34b38b,34,male,2024-04-19_18h38.49.613,stockport_simplified,2022.2.4,MacIntel,119.047619,661e456ee6de07e70aa9ef7b,66229d9ed9bbb9183e1996bd,,,,,,,,,,,,,,,,,,,,,,,,,,,,,,,,,,598.2628,599.6295,"[1,7,3,4,8,6,5,2]","[[-0.3,0.2],[0.3,0.2]]","[[0.125,-0.2],[-0.125,-0.2]]",-0.091894015,-0.212495866,1,0,0,0.8656,o2_image,599.6309,0,600.1298,600.1298,602.1295,0,0,0,0,1,,,,,,,,,,,,,,,,,,,,,,,,,,,,,,,,,,,,,,,,,,,,,,,,,,
,,66156b2dc0794709cb34b38b,34,male,2024-04-19_18h38.49.613,stockport_simplified,2022.2.4,MacIntel,119.047619,661e456ee6de07e70aa9ef7b,66229d9ed9bbb9183e1996bd,,,,,,,,,,,,,,,,,,,,,,,,,,,,,,,,,,,,,,,,,,,,,,,,,,,,,,,,0,50,50,54,1,N,M,C,o1_image,stimuli/out1.png,stimuli/correct_out1.png,stimuli/out2.png,,,,,,,,,,,,,,,,,,,,,,,,,,,,,,,,,,,,,,
,,66156b2dc0794709cb34b38b,34,male,2024-04-19_18h38.49.613,stockport_simplified,2022.2.4,MacIntel,119.047619,661e456ee6de07e70aa9ef7b,66229d9ed9bbb9183e1996bd,,,,,,,,,,,,,,,,,,,,,,,,,,,,,,,,,,602.1303,603.6128,"[1,7,3,4,8,6,5,2]","[[0.3,0.2],[-0.3,0.2]]","[[0.125,-0.2],[-0.125,-0.2]]",0.103831845,-0.191679067,1,0,0,0.9736,o1_image,603.6135,1,604.1128,604.1129,606.1128,0,0,0,0,1,,,,,,,,,,,,,,,,,,,,,,,,,,,,,,,,,,,,,,,,,,,,,,,,,,
,,66156b2dc0794709cb34b38b,34,male,2024-04-19_18h38.49.613,stockport_simplified,2022.2.4,MacIntel,119.047619,661e456ee6de07e70aa9ef7b,66229d9ed9bbb9183e1996bd,,,,,,,,,,,,,,,,,,,,,,,,,,,,,,,,,,,,,,,,,,,,,,,,,,,,,,,,0,51,51,0,1,A,X,N,o1_image,stimuli/out1.png,stimuli/correct_out1.png,stimuli/out2.png,,,,,,,,,,,,,,,,,,,,,,,,,,,,,,,,,,,,,,
,,66156b2dc0794709cb34b38b,34,male,2024-04-19_18h38.49.613,stockport_simplified,2022.2.4,MacIntel,119.047619,661e456ee6de07e70aa9ef7b,66229d9ed9bbb9183e1996bd,,,,,,,,,,,,,,,,,,,,,,,,,,,,,,,,,,606.1136,607.9291,"[1,7,3,4,8,6,5,2]","[[0.3,0.2],[-0.3,0.2]]","[[-0.125,-0.2],[0.125,-0.2]]",0.110032242,-0.181245866,1,0,0,1.307,o2_image,607.9299,0,608.4294,608.4295,610.4293,0,0,0,0,1,,,,,,,,,,,,,,,,,,,,,,,,,,,,,,,,,,,,,,,,,,,,,,,,,,
,,66156b2dc0794709cb34b38b,34,male,2024-04-19_18h38.49.613,stockport_simplified,2022.2.4,MacIntel,119.047619,661e456ee6de07e70aa9ef7b,66229d9ed9bbb9183e1996bd,,,,,,,,,,,,,,,,,,,,,,,,,,,,,,,,,,,,,,,,,,,,,,,,,,,,,,,,0,52,52,8,1,A,Y,N,o1_image,stimuli/out1.png,stimuli/correct_out1.png,stimuli/out2.png,,,,,,,,,,,,,,,,,,,,,,,,,,,,,,,,,,,,,,
,,66156b2dc0794709cb34b38b,34,male,2024-04-19_18h38.49.613,stockport_simplified,2022.2.4,MacIntel,119.047619,661e456ee6de07e70aa9ef7b,66229d9ed9bbb9183e1996bd,,,,,,,,,,,,,,,,,,,,,,,,,,,,,,,,,,610.4302,612.2125,"[1,7,3,4,8,6,5,2]","[[-0.3,0.2],[0.3,0.2]]","[[0.125,-0.2],[-0.125,-0.2]]",-0.112078373,-0.177269345,1,0,0,1.2744,o2_image,612.2129,0,612.7127,612.7128,614.7128,0,0,0,0,1,,,,,,,,,,,,,,,,,,,,,,,,,,,,,,,,,,,,,,,,,,,,,,,,,,
,,66156b2dc0794709cb34b38b,34,male,2024-04-19_18h38.49.613,stockport_simplified,2022.2.4,MacIntel,119.047619,661e456ee6de07e70aa9ef7b,66229d9ed9bbb9183e1996bd,,,,,,,,,,,,,,,,,,,,,,,,,,,,,,,,,,,,,,,,,,,,,,,,,,,,,,,,0,53,53,21,1,N,M,C,o1_image,stimuli/out1.png,stimuli/correct_out1.png,stimuli/out2.png,,,,,,,,,,,,,,,,,,,,,,,,,,,,,,,,,,,,,,
,,66156b2dc0794709cb34b38b,34,male,2024-04-19_18h38.49.613,stockport_simplified,2022.2.4,MacIntel,119.047619,661e456ee6de07e70aa9ef7b,66229d9ed9bbb9183e1996bd,,,,,,,,,,,,,,,,,,,,,,,,,,,,,,,,,,614.7136,616.5625,"[1,7,3,4,8,6,5,2]","[[-0.3,0.2],[0.3,0.2]]","[[-0.125,-0.2],[0.125,-0.2]]",-0.114124504,-0.190368717,1,0,0,1.3403,o1_image,616.563,0,617.0628,617.0628,619.0618,0,0,0,0,1,,,,,,,,,,,,,,,,,,,,,,,,,,,,,,,,,,,,,,,,,,,,,,,,,,
,,66156b2dc0794709cb34b38b,34,male,2024-04-19_18h38.49.613,stockport_simplified,2022.2.4,MacIntel,119.047619,661e456ee6de07e70aa9ef7b,66229d9ed9bbb9183e1996bd,,,,,,,,,,,,,,,,,,,,,,,,,,,,,,,,,,,,,,,,,,,,,,,,,,,,,,,,0,54,54,46,1,B,Y,N,o2_image,stimuli/out2.png,stimuli/out1.png,stimuli/correct_out2.png,,,,,,,,,,,,,,,,,,,,,,,,,,,,,,,,,,,,,,
,,66156b2dc0794709cb34b38b,34,male,2024-04-19_18h38.49.613,stockport_simplified,2022.2.4,MacIntel,119.047619,661e456ee6de07e70aa9ef7b,66229d9ed9bbb9183e1996bd,,,,,,,,,,,,,,,,,,,,,,,,,,,,,,,,,,619.0623,620.8547,"[1,7,3,4,8,6,5,2]","[[-0.3,0.2],[0.3,0.2]]","[[0.125,-0.2],[-0.125,-0.2]]",0.117051091,-0.176359954,1,0,0,1.2912,o1_image,620.8554,0,621.3542,621.3542,623.3535,0,0,0,0,1,,,,,,,,,,,,,,,,,,,,,,,,,,,,,,,,,,,,,,,,,,,,,,,,,,
,,66156b2dc0794709cb34b38b,34,male,2024-04-19_18h38.49.613,stockport_simplified,2022.2.4,MacIntel,119.047619,661e456ee6de07e70aa9ef7b,66229d9ed9bbb9183e1996bd,,,,,,,,,,,,,,,,,,,,,,,,,,,,,,,,,,,,,,,,,,,,,,,,,,,,,,,,0,55,55,43,1,B,X,N,o2_image,stimuli/out2.png,stimuli/out1.png,stimuli/correct_out2.png,,,,,,,,,,,,,,,,,,,,,,,,,,,,,,,,,,,,,,
,,66156b2dc0794709cb34b38b,34,male,2024-04-19_18h38.49.613,stockport_simplified,2022.2.4,MacIntel,119.047619,661e456ee6de07e70aa9ef7b,66229d9ed9bbb9183e1996bd,,,,,,,,,,,,,,,,,,,,,,,,,,,,,,,,,,623.3543,625.0124,"[1,7,3,4,8,6,5,2]","[[0.3,0.2],[-0.3,0.2]]","[[0.125,-0.2],[-0.125,-0.2]]",-0.091373181,-0.156803902,1,0,0,1.1494,o2_image,625.013,1,625.5127,625.5128,627.5126,0,0,0,0,1,,,,,,,,,,,,,,,,,,,,,,,,,,,,,,,,,,,,,,,,,,,,,,,,,,
,,66156b2dc0794709cb34b38b,34,male,2024-04-19_18h38.49.613,stockport_simplified,2022.2.4,MacIntel,119.047619,661e456ee6de07e70aa9ef7b,66229d9ed9bbb9183e1996bd,,,,,,,,,,,,,,,,,,,,,,,,,,,,,,,,,,,,,,,,,,,,,,,,,,,,,,,,0,56,56,45,1,B,Y,N,o2_image,stimuli/out2.png,stimuli/out1.png,stimuli/correct_out2.png,,,,,,,,,,,,,,,,,,,,,,,,,,,,,,,,,,,,,,
,,66156b2dc0794709cb34b38b,34,male,2024-04-19_18h38.49.613,stockport_simplified,2022.2.4,MacIntel,119.047619,661e456ee6de07e70aa9ef7b,66229d9ed9bbb9183e1996bd,,,,,,,,,,,,,,,,,,,,,,,,,,,,,,,,,,627.5136,629.0541,"[1,7,3,4,8,6,5,2]","[[-0.3,0.2],[0.3,0.2]]","[[0.125,-0.2],[-0.125,-0.2]]",-0.123412698,-0.166112765,1,0,0,1.0315,o2_image,629.0547,1,629.5544,629.5546,631.5544,0,0,0,0,1,,,,,,,,,,,,,,,,,,,,,,,,,,,,,,,,,,,,,,,,,,,,,,,,,,
,,66156b2dc0794709cb34b38b,34,male,2024-04-19_18h38.49.613,stockport_simplified,2022.2.4,MacIntel,119.047619,661e456ee6de07e70aa9ef7b,66229d9ed9bbb9183e1996bd,,,,,,,,,,,,,,,,,,,,,,,,,,,,,,,,,,,,,,,,,,,,,,,,,,,,,,,,0,57,57,25,1,N,M,D,o2_image,stimuli/out2.png,stimuli/out1.png,stimuli/correct_out2.png,,,,,,,,,,,,,,,,,,,,,,,,,,,,,,,,,,,,,,
,,66156b2dc0794709cb34b38b,34,male,2024-04-19_18h38.49.613,stockport_simplified,2022.2.4,MacIntel,119.047619,661e456ee6de07e70aa9ef7b,66229d9ed9bbb9183e1996bd,,,,,,,,,,,,,,,,,,,,,,,,,,,,,,,,,,631.5553,633.4043,"[1,7,3,4,8,6,5,2]","[[-0.3,0.2],[0.3,0.2]]","[[0.125,-0.2],[-0.125,-0.2]]",0.119196429,-0.192687665,1,0,0,1.3408,o1_image,633.4051,1,633.9043,633.9043,635.9038,0,0,0,0,1,,,,,,,,,,,,,,,,,,,,,,,,,,,,,,,,,,,,,,,,,,,,,,,,,,
,,66156b2dc0794709cb34b38b,34,male,2024-04-19_18h38.49.613,stockport_simplified,2022.2.4,MacIntel,119.047619,661e456ee6de07e70aa9ef7b,66229d9ed9bbb9183e1996bd,,,,,,,,,,,,,,,,,,,,,,,,,,,,,,,,,,,,,,,,,,,,,,,,,,,,,,,,0,58,58,30,1,A,X,N,o1_image,stimuli/out1.png,stimuli/correct_out1.png,stimuli/out2.png,,,,,,,,,,,,,,,,,,,,,,,,,,,,,,,,,,,,,,
,,66156b2dc0794709cb34b38b,34,male,2024-04-19_18h38.49.613,stockport_simplified,2022.2.4,MacIntel,119.047619,661e456ee6de07e70aa9ef7b,66229d9ed9bbb9183e1996bd,,,,,,,,,,,,,,,,,,,,,,,,,,,,,,,,,,635.9045,637.9206,"[1,7,3,4,8,6,5,2]","[[0.3,0.2],[-0.3,0.2]]","[[-0.125,-0.2],[0.125,-0.2]]",-0.039310516,-0.171560847,1,0,0,1.1576,o1_image,637.9212,1,638.421,638.4211,640.4206,0,0,0,0,1,,,,,,,,,,,,,,,,,,,,,,,,,,,,,,,,,,,,,,,,,,,,,,,,,,
,,66156b2dc0794709cb34b38b,34,male,2024-04-19_18h38.49.613,stockport_simplified,2022.2.4,MacIntel,119.047619,661e456ee6de07e70aa9ef7b,66229d9ed9bbb9183e1996bd,,,,,,,,,,,,,,,,,,,,,,,,,,,,,,,,,,,,,,,,,,,,,,,,,,,,,,,,0,59,59,39,1,A,Y,N,o1_image,stimuli/out1.png,stimuli/correct_out1.png,stimuli/out2.png,,,,,,,,,,,,,,,,,,,,,,,,,,,,,,,,,,,,,,
,,66156b2dc0794709cb34b38b,34,male,2024-04-19_18h38.49.613,stockport_simplified,2022.2.4,MacIntel,119.047619,661e456ee6de07e70aa9ef7b,66229d9ed9bbb9183e1996bd,,,,,,,,,,,,,,,,,,,,,,,,,,,,,,,,,,640.4213,642.4957,"[1,7,3,4,8,6,5,2]","[[-0.3,0.2],[0.3,0.2]]","[[-0.125,-0.2],[0.125,-0.2]]",-0.118142361,-0.196974206,1,0,0,1.5662,o1_image,642.4962,1,642.9957,642.9959,644.9961,0,0,0,0,1,,,,,,,,,,,,,,,,,,,,,,,,,,,,,,,,,,,,,,,,,,,,,,,,,,
,,66156b2dc0794709cb34b38b,34,male,2024-04-19_18h38.49.613,stockport_simplified,2022.2.4,MacIntel,119.047619,661e456ee6de07e70aa9ef7b,66229d9ed9bbb9183e1996bd,,,,,,,,,,,,,,,,,,,,,,,,,,,,,,,,,,,,,,,,,,,,,,,,,,,,,,,,1,0,60,38,1,A,Y,N,o1_image,stimuli/out1.png,stimuli/correct_out1.png,stimuli/out2.png,,,,,,,,,,,,,,,,,,,,,,,,,,,,,,,,,,,,,,
,,66156b2dc0794709cb34b38b,34,male,2024-04-19_18h38.49.613,stockport_simplified,2022.2.4,MacIntel,119.047619,661e456ee6de07e70aa9ef7b,66229d9ed9bbb9183e1996bd,,,,,,,,,,,,,,,,,,,,,,,,,,,,,,,,,,644.997,646.6789,"[1,7,3,4,8,6,5,2]","[[-0.3,0.2],[0.3,0.2]]","[[0.125,-0.2],[-0.125,-0.2]]",0.132866237,-0.184672619,1,0,0,1.1743,o1_image,646.6796,0,647.1792,647.1793,649.1793,0,0,0,0,1,,,,,,,,,,,,,,,,,,,,,,,,,,,,,,,,,,,,,,,,,,,,,,,,,,
,,66156b2dc0794709cb34b38b,34,male,2024-04-19_18h38.49.613,stockport_simplified,2022.2.4,MacIntel,119.047619,661e456ee6de07e70aa9ef7b,66229d9ed9bbb9183e1996bd,,,,,,,,,,,,,,,,,,,,,,,,,,,,,,,,,,,,,,,,,,,,,,,,,,,,,,,,1,1,61,40,1,B,X,N,o2_image,stimuli/out2.png,stimuli/out1.png,stimuli/correct_out2.png,,,,,,,,,,,,,,,,,,,,,,,,,,,,,,,,,,,,,,
,,66156b2dc0794709cb34b38b,34,male,2024-04-19_18h38.49.613,stockport_simplified,2022.2.4,MacIntel,119.047619,661e456ee6de07e70aa9ef7b,66229d9ed9bbb9183e1996bd,,,,,,,,,,,,,,,,,,,,,,,,,,,,,,,,,,649.1802,650.7705,"[1,7,3,4,8,6,5,2]","[[-0.3,0.2],[0.3,0.2]]","[[0.125,-0.2],[-0.125,-0.2]]",-0.090038029,-0.168927745,1,0,0,1.0823,o2_image,650.7711,0,651.2704,651.2704,653.2704,0,0,0,0,1,,,,,,,,,,,,,,,,,,,,,,,,,,,,,,,,,,,,,,,,,,,,,,,,,,
,,66156b2dc0794709cb34b38b,34,male,2024-04-19_18h38.49.613,stockport_simplified,2022.2.4,MacIntel,119.047619,661e456ee6de07e70aa9ef7b,66229d9ed9bbb9183e1996bd,,,,,,,,,,,,,,,,,,,,,,,,,,,,,,,,,,,,,,,,,,,,,,,,,,,,,,,,1,2,62,54,1,N,M,C,o1_image,stimuli/out1.png,stimuli/correct_out1.png,stimuli/out2.png,,,,,,,,,,,,,,,,,,,,,,,,,,,,,,,,,,,,,,
,,66156b2dc0794709cb34b38b,34,male,2024-04-19_18h38.49.613,stockport_simplified,2022.2.4,MacIntel,119.047619,661e456ee6de07e70aa9ef7b,66229d9ed9bbb9183e1996bd,,,,,,,,,,,,,,,,,,,,,,,,,,,,,,,,,,653.2711,655.2539,"[1,7,3,4,8,6,5,2]","[[-0.3,0.2],[0.3,0.2]]","[[0.125,-0.2],[-0.125,-0.2]]",-0.112909226,-0.17886078,1,0,0,1.474,o2_image,655.2544,1,655.7539,655.7539,657.7539,0,0,0,0,1,,,,,,,,,,,,,,,,,,,,,,,,,,,,,,,,,,,,,,,,,,,,,,,,,,
,,66156b2dc0794709cb34b38b,34,male,2024-04-19_18h38.49.613,stockport_simplified,2022.2.4,MacIntel,119.047619,661e456ee6de07e70aa9ef7b,66229d9ed9bbb9183e1996bd,,,,,,,,,,,,,,,,,,,,,,,,,,,,,,,,,,,,,,,,,,,,,,,,,,,,,,,,1,3,63,46,1,B,Y,N,o2_image,stimuli/out2.png,stimuli/out1.png,stimuli/correct_out2.png,,,,,,,,,,,,,,,,,,,,,,,,,,,,,,,,,,,,,,
,,66156b2dc0794709cb34b38b,34,male,2024-04-19_18h38.49.613,stockport_simplified,2022.2.4,MacIntel,119.047619,661e456ee6de07e70aa9ef7b,66229d9ed9bbb9183e1996bd,,,,,,,,,,,,,,,,,,,,,,,,,,,,,,,,,,657.7549,659.7788,"[1,7,3,4,8,6,5,2]","[[-0.3,0.2],[0.3,0.2]]","[[-0.125,-0.2],[0.125,-0.2]]",0.120457176,-0.191736938,1,0,0,1.5163,o2_image,659.7794,1,660.279,660.2791,662.2795,0,0,0,0,1,,,,,,,,,,,,,,,,,,,,,,,,,,,,,,,,,,,,,,,,,,,,,,,,,,
,,66156b2dc0794709cb34b38b,34,male,2024-04-19_18h38.49.613,stockport_simplified,2022.2.4,MacIntel,119.047619,661e456ee6de07e70aa9ef7b,66229d9ed9bbb9183e1996bd,,,,,,,,,,,,,,,,,,,,,,,,,,,,,,,,,,,,,,,,,,,,,,,,,,,,,,,,1,4,64,16,1,B,Y,N,o2_image,stimuli/out2.png,stimuli/out1.png,stimuli/correct_out2.png,,,,,,,,,,,,,,,,,,,,,,,,,,,,,,,,,,,,,,
,,66156b2dc0794709cb34b38b,34,male,2024-04-19_18h38.49.613,stockport_simplified,2022.2.4,MacIntel,119.047619,661e456ee6de07e70aa9ef7b,66229d9ed9bbb9183e1996bd,,,,,,,,,,,,,,,,,,,,,,,,,,,,,,,,,,662.2804,663.754,"[1,7,3,4,8,6,5,2]","[[0.3,0.2],[-0.3,0.2]]","[[-0.125,-0.2],[0.125,-0.2]]",0.130171131,-0.162830688,1,0,0,0.9661,o2_image,663.7546,0,664.2541,664.2543,666.2549,0,0,0,0,1,,,,,,,,,,,,,,,,,,,,,,,,,,,,,,,,,,,,,,,,,,,,,,,,,,
,,66156b2dc0794709cb34b38b,34,male,2024-04-19_18h38.49.613,stockport_simplified,2022.2.4,MacIntel,119.047619,661e456ee6de07e70aa9ef7b,66229d9ed9bbb9183e1996bd,,,,,,,,,,,,,,,,,,,,,,,,,,,,,,,,,,,,,,,,,,,,,,,,,,,,,,,,1,5,65,52,1,N,M,C,o1_image,stimuli/out1.png,stimuli/correct_out1.png,stimuli/out2.png,,,,,,,,,,,,,,,,,,,,,,,,,,,,,,,,,,,,,,
,,66156b2dc0794709cb34b38b,34,male,2024-04-19_18h38.49.613,stockport_simplified,2022.2.4,MacIntel,119.047619,661e456ee6de07e70aa9ef7b,66229d9ed9bbb9183e1996bd,,,,,,,,,,,,,,,,,,,,,,,,,,,,,,,,,,666.2561,667.62,"[1,7,3,4,8,6,5,2]","[[-0.3,0.2],[0.3,0.2]]","[[-0.125,-0.2],[0.125,-0.2]]",0.112735615,-0.171502976,1,0,0,0.8569,o2_image,667.6207,1,668.1209,668.1209,670.1208,0,0,0,0,1,,,,,,,,,,,,,,,,,,,,,,,,,,,,,,,,,,,,,,,,,,,,,,,,,,
,,66156b2dc0794709cb34b38b,34,male,2024-04-19_18h38.49.613,stockport_simplified,2022.2.4,MacIntel,119.047619,661e456ee6de07e70aa9ef7b,66229d9ed9bbb9183e1996bd,,,,,,,,,,,,,,,,,,,,,,,,,,,,,,,,,,,,,,,,,,,,,,,,,,,,,,,,1,6,66,56,1,N,M,D,o2_image,stimuli/out2.png,stimuli/out1.png,stimuli/correct_out2.png,,,,,,,,,,,,,,,,,,,,,,,,,,,,,,,,,,,,,,
,,66156b2dc0794709cb34b38b,34,male,2024-04-19_18h38.49.613,stockport_simplified,2022.2.4,MacIntel,119.047619,661e456ee6de07e70aa9ef7b,66229d9ed9bbb9183e1996bd,,,,,,,,,,,,,,,,,,,,,,,,,,,,,,,,,,670.1217,672.0288,"[1,7,3,4,8,6,5,2]","[[0.3,0.2],[-0.3,0.2]]","[[0.125,-0.2],[-0.125,-0.2]]",-0.112760417,-0.182452877,1,0,0,1.3991,o2_image,672.0293,1,672.529,672.5292,674.5288,0,0,0,0,1,,,,,,,,,,,,,,,,,,,,,,,,,,,,,,,,,,,,,,,,,,,,,,,,,,
,,66156b2dc0794709cb34b38b,34,male,2024-04-19_18h38.49.613,stockport_simplified,2022.2.4,MacIntel,119.047619,661e456ee6de07e70aa9ef7b,66229d9ed9bbb9183e1996bd,,,,,,,,,,,,,,,,,,,,,,,,,,,,,,,,,,,,,,,,,,,,,,,,,,,,,,,,1,7,67,18,1,B,Y,N,o2_image,stimuli/out2.png,stimuli/out1.png,stimuli/correct_out2.png,,,,,,,,,,,,,,,,,,,,,,,,,,,,,,,,,,,,,,
,,66156b2dc0794709cb34b38b,34,male,2024-04-19_18h38.49.613,stockport_simplified,2022.2.4,MacIntel,119.047619,661e456ee6de07e70aa9ef7b,66229d9ed9bbb9183e1996bd,,,,,,,,,,,,,,,,,,,,,,,,,,,,,,,,,,674.5294,676.2705,"[1,7,3,4,8,6,5,2]","[[-0.3,0.2],[0.3,0.2]]","[[-0.125,-0.2],[0.125,-0.2]]",-0.104179067,-0.202848049,1,0,0,1.2327,o1_image,676.2711,1,676.7708,676.7708,678.7705,0,0,0,0,1,,,,,,,,,,,,,,,,,,,,,,,,,,,,,,,,,,,,,,,,,,,,,,,,,,
,,66156b2dc0794709cb34b38b,34,male,2024-04-19_18h38.49.613,stockport_simplified,2022.2.4,MacIntel,119.047619,661e456ee6de07e70aa9ef7b,66229d9ed9bbb9183e1996bd,,,,,,,,,,,,,,,,,,,,,,,,,,,,,,,,,,,,,,,,,,,,,,,,,,,,,,,,1,8,68,3,1,A,X,N,o1_image,stimuli/out1.png,stimuli/correct_out1.png,stimuli/out2.png,,,,,,,,,,,,,,,,,,,,,,,,,,,,,,,,,,,,,,
,,66156b2dc0794709cb34b38b,34,male,2024-04-19_18h38.49.613,stockport_simplified,2022.2.4,MacIntel,119.047619,661e456ee6de07e70aa9ef7b,66229d9ed9bbb9183e1996bd,,,,,,,,,,,,,,,,,,,,,,,,,,,,,,,,,,678.7709,680.4956,"[1,7,3,4,8,6,5,2]","[[-0.3,0.2],[0.3,0.2]]","[[-0.125,-0.2],[0.125,-0.2]]",0.099247685,-0.191505456,1,0,0,1.2165,o2_image,680.4964,0,680.9967,680.9968,682.9951,0,0,0,0,1,,,,,,,,,,,,,,,,,,,,,,,,,,,,,,,,,,,,,,,,,,,,,,,,,,
,,66156b2dc0794709cb34b38b,34,male,2024-04-19_18h38.49.613,stockport_simplified,2022.2.4,MacIntel,119.047619,661e456ee6de07e70aa9ef7b,66229d9ed9bbb9183e1996bd,,,,,,,,,,,,,,,,,,,,,,,,,,,,,,,,,,,,,,,,,,,,,,,,,,,,,,,,1,9,69,51,1,N,M,C,o1_image,stimuli/out1.png,stimuli/correct_out1.png,stimuli/out2.png,,,,,,,,,,,,,,,,,,,,,,,,,,,,,,,,,,,,,,
,,66156b2dc0794709cb34b38b,34,male,2024-04-19_18h38.49.613,stockport_simplified,2022.2.4,MacIntel,119.047619,661e456ee6de07e70aa9ef7b,66229d9ed9bbb9183e1996bd,,,,,,,,,,,,,,,,,,,,,,,,,,,,,,,,,,682.9956,684.6288,"[1,7,3,4,8,6,5,2]","[[-0.3,0.2],[0.3,0.2]]","[[-0.125,-0.2],[0.125,-0.2]]",-0.103831845,-0.186106978,1,0,0,1.1242,o1_image,684.6295,0,685.129,685.129,687.1299,0,0,0,0,1,,,,,,,,,,,,,,,,,,,,,,,,,,,,,,,,,,,,,,,,,,,,,,,,,,
,,66156b2dc0794709cb34b38b,34,male,2024-04-19_18h38.49.613,stockport_simplified,2022.2.4,MacIntel,119.047619,661e456ee6de07e70aa9ef7b,66229d9ed9bbb9183e1996bd,,,,,,,,,,,,,,,,,,,,,,,,,,,,,,,,,,,,,,,,,,,,,,,,,,,,,,,,1,10,70,41,1,B,X,N,o2_image,stimuli/out2.png,stimuli/out1.png,stimuli/correct_out2.png,,,,,,,,,,,,,,,,,,,,,,,,,,,,,,,,,,,,,,
,,66156b2dc0794709cb34b38b,34,male,2024-04-19_18h38.49.613,stockport_simplified,2022.2.4,MacIntel,119.047619,661e456ee6de07e70aa9ef7b,66229d9ed9bbb9183e1996bd,,,,,,,,,,,,,,,,,,,,,,,,,,,,,,,,,,687.1305,688.6033,"[1,7,3,4,8,6,5,2]","[[0.3,0.2],[-0.3,0.2]]","[[-0.125,-0.2],[0.125,-0.2]]",0.115910218,-0.204513889,1,0,0,0.9658,o2_image,688.6039,0,689.1041,689.1043,691.1041,0,0,0,0,1,,,,,,,,,,,,,,,,,,,,,,,,,,,,,,,,,,,,,,,,,,,,,,,,,,
,,66156b2dc0794709cb34b38b,34,male,2024-04-19_18h38.49.613,stockport_simplified,2022.2.4,MacIntel,119.047619,661e456ee6de07e70aa9ef7b,66229d9ed9bbb9183e1996bd,,,,,,,,,,,,,,,,,,,,,,,,,,,,,,,,,,,,,,,,,,,,,,,,,,,,,,,,1,11,71,20,1,N,M,C,o1_image,stimuli/out1.png,stimuli/correct_out1.png,stimuli/out2.png,,,,,,,,,,,,,,,,,,,,,,,,,,,,,,,,,,,,,,
,,66156b2dc0794709cb34b38b,34,male,2024-04-19_18h38.49.613,stockport_simplified,2022.2.4,MacIntel,119.047619,661e456ee6de07e70aa9ef7b,66229d9ed9bbb9183e1996bd,,,,,,,,,,,,,,,,,,,,,,,,,,,,,,,,,,691.1048,693.271,"[1,7,3,4,8,6,5,2]","[[0.3,0.2],[-0.3,0.2]]","[[0.125,-0.2],[-0.125,-0.2]]",0.126000331,-0.189971892,1,0,0,1.6578,o1_image,693.2718,1,693.7709,693.771,695.7705,0,0,0,0,1,,,,,,,,,,,,,,,,,,,,,,,,,,,,,,,,,,,,,,,,,,,,,,,,,,
,,66156b2dc0794709cb34b38b,34,male,2024-04-19_18h38.49.613,stockport_simplified,2022.2.4,MacIntel,119.047619,661e456ee6de07e70aa9ef7b,66229d9ed9bbb9183e1996bd,,,,,,,,,,,,,,,,,,,,,,,,,,,,,,,,,,,,,,,,,,,,,,,,,,,,,,,,1,12,72,5,1,A,Y,N,o1_image,stimuli/out1.png,stimuli/correct_out1.png,stimuli/out2.png,,,,,,,,,,,,,,,,,,,,,,,,,,,,,,,,,,,,,,
,,66156b2dc0794709cb34b38b,34,male,2024-04-19_18h38.49.613,stockport_simplified,2022.2.4,MacIntel,119.047619,661e456ee6de07e70aa9ef7b,66229d9ed9bbb9183e1996bd,,,,,,,,,,,,,,,,,,,,,,,,,,,,,,,,,,695.7712,697.3371,"[1,7,3,4,8,6,5,2]","[[-0.3,0.2],[0.3,0.2]]","[[-0.125,-0.2],[0.125,-0.2]]",-0.092770337,-0.174053406,1,0,0,1.057,o1_image,697.3378,1,697.8369,697.8369,699.8371,0,0,0,0,1,,,,,,,,,,,,,,,,,,,,,,,,,,,,,,,,,,,,,,,,,,,,,,,,,,
,,66156b2dc0794709cb34b38b,34,male,2024-04-19_18h38.49.613,stockport_simplified,2022.2.4,MacIntel,119.047619,661e456ee6de07e70aa9ef7b,66229d9ed9bbb9183e1996bd,,,,,,,,,,,,,,,,,,,,,,,,,,,,,,,,,,,,,,,,,,,,,,,,,,,,,,,,1,13,73,21,1,N,M,C,o1_image,stimuli/out1.png,stimuli/correct_out1.png,stimuli/out2.png,,,,,,,,,,,,,,,,,,,,,,,,,,,,,,,,,,,,,,
,,66156b2dc0794709cb34b38b,34,male,2024-04-19_18h38.49.613,stockport_simplified,2022.2.4,MacIntel,119.047619,661e456ee6de07e70aa9ef7b,66229d9ed9bbb9183e1996bd,,,,,,,,,,,,,,,,,,,,,,,,,,,,,,,,,,699.8378,701.5705,"[1,7,3,4,8,6,5,2]","[[-0.3,0.2],[0.3,0.2]]","[[0.125,-0.2],[-0.125,-0.2]]",0.134833829,-0.184986772,1,0,0,1.224,o1_image,701.5711,1,702.0704,702.0705,704.0707,0,0,0,0,1,,,,,,,,,,,,,,,,,,,,,,,,,,,,,,,,,,,,,,,,,,,,,,,,,,
,,66156b2dc0794709cb34b38b,34,male,2024-04-19_18h38.49.613,stockport_simplified,2022.2.4,MacIntel,119.047619,661e456ee6de07e70aa9ef7b,66229d9ed9bbb9183e1996bd,,,,,,,,,,,,,,,,,,,,,,,,,,,,,,,,,,,,,,,,,,,,,,,,,,,,,,,,1,14,74,8,1,A,Y,N,o1_image,stimuli/out1.png,stimuli/correct_out1.png,stimuli/out2.png,,,,,,,,,,,,,,,,,,,,,,,,,,,,,,,,,,,,,,
,,66156b2dc0794709cb34b38b,34,male,2024-04-19_18h38.49.613,stockport_simplified,2022.2.4,MacIntel,119.047619,661e456ee6de07e70aa9ef7b,66229d9ed9bbb9183e1996bd,,,,,,,,,,,,,,,,,,,,,,,,,,,,,,,,,,704.0715,706.2203,"[1,7,3,4,8,6,5,2]","[[0.3,0.2],[-0.3,0.2]]","[[0.125,-0.2],[-0.125,-0.2]]",0.125219081,-0.182428075,1,0,0,1.6417,o1_image,706.221,1,706.7208,706.7208,708.7205,0,0,0,0,1,,,,,,,,,,,,,,,,,,,,,,,,,,,,,,,,,,,,,,,,,,,,,,,,,,
,,66156b2dc0794709cb34b38b,34,male,2024-04-19_18h38.49.613,stockport_simplified,2022.2.4,MacIntel,119.047619,661e456ee6de07e70aa9ef7b,66229d9ed9bbb9183e1996bd,,,,,,,,,,,,,,,,,,,,,,,,,,,,,,,,,,,,,,,,,,,,,,,,,,,,,,,,1,15,75,24,1,N,M,C,o1_image,stimuli/out1.png,stimuli/correct_out1.png,stimuli/out2.png,,,,,,,,,,,,,,,,,,,,,,,,,,,,,,,,,,,,,,
,,66156b2dc0794709cb34b38b,34,male,2024-04-19_18h38.49.613,stockport_simplified,2022.2.4,MacIntel,119.047619,661e456ee6de07e70aa9ef7b,66229d9ed9bbb9183e1996bd,,,,,,,,,,,,,,,,,,,,,,,,,,,,,,,,,,708.7215,710.4036,"[1,7,3,4,8,6,5,2]","[[-0.3,0.2],[0.3,0.2]]","[[-0.125,-0.2],[0.125,-0.2]]",-0.106543485,-0.184961971,1,0,0,1.1739,o1_image,710.4043,1,710.9037,710.9038,712.905,0,0,0,0,1,,,,,,,,,,,,,,,,,,,,,,,,,,,,,,,,,,,,,,,,,,,,,,,,,,
,,66156b2dc0794709cb34b38b,34,male,2024-04-19_18h38.49.613,stockport_simplified,2022.2.4,MacIntel,119.047619,661e456ee6de07e70aa9ef7b,66229d9ed9bbb9183e1996bd,,,,,,,,,,,,,,,,,,,,,,,,,,,,,,,,,,,,,,,,,,,,,,,,,,,,,,,,1,16,76,32,1,A,X,N,o1_image,stimuli/out1.png,stimuli/correct_out1.png,stimuli/out2.png,,,,,,,,,,,,,,,,,,,,,,,,,,,,,,,,,,,,,,
,,66156b2dc0794709cb34b38b,34,male,2024-04-19_18h38.49.613,stockport_simplified,2022.2.4,MacIntel,119.047619,661e456ee6de07e70aa9ef7b,66229d9ed9bbb9183e1996bd,,,,,,,,,,,,,,,,,,,,,,,,,,,,,,,,,,712.9057,714.5118,"[1,7,3,4,8,6,5,2]","[[0.3,0.2],[-0.3,0.2]]","[[-0.125,-0.2],[0.125,-0.2]]",-0.120019015,-0.179447751,1,0,0,1.0984,o1_image,714.5124,1,715.0121,715.0121,717.0121,0,0,0,0,1,,,,,,,,,,,,,,,,,,,,,,,,,,,,,,,,,,,,,,,,,,,,,,,,,,
,,66156b2dc0794709cb34b38b,34,male,2024-04-19_18h38.49.613,stockport_simplified,2022.2.4,MacIntel,119.047619,661e456ee6de07e70aa9ef7b,66229d9ed9bbb9183e1996bd,,,,,,,,,,,,,,,,,,,,,,,,,,,,,,,,,,,,,,,,,,,,,,,,,,,,,,,,1,17,77,6,1,A,Y,N,o1_image,stimuli/out1.png,stimuli/correct_out1.png,stimuli/out2.png,,,,,,,,,,,,,,,,,,,,,,,,,,,,,,,,,,,,,,
,,66156b2dc0794709cb34b38b,34,male,2024-04-19_18h38.49.613,stockport_simplified,2022.2.4,MacIntel,119.047619,661e456ee6de07e70aa9ef7b,66229d9ed9bbb9183e1996bd,,,,,,,,,,,,,,,,,,,,,,,,,,,,,,,,,,717.0128,718.4535,"[1,7,3,4,8,6,5,2]","[[-0.3,0.2],[0.3,0.2]]","[[-0.125,-0.2],[0.125,-0.2]]",-0.097296627,-0.165972222,1,0,0,0.9328,o1_image,718.4542,1,718.9538,718.9539,720.9538,0,0,0,0,1,,,,,,,,,,,,,,,,,,,,,,,,,,,,,,,,,,,,,,,,,,,,,,,,,,
,,66156b2dc0794709cb34b38b,34,male,2024-04-19_18h38.49.613,stockport_simplified,2022.2.4,MacIntel,119.047619,661e456ee6de07e70aa9ef7b,66229d9ed9bbb9183e1996bd,,,,,,,,,,,,,,,,,,,,,,,,,,,,,,,,,,,,,,,,,,,,,,,,,,,,,,,,1,18,78,33,1,A,X,N,o1_image,stimuli/out1.png,stimuli/correct_out1.png,stimuli/out2.png,,,,,,,,,,,,,,,,,,,,,,,,,,,,,,,,,,,,,,
,,66156b2dc0794709cb34b38b,34,male,2024-04-19_18h38.49.613,stockport_simplified,2022.2.4,MacIntel,119.047619,661e456ee6de07e70aa9ef7b,66229d9ed9bbb9183e1996bd,,,,,,,,,,,,,,,,,,,,,,,,,,,,,,,,,,720.9546,722.5621,"[1,7,3,4,8,6,5,2]","[[-0.3,0.2],[0.3,0.2]]","[[0.125,-0.2],[-0.125,-0.2]]",0.102938988,-0.175967262,1,0,0,1.0994,o1_image,722.5626,1,723.0616,723.0616,725.0621,0,0,0,0,1,,,,,,,,,,,,,,,,,,,,,,,,,,,,,,,,,,,,,,,,,,,,,,,,,,
,,66156b2dc0794709cb34b38b,34,male,2024-04-19_18h38.49.613,stockport_simplified,2022.2.4,MacIntel,119.047619,661e456ee6de07e70aa9ef7b,66229d9ed9bbb9183e1996bd,,,,,,,,,,,,,,,,,,,,,,,,,,,,,,,,,,,,,,,,,,,,,,,,,,,,,,,,1,19,79,37,1,A,Y,N,o1_image,stimuli/out1.png,stimuli/correct_out1.png,stimuli/out2.png,,,,,,,,,,,,,,,,,,,,,,,,,,,,,,,,,,,,,,
,,66156b2dc0794709cb34b38b,34,male,2024-04-19_18h38.49.613,stockport_simplified,2022.2.4,MacIntel,119.047619,661e456ee6de07e70aa9ef7b,66229d9ed9bbb9183e1996bd,,,,,,,,,,,,,,,,,,,,,,,,,,,,,,,,,,725.0628,726.5201,"[1,7,3,4,8,6,5,2]","[[-0.3,0.2],[0.3,0.2]]","[[0.125,-0.2],[-0.125,-0.2]]",0.125797784,-0.202323082,1,0,0,0.9499,o1_image,726.5205,0,727.0203,727.0205,729.0204,0,0,0,0,1,,,,,,,,,,,,,,,,,,,,,,,,,,,,,,,,,,,,,,,,,,,,,,,,,,
,,66156b2dc0794709cb34b38b,34,male,2024-04-19_18h38.49.613,stockport_simplified,2022.2.4,MacIntel,119.047619,661e456ee6de07e70aa9ef7b,66229d9ed9bbb9183e1996bd,,,,,,,,,,,,,,,,,,,,,,,,,,,,,,,,,,,,,,,,,,,,,,,,,,,,,,,,1,20,80,15,1,B,Y,N,o2_image,stimuli/out2.png,stimuli/out1.png,stimuli/correct_out2.png,,,,,,,,,,,,,,,,,,,,,,,,,,,,,,,,,,,,,,
,,66156b2dc0794709cb34b38b,34,male,2024-04-19_18h38.49.613,stockport_simplified,2022.2.4,MacIntel,119.047619,661e456ee6de07e70aa9ef7b,66229d9ed9bbb9183e1996bd,,,,,,,,,,,,,,,,,,,,,,,,,,,,,,,,,,729.0212,731.5534,"[1,7,3,4,8,6,5,2]","[[0.3,0.2],[-0.3,0.2]]","[[-0.125,-0.2],[0.125,-0.2]]",-0.153988922,-0.174293155,1,0,0,2.0245,o1_image,731.5539,0,732.0537,732.0538,734.0535,0,0,0,0,1,,,,,,,,,,,,,,,,,,,,,,,,,,,,,,,,,,,,,,,,,,,,,,,,,,
,,66156b2dc0794709cb34b38b,34,male,2024-04-19_18h38.49.613,stockport_simplified,2022.2.4,MacIntel,119.047619,661e456ee6de07e70aa9ef7b,66229d9ed9bbb9183e1996bd,,,,,,,,,,,,,,,,,,,,,,,,,,,,,,,,,,,,,,,,,,,,,,,,,,,,,,,,1,21,81,17,1,B,Y,N,o2_image,stimuli/out2.png,stimuli/out1.png,stimuli/correct_out2.png,,,,,,,,,,,,,,,,,,,,,,,,,,,,,,,,,,,,,,
,,66156b2dc0794709cb34b38b,34,male,2024-04-19_18h38.49.613,stockport_simplified,2022.2.4,MacIntel,119.047619,661e456ee6de07e70aa9ef7b,66229d9ed9bbb9183e1996bd,,,,,,,,,,,,,,,,,,,,,,,,,,,,,,,,,,734.0542,736.2783,"[1,7,3,4,8,6,5,2]","[[-0.3,0.2],[0.3,0.2]]","[[0.125,-0.2],[-0.125,-0.2]]",-0.130373677,-0.172172619,1,0,0,1.7164,o2_image,736.2899,1,736.7885,736.7886,738.7869,0,0,0,0,1,,,,,,,,,,,,,,,,,,,,,,,,,,,,,,,,,,,,,,,,,,,,,,,,,,
,,66156b2dc0794709cb34b38b,34,male,2024-04-19_18h38.49.613,stockport_simplified,2022.2.4,MacIntel,119.047619,661e456ee6de07e70aa9ef7b,66229d9ed9bbb9183e1996bd,,,,,,,,,,,,,,,,,,,,,,,,,,,,,,,,,,,,,,,,,,,,,,,,,,,,,,,,1,22,82,25,1,N,M,D,o2_image,stimuli/out2.png,stimuli/out1.png,stimuli/correct_out2.png,,,,,,,,,,,,,,,,,,,,,,,,,,,,,,,,,,,,,,
,,66156b2dc0794709cb34b38b,34,male,2024-04-19_18h38.49.613,stockport_simplified,2022.2.4,MacIntel,119.047619,661e456ee6de07e70aa9ef7b,66229d9ed9bbb9183e1996bd,,,,,,,,,,,,,,,,,,,,,,,,,,,,,,,,,,738.7879,740.8365,"[1,7,3,4,8,6,5,2]","[[0.3,0.2],[-0.3,0.2]]","[[-0.125,-0.2],[0.125,-0.2]]",0.093960813,-0.204600694,1,0,0,1.5409,o2_image,740.8372,1,741.3364,741.3365,743.3372,0,0,0,0,1,,,,,,,,,,,,,,,,,,,,,,,,,,,,,,,,,,,,,,,,,,,,,,,,,,
,,66156b2dc0794709cb34b38b,34,male,2024-04-19_18h38.49.613,stockport_simplified,2022.2.4,MacIntel,119.047619,661e456ee6de07e70aa9ef7b,66229d9ed9bbb9183e1996bd,,,,,,,,,,,,,,,,,,,,,,,,,,,,,,,,,,,,,,,,,,,,,,,,,,,,,,,,1,23,83,59,1,N,M,D,o2_image,stimuli/out2.png,stimuli/out1.png,stimuli/correct_out2.png,,,,,,,,,,,,,,,,,,,,,,,,,,,,,,,,,,,,,,
,,66156b2dc0794709cb34b38b,34,male,2024-04-19_18h38.49.613,stockport_simplified,2022.2.4,MacIntel,119.047619,661e456ee6de07e70aa9ef7b,66229d9ed9bbb9183e1996bd,,,,,,,,,,,,,,,,,,,,,,,,,,,,,,,,,,743.3379,745.5619,"[1,7,3,4,8,6,5,2]","[[-0.3,0.2],[0.3,0.2]]","[[0.125,-0.2],[-0.125,-0.2]]",0.111450066,-0.174933862,1,0,0,1.7159,o1_image,745.5626,0,746.061,746.061,748.062,0,0,0,0,1,,,,,,,,,,,,,,,,,,,,,,,,,,,,,,,,,,,,,,,,,,,,,,,,,,
,,66156b2dc0794709cb34b38b,34,male,2024-04-19_18h38.49.613,stockport_simplified,2022.2.4,MacIntel,119.047619,661e456ee6de07e70aa9ef7b,66229d9ed9bbb9183e1996bd,,,,,,,,,,,,,,,,,,,,,,,,,,,,,,,,,,,,,,,,,,,,,,,,,,,,,,,,1,24,84,11,1,B,X,N,o2_image,stimuli/out2.png,stimuli/out1.png,stimuli/correct_out2.png,,,,,,,,,,,,,,,,,,,,,,,,,,,,,,,,,,,,,,
,,66156b2dc0794709cb34b38b,34,male,2024-04-19_18h38.49.613,stockport_simplified,2022.2.4,MacIntel,119.047619,661e456ee6de07e70aa9ef7b,66229d9ed9bbb9183e1996bd,,,,,,,,,,,,,,,,,,,,,,,,,,,,,,,,,,748.0626,750.0534,"[1,7,3,4,8,6,5,2]","[[-0.3,0.2],[0.3,0.2]]","[[-0.125,-0.2],[0.125,-0.2]]",-0.165236442,-0.193547454,1,0,0,1.4827,o1_image,750.054,0,750.5532,750.5534,752.5534,0,0,0,0,1,,,,,,,,,,,,,,,,,,,,,,,,,,,,,,,,,,,,,,,,,,,,,,,,,,
,,66156b2dc0794709cb34b38b,34,male,2024-04-19_18h38.49.613,stockport_simplified,2022.2.4,MacIntel,119.047619,661e456ee6de07e70aa9ef7b,66229d9ed9bbb9183e1996bd,,,,,,,,,,,,,,,,,,,,,,,,,,,,,,,,,,,,,,,,,,,,,,,,,,,,,,,,1,25,85,48,1,B,Y,N,o2_image,stimuli/out2.png,stimuli/out1.png,stimuli/correct_out2.png,,,,,,,,,,,,,,,,,,,,,,,,,,,,,,,,,,,,,,
,,66156b2dc0794709cb34b38b,34,male,2024-04-19_18h38.49.613,stockport_simplified,2022.2.4,MacIntel,119.047619,661e456ee6de07e70aa9ef7b,66229d9ed9bbb9183e1996bd,,,,,,,,,,,,,,,,,,,,,,,,,,,,,,,,,,752.5541,754.1452,"[1,7,3,4,8,6,5,2]","[[-0.3,0.2],[0.3,0.2]]","[[-0.125,-0.2],[0.125,-0.2]]",-0.100905258,-0.16645172,1,0,0,1.0838,o1_image,754.1464,1,754.645,754.645,756.645,0,0,0,0,1,,,,,,,,,,,,,,,,,,,,,,,,,,,,,,,,,,,,,,,,,,,,,,,,,,
,,66156b2dc0794709cb34b38b,34,male,2024-04-19_18h38.49.613,stockport_simplified,2022.2.4,MacIntel,119.047619,661e456ee6de07e70aa9ef7b,66229d9ed9bbb9183e1996bd,,,,,,,,,,,,,,,,,,,,,,,,,,,,,,,,,,,,,,,,,,,,,,,,,,,,,,,,1,26,86,2,1,A,X,N,o1_image,stimuli/out1.png,stimuli/correct_out1.png,stimuli/out2.png,,,,,,,,,,,,,,,,,,,,,,,,,,,,,,,,,,,,,,
,,66156b2dc0794709cb34b38b,34,male,2024-04-19_18h38.49.613,stockport_simplified,2022.2.4,MacIntel,119.047619,661e456ee6de07e70aa9ef7b,66229d9ed9bbb9183e1996bd,,,,,,,,,,,,,,,,,,,,,,,,,,,,,,,,,,756.6457,758.8283,"[1,7,3,4,8,6,5,2]","[[-0.3,0.2],[0.3,0.2]]","[[-0.125,-0.2],[0.125,-0.2]]",0.111652612,-0.189988426,1,0,0,1.6739,o2_image,758.8291,1,759.3286,759.3287,761.3284,0,0,0,0,1,,,,,,,,,,,,,,,,,,,,,,,,,,,,,,,,,,,,,,,,,,,,,,,,,,
,,66156b2dc0794709cb34b38b,34,male,2024-04-19_18h38.49.613,stockport_simplified,2022.2.4,MacIntel,119.047619,661e456ee6de07e70aa9ef7b,66229d9ed9bbb9183e1996bd,,,,,,,,,,,,,,,,,,,,,,,,,,,,,,,,,,,,,,,,,,,,,,,,,,,,,,,,1,27,87,28,1,N,M,D,o2_image,stimuli/out2.png,stimuli/out1.png,stimuli/correct_out2.png,,,,,,,,,,,,,,,,,,,,,,,,,,,,,,,,,,,,,,
,,66156b2dc0794709cb34b38b,34,male,2024-04-19_18h38.49.613,stockport_simplified,2022.2.4,MacIntel,119.047619,661e456ee6de07e70aa9ef7b,66229d9ed9bbb9183e1996bd,,,,,,,,,,,,,,,,,,,,,,,,,,,,,,,,,,761.3293,763.6111,"[1,7,3,4,8,6,5,2]","[[0.3,0.2],[-0.3,0.2]]","[[-0.125,-0.2],[0.125,-0.2]]",0.125958995,-0.194006283,1,0,0,1.7736,o2_image,763.6117,1,764.1114,764.1115,766.1118,0,0,0,0,1,,,,,,,,,,,,,,,,,,,,,,,,,,,,,,,,,,,,,,,,,,,,,,,,,,
,,66156b2dc0794709cb34b38b,34,male,2024-04-19_18h38.49.613,stockport_simplified,2022.2.4,MacIntel,119.047619,661e456ee6de07e70aa9ef7b,66229d9ed9bbb9183e1996bd,,,,,,,,,,,,,,,,,,,,,,,,,,,,,,,,,,,,,,,,,,,,,,,,,,,,,,,,1,28,88,49,1,B,Y,N,o2_image,stimuli/out2.png,stimuli/out1.png,stimuli/correct_out2.png,,,,,,,,,,,,,,,,,,,,,,,,,,,,,,,,,,,,,,
,,66156b2dc0794709cb34b38b,34,male,2024-04-19_18h38.49.613,stockport_simplified,2022.2.4,MacIntel,119.047619,661e456ee6de07e70aa9ef7b,66229d9ed9bbb9183e1996bd,,,,,,,,,,,,,,,,,,,,,,,,,,,,,,,,,,766.1125,767.9115,"[1,7,3,4,8,6,5,2]","[[0.3,0.2],[-0.3,0.2]]","[[0.125,-0.2],[-0.125,-0.2]]",-0.113628472,-0.162218915,1,0,0,1.2904,o2_image,767.912,1,768.4122,768.4123,770.4119,0,0,0,0,1,,,,,,,,,,,,,,,,,,,,,,,,,,,,,,,,,,,,,,,,,,,,,,,,,,
,,66156b2dc0794709cb34b38b,34,male,2024-04-19_18h38.49.613,stockport_simplified,2022.2.4,MacIntel,119.047619,661e456ee6de07e70aa9ef7b,66229d9ed9bbb9183e1996bd,,,,,,,,,,,,,,,,,,,,,,,,,,,,,,,,,,,,,,,,,,,,,,,,,,,,,,,,1,29,89,29,1,N,M,D,o2_image,stimuli/out2.png,stimuli/out1.png,stimuli/correct_out2.png,,,,,,,,,,,,,,,,,,,,,,,,,,,,,,,,,,,,,,
,,66156b2dc0794709cb34b38b,34,male,2024-04-19_18h38.49.613,stockport_simplified,2022.2.4,MacIntel,119.047619,661e456ee6de07e70aa9ef7b,66229d9ed9bbb9183e1996bd,,,,,,,,,,,,,,,,,,,,,,,,,,,,,,,,,,770.4124,773.5118,"[1,7,3,4,8,6,5,2]","[[-0.3,0.2],[0.3,0.2]]","[[-0.125,-0.2],[0.125,-0.2]]",0.141476521,-0.152670304,1,0,0,2.5922,o2_image,773.5124,0,774.0119,774.0119,776.0114,0,0,0,0,1,,,,,,,,,,,,,,,,,,,,,,,,,,,,,,,,,,,,,,,,,,,,,,,,,,
,,66156b2dc0794709cb34b38b,34,male,2024-04-19_18h38.49.613,stockport_simplified,2022.2.4,MacIntel,119.047619,661e456ee6de07e70aa9ef7b,66229d9ed9bbb9183e1996bd,,,,,,,,,,,,,,,,,,,,,,,,,,,,,,,,,,,,,,,,,,,,,,,,,,,,,,,,1,30,90,53,1,N,M,C,o1_image,stimuli/out1.png,stimuli/correct_out1.png,stimuli/out2.png,,,,,,,,,,,,,,,,,,,,,,,,,,,,,,,,,,,,,,
,,66156b2dc0794709cb34b38b,34,male,2024-04-19_18h38.49.613,stockport_simplified,2022.2.4,MacIntel,119.047619,661e456ee6de07e70aa9ef7b,66229d9ed9bbb9183e1996bd,,,,,,,,,,,,,,,,,,,,,,,,,,,,,,,,,,776.012,778.4866,"[1,7,3,4,8,6,5,2]","[[0.3,0.2],[-0.3,0.2]]","[[0.125,-0.2],[-0.125,-0.2]]",0.143861607,-0.19025711,1,0,0,1.967,o1_image,778.4992,0,778.9951,778.9952,780.9961,0,0,0,0,1,,,,,,,,,,,,,,,,,,,,,,,,,,,,,,,,,,,,,,,,,,,,,,,,,,
,,66156b2dc0794709cb34b38b,34,male,2024-04-19_18h38.49.613,stockport_simplified,2022.2.4,MacIntel,119.047619,661e456ee6de07e70aa9ef7b,66229d9ed9bbb9183e1996bd,,,,,,,,,,,,,,,,,,,,,,,,,,,,,,,,,,,,,,,,,,,,,,,,,,,,,,,,1,31,91,44,1,B,X,N,o2_image,stimuli/out2.png,stimuli/out1.png,stimuli/correct_out2.png,,,,,,,,,,,,,,,,,,,,,,,,,,,,,,,,,,,,,,
,,66156b2dc0794709cb34b38b,34,male,2024-04-19_18h38.49.613,stockport_simplified,2022.2.4,MacIntel,119.047619,661e456ee6de07e70aa9ef7b,66229d9ed9bbb9183e1996bd,,,,,,,,,,,,,,,,,,,,,,,,,,,,,,,,,,780.9967,782.7363,"[1,7,3,4,8,6,5,2]","[[0.3,0.2],[-0.3,0.2]]","[[0.125,-0.2],[-0.125,-0.2]]",-0.10562996,-0.185850694,1,0,0,1.2323,o2_image,782.7368,1,783.2364,783.2364,785.4655,0,0,0,0,1,,,,,,,,,,,,,,,,,,,,,,,,,,,,,,,,,,,,,,,,,,,,,,,,,,
,,66156b2dc0794709cb34b38b,34,male,2024-04-19_18h38.49.613,stockport_simplified,2022.2.4,MacIntel,119.047619,661e456ee6de07e70aa9ef7b,66229d9ed9bbb9183e1996bd,,,,,,,,,,,,,,,,,,,,,,,,,,,,,,,,,,,,,,,,,,,,,,,,,,,,,,,,1,32,92,26,1,N,M,D,o2_image,stimuli/out2.png,stimuli/out1.png,stimuli/correct_out2.png,,,,,,,,,,,,,,,,,,,,,,,,,,,,,,,,,,,,,,
,,66156b2dc0794709cb34b38b,34,male,2024-04-19_18h38.49.613,stockport_simplified,2022.2.4,MacIntel,119.047619,661e456ee6de07e70aa9ef7b,66229d9ed9bbb9183e1996bd,,,,,,,,,,,,,,,,,,,,,,,,,,,,,,,,,,785.4657,787.4905,"[1,7,3,4,8,6,5,2]","[[-0.3,0.2],[0.3,0.2]]","[[-0.125,-0.2],[0.125,-0.2]]",0.106700562,-0.151698909,1,0,0,1.5161,o2_image,787.4913,1,787.9899,787.99,789.9906,0,0,0,0,1,,,,,,,,,,,,,,,,,,,,,,,,,,,,,,,,,,,,,,,,,,,,,,,,,,
,,66156b2dc0794709cb34b38b,34,male,2024-04-19_18h38.49.613,stockport_simplified,2022.2.4,MacIntel,119.047619,661e456ee6de07e70aa9ef7b,66229d9ed9bbb9183e1996bd,,,,,,,,,,,,,,,,,,,,,,,,,,,,,,,,,,,,,,,,,,,,,,,,,,,,,,,,1,33,93,55,1,N,M,D,o2_image,stimuli/out2.png,stimuli/out1.png,stimuli/correct_out2.png,,,,,,,,,,,,,,,,,,,,,,,,,,,,,,,,,,,,,,
,,66156b2dc0794709cb34b38b,34,male,2024-04-19_18h38.49.613,stockport_simplified,2022.2.4,MacIntel,119.047619,661e456ee6de07e70aa9ef7b,66229d9ed9bbb9183e1996bd,,,,,,,,,,,,,,,,,,,,,,,,,,,,,,,,,,789.9912,792.6899,"[1,7,3,4,8,6,5,2]","[[0.3,0.2],[-0.3,0.2]]","[[0.125,-0.2],[-0.125,-0.2]]",0.118415179,-0.191046627,1,0,0,2.19,o1_image,792.7015,0,793.2029,793.203,795.2032,0,0,0,0,1,,,,,,,,,,,,,,,,,,,,,,,,,,,,,,,,,,,,,,,,,,,,,,,,,,
,,66156b2dc0794709cb34b38b,34,male,2024-04-19_18h38.49.613,stockport_simplified,2022.2.4,MacIntel,119.047619,661e456ee6de07e70aa9ef7b,66229d9ed9bbb9183e1996bd,,,,,,,,,,,,,,,,,,,,,,,,,,,,,,,,,,,,,,,,,,,,,,,,,,,,,,,,1,34,94,14,1,B,X,N,o2_image,stimuli/out2.png,stimuli/out1.png,stimuli/correct_out2.png,,,,,,,,,,,,,,,,,,,,,,,,,,,,,,,,,,,,,,
,,66156b2dc0794709cb34b38b,34,male,2024-04-19_18h38.49.613,stockport_simplified,2022.2.4,MacIntel,119.047619,661e456ee6de07e70aa9ef7b,66229d9ed9bbb9183e1996bd,,,,,,,,,,,,,,,,,,,,,,,,,,,,,,,,,,795.2039,796.7781,"[1,7,3,4,8,6,5,2]","[[0.3,0.2],[-0.3,0.2]]","[[-0.125,-0.2],[0.125,-0.2]]",0.164277447,-0.184883433,1,0,0,1.0666,o2_image,796.7785,1,797.2781,797.2781,799.2795,0,0,0,0,1,,,,,,,,,,,,,,,,,,,,,,,,,,,,,,,,,,,,,,,,,,,,,,,,,,
,,66156b2dc0794709cb34b38b,34,male,2024-04-19_18h38.49.613,stockport_simplified,2022.2.4,MacIntel,119.047619,661e456ee6de07e70aa9ef7b,66229d9ed9bbb9183e1996bd,,,,,,,,,,,,,,,,,,,,,,,,,,,,,,,,,,,,,,,,,,,,,,,,,,,,,,,,1,35,95,19,1,B,Y,N,o2_image,stimuli/out2.png,stimuli/out1.png,stimuli/correct_out2.png,,,,,,,,,,,,,,,,,,,,,,,,,,,,,,,,,,,,,,
,,66156b2dc0794709cb34b38b,34,male,2024-04-19_18h38.49.613,stockport_simplified,2022.2.4,MacIntel,119.047619,661e456ee6de07e70aa9ef7b,66229d9ed9bbb9183e1996bd,,,,,,,,,,,,,,,,,,,,,,,,,,,,,,,,,,799.2803,801.4297,"[1,7,3,4,8,6,5,2]","[[-0.3,0.2],[0.3,0.2]]","[[0.125,-0.2],[-0.125,-0.2]]",-0.089612269,-0.171337632,1,0,0,1.6432,o2_image,801.4303,0,801.9285,801.9286,803.928,0,0,0,0,1,,,,,,,,,,,,,,,,,,,,,,,,,,,,,,,,,,,,,,,,,,,,,,,,,,
,,66156b2dc0794709cb34b38b,34,male,2024-04-19_18h38.49.613,stockport_simplified,2022.2.4,MacIntel,119.047619,661e456ee6de07e70aa9ef7b,66229d9ed9bbb9183e1996bd,,,,,,,,,,,,,,,,,,,,,,,,,,,,,,,,,,,,,,,,,,,,,,,,,,,,,,,,1,36,96,39,1,A,Y,N,o1_image,stimuli/out1.png,stimuli/correct_out1.png,stimuli/out2.png,,,,,,,,,,,,,,,,,,,,,,,,,,,,,,,,,,,,,,
,,66156b2dc0794709cb34b38b,34,male,2024-04-19_18h38.49.613,stockport_simplified,2022.2.4,MacIntel,119.047619,661e456ee6de07e70aa9ef7b,66229d9ed9bbb9183e1996bd,,,,,,,,,,,,,,,,,,,,,,,,,,,,,,,,,,803.929,806.0365,"[1,7,3,4,8,6,5,2]","[[0.3,0.2],[-0.3,0.2]]","[[-0.125,-0.2],[0.125,-0.2]]",0.115724206,-0.190538194,1,0,0,1.5997,o2_image,806.0371,0,806.5362,806.5363,808.5365,0,0,0,0,1,,,,,,,,,,,,,,,,,,,,,,,,,,,,,,,,,,,,,,,,,,,,,,,,,,
,,66156b2dc0794709cb34b38b,34,male,2024-04-19_18h38.49.613,stockport_simplified,2022.2.4,MacIntel,119.047619,661e456ee6de07e70aa9ef7b,66229d9ed9bbb9183e1996bd,,,,,,,,,,,,,,,,,,,,,,,,,,,,,,,,,,,,,,,,,,,,,,,,,,,,,,,,1,37,97,36,1,A,Y,N,o1_image,stimuli/out1.png,stimuli/correct_out1.png,stimuli/out2.png,,,,,,,,,,,,,,,,,,,,,,,,,,,,,,,,,,,,,,
,,66156b2dc0794709cb34b38b,34,male,2024-04-19_18h38.49.613,stockport_simplified,2022.2.4,MacIntel,119.047619,661e456ee6de07e70aa9ef7b,66229d9ed9bbb9183e1996bd,,,,,,,,,,,,,,,,,,,,,,,,,,,,,,,,,,808.537,810.9779,"[1,7,3,4,8,6,5,2]","[[0.3,0.2],[-0.3,0.2]]","[[-0.125,-0.2],[0.125,-0.2]]",0.158399471,-0.212876157,1,0,0,1.9377,o2_image,810.9788,1,811.478,811.478,813.4782,0,0,0,0,1,,,,,,,,,,,,,,,,,,,,,,,,,,,,,,,,,,,,,,,,,,,,,,,,,,
,,66156b2dc0794709cb34b38b,34,male,2024-04-19_18h38.49.613,stockport_simplified,2022.2.4,MacIntel,119.047619,661e456ee6de07e70aa9ef7b,66229d9ed9bbb9183e1996bd,,,,,,,,,,,,,,,,,,,,,,,,,,,,,,,,,,,,,,,,,,,,,,,,,,,,,,,,1,38,98,47,1,B,Y,N,o2_image,stimuli/out2.png,stimuli/out1.png,stimuli/correct_out2.png,,,,,,,,,,,,,,,,,,,,,,,,,,,,,,,,,,,,,,
,,66156b2dc0794709cb34b38b,34,male,2024-04-19_18h38.49.613,stockport_simplified,2022.2.4,MacIntel,119.047619,661e456ee6de07e70aa9ef7b,66229d9ed9bbb9183e1996bd,,,,,,,,,,,,,,,,,,,,,,,,,,,,,,,,,,813.4788,814.9121,"[1,7,3,4,8,6,5,2]","[[0.3,0.2],[-0.3,0.2]]","[[-0.125,-0.2],[0.125,-0.2]]",-0.08260582,-0.14932209,1,0,0,0.9253,o1_image,814.9127,0,815.4114,815.4115,817.4112,0,0,0,0,1,,,,,,,,,,,,,,,,,,,,,,,,,,,,,,,,,,,,,,,,,,,,,,,,,,
,,66156b2dc0794709cb34b38b,34,male,2024-04-19_18h38.49.613,stockport_simplified,2022.2.4,MacIntel,119.047619,661e456ee6de07e70aa9ef7b,66229d9ed9bbb9183e1996bd,,,,,,,,,,,,,,,,,,,,,,,,,,,,,,,,,,,,,,,,,,,,,,,,,,,,,,,,1,39,99,12,1,B,X,N,o2_image,stimuli/out2.png,stimuli/out1.png,stimuli/correct_out2.png,,,,,,,,,,,,,,,,,,,,,,,,,,,,,,,,,,,,,,
,,66156b2dc0794709cb34b38b,34,male,2024-04-19_18h38.49.613,stockport_simplified,2022.2.4,MacIntel,119.047619,661e456ee6de07e70aa9ef7b,66229d9ed9bbb9183e1996bd,,,,,,,,,,,,,,,,,,,,,,,,,,,,,,,,,,817.412,818.8353,"[1,7,3,4,8,6,5,2]","[[0.3,0.2],[-0.3,0.2]]","[[-0.125,-0.2],[0.125,-0.2]]",-0.141364914,-0.184895833,1,0,0,0.9153,o1_image,818.836,1,819.3364,819.3365,821.3364,0,0,0,0,1,,,,,,,,,,,,,,,,,,,,,,,,,,,,,,,,,,,,,,,,,,,,,,,,,,
,,66156b2dc0794709cb34b38b,34,male,2024-04-19_18h38.49.613,stockport_simplified,2022.2.4,MacIntel,119.047619,661e456ee6de07e70aa9ef7b,66229d9ed9bbb9183e1996bd,,,,,,,,,,,,,,,,,,,,,,,,,,,,,,,,,,,,,,,,,,,,,,,,,,,,,,,,1,40,100,7,1,A,Y,N,o1_image,stimuli/out1.png,stimuli/correct_out1.png,stimuli/out2.png,,,,,,,,,,,,,,,,,,,,,,,,,,,,,,,,,,,,,,
,,66156b2dc0794709cb34b38b,34,male,2024-04-19_18h38.49.613,stockport_simplified,2022.2.4,MacIntel,119.047619,661e456ee6de07e70aa9ef7b,66229d9ed9bbb9183e1996bd,,,,,,,,,,,,,,,,,,,,,,,,,,,,,,,,,,821.3372,822.9368,"[1,7,3,4,8,6,5,2]","[[-0.3,0.2],[0.3,0.2]]","[[-0.125,-0.2],[0.125,-0.2]]",-0.10062004,-0.179861111,1,0,0,1.0923,o1_image,822.9374,1,823.4373,823.4373,825.4363,0,0,0,0,1,,,,,,,,,,,,,,,,,,,,,,,,,,,,,,,,,,,,,,,,,,,,,,,,,,
,,66156b2dc0794709cb34b38b,34,male,2024-04-19_18h38.49.613,stockport_simplified,2022.2.4,MacIntel,119.047619,661e456ee6de07e70aa9ef7b,66229d9ed9bbb9183e1996bd,,,,,,,,,,,,,,,,,,,,,,,,,,,,,,,,,,,,,,,,,,,,,,,,,,,,,,,,1,41,101,0,1,A,X,N,o1_image,stimuli/out1.png,stimuli/correct_out1.png,stimuli/out2.png,,,,,,,,,,,,,,,,,,,,,,,,,,,,,,,,,,,,,,
,,66156b2dc0794709cb34b38b,34,male,2024-04-19_18h38.49.613,stockport_simplified,2022.2.4,MacIntel,119.047619,661e456ee6de07e70aa9ef7b,66229d9ed9bbb9183e1996bd,,,,,,,,,,,,,,,,,,,,,,,,,,,,,,,,,,825.4371,827.1859,"[1,7,3,4,8,6,5,2]","[[-0.3,0.2],[0.3,0.2]]","[[0.125,-0.2],[-0.125,-0.2]]",0.131229332,-0.206084656,1,0,0,1.2418,o1_image,827.1864,1,827.6853,827.6853,829.6866,0,0,0,0,1,,,,,,,,,,,,,,,,,,,,,,,,,,,,,,,,,,,,,,,,,,,,,,,,,,
,,66156b2dc0794709cb34b38b,34,male,2024-04-19_18h38.49.613,stockport_simplified,2022.2.4,MacIntel,119.047619,661e456ee6de07e70aa9ef7b,66229d9ed9bbb9183e1996bd,,,,,,,,,,,,,,,,,,,,,,,,,,,,,,,,,,,,,,,,,,,,,,,,,,,,,,,,1,42,102,9,1,A,Y,N,o1_image,stimuli/out1.png,stimuli/correct_out1.png,stimuli/out2.png,,,,,,,,,,,,,,,,,,,,,,,,,,,,,,,,,,,,,,
,,66156b2dc0794709cb34b38b,34,male,2024-04-19_18h38.49.613,stockport_simplified,2022.2.4,MacIntel,119.047619,661e456ee6de07e70aa9ef7b,66229d9ed9bbb9183e1996bd,,,,,,,,,,,,,,,,,,,,,,,,,,,,,,,,,,829.6874,831.5609,"[1,7,3,4,8,6,5,2]","[[0.3,0.2],[-0.3,0.2]]","[[-0.125,-0.2],[0.125,-0.2]]",-0.075260417,-0.170940807,1,0,0,1.3653,o1_image,831.5616,0,832.0611,832.0611,834.0612,0,0,0,0,1,,,,,,,,,,,,,,,,,,,,,,,,,,,,,,,,,,,,,,,,,,,,,,,,,,
,,66156b2dc0794709cb34b38b,34,male,2024-04-19_18h38.49.613,stockport_simplified,2022.2.4,MacIntel,119.047619,661e456ee6de07e70aa9ef7b,66229d9ed9bbb9183e1996bd,,,,,,,,,,,,,,,,,,,,,,,,,,,,,,,,,,,,,,,,,,,,,,,,,,,,,,,,1,43,103,45,1,B,Y,N,o2_image,stimuli/out2.png,stimuli/out1.png,stimuli/correct_out2.png,,,,,,,,,,,,,,,,,,,,,,,,,,,,,,,,,,,,,,
,,66156b2dc0794709cb34b38b,34,male,2024-04-19_18h38.49.613,stockport_simplified,2022.2.4,MacIntel,119.047619,661e456ee6de07e70aa9ef7b,66229d9ed9bbb9183e1996bd,,,,,,,,,,,,,,,,,,,,,,,,,,,,,,,,,,834.062,835.8111,"[1,7,3,4,8,6,5,2]","[[-0.3,0.2],[0.3,0.2]]","[[-0.125,-0.2],[0.125,-0.2]]",0.133618552,-0.180340608,1,0,0,1.2408,o2_image,835.812,1,836.3113,836.3114,838.3108,0,0,0,0,1,,,,,,,,,,,,,,,,,,,,,,,,,,,,,,,,,,,,,,,,,,,,,,,,,,
,,66156b2dc0794709cb34b38b,34,male,2024-04-19_18h38.49.613,stockport_simplified,2022.2.4,MacIntel,119.047619,661e456ee6de07e70aa9ef7b,66229d9ed9bbb9183e1996bd,,,,,,,,,,,,,,,,,,,,,,,,,,,,,,,,,,,,,,,,,,,,,,,,,,,,,,,,1,44,104,13,1,B,X,N,o2_image,stimuli/out2.png,stimuli/out1.png,stimuli/correct_out2.png,,,,,,,,,,,,,,,,,,,,,,,,,,,,,,,,,,,,,,
,,66156b2dc0794709cb34b38b,34,male,2024-04-19_18h38.49.613,stockport_simplified,2022.2.4,MacIntel,119.047619,661e456ee6de07e70aa9ef7b,66229d9ed9bbb9183e1996bd,,,,,,,,,,,,,,,,,,,,,,,,,,,,,,,,,,838.3112,839.6117,"[1,7,3,4,8,6,5,2]","[[-0.3,0.2],[0.3,0.2]]","[[-0.125,-0.2],[0.125,-0.2]]",-0.083759094,-0.144642857,1,0,0,0.7923,o1_image,839.6123,0,840.1119,840.1119,842.1119,0,0,0,0,1,,,,,,,,,,,,,,,,,,,,,,,,,,,,,,,,,,,,,,,,,,,,,,,,,,
,,66156b2dc0794709cb34b38b,34,male,2024-04-19_18h38.49.613,stockport_simplified,2022.2.4,MacIntel,119.047619,661e456ee6de07e70aa9ef7b,66229d9ed9bbb9183e1996bd,,,,,,,,,,,,,,,,,,,,,,,,,,,,,,,,,,,,,,,,,,,,,,,,,,,,,,,,1,45,105,43,1,B,X,N,o2_image,stimuli/out2.png,stimuli/out1.png,stimuli/correct_out2.png,,,,,,,,,,,,,,,,,,,,,,,,,,,,,,,,,,,,,,
,,66156b2dc0794709cb34b38b,34,male,2024-04-19_18h38.49.613,stockport_simplified,2022.2.4,MacIntel,119.047619,661e456ee6de07e70aa9ef7b,66229d9ed9bbb9183e1996bd,,,,,,,,,,,,,,,,,,,,,,,,,,,,,,,,,,842.1125,843.9276,"[1,7,3,4,8,6,5,2]","[[-0.3,0.2],[0.3,0.2]]","[[-0.125,-0.2],[0.125,-0.2]]",-0.105869709,-0.16343006,1,0,0,1.3072,o1_image,843.9282,1,844.4277,844.4278,846.4278,0,0,0,0,1,,,,,,,,,,,,,,,,,,,,,,,,,,,,,,,,,,,,,,,,,,,,,,,,,,
,,66156b2dc0794709cb34b38b,34,male,2024-04-19_18h38.49.613,stockport_simplified,2022.2.4,MacIntel,119.047619,661e456ee6de07e70aa9ef7b,66229d9ed9bbb9183e1996bd,,,,,,,,,,,,,,,,,,,,,,,,,,,,,,,,,,,,,,,,,,,,,,,,,,,,,,,,1,46,106,23,1,N,M,C,o1_image,stimuli/out1.png,stimuli/correct_out1.png,stimuli/out2.png,,,,,,,,,,,,,,,,,,,,,,,,,,,,,,,,,,,,,,
,,66156b2dc0794709cb34b38b,34,male,2024-04-19_18h38.49.613,stockport_simplified,2022.2.4,MacIntel,119.047619,661e456ee6de07e70aa9ef7b,66229d9ed9bbb9183e1996bd,,,,,,,,,,,,,,,,,,,,,,,,,,,,,,,,,,846.4286,848.3861,"[1,7,3,4,8,6,5,2]","[[0.3,0.2],[-0.3,0.2]]","[[0.125,-0.2],[-0.125,-0.2]]",0.125355489,-0.219080688,1,0,0,1.4493,o1_image,848.3866,0,848.8862,848.8862,850.886,0,0,0,0,1,,,,,,,,,,,,,,,,,,,,,,,,,,,,,,,,,,,,,,,,,,,,,,,,,,
,,66156b2dc0794709cb34b38b,34,male,2024-04-19_18h38.49.613,stockport_simplified,2022.2.4,MacIntel,119.047619,661e456ee6de07e70aa9ef7b,66229d9ed9bbb9183e1996bd,,,,,,,,,,,,,,,,,,,,,,,,,,,,,,,,,,,,,,,,,,,,,,,,,,,,,,,,1,47,107,57,1,N,M,D,o2_image,stimuli/out2.png,stimuli/out1.png,stimuli/correct_out2.png,,,,,,,,,,,,,,,,,,,,,,,,,,,,,,,,,,,,,,
,,66156b2dc0794709cb34b38b,34,male,2024-04-19_18h38.49.613,stockport_simplified,2022.2.4,MacIntel,119.047619,661e456ee6de07e70aa9ef7b,66229d9ed9bbb9183e1996bd,,,,,,,,,,,,,,,,,,,,,,,,,,,,,,,,,,850.8866,852.7859,"[1,7,3,4,8,6,5,2]","[[0.3,0.2],[-0.3,0.2]]","[[-0.125,-0.2],[0.125,-0.2]]",-0.087996032,-0.181303737,1,0,0,1.3982,o1_image,852.7866,1,853.2863,853.2864,855.2862,0,0,0,0,1,,,,,,,,,,,,,,,,,,,,,,,,,,,,,,,,,,,,,,,,,,,,,,,,,,
,,66156b2dc0794709cb34b38b,34,male,2024-04-19_18h38.49.613,stockport_simplified,2022.2.4,MacIntel,119.047619,661e456ee6de07e70aa9ef7b,66229d9ed9bbb9183e1996bd,,,,,,,,,,,,,,,,,,,,,,,,,,,,,,,,,,,,,,,,,,,,,,,,,,,,,,,,1,48,108,35,1,A,Y,N,o1_image,stimuli/out1.png,stimuli/correct_out1.png,stimuli/out2.png,,,,,,,,,,,,,,,,,,,,,,,,,,,,,,,,,,,,,,
,,66156b2dc0794709cb34b38b,34,male,2024-04-19_18h38.49.613,stockport_simplified,2022.2.4,MacIntel,119.047619,661e456ee6de07e70aa9ef7b,66229d9ed9bbb9183e1996bd,,,,,,,,,,,,,,,,,,,,,,,,,,,,,,,,,,855.287,857.4611,"[1,7,3,4,8,6,5,2]","[[-0.3,0.2],[0.3,0.2]]","[[-0.125,-0.2],[0.125,-0.2]]",-0.124809854,-0.169018684,1,0,0,1.6661,o1_image,857.4617,1,857.9611,857.9612,859.9611,0,0,0,0,1,,,,,,,,,,,,,,,,,,,,,,,,,,,,,,,,,,,,,,,,,,,,,,,,,,
,,66156b2dc0794709cb34b38b,34,male,2024-04-19_18h38.49.613,stockport_simplified,2022.2.4,MacIntel,119.047619,661e456ee6de07e70aa9ef7b,66229d9ed9bbb9183e1996bd,,,,,,,,,,,,,,,,,,,,,,,,,,,,,,,,,,,,,,,,,,,,,,,,,,,,,,,,1,49,109,1,1,A,X,N,o1_image,stimuli/out1.png,stimuli/correct_out1.png,stimuli/out2.png,,,,,,,,,,,,,,,,,,,,,,,,,,,,,,,,,,,,,,
,,66156b2dc0794709cb34b38b,34,male,2024-04-19_18h38.49.613,stockport_simplified,2022.2.4,MacIntel,119.047619,661e456ee6de07e70aa9ef7b,66229d9ed9bbb9183e1996bd,,,,,,,,,,,,,,,,,,,,,,,,,,,,,,,,,,859.9618,861.819,"[1,7,3,4,8,6,5,2]","[[-0.3,0.2],[0.3,0.2]]","[[0.125,-0.2],[-0.125,-0.2]]",0.121478175,-0.195291832,1,0,0,1.3501,o1_image,861.8196,1,862.3194,862.3194,864.3192,0,0,0,0,1,,,,,,,,,,,,,,,,,,,,,,,,,,,,,,,,,,,,,,,,,,,,,,,,,,
,,66156b2dc0794709cb34b38b,34,male,2024-04-19_18h38.49.613,stockport_simplified,2022.2.4,MacIntel,119.047619,661e456ee6de07e70aa9ef7b,66229d9ed9bbb9183e1996bd,,,,,,,,,,,,,,,,,,,,,,,,,,,,,,,,,,,,,,,,,,,,,,,,,,,,,,,,1,50,110,4,1,A,X,N,o1_image,stimuli/out1.png,stimuli/correct_out1.png,stimuli/out2.png,,,,,,,,,,,,,,,,,,,,,,,,,,,,,,,,,,,,,,
,,66156b2dc0794709cb34b38b,34,male,2024-04-19_18h38.49.613,stockport_simplified,2022.2.4,MacIntel,119.047619,661e456ee6de07e70aa9ef7b,66229d9ed9bbb9183e1996bd,,,,,,,,,,,,,,,,,,,,,,,,,,,,,,,,,,864.3198,866.444,"[1,7,3,4,8,6,5,2]","[[-0.3,0.2],[0.3,0.2]]","[[0.125,-0.2],[-0.125,-0.2]]",0.092902612,-0.210904431,1,0,0,1.6153,o1_image,866.4537,1,866.9527,866.9528,868.9528,0,0,0,0,1,,,,,,,,,,,,,,,,,,,,,,,,,,,,,,,,,,,,,,,,,,,,,,,,,,
,,66156b2dc0794709cb34b38b,34,male,2024-04-19_18h38.49.613,stockport_simplified,2022.2.4,MacIntel,119.047619,661e456ee6de07e70aa9ef7b,66229d9ed9bbb9183e1996bd,,,,,,,,,,,,,,,,,,,,,,,,,,,,,,,,,,,,,,,,,,,,,,,,,,,,,,,,1,51,111,22,1,N,M,C,o1_image,stimuli/out1.png,stimuli/correct_out1.png,stimuli/out2.png,,,,,,,,,,,,,,,,,,,,,,,,,,,,,,,,,,,,,,
,,66156b2dc0794709cb34b38b,34,male,2024-04-19_18h38.49.613,stockport_simplified,2022.2.4,MacIntel,119.047619,661e456ee6de07e70aa9ef7b,66229d9ed9bbb9183e1996bd,,,,,,,,,,,,,,,,,,,,,,,,,,,,,,,,,,868.9534,870.5274,"[1,7,3,4,8,6,5,2]","[[0.3,0.2],[-0.3,0.2]]","[[-0.125,-0.2],[0.125,-0.2]]",-0.112256118,-0.170655589,1,0,0,1.065,o1_image,870.528,0,871.0277,871.0278,873.0234,0,0,0,0,1,,,,,,,,,,,,,,,,,,,,,,,,,,,,,,,,,,,,,,,,,,,,,,,,,,
,,66156b2dc0794709cb34b38b,34,male,2024-04-19_18h38.49.613,stockport_simplified,2022.2.4,MacIntel,119.047619,661e456ee6de07e70aa9ef7b,66229d9ed9bbb9183e1996bd,,,,,,,,,,,,,,,,,,,,,,,,,,,,,,,,,,,,,,,,,,,,,,,,,,,,,,,,1,52,112,42,1,B,X,N,o2_image,stimuli/out2.png,stimuli/out1.png,stimuli/correct_out2.png,,,,,,,,,,,,,,,,,,,,,,,,,,,,,,,,,,,,,,
,,66156b2dc0794709cb34b38b,34,male,2024-04-19_18h38.49.613,stockport_simplified,2022.2.4,MacIntel,119.047619,661e456ee6de07e70aa9ef7b,66229d9ed9bbb9183e1996bd,,,,,,,,,,,,,,,,,,,,,,,,,,,,,,,,,,873.0242,874.6654,"[1,7,3,4,8,6,5,2]","[[-0.3,0.2],[0.3,0.2]]","[[0.125,-0.2],[-0.125,-0.2]]",0.116278108,-0.175049603,1,0,0,1.1336,o1_image,874.666,1,875.1651,875.1652,877.165,0,0,0,0,1,,,,,,,,,,,,,,,,,,,,,,,,,,,,,,,,,,,,,,,,,,,,,,,,,,
,,66156b2dc0794709cb34b38b,34,male,2024-04-19_18h38.49.613,stockport_simplified,2022.2.4,MacIntel,119.047619,661e456ee6de07e70aa9ef7b,66229d9ed9bbb9183e1996bd,,,,,,,,,,,,,,,,,,,,,,,,,,,,,,,,,,,,,,,,,,,,,,,,,,,,,,,,1,53,113,34,1,A,X,N,o1_image,stimuli/out1.png,stimuli/correct_out1.png,stimuli/out2.png,,,,,,,,,,,,,,,,,,,,,,,,,,,,,,,,,,,,,,
,,66156b2dc0794709cb34b38b,34,male,2024-04-19_18h38.49.613,stockport_simplified,2022.2.4,MacIntel,119.047619,661e456ee6de07e70aa9ef7b,66229d9ed9bbb9183e1996bd,,,,,,,,,,,,,,,,,,,,,,,,,,,,,,,,,,877.1657,878.4816,"[1,7,3,4,8,6,5,2]","[[0.3,0.2],[-0.3,0.2]]","[[0.125,-0.2],[-0.125,-0.2]]",0.139360119,-0.192170966,1,0,0,0.8081,o1_image,878.4822,1,878.9819,878.9819,880.9816,0,0,0,0,1,,,,,,,,,,,,,,,,,,,,,,,,,,,,,,,,,,,,,,,,,,,,,,,,,,
,,66156b2dc0794709cb34b38b,34,male,2024-04-19_18h38.49.613,stockport_simplified,2022.2.4,MacIntel,119.047619,661e456ee6de07e70aa9ef7b,66229d9ed9bbb9183e1996bd,,,,,,,,,,,,,,,,,,,,,,,,,,,,,,,,,,,,,,,,,,,,,,,,,,,,,,,,1,54,114,31,1,A,X,N,o1_image,stimuli/out1.png,stimuli/correct_out1.png,stimuli/out2.png,,,,,,,,,,,,,,,,,,,,,,,,,,,,,,,,,,,,,,
,,66156b2dc0794709cb34b38b,34,male,2024-04-19_18h38.49.613,stockport_simplified,2022.2.4,MacIntel,119.047619,661e456ee6de07e70aa9ef7b,66229d9ed9bbb9183e1996bd,,,,,,,,,,,,,,,,,,,,,,,,,,,,,,,,,,880.9823,882.4983,"[1,7,3,4,8,6,5,2]","[[-0.3,0.2],[0.3,0.2]]","[[0.125,-0.2],[-0.125,-0.2]]",0.125004134,-0.194465112,1,0,0,1.0079,o1_image,882.4988,0,882.9976,882.9977,884.9985,0,0,0,0,1,,,,,,,,,,,,,,,,,,,,,,,,,,,,,,,,,,,,,,,,,,,,,,,,,,
,,66156b2dc0794709cb34b38b,34,male,2024-04-19_18h38.49.613,stockport_simplified,2022.2.4,MacIntel,119.047619,661e456ee6de07e70aa9ef7b,66229d9ed9bbb9183e1996bd,,,,,,,,,,,,,,,,,,,,,,,,,,,,,,,,,,,,,,,,,,,,,,,,,,,,,,,,1,55,115,10,1,B,X,N,o2_image,stimuli/out2.png,stimuli/out1.png,stimuli/correct_out2.png,,,,,,,,,,,,,,,,,,,,,,,,,,,,,,,,,,,,,,
,,66156b2dc0794709cb34b38b,34,male,2024-04-19_18h38.49.613,stockport_simplified,2022.2.4,MacIntel,119.047619,661e456ee6de07e70aa9ef7b,66229d9ed9bbb9183e1996bd,,,,,,,,,,,,,,,,,,,,,,,,,,,,,,,,,,884.9993,886.5477,"[1,7,3,4,8,6,5,2]","[[0.3,0.2],[-0.3,0.2]]","[[0.125,-0.2],[-0.125,-0.2]]",-0.086371528,-0.198797123,1,0,0,1.0396,o2_image,886.5484,1,887.0476,887.0477,889.0482,0,0,0,0,1,,,,,,,,,,,,,,,,,,,,,,,,,,,,,,,,,,,,,,,,,,,,,,,,,,
,,66156b2dc0794709cb34b38b,34,male,2024-04-19_18h38.49.613,stockport_simplified,2022.2.4,MacIntel,119.047619,661e456ee6de07e70aa9ef7b,66229d9ed9bbb9183e1996bd,,,,,,,,,,,,,,,,,,,,,,,,,,,,,,,,,,,,,,,,,,,,,,,,,,,,,,,,1,56,116,27,1,N,M,D,o2_image,stimuli/out2.png,stimuli/out1.png,stimuli/correct_out2.png,,,,,,,,,,,,,,,,,,,,,,,,,,,,,,,,,,,,,,
,,66156b2dc0794709cb34b38b,34,male,2024-04-19_18h38.49.613,stockport_simplified,2022.2.4,MacIntel,119.047619,661e456ee6de07e70aa9ef7b,66229d9ed9bbb9183e1996bd,,,,,,,,,,,,,,,,,,,,,,,,,,,,,,,,,,889.0488,890.624,"[1,7,3,4,8,6,5,2]","[[0.3,0.2],[-0.3,0.2]]","[[-0.125,-0.2],[0.125,-0.2]]",-0.099847057,-0.185218254,1,0,0,1.0668,o1_image,890.6246,1,891.1234,891.1235,893.1233,0,0,0,0,1,,,,,,,,,,,,,,,,,,,,,,,,,,,,,,,,,,,,,,,,,,,,,,,,,,
,,66156b2dc0794709cb34b38b,34,male,2024-04-19_18h38.49.613,stockport_simplified,2022.2.4,MacIntel,119.047619,661e456ee6de07e70aa9ef7b,66229d9ed9bbb9183e1996bd,,,,,,,,,,,,,,,,,,,,,,,,,,,,,,,,,,,,,,,,,,,,,,,,,,,,,,,,1,57,117,30,1,A,X,N,o1_image,stimuli/out1.png,stimuli/correct_out1.png,stimuli/out2.png,,,,,,,,,,,,,,,,,,,,,,,,,,,,,,,,,,,,,,
,,66156b2dc0794709cb34b38b,34,male,2024-04-19_18h38.49.613,stockport_simplified,2022.2.4,MacIntel,119.047619,661e456ee6de07e70aa9ef7b,66229d9ed9bbb9183e1996bd,,,,,,,,,,,,,,,,,,,,,,,,,,,,,,,,,,893.124,894.6399,"[1,7,3,4,8,6,5,2]","[[-0.3,0.2],[0.3,0.2]]","[[-0.125,-0.2],[0.125,-0.2]]",0.129427083,-0.19046379,1,0,0,1.0075,o2_image,894.6404,0,895.14,895.1401,897.1403,0,0,0,0,1,,,,,,,,,,,,,,,,,,,,,,,,,,,,,,,,,,,,,,,,,,,,,,,,,,
,,66156b2dc0794709cb34b38b,34,male,2024-04-19_18h38.49.613,stockport_simplified,2022.2.4,MacIntel,119.047619,661e456ee6de07e70aa9ef7b,66229d9ed9bbb9183e1996bd,,,,,,,,,,,,,,,,,,,,,,,,,,,,,,,,,,,,,,,,,,,,,,,,,,,,,,,,1,58,118,50,1,N,M,C,o1_image,stimuli/out1.png,stimuli/correct_out1.png,stimuli/out2.png,,,,,,,,,,,,,,,,,,,,,,,,,,,,,,,,,,,,,,
,,66156b2dc0794709cb34b38b,34,male,2024-04-19_18h38.49.613,stockport_simplified,2022.2.4,MacIntel,119.047619,661e456ee6de07e70aa9ef7b,66229d9ed9bbb9183e1996bd,,,,,,,,,,,,,,,,,,,,,,,,,,,,,,,,,,897.141,898.7482,"[1,7,3,4,8,6,5,2]","[[0.3,0.2],[-0.3,0.2]]","[[0.125,-0.2],[-0.125,-0.2]]",-0.088996362,-0.173309358,1,0,0,1.0995,o2_image,898.7491,1,899.2481,899.2481,901.2483,0,0,0,0,1,,,,,,,,,,,,,,,,,,,,,,,,,,,,,,,,,,,,,,,,,,,,,,,,,,
,,66156b2dc0794709cb34b38b,34,male,2024-04-19_18h38.49.613,stockport_simplified,2022.2.4,MacIntel,119.047619,661e456ee6de07e70aa9ef7b,66229d9ed9bbb9183e1996bd,,,,,,,,,,,,,,,,,,,,,,,,,,,,,,,,,,,,,,,,,,,,,,,,,,,,,,,,1,59,119,58,1,N,M,D,o2_image,stimuli/out2.png,stimuli/out1.png,stimuli/correct_out2.png,,,,,,,,,,,,,,,,,,,,,,,,,,,,,,,,,,,,,,
,,66156b2dc0794709cb34b38b,34,male,2024-04-19_18h38.49.613,stockport_simplified,2022.2.4,MacIntel,119.047619,661e456ee6de07e70aa9ef7b,66229d9ed9bbb9183e1996bd,,,,,,,,,,,,,,,,,,,,,,,,,,,,,,,,,,901.2648,902.7484,"[1,7,3,4,8,6,5,2]","[[-0.3,0.2],[0.3,0.2]]","[[-0.125,-0.2],[0.125,-0.2]]",0.101851852,-0.183990575,1,0,0,0.9829,o2_image,902.7493,1,903.2486,903.2487,905.2481,,,,,,,,,,,,,,,,,,0,0,0,0,1,,,,,,,,,,,,,,,,,,,,,,,,,,,,,,,,,
,,66156b2dc0794709cb34b38b,34,male,2024-04-19_18h38.49.613,stockport_simplified,2022.2.4,MacIntel,119.047619,661e456ee6de07e70aa9ef7b,66229d9ed9bbb9183e1996bd,,,,,,,,,,,,,,,,,,,,,,,,,,,,,,,,,,,,,,,,,,,,,,,,,,,,,,,,,,,,,N,M,D,o2_image,stimuli/out2.png,stimuli/out1.png,stimuli/correct_out2.png,,,,,,0,0,0,53,1,,,,,,,,,,,,,,,,,,,,,,,,,,,,
,,66156b2dc0794709cb34b38b,34,male,2024-04-19_18h38.49.613,stockport_simplified,2022.2.4,MacIntel,119.047619,661e456ee6de07e70aa9ef7b,66229d9ed9bbb9183e1996bd,,,,,,,,,,,,,,,,,,,,,,,,,,,,,,,,,,905.2491,906.723,"[1,7,3,4,8,6,5,2]","[[0.3,0.2],[-0.3,0.2]]","[[0.125,-0.2],[-0.125,-0.2]]",-0.095258763,-0.17662037,1,0,0,0.966,o2_image,906.7237,1,907.2232,907.2232,909.2227,,,,,,,,,,,,,,,,,,0,0,0,0,1,,,,,,,,,,,,,,,,,,,,,,,,,,,,,,,,,
,,66156b2dc0794709cb34b38b,34,male,2024-04-19_18h38.49.613,stockport_simplified,2022.2.4,MacIntel,119.047619,661e456ee6de07e70aa9ef7b,66229d9ed9bbb9183e1996bd,,,,,,,,,,,,,,,,,,,,,,,,,,,,,,,,,,,,,,,,,,,,,,,,,,,,,,,,,,,,,B,Y,N,o2_image,stimuli/out2.png,stimuli/out1.png,stimuli/correct_out2.png,,,,,,0,1,1,35,1,,,,,,,,,,,,,,,,,,,,,,,,,,,,
,,66156b2dc0794709cb34b38b,34,male,2024-04-19_18h38.49.613,stockport_simplified,2022.2.4,MacIntel,119.047619,661e456ee6de07e70aa9ef7b,66229d9ed9bbb9183e1996bd,,,,,,,,,,,,,,,,,,,,,,,,,,,,,,,,,,909.2234,910.7397,"[1,7,3,4,8,6,5,2]","[[0.3,0.2],[-0.3,0.2]]","[[0.125,-0.2],[-0.125,-0.2]]",0.128790509,-0.158010913,1,0,0,1.008,o1_image,910.7402,0,911.2398,911.2399,913.2394,,,,,,,,,,,,,,,,,,0,0,0,0,1,,,,,,,,,,,,,,,,,,,,,,,,,,,,,,,,,
,,66156b2dc0794709cb34b38b,34,male,2024-04-19_18h38.49.613,stockport_simplified,2022.2.4,MacIntel,119.047619,661e456ee6de07e70aa9ef7b,66229d9ed9bbb9183e1996bd,,,,,,,,,,,,,,,,,,,,,,,,,,,,,,,,,,,,,,,,,,,,,,,,,,,,,,,,,,,,,A,X,N,o2_image,stimuli/out2.png,stimuli/out1.png,stimuli/correct_out2.png,,,,,,0,2,2,6,1,,,,,,,,,,,,,,,,,,,,,,,,,,,,
,,66156b2dc0794709cb34b38b,34,male,2024-04-19_18h38.49.613,stockport_simplified,2022.2.4,MacIntel,119.047619,661e456ee6de07e70aa9ef7b,66229d9ed9bbb9183e1996bd,,,,,,,,,,,,,,,,,,,,,,,,,,,,,,,,,,913.24,914.7396,"[1,7,3,4,8,6,5,2]","[[0.3,0.2],[-0.3,0.2]]","[[0.125,-0.2],[-0.125,-0.2]]",-0.104803241,-0.189169974,1,0,0,0.9915,o2_image,914.7403,0,915.2396,915.2397,917.2399,,,,,,,,,,,,,,,,,,0,0,0,0,1,,,,,,,,,,,,,,,,,,,,,,,,,,,,,,,,,
