counterbalance_2.started,counterbalance_2.stopped,participant,age,gender,date,expName,psychopyVersion,OS,frameRate,STUDY_ID,SESSION_ID,information_2.started,information_2.stopped,information_loop.thisRepN,information_loop.thisTrialN,information_loop.thisN,information_loop.thisIndex,information_loop.ran,information,consent_2.started,consent_2.stopped,slider_1.response,slider_2.response,slider_3.response,slider_4.response,slider_5.response,slider_6.response,instructions.started,instructions.stopped,task1_instr.thisRepN,task1_instr.thisTrialN,task1_instr.thisN,task1_instr.thisIndex,task1_instr.ran,task1,comprehension1_2.started,comprehension1_2.stopped,comp1_mouse.x,comp1_mouse.y,comp1_mouse.leftButton,comp1_mouse.midButton,comp1_mouse.rightButton,comp1_mouse.time,comp1_mouse.clicked_name,cue_o__trial_2.started,cue_o__trial_2.stopped,order,cue_order,out_order,cue_o_mouse.x,cue_o_mouse.y,cue_o_mouse.leftButton,cue_o_mouse.midButton,cue_o_mouse.rightButton,cue_o_mouse.time,cue_o_mouse.clicked_name,cue_selection_2.started,correct_answer,cue_selection_2.stopped,feedback_2.started,feedback_2.stopped,feedback_loop.thisRepN,feedback_loop.thisTrialN,feedback_loop.thisN,feedback_loop.thisIndex,feedback_loop.ran,stage1_trials.thisRepN,stage1_trials.thisTrialN,stage1_trials.thisN,stage1_trials.thisIndex,stage1_trials.ran,cue1,cue2,cue3,outcome,correct_out,o1_feedback,o2_feedback,stage2_feedback_loop.thisRepN,stage2_feedback_loop.thisTrialN,stage2_feedback_loop.thisN,stage2_feedback_loop.thisIndex,stage2_feedback_loop.ran,stage2_trials.thisRepN,stage2_trials.thisTrialN,stage2_trials.thisN,stage2_trials.thisIndex,stage2_trials.ran,stage3_feedback_loop.thisRepN,stage3_feedback_loop.thisTrialN,stage3_feedback_loop.thisN,stage3_feedback_loop.thisIndex,stage3_feedback_loop.ran,stage3_trials.thisRepN,stage3_trials.thisTrialN,stage3_trials.thisN,stage3_trials.thisIndex,stage3_trials.ran,debrief_2.started,debrief_2.stopped,debrief_loop.thisRepN,debrief_loop.thisTrialN,debrief_loop.thisN,debrief_loop.thisIndex,debrief_loop.ran,debrief_img,compr1_completed.thisRepN,compr1_completed.thisTrialN,compr1_completed.thisN,compr1_completed.thisIndex,compr1_completed.ran,consent_loop.thisRepN,consent_loop.thisTrialN,consent_loop.thisN,consent_loop.thisIndex,consent_loop.ran
0.0119,0.0123,60a69d04e5534b81417680ce,32,female,2024-04-24_12h32.34.864,stockport_simplified,2022.2.4,Win32,60.97560976,661e456ee6de07e70aa9ef7b,6628df85bc5a421020bcb14b,,,,,,,,,,,,,,,,,,,,,,,,,,,,,,,,,,,,,,,,,,,,,,,,,,,,,,,,,,,,,,,,,,,,,,,,,,,,,,,,,,,,,,,,,,,,,,,,,,,,,,,,,
,,60a69d04e5534b81417680ce,32,female,2024-04-24_12h32.34.864,stockport_simplified,2022.2.4,Win32,60.97560976,661e456ee6de07e70aa9ef7b,6628df85bc5a421020bcb14b,0.0483,77.9043,0,0,0,0,1,instructions/info1.png,,,,,,,,,,,,,,,,,,,,,,,,,,,,,,,,,,,,,,,,,,,,,,,,,,,,,,,,,,,,,,,,,,,,,,,,,,,,,,,,,,,,,,,,,,,,,,,,,
,,60a69d04e5534b81417680ce,32,female,2024-04-24_12h32.34.864,stockport_simplified,2022.2.4,Win32,60.97560976,661e456ee6de07e70aa9ef7b,6628df85bc5a421020bcb14b,77.9055,85.9478,0,1,1,1,1,instructions/info2.png,,,,,,,,,,,,,,,,,,,,,,,,,,,,,,,,,,,,,,,,,,,,,,,,,,,,,,,,,,,,,,,,,,,,,,,,,,,,,,,,,,,,,,,,,,,,,,,,,
,,60a69d04e5534b81417680ce,32,female,2024-04-24_12h32.34.864,stockport_simplified,2022.2.4,Win32,60.97560976,661e456ee6de07e70aa9ef7b,6628df85bc5a421020bcb14b,85.96,97.6841,0,2,2,2,1,instructions/info3.png,,,,,,,,,,,,,,,,,,,,,,,,,,,,,,,,,,,,,,,,,,,,,,,,,,,,,,,,,,,,,,,,,,,,,,,,,,,,,,,,,,,,,,,,,,,,,,,,,
,,60a69d04e5534b81417680ce,32,female,2024-04-24_12h32.34.864,stockport_simplified,2022.2.4,Win32,60.97560976,661e456ee6de07e70aa9ef7b,6628df85bc5a421020bcb14b,,,,,,,,,97.7027,143.063,1,1,1,1,1,1,,,,,,,,,,,,,,,,,,,,,,,,,,,,,,,,,,,,,,,,,,,,,,,,,,,,,,,,,,,,,,,,,,,,,,,,,,,,,,,,,,,,,,,,,
,,60a69d04e5534b81417680ce,32,female,2024-04-24_12h32.34.864,stockport_simplified,2022.2.4,Win32,60.97560976,661e456ee6de07e70aa9ef7b,6628df85bc5a421020bcb14b,,,,,,,,,,,,,,,,,143.0877,357.3379,0,0,0,0,1,instructions/task1_1.png,,,,,,,,,,,,,,,,,,,,,,,,,,,,,,,,,,,,,,,,,,,,,,,,,,,,,,,,,,,,,,,,,,,,,,,,,,,,,,,,,
,,60a69d04e5534b81417680ce,32,female,2024-04-24_12h32.34.864,stockport_simplified,2022.2.4,Win32,60.97560976,661e456ee6de07e70aa9ef7b,6628df85bc5a421020bcb14b,,,,,,,,,,,,,,,,,357.3513,370.3207,0,1,1,1,1,instructions/task1_2.png,,,,,,,,,,,,,,,,,,,,,,,,,,,,,,,,,,,,,,,,,,,,,,,,,,,,,,,,,,,,,,,,,,,,,,,,,,,,,,,,,
,,60a69d04e5534b81417680ce,32,female,2024-04-24_12h32.34.864,stockport_simplified,2022.2.4,Win32,60.97560976,661e456ee6de07e70aa9ef7b,6628df85bc5a421020bcb14b,,,,,,,,,,,,,,,,,370.334,388.1505,0,2,2,2,1,instructions/task1_3.png,,,,,,,,,,,,,,,,,,,,,,,,,,,,,,,,,,,,,,,,,,,,,,,,,,,,,,,,,,,,,,,,,,,,,,,,,,,,,,,,,
,,60a69d04e5534b81417680ce,32,female,2024-04-24_12h32.34.864,stockport_simplified,2022.2.4,Win32,60.97560976,661e456ee6de07e70aa9ef7b,6628df85bc5a421020bcb14b,,,,,,,,,,,,,,,,,,,,,,,,,388.1531,403.7869,-0.05859375,-0.31640625,1,0,0,15.6323,comp1_resp1,403.851,407.8909,"[7,6,3,4,1,8,2,5]","[[-0.3,0.2],[0.3,0.2]]","[[-0.125,-0.2],[0.125,-0.2]]",-0.125,-0.223958333,1,0,0,3.5214,o1_image,407.9252,0,408.4173,408.4182,410.4215,0,0,0,0,1,,,,,,,,,,,,,,,,,,,,,,,,,,,,,,,,,,,,,,,,,,,,,,,,,,
,,60a69d04e5534b81417680ce,32,female,2024-04-24_12h32.34.864,stockport_simplified,2022.2.4,Win32,60.97560976,661e456ee6de07e70aa9ef7b,6628df85bc5a421020bcb14b,,,,,,,,,,,,,,,,,,,,,,,,,,,,,,,,,,,,,,,,,,,,,,,,,,,,,,,,0,0,0,15,1,B,Y,N,o2_image,stimuli/out2.png,stimuli/out1.png,stimuli/correct_out2.png,,,,,,,,,,,,,,,,,,,,,,,,,,,,,,,,,,,,,,
,,60a69d04e5534b81417680ce,32,female,2024-04-24_12h32.34.864,stockport_simplified,2022.2.4,Win32,60.97560976,661e456ee6de07e70aa9ef7b,6628df85bc5a421020bcb14b,,,,,,,,,,,,,,,,,,,,,,,,,,,,,,,,,,410.4233,412.6541,"[7,6,3,4,1,8,2,5]","[[-0.3,0.2],[0.3,0.2]]","[[0.125,-0.2],[-0.125,-0.2]]",-0.125,-0.223958333,1,0,0,1.719,o2_image,412.6554,0,413.1487,413.1488,415.1466,0,0,0,0,1,,,,,,,,,,,,,,,,,,,,,,,,,,,,,,,,,,,,,,,,,,,,,,,,,,
,,60a69d04e5534b81417680ce,32,female,2024-04-24_12h32.34.864,stockport_simplified,2022.2.4,Win32,60.97560976,661e456ee6de07e70aa9ef7b,6628df85bc5a421020bcb14b,,,,,,,,,,,,,,,,,,,,,,,,,,,,,,,,,,,,,,,,,,,,,,,,,,,,,,,,0,1,1,37,1,A,Y,N,o1_image,stimuli/out1.png,stimuli/correct_out1.png,stimuli/out2.png,,,,,,,,,,,,,,,,,,,,,,,,,,,,,,,,,,,,,,
,,60a69d04e5534b81417680ce,32,female,2024-04-24_12h32.34.864,stockport_simplified,2022.2.4,Win32,60.97560976,661e456ee6de07e70aa9ef7b,6628df85bc5a421020bcb14b,,,,,,,,,,,,,,,,,,,,,,,,,,,,,,,,,,415.149,418.0552,"[7,6,3,4,1,8,2,5]","[[0.3,0.2],[-0.3,0.2]]","[[0.125,-0.2],[-0.125,-0.2]]",-0.08984375,-0.197916667,1,0,0,2.4044,o2_image,418.0895,1,418.5823,418.5824,420.5712,0,0,0,0,1,,,,,,,,,,,,,,,,,,,,,,,,,,,,,,,,,,,,,,,,,,,,,,,,,,
,,60a69d04e5534b81417680ce,32,female,2024-04-24_12h32.34.864,stockport_simplified,2022.2.4,Win32,60.97560976,661e456ee6de07e70aa9ef7b,6628df85bc5a421020bcb14b,,,,,,,,,,,,,,,,,,,,,,,,,,,,,,,,,,,,,,,,,,,,,,,,,,,,,,,,0,2,2,48,1,B,Y,N,o2_image,stimuli/out2.png,stimuli/out1.png,stimuli/correct_out2.png,,,,,,,,,,,,,,,,,,,,,,,,,,,,,,,,,,,,,,
,,60a69d04e5534b81417680ce,32,female,2024-04-24_12h32.34.864,stockport_simplified,2022.2.4,Win32,60.97560976,661e456ee6de07e70aa9ef7b,6628df85bc5a421020bcb14b,,,,,,,,,,,,,,,,,,,,,,,,,,,,,,,,,,420.5725,423.1327,"[7,6,3,4,1,8,2,5]","[[0.3,0.2],[-0.3,0.2]]","[[-0.125,-0.2],[0.125,-0.2]]",0.096354167,-0.194010417,1,0,0,2.0466,o2_image,423.135,1,423.6371,423.6373,425.6378,0,0,0,0,1,,,,,,,,,,,,,,,,,,,,,,,,,,,,,,,,,,,,,,,,,,,,,,,,,,
,,60a69d04e5534b81417680ce,32,female,2024-04-24_12h32.34.864,stockport_simplified,2022.2.4,Win32,60.97560976,661e456ee6de07e70aa9ef7b,6628df85bc5a421020bcb14b,,,,,,,,,,,,,,,,,,,,,,,,,,,,,,,,,,,,,,,,,,,,,,,,,,,,,,,,0,3,3,41,1,B,X,N,o2_image,stimuli/out2.png,stimuli/out1.png,stimuli/correct_out2.png,,,,,,,,,,,,,,,,,,,,,,,,,,,,,,,,,,,,,,
,,60a69d04e5534b81417680ce,32,female,2024-04-24_12h32.34.864,stockport_simplified,2022.2.4,Win32,60.97560976,661e456ee6de07e70aa9ef7b,6628df85bc5a421020bcb14b,,,,,,,,,,,,,,,,,,,,,,,,,,,,,,,,,,425.6391,431.1727,"[7,6,3,4,1,8,2,5]","[[-0.3,0.2],[0.3,0.2]]","[[0.125,-0.2],[-0.125,-0.2]]",-0.109375,-0.182291667,1,0,0,5.0192,o2_image,431.2065,1,431.6976,431.6977,433.6984,0,0,0,0,1,,,,,,,,,,,,,,,,,,,,,,,,,,,,,,,,,,,,,,,,,,,,,,,,,,
,,60a69d04e5534b81417680ce,32,female,2024-04-24_12h32.34.864,stockport_simplified,2022.2.4,Win32,60.97560976,661e456ee6de07e70aa9ef7b,6628df85bc5a421020bcb14b,,,,,,,,,,,,,,,,,,,,,,,,,,,,,,,,,,,,,,,,,,,,,,,,,,,,,,,,0,4,4,10,1,B,X,N,o2_image,stimuli/out2.png,stimuli/out1.png,stimuli/correct_out2.png,,,,,,,,,,,,,,,,,,,,,,,,,,,,,,,,,,,,,,
,,60a69d04e5534b81417680ce,32,female,2024-04-24_12h32.34.864,stockport_simplified,2022.2.4,Win32,60.97560976,661e456ee6de07e70aa9ef7b,6628df85bc5a421020bcb14b,,,,,,,,,,,,,,,,,,,,,,,,,,,,,,,,,,433.6995,436.7868,"[7,6,3,4,1,8,2,5]","[[0.3,0.2],[-0.3,0.2]]","[[-0.125,-0.2],[0.125,-0.2]]",-0.1484375,-0.188802083,1,0,0,2.5696,o1_image,436.7995,1,437.2993,437.2994,439.303,0,0,0,0,1,,,,,,,,,,,,,,,,,,,,,,,,,,,,,,,,,,,,,,,,,,,,,,,,,,
,,60a69d04e5534b81417680ce,32,female,2024-04-24_12h32.34.864,stockport_simplified,2022.2.4,Win32,60.97560976,661e456ee6de07e70aa9ef7b,6628df85bc5a421020bcb14b,,,,,,,,,,,,,,,,,,,,,,,,,,,,,,,,,,,,,,,,,,,,,,,,,,,,,,,,0,5,5,22,1,N,M,C,o1_image,stimuli/out1.png,stimuli/correct_out1.png,stimuli/out2.png,,,,,,,,,,,,,,,,,,,,,,,,,,,,,,,,,,,,,,
,,60a69d04e5534b81417680ce,32,female,2024-04-24_12h32.34.864,stockport_simplified,2022.2.4,Win32,60.97560976,661e456ee6de07e70aa9ef7b,6628df85bc5a421020bcb14b,,,,,,,,,,,,,,,,,,,,,,,,,,,,,,,,,,439.3051,441.705,"[7,6,3,4,1,8,2,5]","[[0.3,0.2],[-0.3,0.2]]","[[0.125,-0.2],[-0.125,-0.2]]",0.138020833,-0.18359375,1,0,0,1.8859,o1_image,441.7067,1,442.2039,442.2039,444.198,0,0,0,0,1,,,,,,,,,,,,,,,,,,,,,,,,,,,,,,,,,,,,,,,,,,,,,,,,,,
,,60a69d04e5534b81417680ce,32,female,2024-04-24_12h32.34.864,stockport_simplified,2022.2.4,Win32,60.97560976,661e456ee6de07e70aa9ef7b,6628df85bc5a421020bcb14b,,,,,,,,,,,,,,,,,,,,,,,,,,,,,,,,,,,,,,,,,,,,,,,,,,,,,,,,0,6,6,52,1,N,M,C,o1_image,stimuli/out1.png,stimuli/correct_out1.png,stimuli/out2.png,,,,,,,,,,,,,,,,,,,,,,,,,,,,,,,,,,,,,,
,,60a69d04e5534b81417680ce,32,female,2024-04-24_12h32.34.864,stockport_simplified,2022.2.4,Win32,60.97560976,661e456ee6de07e70aa9ef7b,6628df85bc5a421020bcb14b,,,,,,,,,,,,,,,,,,,,,,,,,,,,,,,,,,444.1987,446.8707,"[7,6,3,4,1,8,2,5]","[[-0.3,0.2],[0.3,0.2]]","[[-0.125,-0.2],[0.125,-0.2]]",0.106770833,-0.190104167,1,0,0,2.1691,o2_image,446.8723,0,447.3633,447.3634,449.3691,0,0,0,0,1,,,,,,,,,,,,,,,,,,,,,,,,,,,,,,,,,,,,,,,,,,,,,,,,,,
,,60a69d04e5534b81417680ce,32,female,2024-04-24_12h32.34.864,stockport_simplified,2022.2.4,Win32,60.97560976,661e456ee6de07e70aa9ef7b,6628df85bc5a421020bcb14b,,,,,,,,,,,,,,,,,,,,,,,,,,,,,,,,,,,,,,,,,,,,,,,,,,,,,,,,0,7,7,35,1,A,Y,N,o1_image,stimuli/out1.png,stimuli/correct_out1.png,stimuli/out2.png,,,,,,,,,,,,,,,,,,,,,,,,,,,,,,,,,,,,,,
,,60a69d04e5534b81417680ce,32,female,2024-04-24_12h32.34.864,stockport_simplified,2022.2.4,Win32,60.97560976,661e456ee6de07e70aa9ef7b,6628df85bc5a421020bcb14b,,,,,,,,,,,,,,,,,,,,,,,,,,,,,,,,,,449.3701,452.0523,"[7,6,3,4,1,8,2,5]","[[-0.3,0.2],[0.3,0.2]]","[[-0.125,-0.2],[0.125,-0.2]]",-0.162760417,-0.23046875,1,0,0,2.1661,o1_image,452.0534,1,452.547,452.5471,454.5493,0,0,0,0,1,,,,,,,,,,,,,,,,,,,,,,,,,,,,,,,,,,,,,,,,,,,,,,,,,,
,,60a69d04e5534b81417680ce,32,female,2024-04-24_12h32.34.864,stockport_simplified,2022.2.4,Win32,60.97560976,661e456ee6de07e70aa9ef7b,6628df85bc5a421020bcb14b,,,,,,,,,,,,,,,,,,,,,,,,,,,,,,,,,,,,,,,,,,,,,,,,,,,,,,,,0,8,8,32,1,A,X,N,o1_image,stimuli/out1.png,stimuli/correct_out1.png,stimuli/out2.png,,,,,,,,,,,,,,,,,,,,,,,,,,,,,,,,,,,,,,
,,60a69d04e5534b81417680ce,32,female,2024-04-24_12h32.34.864,stockport_simplified,2022.2.4,Win32,60.97560976,661e456ee6de07e70aa9ef7b,6628df85bc5a421020bcb14b,,,,,,,,,,,,,,,,,,,,,,,,,,,,,,,,,,454.5502,456.5251,"[7,6,3,4,1,8,2,5]","[[0.3,0.2],[-0.3,0.2]]","[[-0.125,-0.2],[0.125,-0.2]]",-0.162760417,-0.23046875,1,0,0,1.4716,o1_image,456.5266,0,457.0297,457.0297,459.0308,0,0,0,0,1,,,,,,,,,,,,,,,,,,,,,,,,,,,,,,,,,,,,,,,,,,,,,,,,,,
,,60a69d04e5534b81417680ce,32,female,2024-04-24_12h32.34.864,stockport_simplified,2022.2.4,Win32,60.97560976,661e456ee6de07e70aa9ef7b,6628df85bc5a421020bcb14b,,,,,,,,,,,,,,,,,,,,,,,,,,,,,,,,,,,,,,,,,,,,,,,,,,,,,,,,0,9,9,29,1,N,M,D,o2_image,stimuli/out2.png,stimuli/out1.png,stimuli/correct_out2.png,,,,,,,,,,,,,,,,,,,,,,,,,,,,,,,,,,,,,,
,,60a69d04e5534b81417680ce,32,female,2024-04-24_12h32.34.864,stockport_simplified,2022.2.4,Win32,60.97560976,661e456ee6de07e70aa9ef7b,6628df85bc5a421020bcb14b,,,,,,,,,,,,,,,,,,,,,,,,,,,,,,,,,,459.0321,462.9826,"[7,6,3,4,1,8,2,5]","[[0.3,0.2],[-0.3,0.2]]","[[-0.125,-0.2],[0.125,-0.2]]",0.088541667,-0.186197917,1,0,0,3.4334,o2_image,462.9931,1,463.4851,463.4851,465.4804,0,0,0,0,1,,,,,,,,,,,,,,,,,,,,,,,,,,,,,,,,,,,,,,,,,,,,,,,,,,
,,60a69d04e5534b81417680ce,32,female,2024-04-24_12h32.34.864,stockport_simplified,2022.2.4,Win32,60.97560976,661e456ee6de07e70aa9ef7b,6628df85bc5a421020bcb14b,,,,,,,,,,,,,,,,,,,,,,,,,,,,,,,,,,,,,,,,,,,,,,,,,,,,,,,,0,10,10,13,1,B,X,N,o2_image,stimuli/out2.png,stimuli/out1.png,stimuli/correct_out2.png,,,,,,,,,,,,,,,,,,,,,,,,,,,,,,,,,,,,,,
,,60a69d04e5534b81417680ce,32,female,2024-04-24_12h32.34.864,stockport_simplified,2022.2.4,Win32,60.97560976,661e456ee6de07e70aa9ef7b,6628df85bc5a421020bcb14b,,,,,,,,,,,,,,,,,,,,,,,,,,,,,,,,,,465.4818,468.4296,"[7,6,3,4,1,8,2,5]","[[0.3,0.2],[-0.3,0.2]]","[[-0.125,-0.2],[0.125,-0.2]]",0.088541667,-0.186197917,1,0,0,2.4327,o2_image,468.441,1,468.9303,468.9303,470.9335,0,0,0,0,1,,,,,,,,,,,,,,,,,,,,,,,,,,,,,,,,,,,,,,,,,,,,,,,,,,
,,60a69d04e5534b81417680ce,32,female,2024-04-24_12h32.34.864,stockport_simplified,2022.2.4,Win32,60.97560976,661e456ee6de07e70aa9ef7b,6628df85bc5a421020bcb14b,,,,,,,,,,,,,,,,,,,,,,,,,,,,,,,,,,,,,,,,,,,,,,,,,,,,,,,,0,11,11,40,1,B,X,N,o2_image,stimuli/out2.png,stimuli/out1.png,stimuli/correct_out2.png,,,,,,,,,,,,,,,,,,,,,,,,,,,,,,,,,,,,,,
,,60a69d04e5534b81417680ce,32,female,2024-04-24_12h32.34.864,stockport_simplified,2022.2.4,Win32,60.97560976,661e456ee6de07e70aa9ef7b,6628df85bc5a421020bcb14b,,,,,,,,,,,,,,,,,,,,,,,,,,,,,,,,,,470.9347,473.0296,"[7,6,3,4,1,8,2,5]","[[0.3,0.2],[-0.3,0.2]]","[[0.125,-0.2],[-0.125,-0.2]]",0.098958333,-0.192708333,1,0,0,1.5773,o1_image,473.0319,0,473.5299,473.5302,475.5304,0,0,0,0,1,,,,,,,,,,,,,,,,,,,,,,,,,,,,,,,,,,,,,,,,,,,,,,,,,,
,,60a69d04e5534b81417680ce,32,female,2024-04-24_12h32.34.864,stockport_simplified,2022.2.4,Win32,60.97560976,661e456ee6de07e70aa9ef7b,6628df85bc5a421020bcb14b,,,,,,,,,,,,,,,,,,,,,,,,,,,,,,,,,,,,,,,,,,,,,,,,,,,,,,,,0,12,12,58,1,N,M,D,o2_image,stimuli/out2.png,stimuli/out1.png,stimuli/correct_out2.png,,,,,,,,,,,,,,,,,,,,,,,,,,,,,,,,,,,,,,
,,60a69d04e5534b81417680ce,32,female,2024-04-24_12h32.34.864,stockport_simplified,2022.2.4,Win32,60.97560976,661e456ee6de07e70aa9ef7b,6628df85bc5a421020bcb14b,,,,,,,,,,,,,,,,,,,,,,,,,,,,,,,,,,475.5316,478.036,"[7,6,3,4,1,8,2,5]","[[0.3,0.2],[-0.3,0.2]]","[[-0.125,-0.2],[0.125,-0.2]]",-0.11328125,-0.1953125,1,0,0,1.9872,o1_image,478.0376,1,478.534,478.5342,480.5343,0,0,0,0,1,,,,,,,,,,,,,,,,,,,,,,,,,,,,,,,,,,,,,,,,,,,,,,,,,,
,,60a69d04e5534b81417680ce,32,female,2024-04-24_12h32.34.864,stockport_simplified,2022.2.4,Win32,60.97560976,661e456ee6de07e70aa9ef7b,6628df85bc5a421020bcb14b,,,,,,,,,,,,,,,,,,,,,,,,,,,,,,,,,,,,,,,,,,,,,,,,,,,,,,,,0,13,13,39,1,A,Y,N,o1_image,stimuli/out1.png,stimuli/correct_out1.png,stimuli/out2.png,,,,,,,,,,,,,,,,,,,,,,,,,,,,,,,,,,,,,,
,,60a69d04e5534b81417680ce,32,female,2024-04-24_12h32.34.864,stockport_simplified,2022.2.4,Win32,60.97560976,661e456ee6de07e70aa9ef7b,6628df85bc5a421020bcb14b,,,,,,,,,,,,,,,,,,,,,,,,,,,,,,,,,,480.5354,483.1003,"[7,6,3,4,1,8,2,5]","[[-0.3,0.2],[0.3,0.2]]","[[-0.125,-0.2],[0.125,-0.2]]",0.108072917,-0.209635417,1,0,0,2.0497,o2_image,483.102,0,483.602,483.6021,485.597,0,0,0,0,1,,,,,,,,,,,,,,,,,,,,,,,,,,,,,,,,,,,,,,,,,,,,,,,,,,
,,60a69d04e5534b81417680ce,32,female,2024-04-24_12h32.34.864,stockport_simplified,2022.2.4,Win32,60.97560976,661e456ee6de07e70aa9ef7b,6628df85bc5a421020bcb14b,,,,,,,,,,,,,,,,,,,,,,,,,,,,,,,,,,,,,,,,,,,,,,,,,,,,,,,,0,14,14,9,1,A,Y,N,o1_image,stimuli/out1.png,stimuli/correct_out1.png,stimuli/out2.png,,,,,,,,,,,,,,,,,,,,,,,,,,,,,,,,,,,,,,
,,60a69d04e5534b81417680ce,32,female,2024-04-24_12h32.34.864,stockport_simplified,2022.2.4,Win32,60.97560976,661e456ee6de07e70aa9ef7b,6628df85bc5a421020bcb14b,,,,,,,,,,,,,,,,,,,,,,,,,,,,,,,,,,485.598,488.702,"[7,6,3,4,1,8,2,5]","[[-0.3,0.2],[0.3,0.2]]","[[0.125,-0.2],[-0.125,-0.2]]",0.125,-0.227864583,1,0,0,2.5866,o1_image,488.719,0,489.2124,489.2124,491.2129,0,0,0,0,1,,,,,,,,,,,,,,,,,,,,,,,,,,,,,,,,,,,,,,,,,,,,,,,,,,
,,60a69d04e5534b81417680ce,32,female,2024-04-24_12h32.34.864,stockport_simplified,2022.2.4,Win32,60.97560976,661e456ee6de07e70aa9ef7b,6628df85bc5a421020bcb14b,,,,,,,,,,,,,,,,,,,,,,,,,,,,,,,,,,,,,,,,,,,,,,,,,,,,,,,,0,15,15,26,1,N,M,D,o2_image,stimuli/out2.png,stimuli/out1.png,stimuli/correct_out2.png,,,,,,,,,,,,,,,,,,,,,,,,,,,,,,,,,,,,,,
,,60a69d04e5534b81417680ce,32,female,2024-04-24_12h32.34.864,stockport_simplified,2022.2.4,Win32,60.97560976,661e456ee6de07e70aa9ef7b,6628df85bc5a421020bcb14b,,,,,,,,,,,,,,,,,,,,,,,,,,,,,,,,,,491.214,493.4959,"[7,6,3,4,1,8,2,5]","[[-0.3,0.2],[0.3,0.2]]","[[-0.125,-0.2],[0.125,-0.2]]",0.125,-0.227864583,1,0,0,1.7644,o2_image,493.4978,0,493.9964,493.9964,495.9952,0,0,0,0,1,,,,,,,,,,,,,,,,,,,,,,,,,,,,,,,,,,,,,,,,,,,,,,,,,,
,,60a69d04e5534b81417680ce,32,female,2024-04-24_12h32.34.864,stockport_simplified,2022.2.4,Win32,60.97560976,661e456ee6de07e70aa9ef7b,6628df85bc5a421020bcb14b,,,,,,,,,,,,,,,,,,,,,,,,,,,,,,,,,,,,,,,,,,,,,,,,,,,,,,,,0,16,16,7,1,A,Y,N,o1_image,stimuli/out1.png,stimuli/correct_out1.png,stimuli/out2.png,,,,,,,,,,,,,,,,,,,,,,,,,,,,,,,,,,,,,,
,,60a69d04e5534b81417680ce,32,female,2024-04-24_12h32.34.864,stockport_simplified,2022.2.4,Win32,60.97560976,661e456ee6de07e70aa9ef7b,6628df85bc5a421020bcb14b,,,,,,,,,,,,,,,,,,,,,,,,,,,,,,,,,,495.9963,499.3776,"[7,6,3,4,1,8,2,5]","[[0.3,0.2],[-0.3,0.2]]","[[0.125,-0.2],[-0.125,-0.2]]",0.125,-0.227864583,1,0,0,2.8641,o1_image,499.3886,1,499.8787,499.8787,501.8782,0,0,0,0,1,,,,,,,,,,,,,,,,,,,,,,,,,,,,,,,,,,,,,,,,,,,,,,,,,,
,,60a69d04e5534b81417680ce,32,female,2024-04-24_12h32.34.864,stockport_simplified,2022.2.4,Win32,60.97560976,661e456ee6de07e70aa9ef7b,6628df85bc5a421020bcb14b,,,,,,,,,,,,,,,,,,,,,,,,,,,,,,,,,,,,,,,,,,,,,,,,,,,,,,,,0,17,17,50,1,N,M,C,o1_image,stimuli/out1.png,stimuli/correct_out1.png,stimuli/out2.png,,,,,,,,,,,,,,,,,,,,,,,,,,,,,,,,,,,,,,
,,60a69d04e5534b81417680ce,32,female,2024-04-24_12h32.34.864,stockport_simplified,2022.2.4,Win32,60.97560976,661e456ee6de07e70aa9ef7b,6628df85bc5a421020bcb14b,,,,,,,,,,,,,,,,,,,,,,,,,,,,,,,,,,501.8794,505.4282,"[7,6,3,4,1,8,2,5]","[[0.3,0.2],[-0.3,0.2]]","[[-0.125,-0.2],[0.125,-0.2]]",0.095052083,-0.221354167,1,0,0,3.0307,o2_image,505.4522,0,505.9458,505.946,507.9501,0,0,0,0,1,,,,,,,,,,,,,,,,,,,,,,,,,,,,,,,,,,,,,,,,,,,,,,,,,,
,,60a69d04e5534b81417680ce,32,female,2024-04-24_12h32.34.864,stockport_simplified,2022.2.4,Win32,60.97560976,661e456ee6de07e70aa9ef7b,6628df85bc5a421020bcb14b,,,,,,,,,,,,,,,,,,,,,,,,,,,,,,,,,,,,,,,,,,,,,,,,,,,,,,,,0,18,18,31,1,A,X,N,o1_image,stimuli/out1.png,stimuli/correct_out1.png,stimuli/out2.png,,,,,,,,,,,,,,,,,,,,,,,,,,,,,,,,,,,,,,
,,60a69d04e5534b81417680ce,32,female,2024-04-24_12h32.34.864,stockport_simplified,2022.2.4,Win32,60.97560976,661e456ee6de07e70aa9ef7b,6628df85bc5a421020bcb14b,,,,,,,,,,,,,,,,,,,,,,,,,,,,,,,,,,507.9519,510.5659,"[7,6,3,4,1,8,2,5]","[[-0.3,0.2],[0.3,0.2]]","[[0.125,-0.2],[-0.125,-0.2]]",-0.147135417,-0.208333333,1,0,0,2.097,o2_image,510.5784,1,511.0791,511.0792,513.0782,0,0,0,0,1,,,,,,,,,,,,,,,,,,,,,,,,,,,,,,,,,,,,,,,,,,,,,,,,,,
,,60a69d04e5534b81417680ce,32,female,2024-04-24_12h32.34.864,stockport_simplified,2022.2.4,Win32,60.97560976,661e456ee6de07e70aa9ef7b,6628df85bc5a421020bcb14b,,,,,,,,,,,,,,,,,,,,,,,,,,,,,,,,,,,,,,,,,,,,,,,,,,,,,,,,0,19,19,27,1,N,M,D,o2_image,stimuli/out2.png,stimuli/out1.png,stimuli/correct_out2.png,,,,,,,,,,,,,,,,,,,,,,,,,,,,,,,,,,,,,,
,,60a69d04e5534b81417680ce,32,female,2024-04-24_12h32.34.864,stockport_simplified,2022.2.4,Win32,60.97560976,661e456ee6de07e70aa9ef7b,6628df85bc5a421020bcb14b,,,,,,,,,,,,,,,,,,,,,,,,,,,,,,,,,,513.0795,515.8282,"[7,6,3,4,1,8,2,5]","[[0.3,0.2],[-0.3,0.2]]","[[0.125,-0.2],[-0.125,-0.2]]",-0.134114583,-0.177083333,1,0,0,2.2321,o2_image,515.8296,1,516.3314,516.3314,518.3267,0,0,0,0,1,,,,,,,,,,,,,,,,,,,,,,,,,,,,,,,,,,,,,,,,,,,,,,,,,,
,,60a69d04e5534b81417680ce,32,female,2024-04-24_12h32.34.864,stockport_simplified,2022.2.4,Win32,60.97560976,661e456ee6de07e70aa9ef7b,6628df85bc5a421020bcb14b,,,,,,,,,,,,,,,,,,,,,,,,,,,,,,,,,,,,,,,,,,,,,,,,,,,,,,,,0,20,20,18,1,B,Y,N,o2_image,stimuli/out2.png,stimuli/out1.png,stimuli/correct_out2.png,,,,,,,,,,,,,,,,,,,,,,,,,,,,,,,,,,,,,,
,,60a69d04e5534b81417680ce,32,female,2024-04-24_12h32.34.864,stockport_simplified,2022.2.4,Win32,60.97560976,661e456ee6de07e70aa9ef7b,6628df85bc5a421020bcb14b,,,,,,,,,,,,,,,,,,,,,,,,,,,,,,,,,,518.3279,521.9354,"[7,6,3,4,1,8,2,5]","[[-0.3,0.2],[0.3,0.2]]","[[-0.125,-0.2],[0.125,-0.2]]",0.109375,-0.186197917,1,0,0,3.0896,o2_image,521.962,1,522.4609,522.461,524.4607,0,0,0,0,1,,,,,,,,,,,,,,,,,,,,,,,,,,,,,,,,,,,,,,,,,,,,,,,,,,
,,60a69d04e5534b81417680ce,32,female,2024-04-24_12h32.34.864,stockport_simplified,2022.2.4,Win32,60.97560976,661e456ee6de07e70aa9ef7b,6628df85bc5a421020bcb14b,,,,,,,,,,,,,,,,,,,,,,,,,,,,,,,,,,,,,,,,,,,,,,,,,,,,,,,,0,21,21,43,1,B,X,N,o2_image,stimuli/out2.png,stimuli/out1.png,stimuli/correct_out2.png,,,,,,,,,,,,,,,,,,,,,,,,,,,,,,,,,,,,,,
,,60a69d04e5534b81417680ce,32,female,2024-04-24_12h32.34.864,stockport_simplified,2022.2.4,Win32,60.97560976,661e456ee6de07e70aa9ef7b,6628df85bc5a421020bcb14b,,,,,,,,,,,,,,,,,,,,,,,,,,,,,,,,,,524.4625,526.4108,"[7,6,3,4,1,8,2,5]","[[-0.3,0.2],[0.3,0.2]]","[[-0.125,-0.2],[0.125,-0.2]]",-0.12890625,-0.182291667,1,0,0,1.4305,o1_image,526.4128,1,526.9148,526.9149,528.9146,0,0,0,0,1,,,,,,,,,,,,,,,,,,,,,,,,,,,,,,,,,,,,,,,,,,,,,,,,,,
,,60a69d04e5534b81417680ce,32,female,2024-04-24_12h32.34.864,stockport_simplified,2022.2.4,Win32,60.97560976,661e456ee6de07e70aa9ef7b,6628df85bc5a421020bcb14b,,,,,,,,,,,,,,,,,,,,,,,,,,,,,,,,,,,,,,,,,,,,,,,,,,,,,,,,0,22,22,21,1,N,M,C,o1_image,stimuli/out1.png,stimuli/correct_out1.png,stimuli/out2.png,,,,,,,,,,,,,,,,,,,,,,,,,,,,,,,,,,,,,,
,,60a69d04e5534b81417680ce,32,female,2024-04-24_12h32.34.864,stockport_simplified,2022.2.4,Win32,60.97560976,661e456ee6de07e70aa9ef7b,6628df85bc5a421020bcb14b,,,,,,,,,,,,,,,,,,,,,,,,,,,,,,,,,,528.9163,531.2482,"[7,6,3,4,1,8,2,5]","[[-0.3,0.2],[0.3,0.2]]","[[0.125,-0.2],[-0.125,-0.2]]",-0.157552083,-0.178385417,1,0,0,1.8154,o2_image,531.2498,0,531.7435,531.7436,533.7427,0,0,0,0,1,,,,,,,,,,,,,,,,,,,,,,,,,,,,,,,,,,,,,,,,,,,,,,,,,,
,,60a69d04e5534b81417680ce,32,female,2024-04-24_12h32.34.864,stockport_simplified,2022.2.4,Win32,60.97560976,661e456ee6de07e70aa9ef7b,6628df85bc5a421020bcb14b,,,,,,,,,,,,,,,,,,,,,,,,,,,,,,,,,,,,,,,,,,,,,,,,,,,,,,,,0,23,23,3,1,A,X,N,o1_image,stimuli/out1.png,stimuli/correct_out1.png,stimuli/out2.png,,,,,,,,,,,,,,,,,,,,,,,,,,,,,,,,,,,,,,
,,60a69d04e5534b81417680ce,32,female,2024-04-24_12h32.34.864,stockport_simplified,2022.2.4,Win32,60.97560976,661e456ee6de07e70aa9ef7b,6628df85bc5a421020bcb14b,,,,,,,,,,,,,,,,,,,,,,,,,,,,,,,,,,533.7437,535.6091,"[7,6,3,4,1,8,2,5]","[[-0.3,0.2],[0.3,0.2]]","[[0.125,-0.2],[-0.125,-0.2]]",-0.157552083,-0.178385417,1,0,0,1.3487,o2_image,535.6107,0,536.1104,536.1105,538.11,0,0,0,0,1,,,,,,,,,,,,,,,,,,,,,,,,,,,,,,,,,,,,,,,,,,,,,,,,,,
,,60a69d04e5534b81417680ce,32,female,2024-04-24_12h32.34.864,stockport_simplified,2022.2.4,Win32,60.97560976,661e456ee6de07e70aa9ef7b,6628df85bc5a421020bcb14b,,,,,,,,,,,,,,,,,,,,,,,,,,,,,,,,,,,,,,,,,,,,,,,,,,,,,,,,0,24,24,33,1,A,X,N,o1_image,stimuli/out1.png,stimuli/correct_out1.png,stimuli/out2.png,,,,,,,,,,,,,,,,,,,,,,,,,,,,,,,,,,,,,,
,,60a69d04e5534b81417680ce,32,female,2024-04-24_12h32.34.864,stockport_simplified,2022.2.4,Win32,60.97560976,661e456ee6de07e70aa9ef7b,6628df85bc5a421020bcb14b,,,,,,,,,,,,,,,,,,,,,,,,,,,,,,,,,,538.1111,540.3615,"[7,6,3,4,1,8,2,5]","[[-0.3,0.2],[0.3,0.2]]","[[-0.125,-0.2],[0.125,-0.2]]",-0.115885417,-0.174479167,1,0,0,1.7329,o1_image,540.3637,1,540.8609,540.861,542.8599,0,0,0,0,1,,,,,,,,,,,,,,,,,,,,,,,,,,,,,,,,,,,,,,,,,,,,,,,,,,
,,60a69d04e5534b81417680ce,32,female,2024-04-24_12h32.34.864,stockport_simplified,2022.2.4,Win32,60.97560976,661e456ee6de07e70aa9ef7b,6628df85bc5a421020bcb14b,,,,,,,,,,,,,,,,,,,,,,,,,,,,,,,,,,,,,,,,,,,,,,,,,,,,,,,,0,25,25,23,1,N,M,C,o1_image,stimuli/out1.png,stimuli/correct_out1.png,stimuli/out2.png,,,,,,,,,,,,,,,,,,,,,,,,,,,,,,,,,,,,,,
,,60a69d04e5534b81417680ce,32,female,2024-04-24_12h32.34.864,stockport_simplified,2022.2.4,Win32,60.97560976,661e456ee6de07e70aa9ef7b,6628df85bc5a421020bcb14b,,,,,,,,,,,,,,,,,,,,,,,,,,,,,,,,,,542.8616,545.1295,"[7,6,3,4,1,8,2,5]","[[-0.3,0.2],[0.3,0.2]]","[[-0.125,-0.2],[0.125,-0.2]]",0.141927083,-0.192708333,1,0,0,1.7511,o2_image,545.1305,1,545.6252,545.6253,547.6272,0,0,0,0,1,,,,,,,,,,,,,,,,,,,,,,,,,,,,,,,,,,,,,,,,,,,,,,,,,,
,,60a69d04e5534b81417680ce,32,female,2024-04-24_12h32.34.864,stockport_simplified,2022.2.4,Win32,60.97560976,661e456ee6de07e70aa9ef7b,6628df85bc5a421020bcb14b,,,,,,,,,,,,,,,,,,,,,,,,,,,,,,,,,,,,,,,,,,,,,,,,,,,,,,,,0,26,26,16,1,B,Y,N,o2_image,stimuli/out2.png,stimuli/out1.png,stimuli/correct_out2.png,,,,,,,,,,,,,,,,,,,,,,,,,,,,,,,,,,,,,,
,,60a69d04e5534b81417680ce,32,female,2024-04-24_12h32.34.864,stockport_simplified,2022.2.4,Win32,60.97560976,661e456ee6de07e70aa9ef7b,6628df85bc5a421020bcb14b,,,,,,,,,,,,,,,,,,,,,,,,,,,,,,,,,,547.6287,549.8261,"[7,6,3,4,1,8,2,5]","[[0.3,0.2],[-0.3,0.2]]","[[-0.125,-0.2],[0.125,-0.2]]",0.141927083,-0.192708333,1,0,0,1.6833,o2_image,549.8276,1,550.3261,550.3261,552.3274,0,0,0,0,1,,,,,,,,,,,,,,,,,,,,,,,,,,,,,,,,,,,,,,,,,,,,,,,,,,
,,60a69d04e5534b81417680ce,32,female,2024-04-24_12h32.34.864,stockport_simplified,2022.2.4,Win32,60.97560976,661e456ee6de07e70aa9ef7b,6628df85bc5a421020bcb14b,,,,,,,,,,,,,,,,,,,,,,,,,,,,,,,,,,,,,,,,,,,,,,,,,,,,,,,,0,27,27,45,1,B,Y,N,o2_image,stimuli/out2.png,stimuli/out1.png,stimuli/correct_out2.png,,,,,,,,,,,,,,,,,,,,,,,,,,,,,,,,,,,,,,
,,60a69d04e5534b81417680ce,32,female,2024-04-24_12h32.34.864,stockport_simplified,2022.2.4,Win32,60.97560976,661e456ee6de07e70aa9ef7b,6628df85bc5a421020bcb14b,,,,,,,,,,,,,,,,,,,,,,,,,,,,,,,,,,552.3283,555.775,"[7,6,3,4,1,8,2,5]","[[0.3,0.2],[-0.3,0.2]]","[[0.125,-0.2],[-0.125,-0.2]]",-0.114583333,-0.173177083,1,0,0,2.9309,o2_image,555.7953,1,556.3005,556.3005,558.2962,0,0,0,0,1,,,,,,,,,,,,,,,,,,,,,,,,,,,,,,,,,,,,,,,,,,,,,,,,,,
,,60a69d04e5534b81417680ce,32,female,2024-04-24_12h32.34.864,stockport_simplified,2022.2.4,Win32,60.97560976,661e456ee6de07e70aa9ef7b,6628df85bc5a421020bcb14b,,,,,,,,,,,,,,,,,,,,,,,,,,,,,,,,,,,,,,,,,,,,,,,,,,,,,,,,0,28,28,12,1,B,X,N,o2_image,stimuli/out2.png,stimuli/out1.png,stimuli/correct_out2.png,,,,,,,,,,,,,,,,,,,,,,,,,,,,,,,,,,,,,,
,,60a69d04e5534b81417680ce,32,female,2024-04-24_12h32.34.864,stockport_simplified,2022.2.4,Win32,60.97560976,661e456ee6de07e70aa9ef7b,6628df85bc5a421020bcb14b,,,,,,,,,,,,,,,,,,,,,,,,,,,,,,,,,,558.2973,561.4311,"[7,6,3,4,1,8,2,5]","[[0.3,0.2],[-0.3,0.2]]","[[-0.125,-0.2],[0.125,-0.2]]",0.11328125,-0.216145833,1,0,0,2.6177,o2_image,561.4595,1,561.9592,561.9592,563.9611,0,0,0,0,1,,,,,,,,,,,,,,,,,,,,,,,,,,,,,,,,,,,,,,,,,,,,,,,,,,
,,60a69d04e5534b81417680ce,32,female,2024-04-24_12h32.34.864,stockport_simplified,2022.2.4,Win32,60.97560976,661e456ee6de07e70aa9ef7b,6628df85bc5a421020bcb14b,,,,,,,,,,,,,,,,,,,,,,,,,,,,,,,,,,,,,,,,,,,,,,,,,,,,,,,,0,29,29,14,1,B,X,N,o2_image,stimuli/out2.png,stimuli/out1.png,stimuli/correct_out2.png,,,,,,,,,,,,,,,,,,,,,,,,,,,,,,,,,,,,,,
,,60a69d04e5534b81417680ce,32,female,2024-04-24_12h32.34.864,stockport_simplified,2022.2.4,Win32,60.97560976,661e456ee6de07e70aa9ef7b,6628df85bc5a421020bcb14b,,,,,,,,,,,,,,,,,,,,,,,,,,,,,,,,,,563.9619,565.9946,"[7,6,3,4,1,8,2,5]","[[0.3,0.2],[-0.3,0.2]]","[[-0.125,-0.2],[0.125,-0.2]]",0.11328125,-0.216145833,1,0,0,1.5159,o2_image,565.9954,0,566.4918,566.4919,568.4914,0,0,0,0,1,,,,,,,,,,,,,,,,,,,,,,,,,,,,,,,,,,,,,,,,,,,,,,,,,,
,,60a69d04e5534b81417680ce,32,female,2024-04-24_12h32.34.864,stockport_simplified,2022.2.4,Win32,60.97560976,661e456ee6de07e70aa9ef7b,6628df85bc5a421020bcb14b,,,,,,,,,,,,,,,,,,,,,,,,,,,,,,,,,,,,,,,,,,,,,,,,,,,,,,,,0,30,30,30,1,A,X,N,o1_image,stimuli/out1.png,stimuli/correct_out1.png,stimuli/out2.png,,,,,,,,,,,,,,,,,,,,,,,,,,,,,,,,,,,,,,
,,60a69d04e5534b81417680ce,32,female,2024-04-24_12h32.34.864,stockport_simplified,2022.2.4,Win32,60.97560976,661e456ee6de07e70aa9ef7b,6628df85bc5a421020bcb14b,,,,,,,,,,,,,,,,,,,,,,,,,,,,,,,,,,568.4932,571.4488,"[7,6,3,4,1,8,2,5]","[[-0.3,0.2],[0.3,0.2]]","[[0.125,-0.2],[-0.125,-0.2]]",0.145833333,-0.231770833,1,0,0,2.4381,o1_image,571.4795,1,571.9742,571.9743,573.9785,0,0,0,0,1,,,,,,,,,,,,,,,,,,,,,,,,,,,,,,,,,,,,,,,,,,,,,,,,,,
,,60a69d04e5534b81417680ce,32,female,2024-04-24_12h32.34.864,stockport_simplified,2022.2.4,Win32,60.97560976,661e456ee6de07e70aa9ef7b,6628df85bc5a421020bcb14b,,,,,,,,,,,,,,,,,,,,,,,,,,,,,,,,,,,,,,,,,,,,,,,,,,,,,,,,0,31,31,24,1,N,M,C,o1_image,stimuli/out1.png,stimuli/correct_out1.png,stimuli/out2.png,,,,,,,,,,,,,,,,,,,,,,,,,,,,,,,,,,,,,,
,,60a69d04e5534b81417680ce,32,female,2024-04-24_12h32.34.864,stockport_simplified,2022.2.4,Win32,60.97560976,661e456ee6de07e70aa9ef7b,6628df85bc5a421020bcb14b,,,,,,,,,,,,,,,,,,,,,,,,,,,,,,,,,,573.9798,576.9239,"[7,6,3,4,1,8,2,5]","[[0.3,0.2],[-0.3,0.2]]","[[0.125,-0.2],[-0.125,-0.2]]",0.145833333,-0.231770833,1,0,0,2.4265,o1_image,576.9346,0,577.4249,577.425,579.4242,0,0,0,0,1,,,,,,,,,,,,,,,,,,,,,,,,,,,,,,,,,,,,,,,,,,,,,,,,,,
,,60a69d04e5534b81417680ce,32,female,2024-04-24_12h32.34.864,stockport_simplified,2022.2.4,Win32,60.97560976,661e456ee6de07e70aa9ef7b,6628df85bc5a421020bcb14b,,,,,,,,,,,,,,,,,,,,,,,,,,,,,,,,,,,,,,,,,,,,,,,,,,,,,,,,0,32,32,47,1,B,Y,N,o2_image,stimuli/out2.png,stimuli/out1.png,stimuli/correct_out2.png,,,,,,,,,,,,,,,,,,,,,,,,,,,,,,,,,,,,,,
,,60a69d04e5534b81417680ce,32,female,2024-04-24_12h32.34.864,stockport_simplified,2022.2.4,Win32,60.97560976,661e456ee6de07e70aa9ef7b,6628df85bc5a421020bcb14b,,,,,,,,,,,,,,,,,,,,,,,,,,,,,,,,,,579.4258,583.446,"[7,6,3,4,1,8,2,5]","[[-0.3,0.2],[0.3,0.2]]","[[-0.125,-0.2],[0.125,-0.2]]",-0.087239583,-0.184895833,1,0,0,3.503,o1_image,583.4587,1,583.9581,583.9581,585.959,0,0,0,0,1,,,,,,,,,,,,,,,,,,,,,,,,,,,,,,,,,,,,,,,,,,,,,,,,,,
,,60a69d04e5534b81417680ce,32,female,2024-04-24_12h32.34.864,stockport_simplified,2022.2.4,Win32,60.97560976,661e456ee6de07e70aa9ef7b,6628df85bc5a421020bcb14b,,,,,,,,,,,,,,,,,,,,,,,,,,,,,,,,,,,,,,,,,,,,,,,,,,,,,,,,0,33,33,20,1,N,M,C,o1_image,stimuli/out1.png,stimuli/correct_out1.png,stimuli/out2.png,,,,,,,,,,,,,,,,,,,,,,,,,,,,,,,,,,,,,,
,,60a69d04e5534b81417680ce,32,female,2024-04-24_12h32.34.864,stockport_simplified,2022.2.4,Win32,60.97560976,661e456ee6de07e70aa9ef7b,6628df85bc5a421020bcb14b,,,,,,,,,,,,,,,,,,,,,,,,,,,,,,,,,,585.9599,589.6127,"[7,6,3,4,1,8,2,5]","[[-0.3,0.2],[0.3,0.2]]","[[0.125,-0.2],[-0.125,-0.2]]",0.130208333,-0.19921875,1,0,0,3.1362,o1_image,589.6248,1,590.1293,590.1294,592.1293,0,0,0,0,1,,,,,,,,,,,,,,,,,,,,,,,,,,,,,,,,,,,,,,,,,,,,,,,,,,
,,60a69d04e5534b81417680ce,32,female,2024-04-24_12h32.34.864,stockport_simplified,2022.2.4,Win32,60.97560976,661e456ee6de07e70aa9ef7b,6628df85bc5a421020bcb14b,,,,,,,,,,,,,,,,,,,,,,,,,,,,,,,,,,,,,,,,,,,,,,,,,,,,,,,,0,34,34,0,1,A,X,N,o1_image,stimuli/out1.png,stimuli/correct_out1.png,stimuli/out2.png,,,,,,,,,,,,,,,,,,,,,,,,,,,,,,,,,,,,,,
,,60a69d04e5534b81417680ce,32,female,2024-04-24_12h32.34.864,stockport_simplified,2022.2.4,Win32,60.97560976,661e456ee6de07e70aa9ef7b,6628df85bc5a421020bcb14b,,,,,,,,,,,,,,,,,,,,,,,,,,,,,,,,,,592.1307,595.1588,"[7,6,3,4,1,8,2,5]","[[-0.3,0.2],[0.3,0.2]]","[[-0.125,-0.2],[0.125,-0.2]]",0.130208333,-0.19921875,1,0,0,2.5134,o2_image,595.1841,0,595.6767,595.6767,597.6736,0,0,0,0,1,,,,,,,,,,,,,,,,,,,,,,,,,,,,,,,,,,,,,,,,,,,,,,,,,,
,,60a69d04e5534b81417680ce,32,female,2024-04-24_12h32.34.864,stockport_simplified,2022.2.4,Win32,60.97560976,661e456ee6de07e70aa9ef7b,6628df85bc5a421020bcb14b,,,,,,,,,,,,,,,,,,,,,,,,,,,,,,,,,,,,,,,,,,,,,,,,,,,,,,,,0,35,35,38,1,A,Y,N,o1_image,stimuli/out1.png,stimuli/correct_out1.png,stimuli/out2.png,,,,,,,,,,,,,,,,,,,,,,,,,,,,,,,,,,,,,,
,,60a69d04e5534b81417680ce,32,female,2024-04-24_12h32.34.864,stockport_simplified,2022.2.4,Win32,60.97560976,661e456ee6de07e70aa9ef7b,6628df85bc5a421020bcb14b,,,,,,,,,,,,,,,,,,,,,,,,,,,,,,,,,,597.6763,600.706,"[7,6,3,4,1,8,2,5]","[[0.3,0.2],[-0.3,0.2]]","[[0.125,-0.2],[-0.125,-0.2]]",-0.143229167,-0.212239583,1,0,0,2.5138,o2_image,600.7076,0,601.211,601.2111,603.2069,0,0,0,0,1,,,,,,,,,,,,,,,,,,,,,,,,,,,,,,,,,,,,,,,,,,,,,,,,,,
,,60a69d04e5534b81417680ce,32,female,2024-04-24_12h32.34.864,stockport_simplified,2022.2.4,Win32,60.97560976,661e456ee6de07e70aa9ef7b,6628df85bc5a421020bcb14b,,,,,,,,,,,,,,,,,,,,,,,,,,,,,,,,,,,,,,,,,,,,,,,,,,,,,,,,0,36,36,1,1,A,X,N,o1_image,stimuli/out1.png,stimuli/correct_out1.png,stimuli/out2.png,,,,,,,,,,,,,,,,,,,,,,,,,,,,,,,,,,,,,,
,,60a69d04e5534b81417680ce,32,female,2024-04-24_12h32.34.864,stockport_simplified,2022.2.4,Win32,60.97560976,661e456ee6de07e70aa9ef7b,6628df85bc5a421020bcb14b,,,,,,,,,,,,,,,,,,,,,,,,,,,,,,,,,,603.2083,605.7611,"[7,6,3,4,1,8,2,5]","[[-0.3,0.2],[0.3,0.2]]","[[0.125,-0.2],[-0.125,-0.2]]",0.161458333,-0.20703125,1,0,0,2.0356,o1_image,605.7626,0,606.2581,606.2581,608.2563,0,0,0,0,1,,,,,,,,,,,,,,,,,,,,,,,,,,,,,,,,,,,,,,,,,,,,,,,,,,
,,60a69d04e5534b81417680ce,32,female,2024-04-24_12h32.34.864,stockport_simplified,2022.2.4,Win32,60.97560976,661e456ee6de07e70aa9ef7b,6628df85bc5a421020bcb14b,,,,,,,,,,,,,,,,,,,,,,,,,,,,,,,,,,,,,,,,,,,,,,,,,,,,,,,,0,37,37,59,1,N,M,D,o2_image,stimuli/out2.png,stimuli/out1.png,stimuli/correct_out2.png,,,,,,,,,,,,,,,,,,,,,,,,,,,,,,,,,,,,,,
,,60a69d04e5534b81417680ce,32,female,2024-04-24_12h32.34.864,stockport_simplified,2022.2.4,Win32,60.97560976,661e456ee6de07e70aa9ef7b,6628df85bc5a421020bcb14b,,,,,,,,,,,,,,,,,,,,,,,,,,,,,,,,,,608.2568,611.3094,"[7,6,3,4,1,8,2,5]","[[-0.3,0.2],[0.3,0.2]]","[[-0.125,-0.2],[0.125,-0.2]]",0.161458333,-0.20703125,1,0,0,2.5501,o2_image,611.335,1,611.8383,611.8383,613.8387,0,0,0,0,1,,,,,,,,,,,,,,,,,,,,,,,,,,,,,,,,,,,,,,,,,,,,,,,,,,
,,60a69d04e5534b81417680ce,32,female,2024-04-24_12h32.34.864,stockport_simplified,2022.2.4,Win32,60.97560976,661e456ee6de07e70aa9ef7b,6628df85bc5a421020bcb14b,,,,,,,,,,,,,,,,,,,,,,,,,,,,,,,,,,,,,,,,,,,,,,,,,,,,,,,,0,38,38,11,1,B,X,N,o2_image,stimuli/out2.png,stimuli/out1.png,stimuli/correct_out2.png,,,,,,,,,,,,,,,,,,,,,,,,,,,,,,,,,,,,,,
,,60a69d04e5534b81417680ce,32,female,2024-04-24_12h32.34.864,stockport_simplified,2022.2.4,Win32,60.97560976,661e456ee6de07e70aa9ef7b,6628df85bc5a421020bcb14b,,,,,,,,,,,,,,,,,,,,,,,,,,,,,,,,,,613.8407,617.0242,"[7,6,3,4,1,8,2,5]","[[0.3,0.2],[-0.3,0.2]]","[[0.125,-0.2],[-0.125,-0.2]]",0.139322917,-0.208333333,1,0,0,2.6674,o1_image,617.0502,1,617.5384,617.5385,619.5265,0,0,0,0,1,,,,,,,,,,,,,,,,,,,,,,,,,,,,,,,,,,,,,,,,,,,,,,,,,,
,,60a69d04e5534b81417680ce,32,female,2024-04-24_12h32.34.864,stockport_simplified,2022.2.4,Win32,60.97560976,661e456ee6de07e70aa9ef7b,6628df85bc5a421020bcb14b,,,,,,,,,,,,,,,,,,,,,,,,,,,,,,,,,,,,,,,,,,,,,,,,,,,,,,,,0,39,39,2,1,A,X,N,o1_image,stimuli/out1.png,stimuli/correct_out1.png,stimuli/out2.png,,,,,,,,,,,,,,,,,,,,,,,,,,,,,,,,,,,,,,
,,60a69d04e5534b81417680ce,32,female,2024-04-24_12h32.34.864,stockport_simplified,2022.2.4,Win32,60.97560976,661e456ee6de07e70aa9ef7b,6628df85bc5a421020bcb14b,,,,,,,,,,,,,,,,,,,,,,,,,,,,,,,,,,619.5276,622.3218,"[7,6,3,4,1,8,2,5]","[[0.3,0.2],[-0.3,0.2]]","[[-0.125,-0.2],[0.125,-0.2]]",0.1328125,-0.20703125,1,0,0,2.2798,o2_image,622.3231,1,622.828,622.8281,624.8213,0,0,0,0,1,,,,,,,,,,,,,,,,,,,,,,,,,,,,,,,,,,,,,,,,,,,,,,,,,,
,,60a69d04e5534b81417680ce,32,female,2024-04-24_12h32.34.864,stockport_simplified,2022.2.4,Win32,60.97560976,661e456ee6de07e70aa9ef7b,6628df85bc5a421020bcb14b,,,,,,,,,,,,,,,,,,,,,,,,,,,,,,,,,,,,,,,,,,,,,,,,,,,,,,,,0,40,40,46,1,B,Y,N,o2_image,stimuli/out2.png,stimuli/out1.png,stimuli/correct_out2.png,,,,,,,,,,,,,,,,,,,,,,,,,,,,,,,,,,,,,,
,,60a69d04e5534b81417680ce,32,female,2024-04-24_12h32.34.864,stockport_simplified,2022.2.4,Win32,60.97560976,661e456ee6de07e70aa9ef7b,6628df85bc5a421020bcb14b,,,,,,,,,,,,,,,,,,,,,,,,,,,,,,,,,,624.8228,627.4548,"[7,6,3,4,1,8,2,5]","[[-0.3,0.2],[0.3,0.2]]","[[-0.125,-0.2],[0.125,-0.2]]",0.1328125,-0.20703125,1,0,0,2.116,o2_image,627.4811,1,627.9722,627.9722,629.9712,0,0,0,0,1,,,,,,,,,,,,,,,,,,,,,,,,,,,,,,,,,,,,,,,,,,,,,,,,,,
,,60a69d04e5534b81417680ce,32,female,2024-04-24_12h32.34.864,stockport_simplified,2022.2.4,Win32,60.97560976,661e456ee6de07e70aa9ef7b,6628df85bc5a421020bcb14b,,,,,,,,,,,,,,,,,,,,,,,,,,,,,,,,,,,,,,,,,,,,,,,,,,,,,,,,0,41,41,17,1,B,Y,N,o2_image,stimuli/out2.png,stimuli/out1.png,stimuli/correct_out2.png,,,,,,,,,,,,,,,,,,,,,,,,,,,,,,,,,,,,,,
,,60a69d04e5534b81417680ce,32,female,2024-04-24_12h32.34.864,stockport_simplified,2022.2.4,Win32,60.97560976,661e456ee6de07e70aa9ef7b,6628df85bc5a421020bcb14b,,,,,,,,,,,,,,,,,,,,,,,,,,,,,,,,,,629.9721,632.7221,"[7,6,3,4,1,8,2,5]","[[-0.3,0.2],[0.3,0.2]]","[[0.125,-0.2],[-0.125,-0.2]]",0.130208333,-0.217447917,1,0,0,2.2313,o1_image,632.7231,1,633.2259,633.2259,635.2215,0,0,0,0,1,,,,,,,,,,,,,,,,,,,,,,,,,,,,,,,,,,,,,,,,,,,,,,,,,,
,,60a69d04e5534b81417680ce,32,female,2024-04-24_12h32.34.864,stockport_simplified,2022.2.4,Win32,60.97560976,661e456ee6de07e70aa9ef7b,6628df85bc5a421020bcb14b,,,,,,,,,,,,,,,,,,,,,,,,,,,,,,,,,,,,,,,,,,,,,,,,,,,,,,,,0,42,42,53,1,N,M,C,o1_image,stimuli/out1.png,stimuli/correct_out1.png,stimuli/out2.png,,,,,,,,,,,,,,,,,,,,,,,,,,,,,,,,,,,,,,
,,60a69d04e5534b81417680ce,32,female,2024-04-24_12h32.34.864,stockport_simplified,2022.2.4,Win32,60.97560976,661e456ee6de07e70aa9ef7b,6628df85bc5a421020bcb14b,,,,,,,,,,,,,,,,,,,,,,,,,,,,,,,,,,635.2226,637.9376,"[7,6,3,4,1,8,2,5]","[[0.3,0.2],[-0.3,0.2]]","[[0.125,-0.2],[-0.125,-0.2]]",-0.127604167,-0.192708333,1,0,0,2.197,o2_image,637.9391,0,638.4406,638.4406,640.4375,0,0,0,0,1,,,,,,,,,,,,,,,,,,,,,,,,,,,,,,,,,,,,,,,,,,,,,,,,,,
,,60a69d04e5534b81417680ce,32,female,2024-04-24_12h32.34.864,stockport_simplified,2022.2.4,Win32,60.97560976,661e456ee6de07e70aa9ef7b,6628df85bc5a421020bcb14b,,,,,,,,,,,,,,,,,,,,,,,,,,,,,,,,,,,,,,,,,,,,,,,,,,,,,,,,0,43,43,8,1,A,Y,N,o1_image,stimuli/out1.png,stimuli/correct_out1.png,stimuli/out2.png,,,,,,,,,,,,,,,,,,,,,,,,,,,,,,,,,,,,,,
,,60a69d04e5534b81417680ce,32,female,2024-04-24_12h32.34.864,stockport_simplified,2022.2.4,Win32,60.97560976,661e456ee6de07e70aa9ef7b,6628df85bc5a421020bcb14b,,,,,,,,,,,,,,,,,,,,,,,,,,,,,,,,,,640.4387,643.6208,"[7,6,3,4,1,8,2,5]","[[-0.3,0.2],[0.3,0.2]]","[[-0.125,-0.2],[0.125,-0.2]]",-0.075520833,-0.192708333,1,0,0,2.6656,o1_image,643.6317,0,644.1215,644.1215,646.1235,0,0,0,0,1,,,,,,,,,,,,,,,,,,,,,,,,,,,,,,,,,,,,,,,,,,,,,,,,,,
,,60a69d04e5534b81417680ce,32,female,2024-04-24_12h32.34.864,stockport_simplified,2022.2.4,Win32,60.97560976,661e456ee6de07e70aa9ef7b,6628df85bc5a421020bcb14b,,,,,,,,,,,,,,,,,,,,,,,,,,,,,,,,,,,,,,,,,,,,,,,,,,,,,,,,0,44,44,25,1,N,M,D,o2_image,stimuli/out2.png,stimuli/out1.png,stimuli/correct_out2.png,,,,,,,,,,,,,,,,,,,,,,,,,,,,,,,,,,,,,,
,,60a69d04e5534b81417680ce,32,female,2024-04-24_12h32.34.864,stockport_simplified,2022.2.4,Win32,60.97560976,661e456ee6de07e70aa9ef7b,6628df85bc5a421020bcb14b,,,,,,,,,,,,,,,,,,,,,,,,,,,,,,,,,,646.1246,650.021,"[7,6,3,4,1,8,2,5]","[[-0.3,0.2],[0.3,0.2]]","[[-0.125,-0.2],[0.125,-0.2]]",-0.075520833,-0.192708333,1,0,0,3.3838,o1_image,650.0325,0,650.5203,650.5204,652.5199,0,0,0,0,1,,,,,,,,,,,,,,,,,,,,,,,,,,,,,,,,,,,,,,,,,,,,,,,,,,
,,60a69d04e5534b81417680ce,32,female,2024-04-24_12h32.34.864,stockport_simplified,2022.2.4,Win32,60.97560976,661e456ee6de07e70aa9ef7b,6628df85bc5a421020bcb14b,,,,,,,,,,,,,,,,,,,,,,,,,,,,,,,,,,,,,,,,,,,,,,,,,,,,,,,,0,45,45,28,1,N,M,D,o2_image,stimuli/out2.png,stimuli/out1.png,stimuli/correct_out2.png,,,,,,,,,,,,,,,,,,,,,,,,,,,,,,,,,,,,,,
,,60a69d04e5534b81417680ce,32,female,2024-04-24_12h32.34.864,stockport_simplified,2022.2.4,Win32,60.97560976,661e456ee6de07e70aa9ef7b,6628df85bc5a421020bcb14b,,,,,,,,,,,,,,,,,,,,,,,,,,,,,,,,,,652.5209,654.8923,"[7,6,3,4,1,8,2,5]","[[0.3,0.2],[-0.3,0.2]]","[[0.125,-0.2],[-0.125,-0.2]]",-0.138020833,-0.213541667,1,0,0,1.8542,o2_image,654.8936,1,655.3875,655.3876,657.3865,0,0,0,0,1,,,,,,,,,,,,,,,,,,,,,,,,,,,,,,,,,,,,,,,,,,,,,,,,,,
,,60a69d04e5534b81417680ce,32,female,2024-04-24_12h32.34.864,stockport_simplified,2022.2.4,Win32,60.97560976,661e456ee6de07e70aa9ef7b,6628df85bc5a421020bcb14b,,,,,,,,,,,,,,,,,,,,,,,,,,,,,,,,,,,,,,,,,,,,,,,,,,,,,,,,0,46,46,44,1,B,X,N,o2_image,stimuli/out2.png,stimuli/out1.png,stimuli/correct_out2.png,,,,,,,,,,,,,,,,,,,,,,,,,,,,,,,,,,,,,,
,,60a69d04e5534b81417680ce,32,female,2024-04-24_12h32.34.864,stockport_simplified,2022.2.4,Win32,60.97560976,661e456ee6de07e70aa9ef7b,6628df85bc5a421020bcb14b,,,,,,,,,,,,,,,,,,,,,,,,,,,,,,,,,,657.3874,660.5252,"[7,6,3,4,1,8,2,5]","[[0.3,0.2],[-0.3,0.2]]","[[0.125,-0.2],[-0.125,-0.2]]",-0.141927083,-0.229166667,1,0,0,2.6215,o2_image,660.5265,0,661.0196,661.0196,663.0196,0,0,0,0,1,,,,,,,,,,,,,,,,,,,,,,,,,,,,,,,,,,,,,,,,,,,,,,,,,,
,,60a69d04e5534b81417680ce,32,female,2024-04-24_12h32.34.864,stockport_simplified,2022.2.4,Win32,60.97560976,661e456ee6de07e70aa9ef7b,6628df85bc5a421020bcb14b,,,,,,,,,,,,,,,,,,,,,,,,,,,,,,,,,,,,,,,,,,,,,,,,,,,,,,,,0,47,47,36,1,A,Y,N,o1_image,stimuli/out1.png,stimuli/correct_out1.png,stimuli/out2.png,,,,,,,,,,,,,,,,,,,,,,,,,,,,,,,,,,,,,,
,,60a69d04e5534b81417680ce,32,female,2024-04-24_12h32.34.864,stockport_simplified,2022.2.4,Win32,60.97560976,661e456ee6de07e70aa9ef7b,6628df85bc5a421020bcb14b,,,,,,,,,,,,,,,,,,,,,,,,,,,,,,,,,,663.0202,664.8698,"[7,6,3,4,1,8,2,5]","[[0.3,0.2],[-0.3,0.2]]","[[0.125,-0.2],[-0.125,-0.2]]",-0.141927083,-0.229166667,1,0,0,1.3333,o2_image,664.871,0,665.3696,665.3696,667.3695,0,0,0,0,1,,,,,,,,,,,,,,,,,,,,,,,,,,,,,,,,,,,,,,,,,,,,,,,,,,
,,60a69d04e5534b81417680ce,32,female,2024-04-24_12h32.34.864,stockport_simplified,2022.2.4,Win32,60.97560976,661e456ee6de07e70aa9ef7b,6628df85bc5a421020bcb14b,,,,,,,,,,,,,,,,,,,,,,,,,,,,,,,,,,,,,,,,,,,,,,,,,,,,,,,,0,48,48,5,1,A,Y,N,o1_image,stimuli/out1.png,stimuli/correct_out1.png,stimuli/out2.png,,,,,,,,,,,,,,,,,,,,,,,,,,,,,,,,,,,,,,
,,60a69d04e5534b81417680ce,32,female,2024-04-24_12h32.34.864,stockport_simplified,2022.2.4,Win32,60.97560976,661e456ee6de07e70aa9ef7b,6628df85bc5a421020bcb14b,,,,,,,,,,,,,,,,,,,,,,,,,,,,,,,,,,667.3705,670.0385,"[7,6,3,4,1,8,2,5]","[[0.3,0.2],[-0.3,0.2]]","[[-0.125,-0.2],[0.125,-0.2]]",0.092447917,-0.220052083,1,0,0,2.1518,o2_image,670.0403,1,670.5359,670.5359,672.5365,0,0,0,0,1,,,,,,,,,,,,,,,,,,,,,,,,,,,,,,,,,,,,,,,,,,,,,,,,,,
,,60a69d04e5534b81417680ce,32,female,2024-04-24_12h32.34.864,stockport_simplified,2022.2.4,Win32,60.97560976,661e456ee6de07e70aa9ef7b,6628df85bc5a421020bcb14b,,,,,,,,,,,,,,,,,,,,,,,,,,,,,,,,,,,,,,,,,,,,,,,,,,,,,,,,0,49,49,42,1,B,X,N,o2_image,stimuli/out2.png,stimuli/out1.png,stimuli/correct_out2.png,,,,,,,,,,,,,,,,,,,,,,,,,,,,,,,,,,,,,,
,,60a69d04e5534b81417680ce,32,female,2024-04-24_12h32.34.864,stockport_simplified,2022.2.4,Win32,60.97560976,661e456ee6de07e70aa9ef7b,6628df85bc5a421020bcb14b,,,,,,,,,,,,,,,,,,,,,,,,,,,,,,,,,,672.5377,676.3414,"[7,6,3,4,1,8,2,5]","[[0.3,0.2],[-0.3,0.2]]","[[0.125,-0.2],[-0.125,-0.2]]",0.134114583,-0.23046875,1,0,0,3.2879,o1_image,676.3547,1,676.8535,676.8535,678.8529,0,0,0,0,1,,,,,,,,,,,,,,,,,,,,,,,,,,,,,,,,,,,,,,,,,,,,,,,,,,
,,60a69d04e5534b81417680ce,32,female,2024-04-24_12h32.34.864,stockport_simplified,2022.2.4,Win32,60.97560976,661e456ee6de07e70aa9ef7b,6628df85bc5a421020bcb14b,,,,,,,,,,,,,,,,,,,,,,,,,,,,,,,,,,,,,,,,,,,,,,,,,,,,,,,,0,50,50,54,1,N,M,C,o1_image,stimuli/out1.png,stimuli/correct_out1.png,stimuli/out2.png,,,,,,,,,,,,,,,,,,,,,,,,,,,,,,,,,,,,,,
,,60a69d04e5534b81417680ce,32,female,2024-04-24_12h32.34.864,stockport_simplified,2022.2.4,Win32,60.97560976,661e456ee6de07e70aa9ef7b,6628df85bc5a421020bcb14b,,,,,,,,,,,,,,,,,,,,,,,,,,,,,,,,,,678.8541,682.1097,"[7,6,3,4,1,8,2,5]","[[-0.3,0.2],[0.3,0.2]]","[[0.125,-0.2],[-0.125,-0.2]]",0.134114583,-0.23046875,1,0,0,2.7395,o1_image,682.137,0,682.6369,682.637,684.6348,0,0,0,0,1,,,,,,,,,,,,,,,,,,,,,,,,,,,,,,,,,,,,,,,,,,,,,,,,,,
,,60a69d04e5534b81417680ce,32,female,2024-04-24_12h32.34.864,stockport_simplified,2022.2.4,Win32,60.97560976,661e456ee6de07e70aa9ef7b,6628df85bc5a421020bcb14b,,,,,,,,,,,,,,,,,,,,,,,,,,,,,,,,,,,,,,,,,,,,,,,,,,,,,,,,0,51,51,57,1,N,M,D,o2_image,stimuli/out2.png,stimuli/out1.png,stimuli/correct_out2.png,,,,,,,,,,,,,,,,,,,,,,,,,,,,,,,,,,,,,,
,,60a69d04e5534b81417680ce,32,female,2024-04-24_12h32.34.864,stockport_simplified,2022.2.4,Win32,60.97560976,661e456ee6de07e70aa9ef7b,6628df85bc5a421020bcb14b,,,,,,,,,,,,,,,,,,,,,,,,,,,,,,,,,,684.6358,688.4684,"[7,6,3,4,1,8,2,5]","[[0.3,0.2],[-0.3,0.2]]","[[0.125,-0.2],[-0.125,-0.2]]",0.134114583,-0.23046875,1,0,0,3.3313,o1_image,688.4952,0,688.9856,688.9858,690.9862,0,0,0,0,1,,,,,,,,,,,,,,,,,,,,,,,,,,,,,,,,,,,,,,,,,,,,,,,,,,
,,60a69d04e5534b81417680ce,32,female,2024-04-24_12h32.34.864,stockport_simplified,2022.2.4,Win32,60.97560976,661e456ee6de07e70aa9ef7b,6628df85bc5a421020bcb14b,,,,,,,,,,,,,,,,,,,,,,,,,,,,,,,,,,,,,,,,,,,,,,,,,,,,,,,,0,52,52,56,1,N,M,D,o2_image,stimuli/out2.png,stimuli/out1.png,stimuli/correct_out2.png,,,,,,,,,,,,,,,,,,,,,,,,,,,,,,,,,,,,,,
,,60a69d04e5534b81417680ce,32,female,2024-04-24_12h32.34.864,stockport_simplified,2022.2.4,Win32,60.97560976,661e456ee6de07e70aa9ef7b,6628df85bc5a421020bcb14b,,,,,,,,,,,,,,,,,,,,,,,,,,,,,,,,,,690.9876,693.7026,"[7,6,3,4,1,8,2,5]","[[0.3,0.2],[-0.3,0.2]]","[[0.125,-0.2],[-0.125,-0.2]]",-0.071614583,-0.188802083,1,0,0,2.1986,o2_image,693.713,1,694.2022,694.2023,696.2025,0,0,0,0,1,,,,,,,,,,,,,,,,,,,,,,,,,,,,,,,,,,,,,,,,,,,,,,,,,,
,,60a69d04e5534b81417680ce,32,female,2024-04-24_12h32.34.864,stockport_simplified,2022.2.4,Win32,60.97560976,661e456ee6de07e70aa9ef7b,6628df85bc5a421020bcb14b,,,,,,,,,,,,,,,,,,,,,,,,,,,,,,,,,,,,,,,,,,,,,,,,,,,,,,,,0,53,53,19,1,B,Y,N,o2_image,stimuli/out2.png,stimuli/out1.png,stimuli/correct_out2.png,,,,,,,,,,,,,,,,,,,,,,,,,,,,,,,,,,,,,,
,,60a69d04e5534b81417680ce,32,female,2024-04-24_12h32.34.864,stockport_simplified,2022.2.4,Win32,60.97560976,661e456ee6de07e70aa9ef7b,6628df85bc5a421020bcb14b,,,,,,,,,,,,,,,,,,,,,,,,,,,,,,,,,,696.2029,699.6192,"[7,6,3,4,1,8,2,5]","[[0.3,0.2],[-0.3,0.2]]","[[-0.125,-0.2],[0.125,-0.2]]",0.106770833,-0.22265625,1,0,0,2.914,o2_image,699.6415,0,700.141,700.1411,702.1398,0,0,0,0,1,,,,,,,,,,,,,,,,,,,,,,,,,,,,,,,,,,,,,,,,,,,,,,,,,,
,,60a69d04e5534b81417680ce,32,female,2024-04-24_12h32.34.864,stockport_simplified,2022.2.4,Win32,60.97560976,661e456ee6de07e70aa9ef7b,6628df85bc5a421020bcb14b,,,,,,,,,,,,,,,,,,,,,,,,,,,,,,,,,,,,,,,,,,,,,,,,,,,,,,,,0,54,54,6,1,A,Y,N,o1_image,stimuli/out1.png,stimuli/correct_out1.png,stimuli/out2.png,,,,,,,,,,,,,,,,,,,,,,,,,,,,,,,,,,,,,,
,,60a69d04e5534b81417680ce,32,female,2024-04-24_12h32.34.864,stockport_simplified,2022.2.4,Win32,60.97560976,661e456ee6de07e70aa9ef7b,6628df85bc5a421020bcb14b,,,,,,,,,,,,,,,,,,,,,,,,,,,,,,,,,,702.1414,705.0033,"[7,6,3,4,1,8,2,5]","[[0.3,0.2],[-0.3,0.2]]","[[-0.125,-0.2],[0.125,-0.2]]",-0.087239583,-0.205729167,1,0,0,2.3461,o1_image,705.0041,1,705.5068,705.5069,707.5059,0,0,0,0,1,,,,,,,,,,,,,,,,,,,,,,,,,,,,,,,,,,,,,,,,,,,,,,,,,,
,,60a69d04e5534b81417680ce,32,female,2024-04-24_12h32.34.864,stockport_simplified,2022.2.4,Win32,60.97560976,661e456ee6de07e70aa9ef7b,6628df85bc5a421020bcb14b,,,,,,,,,,,,,,,,,,,,,,,,,,,,,,,,,,,,,,,,,,,,,,,,,,,,,,,,0,55,55,51,1,N,M,C,o1_image,stimuli/out1.png,stimuli/correct_out1.png,stimuli/out2.png,,,,,,,,,,,,,,,,,,,,,,,,,,,,,,,,,,,,,,
,,60a69d04e5534b81417680ce,32,female,2024-04-24_12h32.34.864,stockport_simplified,2022.2.4,Win32,60.97560976,661e456ee6de07e70aa9ef7b,6628df85bc5a421020bcb14b,,,,,,,,,,,,,,,,,,,,,,,,,,,,,,,,,,707.5077,710.2018,"[7,6,3,4,1,8,2,5]","[[-0.3,0.2],[0.3,0.2]]","[[0.125,-0.2],[-0.125,-0.2]]",-0.076822917,-0.184895833,1,0,0,2.1757,o2_image,710.2037,0,710.7053,710.7053,712.7013,0,0,0,0,1,,,,,,,,,,,,,,,,,,,,,,,,,,,,,,,,,,,,,,,,,,,,,,,,,,
,,60a69d04e5534b81417680ce,32,female,2024-04-24_12h32.34.864,stockport_simplified,2022.2.4,Win32,60.97560976,661e456ee6de07e70aa9ef7b,6628df85bc5a421020bcb14b,,,,,,,,,,,,,,,,,,,,,,,,,,,,,,,,,,,,,,,,,,,,,,,,,,,,,,,,0,56,56,34,1,A,X,N,o1_image,stimuli/out1.png,stimuli/correct_out1.png,stimuli/out2.png,,,,,,,,,,,,,,,,,,,,,,,,,,,,,,,,,,,,,,
,,60a69d04e5534b81417680ce,32,female,2024-04-24_12h32.34.864,stockport_simplified,2022.2.4,Win32,60.97560976,661e456ee6de07e70aa9ef7b,6628df85bc5a421020bcb14b,,,,,,,,,,,,,,,,,,,,,,,,,,,,,,,,,,712.7029,715.2521,"[7,6,3,4,1,8,2,5]","[[0.3,0.2],[-0.3,0.2]]","[[-0.125,-0.2],[0.125,-0.2]]",0.098958333,-0.21484375,1,0,0,2.0336,o2_image,715.2544,0,715.7505,715.7505,717.7397,0,0,0,0,1,,,,,,,,,,,,,,,,,,,,,,,,,,,,,,,,,,,,,,,,,,,,,,,,,,
,,60a69d04e5534b81417680ce,32,female,2024-04-24_12h32.34.864,stockport_simplified,2022.2.4,Win32,60.97560976,661e456ee6de07e70aa9ef7b,6628df85bc5a421020bcb14b,,,,,,,,,,,,,,,,,,,,,,,,,,,,,,,,,,,,,,,,,,,,,,,,,,,,,,,,0,57,57,4,1,A,X,N,o1_image,stimuli/out1.png,stimuli/correct_out1.png,stimuli/out2.png,,,,,,,,,,,,,,,,,,,,,,,,,,,,,,,,,,,,,,
,,60a69d04e5534b81417680ce,32,female,2024-04-24_12h32.34.864,stockport_simplified,2022.2.4,Win32,60.97560976,661e456ee6de07e70aa9ef7b,6628df85bc5a421020bcb14b,,,,,,,,,,,,,,,,,,,,,,,,,,,,,,,,,,717.741,719.9238,"[7,6,3,4,1,8,2,5]","[[0.3,0.2],[-0.3,0.2]]","[[0.125,-0.2],[-0.125,-0.2]]",-0.076822917,-0.209635417,1,0,0,1.6692,o2_image,719.9256,1,720.4217,720.4217,722.4227,0,0,0,0,1,,,,,,,,,,,,,,,,,,,,,,,,,,,,,,,,,,,,,,,,,,,,,,,,,,
,,60a69d04e5534b81417680ce,32,female,2024-04-24_12h32.34.864,stockport_simplified,2022.2.4,Win32,60.97560976,661e456ee6de07e70aa9ef7b,6628df85bc5a421020bcb14b,,,,,,,,,,,,,,,,,,,,,,,,,,,,,,,,,,,,,,,,,,,,,,,,,,,,,,,,0,58,58,49,1,B,Y,N,o2_image,stimuli/out2.png,stimuli/out1.png,stimuli/correct_out2.png,,,,,,,,,,,,,,,,,,,,,,,,,,,,,,,,,,,,,,
,,60a69d04e5534b81417680ce,32,female,2024-04-24_12h32.34.864,stockport_simplified,2022.2.4,Win32,60.97560976,661e456ee6de07e70aa9ef7b,6628df85bc5a421020bcb14b,,,,,,,,,,,,,,,,,,,,,,,,,,,,,,,,,,722.4238,725.5233,"[7,6,3,4,1,8,2,5]","[[0.3,0.2],[-0.3,0.2]]","[[0.125,-0.2],[-0.125,-0.2]]",0.141927083,-0.220052083,1,0,0,2.584,o1_image,725.5514,0,726.0506,726.0506,728.0505,0,0,0,0,1,,,,,,,,,,,,,,,,,,,,,,,,,,,,,,,,,,,,,,,,,,,,,,,,,,
,,60a69d04e5534b81417680ce,32,female,2024-04-24_12h32.34.864,stockport_simplified,2022.2.4,Win32,60.97560976,661e456ee6de07e70aa9ef7b,6628df85bc5a421020bcb14b,,,,,,,,,,,,,,,,,,,,,,,,,,,,,,,,,,,,,,,,,,,,,,,,,,,,,,,,0,59,59,55,1,N,M,D,o2_image,stimuli/out2.png,stimuli/out1.png,stimuli/correct_out2.png,,,,,,,,,,,,,,,,,,,,,,,,,,,,,,,,,,,,,,
,,60a69d04e5534b81417680ce,32,female,2024-04-24_12h32.34.864,stockport_simplified,2022.2.4,Win32,60.97560976,661e456ee6de07e70aa9ef7b,6628df85bc5a421020bcb14b,,,,,,,,,,,,,,,,,,,,,,,,,,,,,,,,,,728.0525,733.1403,"[7,6,3,4,1,8,2,5]","[[-0.3,0.2],[0.3,0.2]]","[[-0.125,-0.2],[0.125,-0.2]]",0.09375,-0.197916667,1,0,0,4.5706,o2_image,733.1574,0,733.6512,733.6512,735.651,0,0,0,0,1,,,,,,,,,,,,,,,,,,,,,,,,,,,,,,,,,,,,,,,,,,,,,,,,,,
,,60a69d04e5534b81417680ce,32,female,2024-04-24_12h32.34.864,stockport_simplified,2022.2.4,Win32,60.97560976,661e456ee6de07e70aa9ef7b,6628df85bc5a421020bcb14b,,,,,,,,,,,,,,,,,,,,,,,,,,,,,,,,,,,,,,,,,,,,,,,,,,,,,,,,1,0,60,38,1,A,Y,N,o1_image,stimuli/out1.png,stimuli/correct_out1.png,stimuli/out2.png,,,,,,,,,,,,,,,,,,,,,,,,,,,,,,,,,,,,,,
,,60a69d04e5534b81417680ce,32,female,2024-04-24_12h32.34.864,stockport_simplified,2022.2.4,Win32,60.97560976,661e456ee6de07e70aa9ef7b,6628df85bc5a421020bcb14b,,,,,,,,,,,,,,,,,,,,,,,,,,,,,,,,,,735.6528,739.3389,"[7,6,3,4,1,8,2,5]","[[-0.3,0.2],[0.3,0.2]]","[[0.125,-0.2],[-0.125,-0.2]]",0.10546875,-0.201822917,1,0,0,3.1707,o1_image,739.3404,0,739.8326,739.8328,741.8224,0,0,0,0,1,,,,,,,,,,,,,,,,,,,,,,,,,,,,,,,,,,,,,,,,,,,,,,,,,,
,,60a69d04e5534b81417680ce,32,female,2024-04-24_12h32.34.864,stockport_simplified,2022.2.4,Win32,60.97560976,661e456ee6de07e70aa9ef7b,6628df85bc5a421020bcb14b,,,,,,,,,,,,,,,,,,,,,,,,,,,,,,,,,,,,,,,,,,,,,,,,,,,,,,,,1,1,61,25,1,N,M,D,o2_image,stimuli/out2.png,stimuli/out1.png,stimuli/correct_out2.png,,,,,,,,,,,,,,,,,,,,,,,,,,,,,,,,,,,,,,
,,60a69d04e5534b81417680ce,32,female,2024-04-24_12h32.34.864,stockport_simplified,2022.2.4,Win32,60.97560976,661e456ee6de07e70aa9ef7b,6628df85bc5a421020bcb14b,,,,,,,,,,,,,,,,,,,,,,,,,,,,,,,,,,741.8237,744.5069,"[7,6,3,4,1,8,2,5]","[[0.3,0.2],[-0.3,0.2]]","[[0.125,-0.2],[-0.125,-0.2]]",-0.079427083,-0.194010417,1,0,0,2.1673,o2_image,744.5089,0,745.0038,745.0038,746.9998,0,0,0,0,1,,,,,,,,,,,,,,,,,,,,,,,,,,,,,,,,,,,,,,,,,,,,,,,,,,
,,60a69d04e5534b81417680ce,32,female,2024-04-24_12h32.34.864,stockport_simplified,2022.2.4,Win32,60.97560976,661e456ee6de07e70aa9ef7b,6628df85bc5a421020bcb14b,,,,,,,,,,,,,,,,,,,,,,,,,,,,,,,,,,,,,,,,,,,,,,,,,,,,,,,,1,2,62,3,1,A,X,N,o1_image,stimuli/out1.png,stimuli/correct_out1.png,stimuli/out2.png,,,,,,,,,,,,,,,,,,,,,,,,,,,,,,,,,,,,,,
,,60a69d04e5534b81417680ce,32,female,2024-04-24_12h32.34.864,stockport_simplified,2022.2.4,Win32,60.97560976,661e456ee6de07e70aa9ef7b,6628df85bc5a421020bcb14b,,,,,,,,,,,,,,,,,,,,,,,,,,,,,,,,,,747.001,749.8834,"[7,6,3,4,1,8,2,5]","[[0.3,0.2],[-0.3,0.2]]","[[-0.125,-0.2],[0.125,-0.2]]",0.162760417,-0.19921875,1,0,0,2.3658,o2_image,749.9168,1,750.4154,750.4155,752.4039,0,0,0,0,1,,,,,,,,,,,,,,,,,,,,,,,,,,,,,,,,,,,,,,,,,,,,,,,,,,
,,60a69d04e5534b81417680ce,32,female,2024-04-24_12h32.34.864,stockport_simplified,2022.2.4,Win32,60.97560976,661e456ee6de07e70aa9ef7b,6628df85bc5a421020bcb14b,,,,,,,,,,,,,,,,,,,,,,,,,,,,,,,,,,,,,,,,,,,,,,,,,,,,,,,,1,3,63,14,1,B,X,N,o2_image,stimuli/out2.png,stimuli/out1.png,stimuli/correct_out2.png,,,,,,,,,,,,,,,,,,,,,,,,,,,,,,,,,,,,,,
,,60a69d04e5534b81417680ce,32,female,2024-04-24_12h32.34.864,stockport_simplified,2022.2.4,Win32,60.97560976,661e456ee6de07e70aa9ef7b,6628df85bc5a421020bcb14b,,,,,,,,,,,,,,,,,,,,,,,,,,,,,,,,,,752.4057,755.3152,"[7,6,3,4,1,8,2,5]","[[-0.3,0.2],[0.3,0.2]]","[[-0.125,-0.2],[0.125,-0.2]]",-0.096354167,-0.169270833,1,0,0,2.3969,o1_image,755.3168,0,755.8042,755.8042,757.7992,0,0,0,0,1,,,,,,,,,,,,,,,,,,,,,,,,,,,,,,,,,,,,,,,,,,,,,,,,,,
,,60a69d04e5534b81417680ce,32,female,2024-04-24_12h32.34.864,stockport_simplified,2022.2.4,Win32,60.97560976,661e456ee6de07e70aa9ef7b,6628df85bc5a421020bcb14b,,,,,,,,,,,,,,,,,,,,,,,,,,,,,,,,,,,,,,,,,,,,,,,,,,,,,,,,1,4,64,59,1,N,M,D,o2_image,stimuli/out2.png,stimuli/out1.png,stimuli/correct_out2.png,,,,,,,,,,,,,,,,,,,,,,,,,,,,,,,,,,,,,,
,,60a69d04e5534b81417680ce,32,female,2024-04-24_12h32.34.864,stockport_simplified,2022.2.4,Win32,60.97560976,661e456ee6de07e70aa9ef7b,6628df85bc5a421020bcb14b,,,,,,,,,,,,,,,,,,,,,,,,,,,,,,,,,,757.8011,760.3319,"[7,6,3,4,1,8,2,5]","[[0.3,0.2],[-0.3,0.2]]","[[-0.125,-0.2],[0.125,-0.2]]",-0.09375,-0.166666667,1,0,0,2.015,o1_image,760.3335,1,760.8378,760.8379,762.8367,0,0,0,0,1,,,,,,,,,,,,,,,,,,,,,,,,,,,,,,,,,,,,,,,,,,,,,,,,,,
,,60a69d04e5534b81417680ce,32,female,2024-04-24_12h32.34.864,stockport_simplified,2022.2.4,Win32,60.97560976,661e456ee6de07e70aa9ef7b,6628df85bc5a421020bcb14b,,,,,,,,,,,,,,,,,,,,,,,,,,,,,,,,,,,,,,,,,,,,,,,,,,,,,,,,1,5,65,20,1,N,M,C,o1_image,stimuli/out1.png,stimuli/correct_out1.png,stimuli/out2.png,,,,,,,,,,,,,,,,,,,,,,,,,,,,,,,,,,,,,,
,,60a69d04e5534b81417680ce,32,female,2024-04-24_12h32.34.864,stockport_simplified,2022.2.4,Win32,60.97560976,661e456ee6de07e70aa9ef7b,6628df85bc5a421020bcb14b,,,,,,,,,,,,,,,,,,,,,,,,,,,,,,,,,,762.8382,765.5336,"[7,6,3,4,1,8,2,5]","[[-0.3,0.2],[0.3,0.2]]","[[0.125,-0.2],[-0.125,-0.2]]",-0.09375,-0.166666667,1,0,0,2.1782,o2_image,765.5354,0,766.0314,766.0315,768.0211,0,0,0,0,1,,,,,,,,,,,,,,,,,,,,,,,,,,,,,,,,,,,,,,,,,,,,,,,,,,
,,60a69d04e5534b81417680ce,32,female,2024-04-24_12h32.34.864,stockport_simplified,2022.2.4,Win32,60.97560976,661e456ee6de07e70aa9ef7b,6628df85bc5a421020bcb14b,,,,,,,,,,,,,,,,,,,,,,,,,,,,,,,,,,,,,,,,,,,,,,,,,,,,,,,,1,6,66,2,1,A,X,N,o1_image,stimuli/out1.png,stimuli/correct_out1.png,stimuli/out2.png,,,,,,,,,,,,,,,,,,,,,,,,,,,,,,,,,,,,,,
,,60a69d04e5534b81417680ce,32,female,2024-04-24_12h32.34.864,stockport_simplified,2022.2.4,Win32,60.97560976,661e456ee6de07e70aa9ef7b,6628df85bc5a421020bcb14b,,,,,,,,,,,,,,,,,,,,,,,,,,,,,,,,,,768.0226,771.4546,"[7,6,3,4,1,8,2,5]","[[-0.3,0.2],[0.3,0.2]]","[[-0.125,-0.2],[0.125,-0.2]]",0.09375,-0.188802083,1,0,0,2.9176,o2_image,771.4554,1,771.948,771.948,773.9481,0,0,0,0,1,,,,,,,,,,,,,,,,,,,,,,,,,,,,,,,,,,,,,,,,,,,,,,,,,,
,,60a69d04e5534b81417680ce,32,female,2024-04-24_12h32.34.864,stockport_simplified,2022.2.4,Win32,60.97560976,661e456ee6de07e70aa9ef7b,6628df85bc5a421020bcb14b,,,,,,,,,,,,,,,,,,,,,,,,,,,,,,,,,,,,,,,,,,,,,,,,,,,,,,,,1,7,67,16,1,B,Y,N,o2_image,stimuli/out2.png,stimuli/out1.png,stimuli/correct_out2.png,,,,,,,,,,,,,,,,,,,,,,,,,,,,,,,,,,,,,,
,,60a69d04e5534b81417680ce,32,female,2024-04-24_12h32.34.864,stockport_simplified,2022.2.4,Win32,60.97560976,661e456ee6de07e70aa9ef7b,6628df85bc5a421020bcb14b,,,,,,,,,,,,,,,,,,,,,,,,,,,,,,,,,,773.9496,777.3475,"[7,6,3,4,1,8,2,5]","[[0.3,0.2],[-0.3,0.2]]","[[-0.125,-0.2],[0.125,-0.2]]",0.09375,-0.188802083,1,0,0,2.8809,o2_image,777.3488,1,777.8482,777.8485,779.8538,0,0,0,0,1,,,,,,,,,,,,,,,,,,,,,,,,,,,,,,,,,,,,,,,,,,,,,,,,,,
,,60a69d04e5534b81417680ce,32,female,2024-04-24_12h32.34.864,stockport_simplified,2022.2.4,Win32,60.97560976,661e456ee6de07e70aa9ef7b,6628df85bc5a421020bcb14b,,,,,,,,,,,,,,,,,,,,,,,,,,,,,,,,,,,,,,,,,,,,,,,,,,,,,,,,1,8,68,11,1,B,X,N,o2_image,stimuli/out2.png,stimuli/out1.png,stimuli/correct_out2.png,,,,,,,,,,,,,,,,,,,,,,,,,,,,,,,,,,,,,,
,,60a69d04e5534b81417680ce,32,female,2024-04-24_12h32.34.864,stockport_simplified,2022.2.4,Win32,60.97560976,661e456ee6de07e70aa9ef7b,6628df85bc5a421020bcb14b,,,,,,,,,,,,,,,,,,,,,,,,,,,,,,,,,,779.8551,783.6972,"[7,6,3,4,1,8,2,5]","[[0.3,0.2],[-0.3,0.2]]","[[-0.125,-0.2],[0.125,-0.2]]",-0.096354167,-0.1875,1,0,0,3.3276,o1_image,783.6987,1,784.1985,784.1986,786.1979,0,0,0,0,1,,,,,,,,,,,,,,,,,,,,,,,,,,,,,,,,,,,,,,,,,,,,,,,,,,
,,60a69d04e5534b81417680ce,32,female,2024-04-24_12h32.34.864,stockport_simplified,2022.2.4,Win32,60.97560976,661e456ee6de07e70aa9ef7b,6628df85bc5a421020bcb14b,,,,,,,,,,,,,,,,,,,,,,,,,,,,,,,,,,,,,,,,,,,,,,,,,,,,,,,,1,9,69,37,1,A,Y,N,o1_image,stimuli/out1.png,stimuli/correct_out1.png,stimuli/out2.png,,,,,,,,,,,,,,,,,,,,,,,,,,,,,,,,,,,,,,
,,60a69d04e5534b81417680ce,32,female,2024-04-24_12h32.34.864,stockport_simplified,2022.2.4,Win32,60.97560976,661e456ee6de07e70aa9ef7b,6628df85bc5a421020bcb14b,,,,,,,,,,,,,,,,,,,,,,,,,,,,,,,,,,786.1985,789.8802,"[7,6,3,4,1,8,2,5]","[[-0.3,0.2],[0.3,0.2]]","[[-0.125,-0.2],[0.125,-0.2]]",-0.096354167,-0.1875,1,0,0,3.1633,o1_image,789.8914,0,790.3817,790.3819,792.3859,0,0,0,0,1,,,,,,,,,,,,,,,,,,,,,,,,,,,,,,,,,,,,,,,,,,,,,,,,,,
,,60a69d04e5534b81417680ce,32,female,2024-04-24_12h32.34.864,stockport_simplified,2022.2.4,Win32,60.97560976,661e456ee6de07e70aa9ef7b,6628df85bc5a421020bcb14b,,,,,,,,,,,,,,,,,,,,,,,,,,,,,,,,,,,,,,,,,,,,,,,,,,,,,,,,1,10,70,55,1,N,M,D,o2_image,stimuli/out2.png,stimuli/out1.png,stimuli/correct_out2.png,,,,,,,,,,,,,,,,,,,,,,,,,,,,,,,,,,,,,,
,,60a69d04e5534b81417680ce,32,female,2024-04-24_12h32.34.864,stockport_simplified,2022.2.4,Win32,60.97560976,661e456ee6de07e70aa9ef7b,6628df85bc5a421020bcb14b,,,,,,,,,,,,,,,,,,,,,,,,,,,,,,,,,,792.3876,795.4631,"[7,6,3,4,1,8,2,5]","[[-0.3,0.2],[0.3,0.2]]","[[-0.125,-0.2],[0.125,-0.2]]",-0.096354167,-0.1875,1,0,0,2.5608,o1_image,795.4649,1,795.964,795.964,797.963,0,0,0,0,1,,,,,,,,,,,,,,,,,,,,,,,,,,,,,,,,,,,,,,,,,,,,,,,,,,
,,60a69d04e5534b81417680ce,32,female,2024-04-24_12h32.34.864,stockport_simplified,2022.2.4,Win32,60.97560976,661e456ee6de07e70aa9ef7b,6628df85bc5a421020bcb14b,,,,,,,,,,,,,,,,,,,,,,,,,,,,,,,,,,,,,,,,,,,,,,,,,,,,,,,,1,11,71,9,1,A,Y,N,o1_image,stimuli/out1.png,stimuli/correct_out1.png,stimuli/out2.png,,,,,,,,,,,,,,,,,,,,,,,,,,,,,,,,,,,,,,
,,60a69d04e5534b81417680ce,32,female,2024-04-24_12h32.34.864,stockport_simplified,2022.2.4,Win32,60.97560976,661e456ee6de07e70aa9ef7b,6628df85bc5a421020bcb14b,,,,,,,,,,,,,,,,,,,,,,,,,,,,,,,,,,797.9641,803.0493,"[7,6,3,4,1,8,2,5]","[[0.3,0.2],[-0.3,0.2]]","[[0.125,-0.2],[-0.125,-0.2]]",-0.096354167,-0.1875,1,0,0,4.5677,o2_image,803.0828,1,803.586,803.5863,805.5804,0,0,0,0,1,,,,,,,,,,,,,,,,,,,,,,,,,,,,,,,,,,,,,,,,,,,,,,,,,,
,,60a69d04e5534b81417680ce,32,female,2024-04-24_12h32.34.864,stockport_simplified,2022.2.4,Win32,60.97560976,661e456ee6de07e70aa9ef7b,6628df85bc5a421020bcb14b,,,,,,,,,,,,,,,,,,,,,,,,,,,,,,,,,,,,,,,,,,,,,,,,,,,,,,,,1,12,72,46,1,B,Y,N,o2_image,stimuli/out2.png,stimuli/out1.png,stimuli/correct_out2.png,,,,,,,,,,,,,,,,,,,,,,,,,,,,,,,,,,,,,,
,,60a69d04e5534b81417680ce,32,female,2024-04-24_12h32.34.864,stockport_simplified,2022.2.4,Win32,60.97560976,661e456ee6de07e70aa9ef7b,6628df85bc5a421020bcb14b,,,,,,,,,,,,,,,,,,,,,,,,,,,,,,,,,,805.5819,809.04,"[7,6,3,4,1,8,2,5]","[[0.3,0.2],[-0.3,0.2]]","[[0.125,-0.2],[-0.125,-0.2]]",-0.096354167,-0.1875,1,0,0,2.9439,o2_image,809.0564,1,809.5472,809.5474,811.549,0,0,0,0,1,,,,,,,,,,,,,,,,,,,,,,,,,,,,,,,,,,,,,,,,,,,,,,,,,,
,,60a69d04e5534b81417680ce,32,female,2024-04-24_12h32.34.864,stockport_simplified,2022.2.4,Win32,60.97560976,661e456ee6de07e70aa9ef7b,6628df85bc5a421020bcb14b,,,,,,,,,,,,,,,,,,,,,,,,,,,,,,,,,,,,,,,,,,,,,,,,,,,,,,,,1,13,73,19,1,B,Y,N,o2_image,stimuli/out2.png,stimuli/out1.png,stimuli/correct_out2.png,,,,,,,,,,,,,,,,,,,,,,,,,,,,,,,,,,,,,,
,,60a69d04e5534b81417680ce,32,female,2024-04-24_12h32.34.864,stockport_simplified,2022.2.4,Win32,60.97560976,661e456ee6de07e70aa9ef7b,6628df85bc5a421020bcb14b,,,,,,,,,,,,,,,,,,,,,,,,,,,,,,,,,,811.5507,814.6868,"[7,6,3,4,1,8,2,5]","[[-0.3,0.2],[0.3,0.2]]","[[0.125,-0.2],[-0.125,-0.2]]",0.111979167,-0.1875,1,0,0,2.6175,o1_image,814.7197,0,815.213,815.213,817.2132,0,0,0,0,1,,,,,,,,,,,,,,,,,,,,,,,,,,,,,,,,,,,,,,,,,,,,,,,,,,
,,60a69d04e5534b81417680ce,32,female,2024-04-24_12h32.34.864,stockport_simplified,2022.2.4,Win32,60.97560976,661e456ee6de07e70aa9ef7b,6628df85bc5a421020bcb14b,,,,,,,,,,,,,,,,,,,,,,,,,,,,,,,,,,,,,,,,,,,,,,,,,,,,,,,,1,14,74,26,1,N,M,D,o2_image,stimuli/out2.png,stimuli/out1.png,stimuli/correct_out2.png,,,,,,,,,,,,,,,,,,,,,,,,,,,,,,,,,,,,,,
,,60a69d04e5534b81417680ce,32,female,2024-04-24_12h32.34.864,stockport_simplified,2022.2.4,Win32,60.97560976,661e456ee6de07e70aa9ef7b,6628df85bc5a421020bcb14b,,,,,,,,,,,,,,,,,,,,,,,,,,,,,,,,,,817.2143,820.3676,"[7,6,3,4,1,8,2,5]","[[-0.3,0.2],[0.3,0.2]]","[[-0.125,-0.2],[0.125,-0.2]]",-0.096354167,-0.21484375,1,0,0,2.636,o1_image,820.3803,1,820.8843,820.8844,822.885,0,0,0,0,1,,,,,,,,,,,,,,,,,,,,,,,,,,,,,,,,,,,,,,,,,,,,,,,,,,
,,60a69d04e5534b81417680ce,32,female,2024-04-24_12h32.34.864,stockport_simplified,2022.2.4,Win32,60.97560976,661e456ee6de07e70aa9ef7b,6628df85bc5a421020bcb14b,,,,,,,,,,,,,,,,,,,,,,,,,,,,,,,,,,,,,,,,,,,,,,,,,,,,,,,,1,15,75,5,1,A,Y,N,o1_image,stimuli/out1.png,stimuli/correct_out1.png,stimuli/out2.png,,,,,,,,,,,,,,,,,,,,,,,,,,,,,,,,,,,,,,
,,60a69d04e5534b81417680ce,32,female,2024-04-24_12h32.34.864,stockport_simplified,2022.2.4,Win32,60.97560976,661e456ee6de07e70aa9ef7b,6628df85bc5a421020bcb14b,,,,,,,,,,,,,,,,,,,,,,,,,,,,,,,,,,822.8865,825.295,"[7,6,3,4,1,8,2,5]","[[-0.3,0.2],[0.3,0.2]]","[[0.125,-0.2],[-0.125,-0.2]]",0.13671875,-0.216145833,1,0,0,1.8949,o1_image,825.2981,0,825.7959,825.7961,827.795,0,0,0,0,1,,,,,,,,,,,,,,,,,,,,,,,,,,,,,,,,,,,,,,,,,,,,,,,,,,
,,60a69d04e5534b81417680ce,32,female,2024-04-24_12h32.34.864,stockport_simplified,2022.2.4,Win32,60.97560976,661e456ee6de07e70aa9ef7b,6628df85bc5a421020bcb14b,,,,,,,,,,,,,,,,,,,,,,,,,,,,,,,,,,,,,,,,,,,,,,,,,,,,,,,,1,16,76,27,1,N,M,D,o2_image,stimuli/out2.png,stimuli/out1.png,stimuli/correct_out2.png,,,,,,,,,,,,,,,,,,,,,,,,,,,,,,,,,,,,,,
,,60a69d04e5534b81417680ce,32,female,2024-04-24_12h32.34.864,stockport_simplified,2022.2.4,Win32,60.97560976,661e456ee6de07e70aa9ef7b,6628df85bc5a421020bcb14b,,,,,,,,,,,,,,,,,,,,,,,,,,,,,,,,,,827.7968,831.3783,"[7,6,3,4,1,8,2,5]","[[-0.3,0.2],[0.3,0.2]]","[[-0.125,-0.2],[0.125,-0.2]]",0.13671875,-0.217447917,1,0,0,3.064,o2_image,831.3895,1,831.8783,831.8784,833.8793,0,0,0,0,1,,,,,,,,,,,,,,,,,,,,,,,,,,,,,,,,,,,,,,,,,,,,,,,,,,
,,60a69d04e5534b81417680ce,32,female,2024-04-24_12h32.34.864,stockport_simplified,2022.2.4,Win32,60.97560976,661e456ee6de07e70aa9ef7b,6628df85bc5a421020bcb14b,,,,,,,,,,,,,,,,,,,,,,,,,,,,,,,,,,,,,,,,,,,,,,,,,,,,,,,,1,17,77,48,1,B,Y,N,o2_image,stimuli/out2.png,stimuli/out1.png,stimuli/correct_out2.png,,,,,,,,,,,,,,,,,,,,,,,,,,,,,,,,,,,,,,
,,60a69d04e5534b81417680ce,32,female,2024-04-24_12h32.34.864,stockport_simplified,2022.2.4,Win32,60.97560976,661e456ee6de07e70aa9ef7b,6628df85bc5a421020bcb14b,,,,,,,,,,,,,,,,,,,,,,,,,,,,,,,,,,833.8812,837.3458,"[7,6,3,4,1,8,2,5]","[[-0.3,0.2],[0.3,0.2]]","[[0.125,-0.2],[-0.125,-0.2]]",0.13671875,-0.217447917,1,0,0,2.9493,o1_image,837.3789,1,837.8784,837.8784,839.8672,0,0,0,0,1,,,,,,,,,,,,,,,,,,,,,,,,,,,,,,,,,,,,,,,,,,,,,,,,,,
,,60a69d04e5534b81417680ce,32,female,2024-04-24_12h32.34.864,stockport_simplified,2022.2.4,Win32,60.97560976,661e456ee6de07e70aa9ef7b,6628df85bc5a421020bcb14b,,,,,,,,,,,,,,,,,,,,,,,,,,,,,,,,,,,,,,,,,,,,,,,,,,,,,,,,1,18,78,33,1,A,X,N,o1_image,stimuli/out1.png,stimuli/correct_out1.png,stimuli/out2.png,,,,,,,,,,,,,,,,,,,,,,,,,,,,,,,,,,,,,,
,,60a69d04e5534b81417680ce,32,female,2024-04-24_12h32.34.864,stockport_simplified,2022.2.4,Win32,60.97560976,661e456ee6de07e70aa9ef7b,6628df85bc5a421020bcb14b,,,,,,,,,,,,,,,,,,,,,,,,,,,,,,,,,,839.8684,845.5181,"[7,6,3,4,1,8,2,5]","[[-0.3,0.2],[0.3,0.2]]","[[-0.125,-0.2],[0.125,-0.2]]",0.13671875,-0.217447917,1,0,0,5.1352,o2_image,845.5449,1,846.0443,846.0444,848.0322,0,0,0,0,1,,,,,,,,,,,,,,,,,,,,,,,,,,,,,,,,,,,,,,,,,,,,,,,,,,
,,60a69d04e5534b81417680ce,32,female,2024-04-24_12h32.34.864,stockport_simplified,2022.2.4,Win32,60.97560976,661e456ee6de07e70aa9ef7b,6628df85bc5a421020bcb14b,,,,,,,,,,,,,,,,,,,,,,,,,,,,,,,,,,,,,,,,,,,,,,,,,,,,,,,,1,19,79,47,1,B,Y,N,o2_image,stimuli/out2.png,stimuli/out1.png,stimuli/correct_out2.png,,,,,,,,,,,,,,,,,,,,,,,,,,,,,,,,,,,,,,
,,60a69d04e5534b81417680ce,32,female,2024-04-24_12h32.34.864,stockport_simplified,2022.2.4,Win32,60.97560976,661e456ee6de07e70aa9ef7b,6628df85bc5a421020bcb14b,,,,,,,,,,,,,,,,,,,,,,,,,,,,,,,,,,848.0332,852.0866,"[7,6,3,4,1,8,2,5]","[[-0.3,0.2],[0.3,0.2]]","[[0.125,-0.2],[-0.125,-0.2]]",0.127604167,-0.208333333,1,0,0,3.5369,o1_image,852.1186,1,852.6108,852.611,854.6114,0,0,0,0,1,,,,,,,,,,,,,,,,,,,,,,,,,,,,,,,,,,,,,,,,,,,,,,,,,,
,,60a69d04e5534b81417680ce,32,female,2024-04-24_12h32.34.864,stockport_simplified,2022.2.4,Win32,60.97560976,661e456ee6de07e70aa9ef7b,6628df85bc5a421020bcb14b,,,,,,,,,,,,,,,,,,,,,,,,,,,,,,,,,,,,,,,,,,,,,,,,,,,,,,,,1,20,80,23,1,N,M,C,o1_image,stimuli/out1.png,stimuli/correct_out1.png,stimuli/out2.png,,,,,,,,,,,,,,,,,,,,,,,,,,,,,,,,,,,,,,
,,60a69d04e5534b81417680ce,32,female,2024-04-24_12h32.34.864,stockport_simplified,2022.2.4,Win32,60.97560976,661e456ee6de07e70aa9ef7b,6628df85bc5a421020bcb14b,,,,,,,,,,,,,,,,,,,,,,,,,,,,,,,,,,854.6132,858.5447,"[7,6,3,4,1,8,2,5]","[[-0.3,0.2],[0.3,0.2]]","[[-0.125,-0.2],[0.125,-0.2]]",0.127604167,-0.208333333,1,0,0,3.4152,o2_image,858.5706,0,859.0604,859.0606,861.0494,0,0,0,0,1,,,,,,,,,,,,,,,,,,,,,,,,,,,,,,,,,,,,,,,,,,,,,,,,,,
,,60a69d04e5534b81417680ce,32,female,2024-04-24_12h32.34.864,stockport_simplified,2022.2.4,Win32,60.97560976,661e456ee6de07e70aa9ef7b,6628df85bc5a421020bcb14b,,,,,,,,,,,,,,,,,,,,,,,,,,,,,,,,,,,,,,,,,,,,,,,,,,,,,,,,1,21,81,31,1,A,X,N,o1_image,stimuli/out1.png,stimuli/correct_out1.png,stimuli/out2.png,,,,,,,,,,,,,,,,,,,,,,,,,,,,,,,,,,,,,,
,,60a69d04e5534b81417680ce,32,female,2024-04-24_12h32.34.864,stockport_simplified,2022.2.4,Win32,60.97560976,661e456ee6de07e70aa9ef7b,6628df85bc5a421020bcb14b,,,,,,,,,,,,,,,,,,,,,,,,,,,,,,,,,,861.0519,865.044,"[7,6,3,4,1,8,2,5]","[[0.3,0.2],[-0.3,0.2]]","[[0.125,-0.2],[-0.125,-0.2]]",0.127604167,-0.208333333,1,0,0,3.4765,o1_image,865.0562,1,865.5647,865.5648,867.5663,0,0,0,0,1,,,,,,,,,,,,,,,,,,,,,,,,,,,,,,,,,,,,,,,,,,,,,,,,,,
,,60a69d04e5534b81417680ce,32,female,2024-04-24_12h32.34.864,stockport_simplified,2022.2.4,Win32,60.97560976,661e456ee6de07e70aa9ef7b,6628df85bc5a421020bcb14b,,,,,,,,,,,,,,,,,,,,,,,,,,,,,,,,,,,,,,,,,,,,,,,,,,,,,,,,1,22,82,54,1,N,M,C,o1_image,stimuli/out1.png,stimuli/correct_out1.png,stimuli/out2.png,,,,,,,,,,,,,,,,,,,,,,,,,,,,,,,,,,,,,,
,,60a69d04e5534b81417680ce,32,female,2024-04-24_12h32.34.864,stockport_simplified,2022.2.4,Win32,60.97560976,661e456ee6de07e70aa9ef7b,6628df85bc5a421020bcb14b,,,,,,,,,,,,,,,,,,,,,,,,,,,,,,,,,,867.5678,870.5929,"[7,6,3,4,1,8,2,5]","[[-0.3,0.2],[0.3,0.2]]","[[0.125,-0.2],[-0.125,-0.2]]",-0.102864583,-0.20703125,1,0,0,2.511,o2_image,870.6042,0,871.0953,871.0954,873.0925,0,0,0,0,1,,,,,,,,,,,,,,,,,,,,,,,,,,,,,,,,,,,,,,,,,,,,,,,,,,
,,60a69d04e5534b81417680ce,32,female,2024-04-24_12h32.34.864,stockport_simplified,2022.2.4,Win32,60.97560976,661e456ee6de07e70aa9ef7b,6628df85bc5a421020bcb14b,,,,,,,,,,,,,,,,,,,,,,,,,,,,,,,,,,,,,,,,,,,,,,,,,,,,,,,,1,23,83,7,1,A,Y,N,o1_image,stimuli/out1.png,stimuli/correct_out1.png,stimuli/out2.png,,,,,,,,,,,,,,,,,,,,,,,,,,,,,,,,,,,,,,
,,60a69d04e5534b81417680ce,32,female,2024-04-24_12h32.34.864,stockport_simplified,2022.2.4,Win32,60.97560976,661e456ee6de07e70aa9ef7b,6628df85bc5a421020bcb14b,,,,,,,,,,,,,,,,,,,,,,,,,,,,,,,,,,873.0942,876.8096,"[7,6,3,4,1,8,2,5]","[[-0.3,0.2],[0.3,0.2]]","[[0.125,-0.2],[-0.125,-0.2]]",-0.102864583,-0.20703125,1,0,0,3.1998,o2_image,876.8212,0,877.3092,877.3093,879.3102,0,0,0,0,1,,,,,,,,,,,,,,,,,,,,,,,,,,,,,,,,,,,,,,,,,,,,,,,,,,
,,60a69d04e5534b81417680ce,32,female,2024-04-24_12h32.34.864,stockport_simplified,2022.2.4,Win32,60.97560976,661e456ee6de07e70aa9ef7b,6628df85bc5a421020bcb14b,,,,,,,,,,,,,,,,,,,,,,,,,,,,,,,,,,,,,,,,,,,,,,,,,,,,,,,,1,24,84,35,1,A,Y,N,o1_image,stimuli/out1.png,stimuli/correct_out1.png,stimuli/out2.png,,,,,,,,,,,,,,,,,,,,,,,,,,,,,,,,,,,,,,
,,60a69d04e5534b81417680ce,32,female,2024-04-24_12h32.34.864,stockport_simplified,2022.2.4,Win32,60.97560976,661e456ee6de07e70aa9ef7b,6628df85bc5a421020bcb14b,,,,,,,,,,,,,,,,,,,,,,,,,,,,,,,,,,879.3121,882.9005,"[7,6,3,4,1,8,2,5]","[[0.3,0.2],[-0.3,0.2]]","[[0.125,-0.2],[-0.125,-0.2]]",-0.102864583,-0.20703125,1,0,0,3.0732,o2_image,882.9322,0,883.4263,883.4264,885.4267,0,0,0,0,1,,,,,,,,,,,,,,,,,,,,,,,,,,,,,,,,,,,,,,,,,,,,,,,,,,
,,60a69d04e5534b81417680ce,32,female,2024-04-24_12h32.34.864,stockport_simplified,2022.2.4,Win32,60.97560976,661e456ee6de07e70aa9ef7b,6628df85bc5a421020bcb14b,,,,,,,,,,,,,,,,,,,,,,,,,,,,,,,,,,,,,,,,,,,,,,,,,,,,,,,,1,25,85,6,1,A,Y,N,o1_image,stimuli/out1.png,stimuli/correct_out1.png,stimuli/out2.png,,,,,,,,,,,,,,,,,,,,,,,,,,,,,,,,,,,,,,
,,60a69d04e5534b81417680ce,32,female,2024-04-24_12h32.34.864,stockport_simplified,2022.2.4,Win32,60.97560976,661e456ee6de07e70aa9ef7b,6628df85bc5a421020bcb14b,,,,,,,,,,,,,,,,,,,,,,,,,,,,,,,,,,885.4281,888.4158,"[7,6,3,4,1,8,2,5]","[[-0.3,0.2],[0.3,0.2]]","[[0.125,-0.2],[-0.125,-0.2]]",0.141927083,-0.17578125,1,0,0,2.4709,o1_image,888.4503,0,888.9419,888.942,890.9304,0,0,0,0,1,,,,,,,,,,,,,,,,,,,,,,,,,,,,,,,,,,,,,,,,,,,,,,,,,,
,,60a69d04e5534b81417680ce,32,female,2024-04-24_12h32.34.864,stockport_simplified,2022.2.4,Win32,60.97560976,661e456ee6de07e70aa9ef7b,6628df85bc5a421020bcb14b,,,,,,,,,,,,,,,,,,,,,,,,,,,,,,,,,,,,,,,,,,,,,,,,,,,,,,,,1,26,86,57,1,N,M,D,o2_image,stimuli/out2.png,stimuli/out1.png,stimuli/correct_out2.png,,,,,,,,,,,,,,,,,,,,,,,,,,,,,,,,,,,,,,
,,60a69d04e5534b81417680ce,32,female,2024-04-24_12h32.34.864,stockport_simplified,2022.2.4,Win32,60.97560976,661e456ee6de07e70aa9ef7b,6628df85bc5a421020bcb14b,,,,,,,,,,,,,,,,,,,,,,,,,,,,,,,,,,890.9315,895.9751,"[7,6,3,4,1,8,2,5]","[[-0.3,0.2],[0.3,0.2]]","[[-0.125,-0.2],[0.125,-0.2]]",0.141927083,-0.17578125,1,0,0,4.529,o2_image,895.9863,0,896.4761,896.4761,898.4767,0,0,0,0,1,,,,,,,,,,,,,,,,,,,,,,,,,,,,,,,,,,,,,,,,,,,,,,,,,,
,,60a69d04e5534b81417680ce,32,female,2024-04-24_12h32.34.864,stockport_simplified,2022.2.4,Win32,60.97560976,661e456ee6de07e70aa9ef7b,6628df85bc5a421020bcb14b,,,,,,,,,,,,,,,,,,,,,,,,,,,,,,,,,,,,,,,,,,,,,,,,,,,,,,,,1,27,87,36,1,A,Y,N,o1_image,stimuli/out1.png,stimuli/correct_out1.png,stimuli/out2.png,,,,,,,,,,,,,,,,,,,,,,,,,,,,,,,,,,,,,,
,,60a69d04e5534b81417680ce,32,female,2024-04-24_12h32.34.864,stockport_simplified,2022.2.4,Win32,60.97560976,661e456ee6de07e70aa9ef7b,6628df85bc5a421020bcb14b,,,,,,,,,,,,,,,,,,,,,,,,,,,,,,,,,,898.4774,901.425,"[7,6,3,4,1,8,2,5]","[[0.3,0.2],[-0.3,0.2]]","[[0.125,-0.2],[-0.125,-0.2]]",-0.098958333,-0.208333333,1,0,0,2.4304,o2_image,901.4273,1,901.9305,901.9306,903.9245,0,0,0,0,1,,,,,,,,,,,,,,,,,,,,,,,,,,,,,,,,,,,,,,,,,,,,,,,,,,
,,60a69d04e5534b81417680ce,32,female,2024-04-24_12h32.34.864,stockport_simplified,2022.2.4,Win32,60.97560976,661e456ee6de07e70aa9ef7b,6628df85bc5a421020bcb14b,,,,,,,,,,,,,,,,,,,,,,,,,,,,,,,,,,,,,,,,,,,,,,,,,,,,,,,,1,28,88,15,1,B,Y,N,o2_image,stimuli/out2.png,stimuli/out1.png,stimuli/correct_out2.png,,,,,,,,,,,,,,,,,,,,,,,,,,,,,,,,,,,,,,
,,60a69d04e5534b81417680ce,32,female,2024-04-24_12h32.34.864,stockport_simplified,2022.2.4,Win32,60.97560976,661e456ee6de07e70aa9ef7b,6628df85bc5a421020bcb14b,,,,,,,,,,,,,,,,,,,,,,,,,,,,,,,,,,903.9256,906.8323,"[7,6,3,4,1,8,2,5]","[[0.3,0.2],[-0.3,0.2]]","[[0.125,-0.2],[-0.125,-0.2]]",0.13671875,-0.17578125,1,0,0,2.3888,o1_image,906.865,1,907.363,907.3631,909.3588,0,0,0,0,1,,,,,,,,,,,,,,,,,,,,,,,,,,,,,,,,,,,,,,,,,,,,,,,,,,
,,60a69d04e5534b81417680ce,32,female,2024-04-24_12h32.34.864,stockport_simplified,2022.2.4,Win32,60.97560976,661e456ee6de07e70aa9ef7b,6628df85bc5a421020bcb14b,,,,,,,,,,,,,,,,,,,,,,,,,,,,,,,,,,,,,,,,,,,,,,,,,,,,,,,,1,29,89,53,1,N,M,C,o1_image,stimuli/out1.png,stimuli/correct_out1.png,stimuli/out2.png,,,,,,,,,,,,,,,,,,,,,,,,,,,,,,,,,,,,,,
,,60a69d04e5534b81417680ce,32,female,2024-04-24_12h32.34.864,stockport_simplified,2022.2.4,Win32,60.97560976,661e456ee6de07e70aa9ef7b,6628df85bc5a421020bcb14b,,,,,,,,,,,,,,,,,,,,,,,,,,,,,,,,,,909.3603,914.8616,"[7,6,3,4,1,8,2,5]","[[-0.3,0.2],[0.3,0.2]]","[[-0.125,-0.2],[0.125,-0.2]]",-0.08984375,-0.197916667,1,0,0,4.987,o1_image,914.8734,1,915.3621,915.3624,917.3632,0,0,0,0,1,,,,,,,,,,,,,,,,,,,,,,,,,,,,,,,,,,,,,,,,,,,,,,,,,,
,,60a69d04e5534b81417680ce,32,female,2024-04-24_12h32.34.864,stockport_simplified,2022.2.4,Win32,60.97560976,661e456ee6de07e70aa9ef7b,6628df85bc5a421020bcb14b,,,,,,,,,,,,,,,,,,,,,,,,,,,,,,,,,,,,,,,,,,,,,,,,,,,,,,,,1,30,90,21,1,N,M,C,o1_image,stimuli/out1.png,stimuli/correct_out1.png,stimuli/out2.png,,,,,,,,,,,,,,,,,,,,,,,,,,,,,,,,,,,,,,
,,60a69d04e5534b81417680ce,32,female,2024-04-24_12h32.34.864,stockport_simplified,2022.2.4,Win32,60.97560976,661e456ee6de07e70aa9ef7b,6628df85bc5a421020bcb14b,,,,,,,,,,,,,,,,,,,,,,,,,,,,,,,,,,917.3644,919.7636,"[7,6,3,4,1,8,2,5]","[[0.3,0.2],[-0.3,0.2]]","[[-0.125,-0.2],[0.125,-0.2]]",-0.08984375,-0.197916667,1,0,0,1.8844,o1_image,919.7655,1,920.263,920.2631,922.2626,0,0,0,0,1,,,,,,,,,,,,,,,,,,,,,,,,,,,,,,,,,,,,,,,,,,,,,,,,,,
,,60a69d04e5534b81417680ce,32,female,2024-04-24_12h32.34.864,stockport_simplified,2022.2.4,Win32,60.97560976,661e456ee6de07e70aa9ef7b,6628df85bc5a421020bcb14b,,,,,,,,,,,,,,,,,,,,,,,,,,,,,,,,,,,,,,,,,,,,,,,,,,,,,,,,1,31,91,51,1,N,M,C,o1_image,stimuli/out1.png,stimuli/correct_out1.png,stimuli/out2.png,,,,,,,,,,,,,,,,,,,,,,,,,,,,,,,,,,,,,,
,,60a69d04e5534b81417680ce,32,female,2024-04-24_12h32.34.864,stockport_simplified,2022.2.4,Win32,60.97560976,661e456ee6de07e70aa9ef7b,6628df85bc5a421020bcb14b,,,,,,,,,,,,,,,,,,,,,,,,,,,,,,,,,,922.2647,925.4644,"[7,6,3,4,1,8,2,5]","[[0.3,0.2],[-0.3,0.2]]","[[0.125,-0.2],[-0.125,-0.2]]",-0.08984375,-0.197916667,1,0,0,2.684,o2_image,925.4977,1,925.9907,925.9907,927.9789,0,0,0,0,1,,,,,,,,,,,,,,,,,,,,,,,,,,,,,,,,,,,,,,,,,,,,,,,,,,
,,60a69d04e5534b81417680ce,32,female,2024-04-24_12h32.34.864,stockport_simplified,2022.2.4,Win32,60.97560976,661e456ee6de07e70aa9ef7b,6628df85bc5a421020bcb14b,,,,,,,,,,,,,,,,,,,,,,,,,,,,,,,,,,,,,,,,,,,,,,,,,,,,,,,,1,32,92,49,1,B,Y,N,o2_image,stimuli/out2.png,stimuli/out1.png,stimuli/correct_out2.png,,,,,,,,,,,,,,,,,,,,,,,,,,,,,,,,,,,,,,
,,60a69d04e5534b81417680ce,32,female,2024-04-24_12h32.34.864,stockport_simplified,2022.2.4,Win32,60.97560976,661e456ee6de07e70aa9ef7b,6628df85bc5a421020bcb14b,,,,,,,,,,,,,,,,,,,,,,,,,,,,,,,,,,927.9809,930.8571,"[7,6,3,4,1,8,2,5]","[[0.3,0.2],[-0.3,0.2]]","[[0.125,-0.2],[-0.125,-0.2]]",-0.08984375,-0.197916667,1,0,0,2.3617,o2_image,930.8696,1,931.363,931.3631,933.3567,0,0,0,0,1,,,,,,,,,,,,,,,,,,,,,,,,,,,,,,,,,,,,,,,,,,,,,,,,,,
,,60a69d04e5534b81417680ce,32,female,2024-04-24_12h32.34.864,stockport_simplified,2022.2.4,Win32,60.97560976,661e456ee6de07e70aa9ef7b,6628df85bc5a421020bcb14b,,,,,,,,,,,,,,,,,,,,,,,,,,,,,,,,,,,,,,,,,,,,,,,,,,,,,,,,1,33,93,43,1,B,X,N,o2_image,stimuli/out2.png,stimuli/out1.png,stimuli/correct_out2.png,,,,,,,,,,,,,,,,,,,,,,,,,,,,,,,,,,,,,,
,,60a69d04e5534b81417680ce,32,female,2024-04-24_12h32.34.864,stockport_simplified,2022.2.4,Win32,60.97560976,661e456ee6de07e70aa9ef7b,6628df85bc5a421020bcb14b,,,,,,,,,,,,,,,,,,,,,,,,,,,,,,,,,,933.3577,935.7572,"[7,6,3,4,1,8,2,5]","[[0.3,0.2],[-0.3,0.2]]","[[0.125,-0.2],[-0.125,-0.2]]",-0.08984375,-0.197916667,1,0,0,1.8829,o2_image,935.759,0,936.2625,936.2626,938.2569,0,0,0,0,1,,,,,,,,,,,,,,,,,,,,,,,,,,,,,,,,,,,,,,,,,,,,,,,,,,
,,60a69d04e5534b81417680ce,32,female,2024-04-24_12h32.34.864,stockport_simplified,2022.2.4,Win32,60.97560976,661e456ee6de07e70aa9ef7b,6628df85bc5a421020bcb14b,,,,,,,,,,,,,,,,,,,,,,,,,,,,,,,,,,,,,,,,,,,,,,,,,,,,,,,,1,34,94,39,1,A,Y,N,o1_image,stimuli/out1.png,stimuli/correct_out1.png,stimuli/out2.png,,,,,,,,,,,,,,,,,,,,,,,,,,,,,,,,,,,,,,
,,60a69d04e5534b81417680ce,32,female,2024-04-24_12h32.34.864,stockport_simplified,2022.2.4,Win32,60.97560976,661e456ee6de07e70aa9ef7b,6628df85bc5a421020bcb14b,,,,,,,,,,,,,,,,,,,,,,,,,,,,,,,,,,938.2584,943.1296,"[7,6,3,4,1,8,2,5]","[[-0.3,0.2],[0.3,0.2]]","[[0.125,-0.2],[-0.125,-0.2]]",-0.08984375,-0.197916667,1,0,0,4.3553,o2_image,943.1578,0,943.6563,943.6564,945.657,0,0,0,0,1,,,,,,,,,,,,,,,,,,,,,,,,,,,,,,,,,,,,,,,,,,,,,,,,,,
,,60a69d04e5534b81417680ce,32,female,2024-04-24_12h32.34.864,stockport_simplified,2022.2.4,Win32,60.97560976,661e456ee6de07e70aa9ef7b,6628df85bc5a421020bcb14b,,,,,,,,,,,,,,,,,,,,,,,,,,,,,,,,,,,,,,,,,,,,,,,,,,,,,,,,1,35,95,4,1,A,X,N,o1_image,stimuli/out1.png,stimuli/correct_out1.png,stimuli/out2.png,,,,,,,,,,,,,,,,,,,,,,,,,,,,,,,,,,,,,,
,,60a69d04e5534b81417680ce,32,female,2024-04-24_12h32.34.864,stockport_simplified,2022.2.4,Win32,60.97560976,661e456ee6de07e70aa9ef7b,6628df85bc5a421020bcb14b,,,,,,,,,,,,,,,,,,,,,,,,,,,,,,,,,,945.6583,949.7224,"[7,6,3,4,1,8,2,5]","[[-0.3,0.2],[0.3,0.2]]","[[0.125,-0.2],[-0.125,-0.2]]",0.091145833,-0.16796875,1,0,0,3.5493,o1_image,949.7332,0,950.2229,950.223,952.2246,0,0,0,0,1,,,,,,,,,,,,,,,,,,,,,,,,,,,,,,,,,,,,,,,,,,,,,,,,,,
,,60a69d04e5534b81417680ce,32,female,2024-04-24_12h32.34.864,stockport_simplified,2022.2.4,Win32,60.97560976,661e456ee6de07e70aa9ef7b,6628df85bc5a421020bcb14b,,,,,,,,,,,,,,,,,,,,,,,,,,,,,,,,,,,,,,,,,,,,,,,,,,,,,,,,1,36,96,40,1,B,X,N,o2_image,stimuli/out2.png,stimuli/out1.png,stimuli/correct_out2.png,,,,,,,,,,,,,,,,,,,,,,,,,,,,,,,,,,,,,,
,,60a69d04e5534b81417680ce,32,female,2024-04-24_12h32.34.864,stockport_simplified,2022.2.4,Win32,60.97560976,661e456ee6de07e70aa9ef7b,6628df85bc5a421020bcb14b,,,,,,,,,,,,,,,,,,,,,,,,,,,,,,,,,,952.2255,954.7576,"[7,6,3,4,1,8,2,5]","[[-0.3,0.2],[0.3,0.2]]","[[0.125,-0.2],[-0.125,-0.2]]",0.091145833,-0.16796875,1,0,0,2.0166,o1_image,954.784,0,955.2725,955.2727,957.272,0,0,0,0,1,,,,,,,,,,,,,,,,,,,,,,,,,,,,,,,,,,,,,,,,,,,,,,,,,,
,,60a69d04e5534b81417680ce,32,female,2024-04-24_12h32.34.864,stockport_simplified,2022.2.4,Win32,60.97560976,661e456ee6de07e70aa9ef7b,6628df85bc5a421020bcb14b,,,,,,,,,,,,,,,,,,,,,,,,,,,,,,,,,,,,,,,,,,,,,,,,,,,,,,,,1,37,97,28,1,N,M,D,o2_image,stimuli/out2.png,stimuli/out1.png,stimuli/correct_out2.png,,,,,,,,,,,,,,,,,,,,,,,,,,,,,,,,,,,,,,
,,60a69d04e5534b81417680ce,32,female,2024-04-24_12h32.34.864,stockport_simplified,2022.2.4,Win32,60.97560976,661e456ee6de07e70aa9ef7b,6628df85bc5a421020bcb14b,,,,,,,,,,,,,,,,,,,,,,,,,,,,,,,,,,957.2739,960.3099,"[7,6,3,4,1,8,2,5]","[[-0.3,0.2],[0.3,0.2]]","[[0.125,-0.2],[-0.125,-0.2]]",-0.095052083,-0.227864583,1,0,0,2.5193,o2_image,960.3107,0,960.8064,960.8064,962.8067,0,0,0,0,1,,,,,,,,,,,,,,,,,,,,,,,,,,,,,,,,,,,,,,,,,,,,,,,,,,
,,60a69d04e5534b81417680ce,32,female,2024-04-24_12h32.34.864,stockport_simplified,2022.2.4,Win32,60.97560976,661e456ee6de07e70aa9ef7b,6628df85bc5a421020bcb14b,,,,,,,,,,,,,,,,,,,,,,,,,,,,,,,,,,,,,,,,,,,,,,,,,,,,,,,,1,38,98,0,1,A,X,N,o1_image,stimuli/out1.png,stimuli/correct_out1.png,stimuli/out2.png,,,,,,,,,,,,,,,,,,,,,,,,,,,,,,,,,,,,,,
,,60a69d04e5534b81417680ce,32,female,2024-04-24_12h32.34.864,stockport_simplified,2022.2.4,Win32,60.97560976,661e456ee6de07e70aa9ef7b,6628df85bc5a421020bcb14b,,,,,,,,,,,,,,,,,,,,,,,,,,,,,,,,,,962.8083,967.3895,"[7,6,3,4,1,8,2,5]","[[0.3,0.2],[-0.3,0.2]]","[[-0.125,-0.2],[0.125,-0.2]]",0.170572917,-0.16796875,1,0,0,4.0655,o2_image,967.4199,0,967.9223,967.9223,969.9219,0,0,0,0,1,,,,,,,,,,,,,,,,,,,,,,,,,,,,,,,,,,,,,,,,,,,,,,,,,,
,,60a69d04e5534b81417680ce,32,female,2024-04-24_12h32.34.864,stockport_simplified,2022.2.4,Win32,60.97560976,661e456ee6de07e70aa9ef7b,6628df85bc5a421020bcb14b,,,,,,,,,,,,,,,,,,,,,,,,,,,,,,,,,,,,,,,,,,,,,,,,,,,,,,,,1,39,99,8,1,A,Y,N,o1_image,stimuli/out1.png,stimuli/correct_out1.png,stimuli/out2.png,,,,,,,,,,,,,,,,,,,,,,,,,,,,,,,,,,,,,,
,,60a69d04e5534b81417680ce,32,female,2024-04-24_12h32.34.864,stockport_simplified,2022.2.4,Win32,60.97560976,661e456ee6de07e70aa9ef7b,6628df85bc5a421020bcb14b,,,,,,,,,,,,,,,,,,,,,,,,,,,,,,,,,,969.9236,975.3545,"[7,6,3,4,1,8,2,5]","[[-0.3,0.2],[0.3,0.2]]","[[-0.125,-0.2],[0.125,-0.2]]",-0.08203125,-0.223958333,1,0,0,4.9263,o1_image,975.3652,0,975.855,975.8552,977.8563,0,0,0,0,1,,,,,,,,,,,,,,,,,,,,,,,,,,,,,,,,,,,,,,,,,,,,,,,,,,
,,60a69d04e5534b81417680ce,32,female,2024-04-24_12h32.34.864,stockport_simplified,2022.2.4,Win32,60.97560976,661e456ee6de07e70aa9ef7b,6628df85bc5a421020bcb14b,,,,,,,,,,,,,,,,,,,,,,,,,,,,,,,,,,,,,,,,,,,,,,,,,,,,,,,,1,40,100,56,1,N,M,D,o2_image,stimuli/out2.png,stimuli/out1.png,stimuli/correct_out2.png,,,,,,,,,,,,,,,,,,,,,,,,,,,,,,,,,,,,,,
,,60a69d04e5534b81417680ce,32,female,2024-04-24_12h32.34.864,stockport_simplified,2022.2.4,Win32,60.97560976,661e456ee6de07e70aa9ef7b,6628df85bc5a421020bcb14b,,,,,,,,,,,,,,,,,,,,,,,,,,,,,,,,,,977.8578,980.328,"[7,6,3,4,1,8,2,5]","[[0.3,0.2],[-0.3,0.2]]","[[0.125,-0.2],[-0.125,-0.2]]",-0.0859375,-0.22265625,1,0,0,1.9534,o2_image,980.3293,0,980.8211,980.8211,982.8213,0,0,0,0,1,,,,,,,,,,,,,,,,,,,,,,,,,,,,,,,,,,,,,,,,,,,,,,,,,,
,,60a69d04e5534b81417680ce,32,female,2024-04-24_12h32.34.864,stockport_simplified,2022.2.4,Win32,60.97560976,661e456ee6de07e70aa9ef7b,6628df85bc5a421020bcb14b,,,,,,,,,,,,,,,,,,,,,,,,,,,,,,,,,,,,,,,,,,,,,,,,,,,,,,,,1,41,101,1,1,A,X,N,o1_image,stimuli/out1.png,stimuli/correct_out1.png,stimuli/out2.png,,,,,,,,,,,,,,,,,,,,,,,,,,,,,,,,,,,,,,
,,60a69d04e5534b81417680ce,32,female,2024-04-24_12h32.34.864,stockport_simplified,2022.2.4,Win32,60.97560976,661e456ee6de07e70aa9ef7b,6628df85bc5a421020bcb14b,,,,,,,,,,,,,,,,,,,,,,,,,,,,,,,,,,982.8231,984.5041,"[7,6,3,4,1,8,2,5]","[[-0.3,0.2],[0.3,0.2]]","[[0.125,-0.2],[-0.125,-0.2]]",0.138020833,-0.178385417,1,0,0,1.1646,o1_image,984.5067,1,985.0088,985.0088,987.0044,0,0,0,0,1,,,,,,,,,,,,,,,,,,,,,,,,,,,,,,,,,,,,,,,,,,,,,,,,,,
,,60a69d04e5534b81417680ce,32,female,2024-04-24_12h32.34.864,stockport_simplified,2022.2.4,Win32,60.97560976,661e456ee6de07e70aa9ef7b,6628df85bc5a421020bcb14b,,,,,,,,,,,,,,,,,,,,,,,,,,,,,,,,,,,,,,,,,,,,,,,,,,,,,,,,1,42,102,50,1,N,M,C,o1_image,stimuli/out1.png,stimuli/correct_out1.png,stimuli/out2.png,,,,,,,,,,,,,,,,,,,,,,,,,,,,,,,,,,,,,,
,,60a69d04e5534b81417680ce,32,female,2024-04-24_12h32.34.864,stockport_simplified,2022.2.4,Win32,60.97560976,661e456ee6de07e70aa9ef7b,6628df85bc5a421020bcb14b,,,,,,,,,,,,,,,,,,,,,,,,,,,,,,,,,,987.006,990.4756,"[7,6,3,4,1,8,2,5]","[[0.3,0.2],[-0.3,0.2]]","[[-0.125,-0.2],[0.125,-0.2]]",0.096354167,-0.205729167,1,0,0,2.9526,o2_image,990.4772,1,990.9806,990.9806,992.9758,0,0,0,0,1,,,,,,,,,,,,,,,,,,,,,,,,,,,,,,,,,,,,,,,,,,,,,,,,,,
,,60a69d04e5534b81417680ce,32,female,2024-04-24_12h32.34.864,stockport_simplified,2022.2.4,Win32,60.97560976,661e456ee6de07e70aa9ef7b,6628df85bc5a421020bcb14b,,,,,,,,,,,,,,,,,,,,,,,,,,,,,,,,,,,,,,,,,,,,,,,,,,,,,,,,1,43,103,42,1,B,X,N,o2_image,stimuli/out2.png,stimuli/out1.png,stimuli/correct_out2.png,,,,,,,,,,,,,,,,,,,,,,,,,,,,,,,,,,,,,,
,,60a69d04e5534b81417680ce,32,female,2024-04-24_12h32.34.864,stockport_simplified,2022.2.4,Win32,60.97560976,661e456ee6de07e70aa9ef7b,6628df85bc5a421020bcb14b,,,,,,,,,,,,,,,,,,,,,,,,,,,,,,,,,,992.977,996.9039,"[7,6,3,4,1,8,2,5]","[[-0.3,0.2],[0.3,0.2]]","[[0.125,-0.2],[-0.125,-0.2]]",-0.09375,-0.227864583,1,0,0,3.4122,o2_image,996.9148,1,997.4046,997.4047,999.4042,0,0,0,0,1,,,,,,,,,,,,,,,,,,,,,,,,,,,,,,,,,,,,,,,,,,,,,,,,,,
,,60a69d04e5534b81417680ce,32,female,2024-04-24_12h32.34.864,stockport_simplified,2022.2.4,Win32,60.97560976,661e456ee6de07e70aa9ef7b,6628df85bc5a421020bcb14b,,,,,,,,,,,,,,,,,,,,,,,,,,,,,,,,,,,,,,,,,,,,,,,,,,,,,,,,1,44,104,17,1,B,Y,N,o2_image,stimuli/out2.png,stimuli/out1.png,stimuli/correct_out2.png,,,,,,,,,,,,,,,,,,,,,,,,,,,,,,,,,,,,,,
,,60a69d04e5534b81417680ce,32,female,2024-04-24_12h32.34.864,stockport_simplified,2022.2.4,Win32,60.97560976,661e456ee6de07e70aa9ef7b,6628df85bc5a421020bcb14b,,,,,,,,,,,,,,,,,,,,,,,,,,,,,,,,,,999.406,1002.5044,"[7,6,3,4,1,8,2,5]","[[0.3,0.2],[-0.3,0.2]]","[[-0.125,-0.2],[0.125,-0.2]]",-0.09375,-0.227864583,1,0,0,2.5835,o1_image,1002.5077,1,1003.0052,1003.0053,1005.0089,0,0,0,0,1,,,,,,,,,,,,,,,,,,,,,,,,,,,,,,,,,,,,,,,,,,,,,,,,,,
,,60a69d04e5534b81417680ce,32,female,2024-04-24_12h32.34.864,stockport_simplified,2022.2.4,Win32,60.97560976,661e456ee6de07e70aa9ef7b,6628df85bc5a421020bcb14b,,,,,,,,,,,,,,,,,,,,,,,,,,,,,,,,,,,,,,,,,,,,,,,,,,,,,,,,1,45,105,34,1,A,X,N,o1_image,stimuli/out1.png,stimuli/correct_out1.png,stimuli/out2.png,,,,,,,,,,,,,,,,,,,,,,,,,,,,,,,,,,,,,,
,,60a69d04e5534b81417680ce,32,female,2024-04-24_12h32.34.864,stockport_simplified,2022.2.4,Win32,60.97560976,661e456ee6de07e70aa9ef7b,6628df85bc5a421020bcb14b,,,,,,,,,,,,,,,,,,,,,,,,,,,,,,,,,,1005.0106,1006.9581,"[7,6,3,4,1,8,2,5]","[[-0.3,0.2],[0.3,0.2]]","[[-0.125,-0.2],[0.125,-0.2]]",-0.09375,-0.227864583,1,0,0,1.4325,o1_image,1006.9602,1,1007.4527,1007.4527,1009.4539,0,0,0,0,1,,,,,,,,,,,,,,,,,,,,,,,,,,,,,,,,,,,,,,,,,,,,,,,,,,
,,60a69d04e5534b81417680ce,32,female,2024-04-24_12h32.34.864,stockport_simplified,2022.2.4,Win32,60.97560976,661e456ee6de07e70aa9ef7b,6628df85bc5a421020bcb14b,,,,,,,,,,,,,,,,,,,,,,,,,,,,,,,,,,,,,,,,,,,,,,,,,,,,,,,,1,46,106,24,1,N,M,C,o1_image,stimuli/out1.png,stimuli/correct_out1.png,stimuli/out2.png,,,,,,,,,,,,,,,,,,,,,,,,,,,,,,,,,,,,,,
,,60a69d04e5534b81417680ce,32,female,2024-04-24_12h32.34.864,stockport_simplified,2022.2.4,Win32,60.97560976,661e456ee6de07e70aa9ef7b,6628df85bc5a421020bcb14b,,,,,,,,,,,,,,,,,,,,,,,,,,,,,,,,,,1009.4557,1012.5873,"[7,6,3,4,1,8,2,5]","[[0.3,0.2],[-0.3,0.2]]","[[-0.125,-0.2],[0.125,-0.2]]",0.092447917,-0.203125,1,0,0,2.6171,o2_image,1012.5897,1,1013.0868,1013.087,1015.0858,0,0,0,0,1,,,,,,,,,,,,,,,,,,,,,,,,,,,,,,,,,,,,,,,,,,,,,,,,,,
,,60a69d04e5534b81417680ce,32,female,2024-04-24_12h32.34.864,stockport_simplified,2022.2.4,Win32,60.97560976,661e456ee6de07e70aa9ef7b,6628df85bc5a421020bcb14b,,,,,,,,,,,,,,,,,,,,,,,,,,,,,,,,,,,,,,,,,,,,,,,,,,,,,,,,1,47,107,13,1,B,X,N,o2_image,stimuli/out2.png,stimuli/out1.png,stimuli/correct_out2.png,,,,,,,,,,,,,,,,,,,,,,,,,,,,,,,,,,,,,,
,,60a69d04e5534b81417680ce,32,female,2024-04-24_12h32.34.864,stockport_simplified,2022.2.4,Win32,60.97560976,661e456ee6de07e70aa9ef7b,6628df85bc5a421020bcb14b,,,,,,,,,,,,,,,,,,,,,,,,,,,,,,,,,,1015.0869,1019.4052,"[7,6,3,4,1,8,2,5]","[[-0.3,0.2],[0.3,0.2]]","[[-0.125,-0.2],[0.125,-0.2]]",0.092447917,-0.203125,1,0,0,3.8012,o2_image,1019.4165,1,1019.9202,1019.9203,1021.9199,0,0,0,0,1,,,,,,,,,,,,,,,,,,,,,,,,,,,,,,,,,,,,,,,,,,,,,,,,,,
,,60a69d04e5534b81417680ce,32,female,2024-04-24_12h32.34.864,stockport_simplified,2022.2.4,Win32,60.97560976,661e456ee6de07e70aa9ef7b,6628df85bc5a421020bcb14b,,,,,,,,,,,,,,,,,,,,,,,,,,,,,,,,,,,,,,,,,,,,,,,,,,,,,,,,1,48,108,10,1,B,X,N,o2_image,stimuli/out2.png,stimuli/out1.png,stimuli/correct_out2.png,,,,,,,,,,,,,,,,,,,,,,,,,,,,,,,,,,,,,,
,,60a69d04e5534b81417680ce,32,female,2024-04-24_12h32.34.864,stockport_simplified,2022.2.4,Win32,60.97560976,661e456ee6de07e70aa9ef7b,6628df85bc5a421020bcb14b,,,,,,,,,,,,,,,,,,,,,,,,,,,,,,,,,,1021.9213,1024.9855,"[7,6,3,4,1,8,2,5]","[[-0.3,0.2],[0.3,0.2]]","[[-0.125,-0.2],[0.125,-0.2]]",0.092447917,-0.203125,1,0,0,2.5484,o2_image,1024.9965,1,1025.4852,1025.4853,1027.4853,0,0,0,0,1,,,,,,,,,,,,,,,,,,,,,,,,,,,,,,,,,,,,,,,,,,,,,,,,,,
,,60a69d04e5534b81417680ce,32,female,2024-04-24_12h32.34.864,stockport_simplified,2022.2.4,Win32,60.97560976,661e456ee6de07e70aa9ef7b,6628df85bc5a421020bcb14b,,,,,,,,,,,,,,,,,,,,,,,,,,,,,,,,,,,,,,,,,,,,,,,,,,,,,,,,1,49,109,45,1,B,Y,N,o2_image,stimuli/out2.png,stimuli/out1.png,stimuli/correct_out2.png,,,,,,,,,,,,,,,,,,,,,,,,,,,,,,,,,,,,,,
,,60a69d04e5534b81417680ce,32,female,2024-04-24_12h32.34.864,stockport_simplified,2022.2.4,Win32,60.97560976,661e456ee6de07e70aa9ef7b,6628df85bc5a421020bcb14b,,,,,,,,,,,,,,,,,,,,,,,,,,,,,,,,,,1027.4863,1030.9532,"[7,6,3,4,1,8,2,5]","[[0.3,0.2],[-0.3,0.2]]","[[-0.125,-0.2],[0.125,-0.2]]",-0.114583333,-0.21875,1,0,0,2.9487,o1_image,1030.9554,0,1031.4563,1031.4563,1033.4518,0,0,0,0,1,,,,,,,,,,,,,,,,,,,,,,,,,,,,,,,,,,,,,,,,,,,,,,,,,,
,,60a69d04e5534b81417680ce,32,female,2024-04-24_12h32.34.864,stockport_simplified,2022.2.4,Win32,60.97560976,661e456ee6de07e70aa9ef7b,6628df85bc5a421020bcb14b,,,,,,,,,,,,,,,,,,,,,,,,,,,,,,,,,,,,,,,,,,,,,,,,,,,,,,,,1,50,110,29,1,N,M,D,o2_image,stimuli/out2.png,stimuli/out1.png,stimuli/correct_out2.png,,,,,,,,,,,,,,,,,,,,,,,,,,,,,,,,,,,,,,
,,60a69d04e5534b81417680ce,32,female,2024-04-24_12h32.34.864,stockport_simplified,2022.2.4,Win32,60.97560976,661e456ee6de07e70aa9ef7b,6628df85bc5a421020bcb14b,,,,,,,,,,,,,,,,,,,,,,,,,,,,,,,,,,1033.4529,1036.9097,"[7,6,3,4,1,8,2,5]","[[-0.3,0.2],[0.3,0.2]]","[[0.125,-0.2],[-0.125,-0.2]]",-0.110677083,-0.204427083,1,0,0,2.9392,o2_image,1036.9113,1,1037.4009,1037.401,1039.4023,0,0,0,0,1,,,,,,,,,,,,,,,,,,,,,,,,,,,,,,,,,,,,,,,,,,,,,,,,,,
,,60a69d04e5534b81417680ce,32,female,2024-04-24_12h32.34.864,stockport_simplified,2022.2.4,Win32,60.97560976,661e456ee6de07e70aa9ef7b,6628df85bc5a421020bcb14b,,,,,,,,,,,,,,,,,,,,,,,,,,,,,,,,,,,,,,,,,,,,,,,,,,,,,,,,1,51,111,41,1,B,X,N,o2_image,stimuli/out2.png,stimuli/out1.png,stimuli/correct_out2.png,,,,,,,,,,,,,,,,,,,,,,,,,,,,,,,,,,,,,,
,,60a69d04e5534b81417680ce,32,female,2024-04-24_12h32.34.864,stockport_simplified,2022.2.4,Win32,60.97560976,661e456ee6de07e70aa9ef7b,6628df85bc5a421020bcb14b,,,,,,,,,,,,,,,,,,,,,,,,,,,,,,,,,,1039.4044,1043.0758,"[7,6,3,4,1,8,2,5]","[[0.3,0.2],[-0.3,0.2]]","[[0.125,-0.2],[-0.125,-0.2]]",0.123697917,-0.203125,1,0,0,3.1563,o1_image,1043.0772,1,1043.5732,1043.5732,1045.5698,0,0,0,0,1,,,,,,,,,,,,,,,,,,,,,,,,,,,,,,,,,,,,,,,,,,,,,,,,,,
,,60a69d04e5534b81417680ce,32,female,2024-04-24_12h32.34.864,stockport_simplified,2022.2.4,Win32,60.97560976,661e456ee6de07e70aa9ef7b,6628df85bc5a421020bcb14b,,,,,,,,,,,,,,,,,,,,,,,,,,,,,,,,,,,,,,,,,,,,,,,,,,,,,,,,1,52,112,32,1,A,X,N,o1_image,stimuli/out1.png,stimuli/correct_out1.png,stimuli/out2.png,,,,,,,,,,,,,,,,,,,,,,,,,,,,,,,,,,,,,,
,,60a69d04e5534b81417680ce,32,female,2024-04-24_12h32.34.864,stockport_simplified,2022.2.4,Win32,60.97560976,661e456ee6de07e70aa9ef7b,6628df85bc5a421020bcb14b,,,,,,,,,,,,,,,,,,,,,,,,,,,,,,,,,,1045.5709,1049.0407,"[7,6,3,4,1,8,2,5]","[[-0.3,0.2],[0.3,0.2]]","[[0.125,-0.2],[-0.125,-0.2]]",-0.098958333,-0.197916667,1,0,0,2.9553,o2_image,1049.043,1,1049.5402,1049.5402,1051.5391,0,0,0,0,1,,,,,,,,,,,,,,,,,,,,,,,,,,,,,,,,,,,,,,,,,,,,,,,,,,
,,60a69d04e5534b81417680ce,32,female,2024-04-24_12h32.34.864,stockport_simplified,2022.2.4,Win32,60.97560976,661e456ee6de07e70aa9ef7b,6628df85bc5a421020bcb14b,,,,,,,,,,,,,,,,,,,,,,,,,,,,,,,,,,,,,,,,,,,,,,,,,,,,,,,,1,53,113,18,1,B,Y,N,o2_image,stimuli/out2.png,stimuli/out1.png,stimuli/correct_out2.png,,,,,,,,,,,,,,,,,,,,,,,,,,,,,,,,,,,,,,
,,60a69d04e5534b81417680ce,32,female,2024-04-24_12h32.34.864,stockport_simplified,2022.2.4,Win32,60.97560976,661e456ee6de07e70aa9ef7b,6628df85bc5a421020bcb14b,,,,,,,,,,,,,,,,,,,,,,,,,,,,,,,,,,1051.5407,1055.4897,"[7,6,3,4,1,8,2,5]","[[0.3,0.2],[-0.3,0.2]]","[[0.125,-0.2],[-0.125,-0.2]]",0.143229167,-0.194010417,1,0,0,3.4324,o1_image,1055.5027,0,1056.0065,1056.0068,1058.0011,0,0,0,0,1,,,,,,,,,,,,,,,,,,,,,,,,,,,,,,,,,,,,,,,,,,,,,,,,,,
,,60a69d04e5534b81417680ce,32,female,2024-04-24_12h32.34.864,stockport_simplified,2022.2.4,Win32,60.97560976,661e456ee6de07e70aa9ef7b,6628df85bc5a421020bcb14b,,,,,,,,,,,,,,,,,,,,,,,,,,,,,,,,,,,,,,,,,,,,,,,,,,,,,,,,1,54,114,58,1,N,M,D,o2_image,stimuli/out2.png,stimuli/out1.png,stimuli/correct_out2.png,,,,,,,,,,,,,,,,,,,,,,,,,,,,,,,,,,,,,,
,,60a69d04e5534b81417680ce,32,female,2024-04-24_12h32.34.864,stockport_simplified,2022.2.4,Win32,60.97560976,661e456ee6de07e70aa9ef7b,6628df85bc5a421020bcb14b,,,,,,,,,,,,,,,,,,,,,,,,,,,,,,,,,,1058.0022,1062.1574,"[7,6,3,4,1,8,2,5]","[[-0.3,0.2],[0.3,0.2]]","[[0.125,-0.2],[-0.125,-0.2]]",-0.072916667,-0.186197917,1,0,0,3.6387,o2_image,1062.1895,1,1062.6858,1062.6859,1064.6846,0,0,0,0,1,,,,,,,,,,,,,,,,,,,,,,,,,,,,,,,,,,,,,,,,,,,,,,,,,,
,,60a69d04e5534b81417680ce,32,female,2024-04-24_12h32.34.864,stockport_simplified,2022.2.4,Win32,60.97560976,661e456ee6de07e70aa9ef7b,6628df85bc5a421020bcb14b,,,,,,,,,,,,,,,,,,,,,,,,,,,,,,,,,,,,,,,,,,,,,,,,,,,,,,,,1,55,115,44,1,B,X,N,o2_image,stimuli/out2.png,stimuli/out1.png,stimuli/correct_out2.png,,,,,,,,,,,,,,,,,,,,,,,,,,,,,,,,,,,,,,
,,60a69d04e5534b81417680ce,32,female,2024-04-24_12h32.34.864,stockport_simplified,2022.2.4,Win32,60.97560976,661e456ee6de07e70aa9ef7b,6628df85bc5a421020bcb14b,,,,,,,,,,,,,,,,,,,,,,,,,,,,,,,,,,1064.6861,1067.5885,"[7,6,3,4,1,8,2,5]","[[0.3,0.2],[-0.3,0.2]]","[[0.125,-0.2],[-0.125,-0.2]]",0.108072917,-0.235677083,1,0,0,2.3868,o1_image,1067.6017,1,1068.1004,1068.1007,1070.1008,0,0,0,0,1,,,,,,,,,,,,,,,,,,,,,,,,,,,,,,,,,,,,,,,,,,,,,,,,,,
,,60a69d04e5534b81417680ce,32,female,2024-04-24_12h32.34.864,stockport_simplified,2022.2.4,Win32,60.97560976,661e456ee6de07e70aa9ef7b,6628df85bc5a421020bcb14b,,,,,,,,,,,,,,,,,,,,,,,,,,,,,,,,,,,,,,,,,,,,,,,,,,,,,,,,1,56,116,52,1,N,M,C,o1_image,stimuli/out1.png,stimuli/correct_out1.png,stimuli/out2.png,,,,,,,,,,,,,,,,,,,,,,,,,,,,,,,,,,,,,,
,,60a69d04e5534b81417680ce,32,female,2024-04-24_12h32.34.864,stockport_simplified,2022.2.4,Win32,60.97560976,661e456ee6de07e70aa9ef7b,6628df85bc5a421020bcb14b,,,,,,,,,,,,,,,,,,,,,,,,,,,,,,,,,,1070.1027,1075.8535,"[7,6,3,4,1,8,2,5]","[[-0.3,0.2],[0.3,0.2]]","[[0.125,-0.2],[-0.125,-0.2]]",-0.098958333,-0.212239583,1,0,0,5.2344,o2_image,1075.8643,0,1076.3665,1076.3667,1078.3674,0,0,0,0,1,,,,,,,,,,,,,,,,,,,,,,,,,,,,,,,,,,,,,,,,,,,,,,,,,,
,,60a69d04e5534b81417680ce,32,female,2024-04-24_12h32.34.864,stockport_simplified,2022.2.4,Win32,60.97560976,661e456ee6de07e70aa9ef7b,6628df85bc5a421020bcb14b,,,,,,,,,,,,,,,,,,,,,,,,,,,,,,,,,,,,,,,,,,,,,,,,,,,,,,,,1,57,117,30,1,A,X,N,o1_image,stimuli/out1.png,stimuli/correct_out1.png,stimuli/out2.png,,,,,,,,,,,,,,,,,,,,,,,,,,,,,,,,,,,,,,
,,60a69d04e5534b81417680ce,32,female,2024-04-24_12h32.34.864,stockport_simplified,2022.2.4,Win32,60.97560976,661e456ee6de07e70aa9ef7b,6628df85bc5a421020bcb14b,,,,,,,,,,,,,,,,,,,,,,,,,,,,,,,,,,1078.3687,1083.188,"[7,6,3,4,1,8,2,5]","[[0.3,0.2],[-0.3,0.2]]","[[0.125,-0.2],[-0.125,-0.2]]",-0.098958333,-0.212239583,1,0,0,4.3033,o2_image,1083.2011,1,1083.6999,1083.7,1085.7,0,0,0,0,1,,,,,,,,,,,,,,,,,,,,,,,,,,,,,,,,,,,,,,,,,,,,,,,,,,
,,60a69d04e5534b81417680ce,32,female,2024-04-24_12h32.34.864,stockport_simplified,2022.2.4,Win32,60.97560976,661e456ee6de07e70aa9ef7b,6628df85bc5a421020bcb14b,,,,,,,,,,,,,,,,,,,,,,,,,,,,,,,,,,,,,,,,,,,,,,,,,,,,,,,,1,58,118,12,1,B,X,N,o2_image,stimuli/out2.png,stimuli/out1.png,stimuli/correct_out2.png,,,,,,,,,,,,,,,,,,,,,,,,,,,,,,,,,,,,,,
,,60a69d04e5534b81417680ce,32,female,2024-04-24_12h32.34.864,stockport_simplified,2022.2.4,Win32,60.97560976,661e456ee6de07e70aa9ef7b,6628df85bc5a421020bcb14b,,,,,,,,,,,,,,,,,,,,,,,,,,,,,,,,,,1085.7016,1088.4835,"[7,6,3,4,1,8,2,5]","[[-0.3,0.2],[0.3,0.2]]","[[0.125,-0.2],[-0.125,-0.2]]",0.13671875,-0.173177083,1,0,0,2.2776,o1_image,1088.4861,1,1088.9895,1088.9896,1090.9845,0,0,0,0,1,,,,,,,,,,,,,,,,,,,,,,,,,,,,,,,,,,,,,,,,,,,,,,,,,,
,,60a69d04e5534b81417680ce,32,female,2024-04-24_12h32.34.864,stockport_simplified,2022.2.4,Win32,60.97560976,661e456ee6de07e70aa9ef7b,6628df85bc5a421020bcb14b,,,,,,,,,,,,,,,,,,,,,,,,,,,,,,,,,,,,,,,,,,,,,,,,,,,,,,,,1,59,119,22,1,N,M,C,o1_image,stimuli/out1.png,stimuli/correct_out1.png,stimuli/out2.png,,,,,,,,,,,,,,,,,,,,,,,,,,,,,,,,,,,,,,
,,60a69d04e5534b81417680ce,32,female,2024-04-24_12h32.34.864,stockport_simplified,2022.2.4,Win32,60.97560976,661e456ee6de07e70aa9ef7b,6628df85bc5a421020bcb14b,,,,,,,,,,,,,,,,,,,,,,,,,,,,,,,,,,1091.0075,1095.9995,"[7,6,3,4,1,8,2,5]","[[-0.3,0.2],[0.3,0.2]]","[[-0.125,-0.2],[0.125,-0.2]]",0.13671875,-0.173177083,1,0,0,4.4782,o2_image,1096.0109,0,1096.5147,1096.5147,1098.5177,,,,,,,,,,,,,,,,,,0,0,0,0,1,,,,,,,,,,,,,,,,,,,,,,,,,,,,,,,,,
,,60a69d04e5534b81417680ce,32,female,2024-04-24_12h32.34.864,stockport_simplified,2022.2.4,Win32,60.97560976,661e456ee6de07e70aa9ef7b,6628df85bc5a421020bcb14b,,,,,,,,,,,,,,,,,,,,,,,,,,,,,,,,,,,,,,,,,,,,,,,,,,,,,,,,,,,,,A,Y,N,o1_image,stimuli/out1.png,stimuli/correct_out1.png,stimuli/out2.png,,,,,,0,0,0,12,1,,,,,,,,,,,,,,,,,,,,,,,,,,,,
,,60a69d04e5534b81417680ce,32,female,2024-04-24_12h32.34.864,stockport_simplified,2022.2.4,Win32,60.97560976,661e456ee6de07e70aa9ef7b,6628df85bc5a421020bcb14b,,,,,,,,,,,,,,,,,,,,,,,,,,,,,,,,,,1098.519,1101.2511,"[7,6,3,4,1,8,2,5]","[[-0.3,0.2],[0.3,0.2]]","[[0.125,-0.2],[-0.125,-0.2]]",0.13671875,-0.173177083,1,0,0,2.2164,o1_image,1101.2528,0,1101.7495,1101.7497,1103.7483,,,,,,,,,,,,,,,,,,0,0,0,0,1,,,,,,,,,,,,,,,,,,,,,,,,,,,,,,,,,
,,60a69d04e5534b81417680ce,32,female,2024-04-24_12h32.34.864,stockport_simplified,2022.2.4,Win32,60.97560976,661e456ee6de07e70aa9ef7b,6628df85bc5a421020bcb14b,,,,,,,,,,,,,,,,,,,,,,,,,,,,,,,,,,,,,,,,,,,,,,,,,,,,,,,,,,,,,N,M,D,o2_image,stimuli/out2.png,stimuli/out1.png,stimuli/correct_out2.png,,,,,,0,1,1,53,1,,,,,,,,,,,,,,,,,,,,,,,,,,,,
,,60a69d04e5534b81417680ce,32,female,2024-04-24_12h32.34.864,stockport_simplified,2022.2.4,Win32,60.97560976,661e456ee6de07e70aa9ef7b,6628df85bc5a421020bcb14b,,,,,,,,,,,,,,,,,,,,,,,,,,,,,,,,,,1103.7493,1107.4535,"[7,6,3,4,1,8,2,5]","[[-0.3,0.2],[0.3,0.2]]","[[-0.125,-0.2],[0.125,-0.2]]",-0.088541667,-0.200520833,1,0,0,3.1884,o1_image,1107.4866,0,1107.9836,1107.9837,1109.9837,,,,,,,,,,,,,,,,,,0,0,0,0,1,,,,,,,,,,,,,,,,,,,,,,,,,,,,,,,,,
,,60a69d04e5534b81417680ce,32,female,2024-04-24_12h32.34.864,stockport_simplified,2022.2.4,Win32,60.97560976,661e456ee6de07e70aa9ef7b,6628df85bc5a421020bcb14b,,,,,,,,,,,,,,,,,,,,,,,,,,,,,,,,,,,,,,,,,,,,,,,,,,,,,,,,,,,,,N,M,D,o2_image,stimuli/out2.png,stimuli/out1.png,stimuli/correct_out2.png,,,,,,0,2,2,50,1,,,,,,,,,,,,,,,,,,,,,,,,,,,,
,,60a69d04e5534b81417680ce,32,female,2024-04-24_12h32.34.864,stockport_simplified,2022.2.4,Win32,60.97560976,661e456ee6de07e70aa9ef7b,6628df85bc5a421020bcb14b,,,,,,,,,,,,,,,,,,,,,,,,,,,,,,,,,,1109.985,1113.5559,"[7,6,3,4,1,8,2,5]","[[-0.3,0.2],[0.3,0.2]]","[[0.125,-0.2],[-0.125,-0.2]]",0.145833333,-0.15234375,1,0,0,3.0541,o1_image,1113.584,1,1114.0821,1114.0822,1116.0828,,,,,,,,,,,,,,,,,,0,0,0,0,1,,,,,,,,,,,,,,,,,,,,,,,,,,,,,,,,,
