counterbalance_2.started,counterbalance_2.stopped,participant,age,gender,date,expName,psychopyVersion,OS,frameRate,STUDY_ID,SESSION_ID,information_2.started,information_2.stopped,information_loop.thisRepN,information_loop.thisTrialN,information_loop.thisN,information_loop.thisIndex,information_loop.ran,information,consent_2.started,consent_2.stopped,slider_1.response,slider_2.response,slider_3.response,slider_4.response,slider_5.response,slider_6.response,instructions.started,instructions.stopped,task1_instr.thisRepN,task1_instr.thisTrialN,task1_instr.thisN,task1_instr.thisIndex,task1_instr.ran,task1,comprehension1_2.started,comprehension1_2.stopped,comp1_mouse.x,comp1_mouse.y,comp1_mouse.leftButton,comp1_mouse.midButton,comp1_mouse.rightButton,comp1_mouse.time,comp1_mouse.clicked_name,cue_o__trial_2.started,cue_o__trial_2.stopped,order,cue_order,out_order,cue_o_mouse.x,cue_o_mouse.y,cue_o_mouse.leftButton,cue_o_mouse.midButton,cue_o_mouse.rightButton,cue_o_mouse.time,cue_o_mouse.clicked_name,cue_selection_2.started,correct_answer,cue_selection_2.stopped,feedback_2.started,feedback_2.stopped,feedback_loop.thisRepN,feedback_loop.thisTrialN,feedback_loop.thisN,feedback_loop.thisIndex,feedback_loop.ran,stage1_trials.thisRepN,stage1_trials.thisTrialN,stage1_trials.thisN,stage1_trials.thisIndex,stage1_trials.ran,cue1,cue2,cue3,outcome,correct_out,o1_feedback,o2_feedback,stage2_feedback_loop.thisRepN,stage2_feedback_loop.thisTrialN,stage2_feedback_loop.thisN,stage2_feedback_loop.thisIndex,stage2_feedback_loop.ran,stage2_trials.thisRepN,stage2_trials.thisTrialN,stage2_trials.thisN,stage2_trials.thisIndex,stage2_trials.ran,stage3_feedback_loop.thisRepN,stage3_feedback_loop.thisTrialN,stage3_feedback_loop.thisN,stage3_feedback_loop.thisIndex,stage3_feedback_loop.ran,stage3_trials.thisRepN,stage3_trials.thisTrialN,stage3_trials.thisN,stage3_trials.thisIndex,stage3_trials.ran,debrief_2.started,debrief_2.stopped,debrief_loop.thisRepN,debrief_loop.thisTrialN,debrief_loop.thisN,debrief_loop.thisIndex,debrief_loop.ran,debrief_img,compr1_completed.thisRepN,compr1_completed.thisTrialN,compr1_completed.thisN,compr1_completed.thisIndex,compr1_completed.ran,consent_loop.thisRepN,consent_loop.thisTrialN,consent_loop.thisN,consent_loop.thisIndex,consent_loop.ran
0.001,0.001,5d9b4e21b56c51035c35cb3d,49,male,2024-04-24_11h31.57.157,stockport_simplified,2022.2.4,Win32,60.0240096,661e456ee6de07e70aa9ef7b,6628df87be58904555d86461,,,,,,,,,,,,,,,,,,,,,,,,,,,,,,,,,,,,,,,,,,,,,,,,,,,,,,,,,,,,,,,,,,,,,,,,,,,,,,,,,,,,,,,,,,,,,,,,,,,,,,,,,
,,5d9b4e21b56c51035c35cb3d,49,male,2024-04-24_11h31.57.157,stockport_simplified,2022.2.4,Win32,60.0240096,661e456ee6de07e70aa9ef7b,6628df87be58904555d86461,0.012,11.445,0,0,0,0,1,instructions/info1.png,,,,,,,,,,,,,,,,,,,,,,,,,,,,,,,,,,,,,,,,,,,,,,,,,,,,,,,,,,,,,,,,,,,,,,,,,,,,,,,,,,,,,,,,,,,,,,,,,
,,5d9b4e21b56c51035c35cb3d,49,male,2024-04-24_11h31.57.157,stockport_simplified,2022.2.4,Win32,60.0240096,661e456ee6de07e70aa9ef7b,6628df87be58904555d86461,11.446,24.345,0,1,1,1,1,instructions/info2.png,,,,,,,,,,,,,,,,,,,,,,,,,,,,,,,,,,,,,,,,,,,,,,,,,,,,,,,,,,,,,,,,,,,,,,,,,,,,,,,,,,,,,,,,,,,,,,,,,
,,5d9b4e21b56c51035c35cb3d,49,male,2024-04-24_11h31.57.157,stockport_simplified,2022.2.4,Win32,60.0240096,661e456ee6de07e70aa9ef7b,6628df87be58904555d86461,24.346,31.629,0,2,2,2,1,instructions/info3.png,,,,,,,,,,,,,,,,,,,,,,,,,,,,,,,,,,,,,,,,,,,,,,,,,,,,,,,,,,,,,,,,,,,,,,,,,,,,,,,,,,,,,,,,,,,,,,,,,
,,5d9b4e21b56c51035c35cb3d,49,male,2024-04-24_11h31.57.157,stockport_simplified,2022.2.4,Win32,60.0240096,661e456ee6de07e70aa9ef7b,6628df87be58904555d86461,,,,,,,,,31.632,52.464,1,1,1,1,1,1,,,,,,,,,,,,,,,,,,,,,,,,,,,,,,,,,,,,,,,,,,,,,,,,,,,,,,,,,,,,,,,,,,,,,,,,,,,,,,,,,,,,,,,,,
,,5d9b4e21b56c51035c35cb3d,49,male,2024-04-24_11h31.57.157,stockport_simplified,2022.2.4,Win32,60.0240096,661e456ee6de07e70aa9ef7b,6628df87be58904555d86461,,,,,,,,,,,,,,,,,52.477,78.295,0,0,0,0,1,instructions/task1_1.png,,,,,,,,,,,,,,,,,,,,,,,,,,,,,,,,,,,,,,,,,,,,,,,,,,,,,,,,,,,,,,,,,,,,,,,,,,,,,,,,,
,,5d9b4e21b56c51035c35cb3d,49,male,2024-04-24_11h31.57.157,stockport_simplified,2022.2.4,Win32,60.0240096,661e456ee6de07e70aa9ef7b,6628df87be58904555d86461,,,,,,,,,,,,,,,,,78.301,97.945,0,1,1,1,1,instructions/task1_2.png,,,,,,,,,,,,,,,,,,,,,,,,,,,,,,,,,,,,,,,,,,,,,,,,,,,,,,,,,,,,,,,,,,,,,,,,,,,,,,,,,
,,5d9b4e21b56c51035c35cb3d,49,male,2024-04-24_11h31.57.157,stockport_simplified,2022.2.4,Win32,60.0240096,661e456ee6de07e70aa9ef7b,6628df87be58904555d86461,,,,,,,,,,,,,,,,,97.951,110.279,0,2,2,2,1,instructions/task1_3.png,,,,,,,,,,,,,,,,,,,,,,,,,,,,,,,,,,,,,,,,,,,,,,,,,,,,,,,,,,,,,,,,,,,,,,,,,,,,,,,,,
,,5d9b4e21b56c51035c35cb3d,49,male,2024-04-24_11h31.57.157,stockport_simplified,2022.2.4,Win32,60.0240096,661e456ee6de07e70aa9ef7b,6628df87be58904555d86461,,,,,,,,,,,,,,,,,,,,,,,,,110.28,133.846,-0.126157407,-0.032407407,0,0,1,14.031,comp1_resp1,133.875,137.162,"[2,6,4,8,5,3,7,1]","[[-0.3,0.2],[0.3,0.2]]","[[-0.125,-0.2],[0.125,-0.2]]",-0.127314815,-0.186342593,1,0,0,2.776,o1_image,137.164,0,137.662,137.662,139.663,0,0,0,0,1,,,,,,,,,,,,,,,,,,,,,,,,,,,,,,,,,,,,,,,,,,,,,,,,,,
,,5d9b4e21b56c51035c35cb3d,49,male,2024-04-24_11h31.57.157,stockport_simplified,2022.2.4,Win32,60.0240096,661e456ee6de07e70aa9ef7b,6628df87be58904555d86461,,,,,,,,,,,,,,,,,,,,,,,,,,,,,,,,,,,,,,,,,,,,,,,,,,,,,,,,0,0,0,55,1,N,M,D,o2_image,stimuli/out2.png,stimuli/out1.png,stimuli/correct_out2.png,,,,,,,,,,,,,,,,,,,,,,,,,,,,,,,,,,,,,,
,,5d9b4e21b56c51035c35cb3d,49,male,2024-04-24_11h31.57.157,stockport_simplified,2022.2.4,Win32,60.0240096,661e456ee6de07e70aa9ef7b,6628df87be58904555d86461,,,,,,,,,,,,,,,,,,,,,,,,,,,,,,,,,,139.664,142.245,"[2,6,4,8,5,3,7,1]","[[-0.3,0.2],[0.3,0.2]]","[[0.125,-0.2],[-0.125,-0.2]]",-0.141203704,-0.196759259,1,0,0,2.064,o2_image,142.246,0,142.745,142.745,144.745,0,0,0,0,1,,,,,,,,,,,,,,,,,,,,,,,,,,,,,,,,,,,,,,,,,,,,,,,,,,
,,5d9b4e21b56c51035c35cb3d,49,male,2024-04-24_11h31.57.157,stockport_simplified,2022.2.4,Win32,60.0240096,661e456ee6de07e70aa9ef7b,6628df87be58904555d86461,,,,,,,,,,,,,,,,,,,,,,,,,,,,,,,,,,,,,,,,,,,,,,,,,,,,,,,,0,1,1,5,1,A,Y,N,o1_image,stimuli/out1.png,stimuli/correct_out1.png,stimuli/out2.png,,,,,,,,,,,,,,,,,,,,,,,,,,,,,,,,,,,,,,
,,5d9b4e21b56c51035c35cb3d,49,male,2024-04-24_11h31.57.157,stockport_simplified,2022.2.4,Win32,60.0240096,661e456ee6de07e70aa9ef7b,6628df87be58904555d86461,,,,,,,,,,,,,,,,,,,,,,,,,,,,,,,,,,144.747,146.745,"[2,6,4,8,5,3,7,1]","[[-0.3,0.2],[0.3,0.2]]","[[0.125,-0.2],[-0.125,-0.2]]",-0.141203704,-0.196759259,1,0,0,1.483,o2_image,146.747,1,147.245,147.245,149.244,0,0,0,0,1,,,,,,,,,,,,,,,,,,,,,,,,,,,,,,,,,,,,,,,,,,,,,,,,,,
,,5d9b4e21b56c51035c35cb3d,49,male,2024-04-24_11h31.57.157,stockport_simplified,2022.2.4,Win32,60.0240096,661e456ee6de07e70aa9ef7b,6628df87be58904555d86461,,,,,,,,,,,,,,,,,,,,,,,,,,,,,,,,,,,,,,,,,,,,,,,,,,,,,,,,0,2,2,40,1,B,X,N,o2_image,stimuli/out2.png,stimuli/out1.png,stimuli/correct_out2.png,,,,,,,,,,,,,,,,,,,,,,,,,,,,,,,,,,,,,,
,,5d9b4e21b56c51035c35cb3d,49,male,2024-04-24_11h31.57.157,stockport_simplified,2022.2.4,Win32,60.0240096,661e456ee6de07e70aa9ef7b,6628df87be58904555d86461,,,,,,,,,,,,,,,,,,,,,,,,,,,,,,,,,,149.245,153.063,"[2,6,4,8,5,3,7,1]","[[0.3,0.2],[-0.3,0.2]]","[[-0.125,-0.2],[0.125,-0.2]]",0.09837963,-0.21875,1,0,0,3.317,o2_image,153.066,0,153.561,153.561,155.562,0,0,0,0,1,,,,,,,,,,,,,,,,,,,,,,,,,,,,,,,,,,,,,,,,,,,,,,,,,,
,,5d9b4e21b56c51035c35cb3d,49,male,2024-04-24_11h31.57.157,stockport_simplified,2022.2.4,Win32,60.0240096,661e456ee6de07e70aa9ef7b,6628df87be58904555d86461,,,,,,,,,,,,,,,,,,,,,,,,,,,,,,,,,,,,,,,,,,,,,,,,,,,,,,,,0,3,3,9,1,A,Y,N,o1_image,stimuli/out1.png,stimuli/correct_out1.png,stimuli/out2.png,,,,,,,,,,,,,,,,,,,,,,,,,,,,,,,,,,,,,,
,,5d9b4e21b56c51035c35cb3d,49,male,2024-04-24_11h31.57.157,stockport_simplified,2022.2.4,Win32,60.0240096,661e456ee6de07e70aa9ef7b,6628df87be58904555d86461,,,,,,,,,,,,,,,,,,,,,,,,,,,,,,,,,,155.563,157.745,"[2,6,4,8,5,3,7,1]","[[0.3,0.2],[-0.3,0.2]]","[[0.125,-0.2],[-0.125,-0.2]]",-0.087962963,-0.228009259,1,0,0,1.679,o2_image,157.748,1,158.245,158.245,160.245,0,0,0,0,1,,,,,,,,,,,,,,,,,,,,,,,,,,,,,,,,,,,,,,,,,,,,,,,,,,
,,5d9b4e21b56c51035c35cb3d,49,male,2024-04-24_11h31.57.157,stockport_simplified,2022.2.4,Win32,60.0240096,661e456ee6de07e70aa9ef7b,6628df87be58904555d86461,,,,,,,,,,,,,,,,,,,,,,,,,,,,,,,,,,,,,,,,,,,,,,,,,,,,,,,,0,4,4,29,1,N,M,D,o2_image,stimuli/out2.png,stimuli/out1.png,stimuli/correct_out2.png,,,,,,,,,,,,,,,,,,,,,,,,,,,,,,,,,,,,,,
,,5d9b4e21b56c51035c35cb3d,49,male,2024-04-24_11h31.57.157,stockport_simplified,2022.2.4,Win32,60.0240096,661e456ee6de07e70aa9ef7b,6628df87be58904555d86461,,,,,,,,,,,,,,,,,,,,,,,,,,,,,,,,,,160.246,162.211,"[2,6,4,8,5,3,7,1]","[[-0.3,0.2],[0.3,0.2]]","[[-0.125,-0.2],[0.125,-0.2]]",-0.15625,-0.188657407,1,0,0,1.449,o1_image,162.212,1,162.711,162.711,164.714,0,0,0,0,1,,,,,,,,,,,,,,,,,,,,,,,,,,,,,,,,,,,,,,,,,,,,,,,,,,
,,5d9b4e21b56c51035c35cb3d,49,male,2024-04-24_11h31.57.157,stockport_simplified,2022.2.4,Win32,60.0240096,661e456ee6de07e70aa9ef7b,6628df87be58904555d86461,,,,,,,,,,,,,,,,,,,,,,,,,,,,,,,,,,,,,,,,,,,,,,,,,,,,,,,,0,5,5,50,1,N,M,C,o1_image,stimuli/out1.png,stimuli/correct_out1.png,stimuli/out2.png,,,,,,,,,,,,,,,,,,,,,,,,,,,,,,,,,,,,,,
,,5d9b4e21b56c51035c35cb3d,49,male,2024-04-24_11h31.57.157,stockport_simplified,2022.2.4,Win32,60.0240096,661e456ee6de07e70aa9ef7b,6628df87be58904555d86461,,,,,,,,,,,,,,,,,,,,,,,,,,,,,,,,,,164.715,168.212,"[2,6,4,8,5,3,7,1]","[[-0.3,0.2],[0.3,0.2]]","[[0.125,-0.2],[-0.125,-0.2]]",-0.149305556,-0.1875,1,0,0,2.982,o2_image,168.218,0,168.711,168.711,170.712,0,0,0,0,1,,,,,,,,,,,,,,,,,,,,,,,,,,,,,,,,,,,,,,,,,,,,,,,,,,
,,5d9b4e21b56c51035c35cb3d,49,male,2024-04-24_11h31.57.157,stockport_simplified,2022.2.4,Win32,60.0240096,661e456ee6de07e70aa9ef7b,6628df87be58904555d86461,,,,,,,,,,,,,,,,,,,,,,,,,,,,,,,,,,,,,,,,,,,,,,,,,,,,,,,,0,6,6,3,1,A,X,N,o1_image,stimuli/out1.png,stimuli/correct_out1.png,stimuli/out2.png,,,,,,,,,,,,,,,,,,,,,,,,,,,,,,,,,,,,,,
,,5d9b4e21b56c51035c35cb3d,49,male,2024-04-24_11h31.57.157,stockport_simplified,2022.2.4,Win32,60.0240096,661e456ee6de07e70aa9ef7b,6628df87be58904555d86461,,,,,,,,,,,,,,,,,,,,,,,,,,,,,,,,,,170.713,173.746,"[2,6,4,8,5,3,7,1]","[[0.3,0.2],[-0.3,0.2]]","[[0.125,-0.2],[-0.125,-0.2]]",-0.148148148,-0.1875,1,0,0,2.517,o2_image,173.749,1,174.245,174.245,176.245,0,0,0,0,1,,,,,,,,,,,,,,,,,,,,,,,,,,,,,,,,,,,,,,,,,,,,,,,,,,
,,5d9b4e21b56c51035c35cb3d,49,male,2024-04-24_11h31.57.157,stockport_simplified,2022.2.4,Win32,60.0240096,661e456ee6de07e70aa9ef7b,6628df87be58904555d86461,,,,,,,,,,,,,,,,,,,,,,,,,,,,,,,,,,,,,,,,,,,,,,,,,,,,,,,,0,7,7,45,1,B,Y,N,o2_image,stimuli/out2.png,stimuli/out1.png,stimuli/correct_out2.png,,,,,,,,,,,,,,,,,,,,,,,,,,,,,,,,,,,,,,
,,5d9b4e21b56c51035c35cb3d,49,male,2024-04-24_11h31.57.157,stockport_simplified,2022.2.4,Win32,60.0240096,661e456ee6de07e70aa9ef7b,6628df87be58904555d86461,,,,,,,,,,,,,,,,,,,,,,,,,,,,,,,,,,176.247,178.744,"[2,6,4,8,5,3,7,1]","[[0.3,0.2],[-0.3,0.2]]","[[0.125,-0.2],[-0.125,-0.2]]",0.09837963,-0.196759259,1,0,0,1.981,o1_image,178.746,1,179.244,179.244,181.245,0,0,0,0,1,,,,,,,,,,,,,,,,,,,,,,,,,,,,,,,,,,,,,,,,,,,,,,,,,,
,,5d9b4e21b56c51035c35cb3d,49,male,2024-04-24_11h31.57.157,stockport_simplified,2022.2.4,Win32,60.0240096,661e456ee6de07e70aa9ef7b,6628df87be58904555d86461,,,,,,,,,,,,,,,,,,,,,,,,,,,,,,,,,,,,,,,,,,,,,,,,,,,,,,,,0,8,8,31,1,A,X,N,o1_image,stimuli/out1.png,stimuli/correct_out1.png,stimuli/out2.png,,,,,,,,,,,,,,,,,,,,,,,,,,,,,,,,,,,,,,
,,5d9b4e21b56c51035c35cb3d,49,male,2024-04-24_11h31.57.157,stockport_simplified,2022.2.4,Win32,60.0240096,661e456ee6de07e70aa9ef7b,6628df87be58904555d86461,,,,,,,,,,,,,,,,,,,,,,,,,,,,,,,,,,181.246,182.795,"[2,6,4,8,5,3,7,1]","[[0.3,0.2],[-0.3,0.2]]","[[0.125,-0.2],[-0.125,-0.2]]",0.09837963,-0.196759259,1,0,0,1.033,o1_image,182.796,1,183.295,183.295,185.295,0,0,0,0,1,,,,,,,,,,,,,,,,,,,,,,,,,,,,,,,,,,,,,,,,,,,,,,,,,,
,,5d9b4e21b56c51035c35cb3d,49,male,2024-04-24_11h31.57.157,stockport_simplified,2022.2.4,Win32,60.0240096,661e456ee6de07e70aa9ef7b,6628df87be58904555d86461,,,,,,,,,,,,,,,,,,,,,,,,,,,,,,,,,,,,,,,,,,,,,,,,,,,,,,,,0,9,9,39,1,A,Y,N,o1_image,stimuli/out1.png,stimuli/correct_out1.png,stimuli/out2.png,,,,,,,,,,,,,,,,,,,,,,,,,,,,,,,,,,,,,,
,,5d9b4e21b56c51035c35cb3d,49,male,2024-04-24_11h31.57.157,stockport_simplified,2022.2.4,Win32,60.0240096,661e456ee6de07e70aa9ef7b,6628df87be58904555d86461,,,,,,,,,,,,,,,,,,,,,,,,,,,,,,,,,,185.296,187.345,"[2,6,4,8,5,3,7,1]","[[0.3,0.2],[-0.3,0.2]]","[[0.125,-0.2],[-0.125,-0.2]]",0.096064815,-0.199074074,1,0,0,1.534,o1_image,187.347,0,187.845,187.845,189.844,0,0,0,0,1,,,,,,,,,,,,,,,,,,,,,,,,,,,,,,,,,,,,,,,,,,,,,,,,,,
,,5d9b4e21b56c51035c35cb3d,49,male,2024-04-24_11h31.57.157,stockport_simplified,2022.2.4,Win32,60.0240096,661e456ee6de07e70aa9ef7b,6628df87be58904555d86461,,,,,,,,,,,,,,,,,,,,,,,,,,,,,,,,,,,,,,,,,,,,,,,,,,,,,,,,0,10,10,13,1,B,X,N,o2_image,stimuli/out2.png,stimuli/out1.png,stimuli/correct_out2.png,,,,,,,,,,,,,,,,,,,,,,,,,,,,,,,,,,,,,,
,,5d9b4e21b56c51035c35cb3d,49,male,2024-04-24_11h31.57.157,stockport_simplified,2022.2.4,Win32,60.0240096,661e456ee6de07e70aa9ef7b,6628df87be58904555d86461,,,,,,,,,,,,,,,,,,,,,,,,,,,,,,,,,,189.845,191.746,"[2,6,4,8,5,3,7,1]","[[-0.3,0.2],[0.3,0.2]]","[[0.125,-0.2],[-0.125,-0.2]]",0.096064815,-0.199074074,1,0,0,1.401,o1_image,191.747,0,192.245,192.245,194.245,0,0,0,0,1,,,,,,,,,,,,,,,,,,,,,,,,,,,,,,,,,,,,,,,,,,,,,,,,,,
,,5d9b4e21b56c51035c35cb3d,49,male,2024-04-24_11h31.57.157,stockport_simplified,2022.2.4,Win32,60.0240096,661e456ee6de07e70aa9ef7b,6628df87be58904555d86461,,,,,,,,,,,,,,,,,,,,,,,,,,,,,,,,,,,,,,,,,,,,,,,,,,,,,,,,0,11,11,58,1,N,M,D,o2_image,stimuli/out2.png,stimuli/out1.png,stimuli/correct_out2.png,,,,,,,,,,,,,,,,,,,,,,,,,,,,,,,,,,,,,,
,,5d9b4e21b56c51035c35cb3d,49,male,2024-04-24_11h31.57.157,stockport_simplified,2022.2.4,Win32,60.0240096,661e456ee6de07e70aa9ef7b,6628df87be58904555d86461,,,,,,,,,,,,,,,,,,,,,,,,,,,,,,,,,,194.245,196.528,"[2,6,4,8,5,3,7,1]","[[-0.3,0.2],[0.3,0.2]]","[[0.125,-0.2],[-0.125,-0.2]]",-0.086805556,-0.201388889,1,0,0,1.767,o2_image,196.531,1,197.029,197.029,199.028,0,0,0,0,1,,,,,,,,,,,,,,,,,,,,,,,,,,,,,,,,,,,,,,,,,,,,,,,,,,
,,5d9b4e21b56c51035c35cb3d,49,male,2024-04-24_11h31.57.157,stockport_simplified,2022.2.4,Win32,60.0240096,661e456ee6de07e70aa9ef7b,6628df87be58904555d86461,,,,,,,,,,,,,,,,,,,,,,,,,,,,,,,,,,,,,,,,,,,,,,,,,,,,,,,,0,12,12,25,1,N,M,D,o2_image,stimuli/out2.png,stimuli/out1.png,stimuli/correct_out2.png,,,,,,,,,,,,,,,,,,,,,,,,,,,,,,,,,,,,,,
,,5d9b4e21b56c51035c35cb3d,49,male,2024-04-24_11h31.57.157,stockport_simplified,2022.2.4,Win32,60.0240096,661e456ee6de07e70aa9ef7b,6628df87be58904555d86461,,,,,,,,,,,,,,,,,,,,,,,,,,,,,,,,,,199.029,200.978,"[2,6,4,8,5,3,7,1]","[[-0.3,0.2],[0.3,0.2]]","[[0.125,-0.2],[-0.125,-0.2]]",0.145833333,-0.204861111,1,0,0,1.432,o1_image,200.98,1,201.478,201.478,203.479,0,0,0,0,1,,,,,,,,,,,,,,,,,,,,,,,,,,,,,,,,,,,,,,,,,,,,,,,,,,
,,5d9b4e21b56c51035c35cb3d,49,male,2024-04-24_11h31.57.157,stockport_simplified,2022.2.4,Win32,60.0240096,661e456ee6de07e70aa9ef7b,6628df87be58904555d86461,,,,,,,,,,,,,,,,,,,,,,,,,,,,,,,,,,,,,,,,,,,,,,,,,,,,,,,,0,13,13,38,1,A,Y,N,o1_image,stimuli/out1.png,stimuli/correct_out1.png,stimuli/out2.png,,,,,,,,,,,,,,,,,,,,,,,,,,,,,,,,,,,,,,
,,5d9b4e21b56c51035c35cb3d,49,male,2024-04-24_11h31.57.157,stockport_simplified,2022.2.4,Win32,60.0240096,661e456ee6de07e70aa9ef7b,6628df87be58904555d86461,,,,,,,,,,,,,,,,,,,,,,,,,,,,,,,,,,203.483,205.428,"[2,6,4,8,5,3,7,1]","[[0.3,0.2],[-0.3,0.2]]","[[0.125,-0.2],[-0.125,-0.2]]",0.145833333,-0.206018519,1,0,0,1.426,o1_image,205.433,0,205.928,205.928,207.929,0,0,0,0,1,,,,,,,,,,,,,,,,,,,,,,,,,,,,,,,,,,,,,,,,,,,,,,,,,,
,,5d9b4e21b56c51035c35cb3d,49,male,2024-04-24_11h31.57.157,stockport_simplified,2022.2.4,Win32,60.0240096,661e456ee6de07e70aa9ef7b,6628df87be58904555d86461,,,,,,,,,,,,,,,,,,,,,,,,,,,,,,,,,,,,,,,,,,,,,,,,,,,,,,,,0,14,14,42,1,B,X,N,o2_image,stimuli/out2.png,stimuli/out1.png,stimuli/correct_out2.png,,,,,,,,,,,,,,,,,,,,,,,,,,,,,,,,,,,,,,
,,5d9b4e21b56c51035c35cb3d,49,male,2024-04-24_11h31.57.157,stockport_simplified,2022.2.4,Win32,60.0240096,661e456ee6de07e70aa9ef7b,6628df87be58904555d86461,,,,,,,,,,,,,,,,,,,,,,,,,,,,,,,,,,207.931,209.728,"[2,6,4,8,5,3,7,1]","[[0.3,0.2],[-0.3,0.2]]","[[-0.125,-0.2],[0.125,-0.2]]",0.1875,-0.201388889,1,0,0,1.28,o2_image,209.729,1,210.228,210.228,212.229,0,0,0,0,1,,,,,,,,,,,,,,,,,,,,,,,,,,,,,,,,,,,,,,,,,,,,,,,,,,
,,5d9b4e21b56c51035c35cb3d,49,male,2024-04-24_11h31.57.157,stockport_simplified,2022.2.4,Win32,60.0240096,661e456ee6de07e70aa9ef7b,6628df87be58904555d86461,,,,,,,,,,,,,,,,,,,,,,,,,,,,,,,,,,,,,,,,,,,,,,,,,,,,,,,,0,15,15,27,1,N,M,D,o2_image,stimuli/out2.png,stimuli/out1.png,stimuli/correct_out2.png,,,,,,,,,,,,,,,,,,,,,,,,,,,,,,,,,,,,,,
,,5d9b4e21b56c51035c35cb3d,49,male,2024-04-24_11h31.57.157,stockport_simplified,2022.2.4,Win32,60.0240096,661e456ee6de07e70aa9ef7b,6628df87be58904555d86461,,,,,,,,,,,,,,,,,,,,,,,,,,,,,,,,,,212.229,214.646,"[2,6,4,8,5,3,7,1]","[[0.3,0.2],[-0.3,0.2]]","[[-0.125,-0.2],[0.125,-0.2]]",0.150462963,-0.196759259,1,0,0,1.899,o2_image,214.65,0,215.144,215.145,217.145,0,0,0,0,1,,,,,,,,,,,,,,,,,,,,,,,,,,,,,,,,,,,,,,,,,,,,,,,,,,
,,5d9b4e21b56c51035c35cb3d,49,male,2024-04-24_11h31.57.157,stockport_simplified,2022.2.4,Win32,60.0240096,661e456ee6de07e70aa9ef7b,6628df87be58904555d86461,,,,,,,,,,,,,,,,,,,,,,,,,,,,,,,,,,,,,,,,,,,,,,,,,,,,,,,,0,16,16,6,1,A,Y,N,o1_image,stimuli/out1.png,stimuli/correct_out1.png,stimuli/out2.png,,,,,,,,,,,,,,,,,,,,,,,,,,,,,,,,,,,,,,
,,5d9b4e21b56c51035c35cb3d,49,male,2024-04-24_11h31.57.157,stockport_simplified,2022.2.4,Win32,60.0240096,661e456ee6de07e70aa9ef7b,6628df87be58904555d86461,,,,,,,,,,,,,,,,,,,,,,,,,,,,,,,,,,217.145,219.228,"[2,6,4,8,5,3,7,1]","[[-0.3,0.2],[0.3,0.2]]","[[-0.125,-0.2],[0.125,-0.2]]",-0.084490741,-0.186342593,1,0,0,1.567,o1_image,219.236,1,219.728,219.728,221.728,0,0,0,0,1,,,,,,,,,,,,,,,,,,,,,,,,,,,,,,,,,,,,,,,,,,,,,,,,,,
,,5d9b4e21b56c51035c35cb3d,49,male,2024-04-24_11h31.57.157,stockport_simplified,2022.2.4,Win32,60.0240096,661e456ee6de07e70aa9ef7b,6628df87be58904555d86461,,,,,,,,,,,,,,,,,,,,,,,,,,,,,,,,,,,,,,,,,,,,,,,,,,,,,,,,0,17,17,0,1,A,X,N,o1_image,stimuli/out1.png,stimuli/correct_out1.png,stimuli/out2.png,,,,,,,,,,,,,,,,,,,,,,,,,,,,,,,,,,,,,,
,,5d9b4e21b56c51035c35cb3d,49,male,2024-04-24_11h31.57.157,stockport_simplified,2022.2.4,Win32,60.0240096,661e456ee6de07e70aa9ef7b,6628df87be58904555d86461,,,,,,,,,,,,,,,,,,,,,,,,,,,,,,,,,,221.73,225.278,"[2,6,4,8,5,3,7,1]","[[-0.3,0.2],[0.3,0.2]]","[[0.125,-0.2],[-0.125,-0.2]]",0.123842593,-0.201388889,1,0,0,3.033,o1_image,225.279,1,225.778,225.778,227.777,0,0,0,0,1,,,,,,,,,,,,,,,,,,,,,,,,,,,,,,,,,,,,,,,,,,,,,,,,,,
,,5d9b4e21b56c51035c35cb3d,49,male,2024-04-24_11h31.57.157,stockport_simplified,2022.2.4,Win32,60.0240096,661e456ee6de07e70aa9ef7b,6628df87be58904555d86461,,,,,,,,,,,,,,,,,,,,,,,,,,,,,,,,,,,,,,,,,,,,,,,,,,,,,,,,0,18,18,22,1,N,M,C,o1_image,stimuli/out1.png,stimuli/correct_out1.png,stimuli/out2.png,,,,,,,,,,,,,,,,,,,,,,,,,,,,,,,,,,,,,,
,,5d9b4e21b56c51035c35cb3d,49,male,2024-04-24_11h31.57.157,stockport_simplified,2022.2.4,Win32,60.0240096,661e456ee6de07e70aa9ef7b,6628df87be58904555d86461,,,,,,,,,,,,,,,,,,,,,,,,,,,,,,,,,,227.779,230.512,"[2,6,4,8,5,3,7,1]","[[0.3,0.2],[-0.3,0.2]]","[[-0.125,-0.2],[0.125,-0.2]]",0.074074074,-0.215277778,1,0,0,2.215,o2_image,230.514,0,231.011,231.011,233.011,0,0,0,0,1,,,,,,,,,,,,,,,,,,,,,,,,,,,,,,,,,,,,,,,,,,,,,,,,,,
,,5d9b4e21b56c51035c35cb3d,49,male,2024-04-24_11h31.57.157,stockport_simplified,2022.2.4,Win32,60.0240096,661e456ee6de07e70aa9ef7b,6628df87be58904555d86461,,,,,,,,,,,,,,,,,,,,,,,,,,,,,,,,,,,,,,,,,,,,,,,,,,,,,,,,0,19,19,1,1,A,X,N,o1_image,stimuli/out1.png,stimuli/correct_out1.png,stimuli/out2.png,,,,,,,,,,,,,,,,,,,,,,,,,,,,,,,,,,,,,,
,,5d9b4e21b56c51035c35cb3d,49,male,2024-04-24_11h31.57.157,stockport_simplified,2022.2.4,Win32,60.0240096,661e456ee6de07e70aa9ef7b,6628df87be58904555d86461,,,,,,,,,,,,,,,,,,,,,,,,,,,,,,,,,,233.012,235.311,"[2,6,4,8,5,3,7,1]","[[-0.3,0.2],[0.3,0.2]]","[[0.125,-0.2],[-0.125,-0.2]]",0.123842593,-0.206018519,1,0,0,1.782,o1_image,235.312,0,235.811,235.811,237.812,0,0,0,0,1,,,,,,,,,,,,,,,,,,,,,,,,,,,,,,,,,,,,,,,,,,,,,,,,,,
,,5d9b4e21b56c51035c35cb3d,49,male,2024-04-24_11h31.57.157,stockport_simplified,2022.2.4,Win32,60.0240096,661e456ee6de07e70aa9ef7b,6628df87be58904555d86461,,,,,,,,,,,,,,,,,,,,,,,,,,,,,,,,,,,,,,,,,,,,,,,,,,,,,,,,0,20,20,16,1,B,Y,N,o2_image,stimuli/out2.png,stimuli/out1.png,stimuli/correct_out2.png,,,,,,,,,,,,,,,,,,,,,,,,,,,,,,,,,,,,,,
,,5d9b4e21b56c51035c35cb3d,49,male,2024-04-24_11h31.57.157,stockport_simplified,2022.2.4,Win32,60.0240096,661e456ee6de07e70aa9ef7b,6628df87be58904555d86461,,,,,,,,,,,,,,,,,,,,,,,,,,,,,,,,,,237.817,239.661,"[2,6,4,8,5,3,7,1]","[[0.3,0.2],[-0.3,0.2]]","[[0.125,-0.2],[-0.125,-0.2]]",0.130787037,-0.204861111,1,0,0,1.33,o1_image,239.665,0,240.161,240.161,242.162,0,0,0,0,1,,,,,,,,,,,,,,,,,,,,,,,,,,,,,,,,,,,,,,,,,,,,,,,,,,
,,5d9b4e21b56c51035c35cb3d,49,male,2024-04-24_11h31.57.157,stockport_simplified,2022.2.4,Win32,60.0240096,661e456ee6de07e70aa9ef7b,6628df87be58904555d86461,,,,,,,,,,,,,,,,,,,,,,,,,,,,,,,,,,,,,,,,,,,,,,,,,,,,,,,,0,21,21,44,1,B,X,N,o2_image,stimuli/out2.png,stimuli/out1.png,stimuli/correct_out2.png,,,,,,,,,,,,,,,,,,,,,,,,,,,,,,,,,,,,,,
,,5d9b4e21b56c51035c35cb3d,49,male,2024-04-24_11h31.57.157,stockport_simplified,2022.2.4,Win32,60.0240096,661e456ee6de07e70aa9ef7b,6628df87be58904555d86461,,,,,,,,,,,,,,,,,,,,,,,,,,,,,,,,,,242.163,243.861,"[2,6,4,8,5,3,7,1]","[[0.3,0.2],[-0.3,0.2]]","[[-0.125,-0.2],[0.125,-0.2]]",-0.108796296,-0.201388889,1,0,0,1.181,o1_image,243.862,0,244.361,244.361,246.361,0,0,0,0,1,,,,,,,,,,,,,,,,,,,,,,,,,,,,,,,,,,,,,,,,,,,,,,,,,,
,,5d9b4e21b56c51035c35cb3d,49,male,2024-04-24_11h31.57.157,stockport_simplified,2022.2.4,Win32,60.0240096,661e456ee6de07e70aa9ef7b,6628df87be58904555d86461,,,,,,,,,,,,,,,,,,,,,,,,,,,,,,,,,,,,,,,,,,,,,,,,,,,,,,,,0,22,22,46,1,B,Y,N,o2_image,stimuli/out2.png,stimuli/out1.png,stimuli/correct_out2.png,,,,,,,,,,,,,,,,,,,,,,,,,,,,,,,,,,,,,,
,,5d9b4e21b56c51035c35cb3d,49,male,2024-04-24_11h31.57.157,stockport_simplified,2022.2.4,Win32,60.0240096,661e456ee6de07e70aa9ef7b,6628df87be58904555d86461,,,,,,,,,,,,,,,,,,,,,,,,,,,,,,,,,,246.363,249.017,"[2,6,4,8,5,3,7,1]","[[-0.3,0.2],[0.3,0.2]]","[[0.125,-0.2],[-0.125,-0.2]]",-0.096064815,-0.208333333,1,0,0,2.136,o2_image,249.018,1,249.511,249.511,251.511,0,0,0,0,1,,,,,,,,,,,,,,,,,,,,,,,,,,,,,,,,,,,,,,,,,,,,,,,,,,
,,5d9b4e21b56c51035c35cb3d,49,male,2024-04-24_11h31.57.157,stockport_simplified,2022.2.4,Win32,60.0240096,661e456ee6de07e70aa9ef7b,6628df87be58904555d86461,,,,,,,,,,,,,,,,,,,,,,,,,,,,,,,,,,,,,,,,,,,,,,,,,,,,,,,,0,23,23,59,1,N,M,D,o2_image,stimuli/out2.png,stimuli/out1.png,stimuli/correct_out2.png,,,,,,,,,,,,,,,,,,,,,,,,,,,,,,,,,,,,,,
,,5d9b4e21b56c51035c35cb3d,49,male,2024-04-24_11h31.57.157,stockport_simplified,2022.2.4,Win32,60.0240096,661e456ee6de07e70aa9ef7b,6628df87be58904555d86461,,,,,,,,,,,,,,,,,,,,,,,,,,,,,,,,,,251.512,253.944,"[2,6,4,8,5,3,7,1]","[[0.3,0.2],[-0.3,0.2]]","[[-0.125,-0.2],[0.125,-0.2]]",-0.099537037,-0.206018519,1,0,0,1.915,o1_image,253.946,1,254.445,254.445,256.444,0,0,0,0,1,,,,,,,,,,,,,,,,,,,,,,,,,,,,,,,,,,,,,,,,,,,,,,,,,,
,,5d9b4e21b56c51035c35cb3d,49,male,2024-04-24_11h31.57.157,stockport_simplified,2022.2.4,Win32,60.0240096,661e456ee6de07e70aa9ef7b,6628df87be58904555d86461,,,,,,,,,,,,,,,,,,,,,,,,,,,,,,,,,,,,,,,,,,,,,,,,,,,,,,,,0,24,24,4,1,A,X,N,o1_image,stimuli/out1.png,stimuli/correct_out1.png,stimuli/out2.png,,,,,,,,,,,,,,,,,,,,,,,,,,,,,,,,,,,,,,
,,5d9b4e21b56c51035c35cb3d,49,male,2024-04-24_11h31.57.157,stockport_simplified,2022.2.4,Win32,60.0240096,661e456ee6de07e70aa9ef7b,6628df87be58904555d86461,,,,,,,,,,,,,,,,,,,,,,,,,,,,,,,,,,256.445,258.328,"[2,6,4,8,5,3,7,1]","[[-0.3,0.2],[0.3,0.2]]","[[-0.125,-0.2],[0.125,-0.2]]",0.178240741,-0.206018519,1,0,0,1.367,o2_image,258.331,0,258.828,258.828,260.828,0,0,0,0,1,,,,,,,,,,,,,,,,,,,,,,,,,,,,,,,,,,,,,,,,,,,,,,,,,,
,,5d9b4e21b56c51035c35cb3d,49,male,2024-04-24_11h31.57.157,stockport_simplified,2022.2.4,Win32,60.0240096,661e456ee6de07e70aa9ef7b,6628df87be58904555d86461,,,,,,,,,,,,,,,,,,,,,,,,,,,,,,,,,,,,,,,,,,,,,,,,,,,,,,,,0,25,25,7,1,A,Y,N,o1_image,stimuli/out1.png,stimuli/correct_out1.png,stimuli/out2.png,,,,,,,,,,,,,,,,,,,,,,,,,,,,,,,,,,,,,,
,,5d9b4e21b56c51035c35cb3d,49,male,2024-04-24_11h31.57.157,stockport_simplified,2022.2.4,Win32,60.0240096,661e456ee6de07e70aa9ef7b,6628df87be58904555d86461,,,,,,,,,,,,,,,,,,,,,,,,,,,,,,,,,,260.829,262.531,"[2,6,4,8,5,3,7,1]","[[0.3,0.2],[-0.3,0.2]]","[[0.125,-0.2],[-0.125,-0.2]]",0.113425926,-0.1875,1,0,0,1.2,o1_image,262.534,1,263.029,263.029,265.028,0,0,0,0,1,,,,,,,,,,,,,,,,,,,,,,,,,,,,,,,,,,,,,,,,,,,,,,,,,,
,,5d9b4e21b56c51035c35cb3d,49,male,2024-04-24_11h31.57.157,stockport_simplified,2022.2.4,Win32,60.0240096,661e456ee6de07e70aa9ef7b,6628df87be58904555d86461,,,,,,,,,,,,,,,,,,,,,,,,,,,,,,,,,,,,,,,,,,,,,,,,,,,,,,,,0,26,26,34,1,A,X,N,o1_image,stimuli/out1.png,stimuli/correct_out1.png,stimuli/out2.png,,,,,,,,,,,,,,,,,,,,,,,,,,,,,,,,,,,,,,
,,5d9b4e21b56c51035c35cb3d,49,male,2024-04-24_11h31.57.157,stockport_simplified,2022.2.4,Win32,60.0240096,661e456ee6de07e70aa9ef7b,6628df87be58904555d86461,,,,,,,,,,,,,,,,,,,,,,,,,,,,,,,,,,265.029,266.947,"[2,6,4,8,5,3,7,1]","[[-0.3,0.2],[0.3,0.2]]","[[-0.125,-0.2],[0.125,-0.2]]",-0.1875,-0.19212963,1,0,0,1.401,o1_image,266.952,1,267.444,267.444,269.444,0,0,0,0,1,,,,,,,,,,,,,,,,,,,,,,,,,,,,,,,,,,,,,,,,,,,,,,,,,,
,,5d9b4e21b56c51035c35cb3d,49,male,2024-04-24_11h31.57.157,stockport_simplified,2022.2.4,Win32,60.0240096,661e456ee6de07e70aa9ef7b,6628df87be58904555d86461,,,,,,,,,,,,,,,,,,,,,,,,,,,,,,,,,,,,,,,,,,,,,,,,,,,,,,,,0,27,27,30,1,A,X,N,o1_image,stimuli/out1.png,stimuli/correct_out1.png,stimuli/out2.png,,,,,,,,,,,,,,,,,,,,,,,,,,,,,,,,,,,,,,
,,5d9b4e21b56c51035c35cb3d,49,male,2024-04-24_11h31.57.157,stockport_simplified,2022.2.4,Win32,60.0240096,661e456ee6de07e70aa9ef7b,6628df87be58904555d86461,,,,,,,,,,,,,,,,,,,,,,,,,,,,,,,,,,269.445,272.311,"[2,6,4,8,5,3,7,1]","[[-0.3,0.2],[0.3,0.2]]","[[0.125,-0.2],[-0.125,-0.2]]",-0.122685185,-0.188657407,1,0,0,2.345,o2_image,272.312,0,272.811,272.811,274.811,0,0,0,0,1,,,,,,,,,,,,,,,,,,,,,,,,,,,,,,,,,,,,,,,,,,,,,,,,,,
,,5d9b4e21b56c51035c35cb3d,49,male,2024-04-24_11h31.57.157,stockport_simplified,2022.2.4,Win32,60.0240096,661e456ee6de07e70aa9ef7b,6628df87be58904555d86461,,,,,,,,,,,,,,,,,,,,,,,,,,,,,,,,,,,,,,,,,,,,,,,,,,,,,,,,0,28,28,20,1,N,M,C,o1_image,stimuli/out1.png,stimuli/correct_out1.png,stimuli/out2.png,,,,,,,,,,,,,,,,,,,,,,,,,,,,,,,,,,,,,,
,,5d9b4e21b56c51035c35cb3d,49,male,2024-04-24_11h31.57.157,stockport_simplified,2022.2.4,Win32,60.0240096,661e456ee6de07e70aa9ef7b,6628df87be58904555d86461,,,,,,,,,,,,,,,,,,,,,,,,,,,,,,,,,,274.812,276.532,"[2,6,4,8,5,3,7,1]","[[-0.3,0.2],[0.3,0.2]]","[[0.125,-0.2],[-0.125,-0.2]]",0.116898148,-0.204861111,1,0,0,1.203,o1_image,276.534,1,277.028,277.028,279.028,0,0,0,0,1,,,,,,,,,,,,,,,,,,,,,,,,,,,,,,,,,,,,,,,,,,,,,,,,,,
,,5d9b4e21b56c51035c35cb3d,49,male,2024-04-24_11h31.57.157,stockport_simplified,2022.2.4,Win32,60.0240096,661e456ee6de07e70aa9ef7b,6628df87be58904555d86461,,,,,,,,,,,,,,,,,,,,,,,,,,,,,,,,,,,,,,,,,,,,,,,,,,,,,,,,0,29,29,24,1,N,M,C,o1_image,stimuli/out1.png,stimuli/correct_out1.png,stimuli/out2.png,,,,,,,,,,,,,,,,,,,,,,,,,,,,,,,,,,,,,,
,,5d9b4e21b56c51035c35cb3d,49,male,2024-04-24_11h31.57.157,stockport_simplified,2022.2.4,Win32,60.0240096,661e456ee6de07e70aa9ef7b,6628df87be58904555d86461,,,,,,,,,,,,,,,,,,,,,,,,,,,,,,,,,,279.029,281.329,"[2,6,4,8,5,3,7,1]","[[-0.3,0.2],[0.3,0.2]]","[[-0.125,-0.2],[0.125,-0.2]]",-0.112268519,-0.210648148,1,0,0,1.784,o1_image,281.331,0,281.828,281.828,283.831,0,0,0,0,1,,,,,,,,,,,,,,,,,,,,,,,,,,,,,,,,,,,,,,,,,,,,,,,,,,
,,5d9b4e21b56c51035c35cb3d,49,male,2024-04-24_11h31.57.157,stockport_simplified,2022.2.4,Win32,60.0240096,661e456ee6de07e70aa9ef7b,6628df87be58904555d86461,,,,,,,,,,,,,,,,,,,,,,,,,,,,,,,,,,,,,,,,,,,,,,,,,,,,,,,,0,30,30,10,1,B,X,N,o2_image,stimuli/out2.png,stimuli/out1.png,stimuli/correct_out2.png,,,,,,,,,,,,,,,,,,,,,,,,,,,,,,,,,,,,,,
,,5d9b4e21b56c51035c35cb3d,49,male,2024-04-24_11h31.57.157,stockport_simplified,2022.2.4,Win32,60.0240096,661e456ee6de07e70aa9ef7b,6628df87be58904555d86461,,,,,,,,,,,,,,,,,,,,,,,,,,,,,,,,,,283.831,285.695,"[2,6,4,8,5,3,7,1]","[[-0.3,0.2],[0.3,0.2]]","[[0.125,-0.2],[-0.125,-0.2]]",-0.107638889,-0.207175926,1,0,0,1.35,o2_image,285.696,0,286.194,286.194,288.195,0,0,0,0,1,,,,,,,,,,,,,,,,,,,,,,,,,,,,,,,,,,,,,,,,,,,,,,,,,,
,,5d9b4e21b56c51035c35cb3d,49,male,2024-04-24_11h31.57.157,stockport_simplified,2022.2.4,Win32,60.0240096,661e456ee6de07e70aa9ef7b,6628df87be58904555d86461,,,,,,,,,,,,,,,,,,,,,,,,,,,,,,,,,,,,,,,,,,,,,,,,,,,,,,,,0,31,31,8,1,A,Y,N,o1_image,stimuli/out1.png,stimuli/correct_out1.png,stimuli/out2.png,,,,,,,,,,,,,,,,,,,,,,,,,,,,,,,,,,,,,,
,,5d9b4e21b56c51035c35cb3d,49,male,2024-04-24_11h31.57.157,stockport_simplified,2022.2.4,Win32,60.0240096,661e456ee6de07e70aa9ef7b,6628df87be58904555d86461,,,,,,,,,,,,,,,,,,,,,,,,,,,,,,,,,,288.195,290.229,"[2,6,4,8,5,3,7,1]","[[-0.3,0.2],[0.3,0.2]]","[[-0.125,-0.2],[0.125,-0.2]]",-0.052083333,-0.202546296,1,0,0,1.517,o1_image,290.231,0,290.729,290.729,292.728,0,0,0,0,1,,,,,,,,,,,,,,,,,,,,,,,,,,,,,,,,,,,,,,,,,,,,,,,,,,
,,5d9b4e21b56c51035c35cb3d,49,male,2024-04-24_11h31.57.157,stockport_simplified,2022.2.4,Win32,60.0240096,661e456ee6de07e70aa9ef7b,6628df87be58904555d86461,,,,,,,,,,,,,,,,,,,,,,,,,,,,,,,,,,,,,,,,,,,,,,,,,,,,,,,,0,32,32,48,1,B,Y,N,o2_image,stimuli/out2.png,stimuli/out1.png,stimuli/correct_out2.png,,,,,,,,,,,,,,,,,,,,,,,,,,,,,,,,,,,,,,
,,5d9b4e21b56c51035c35cb3d,49,male,2024-04-24_11h31.57.157,stockport_simplified,2022.2.4,Win32,60.0240096,661e456ee6de07e70aa9ef7b,6628df87be58904555d86461,,,,,,,,,,,,,,,,,,,,,,,,,,,,,,,,,,292.728,295.295,"[2,6,4,8,5,3,7,1]","[[-0.3,0.2],[0.3,0.2]]","[[-0.125,-0.2],[0.125,-0.2]]",-0.113425926,-0.203703704,1,0,0,2.048,o1_image,295.296,1,295.794,295.794,297.796,0,0,0,0,1,,,,,,,,,,,,,,,,,,,,,,,,,,,,,,,,,,,,,,,,,,,,,,,,,,
,,5d9b4e21b56c51035c35cb3d,49,male,2024-04-24_11h31.57.157,stockport_simplified,2022.2.4,Win32,60.0240096,661e456ee6de07e70aa9ef7b,6628df87be58904555d86461,,,,,,,,,,,,,,,,,,,,,,,,,,,,,,,,,,,,,,,,,,,,,,,,,,,,,,,,0,33,33,52,1,N,M,C,o1_image,stimuli/out1.png,stimuli/correct_out1.png,stimuli/out2.png,,,,,,,,,,,,,,,,,,,,,,,,,,,,,,,,,,,,,,
,,5d9b4e21b56c51035c35cb3d,49,male,2024-04-24_11h31.57.157,stockport_simplified,2022.2.4,Win32,60.0240096,661e456ee6de07e70aa9ef7b,6628df87be58904555d86461,,,,,,,,,,,,,,,,,,,,,,,,,,,,,,,,,,297.8,301.361,"[2,6,4,8,5,3,7,1]","[[0.3,0.2],[-0.3,0.2]]","[[0.125,-0.2],[-0.125,-0.2]]",0.122685185,-0.208333333,1,0,0,3.045,o1_image,301.364,0,301.861,301.861,303.861,0,0,0,0,1,,,,,,,,,,,,,,,,,,,,,,,,,,,,,,,,,,,,,,,,,,,,,,,,,,
,,5d9b4e21b56c51035c35cb3d,49,male,2024-04-24_11h31.57.157,stockport_simplified,2022.2.4,Win32,60.0240096,661e456ee6de07e70aa9ef7b,6628df87be58904555d86461,,,,,,,,,,,,,,,,,,,,,,,,,,,,,,,,,,,,,,,,,,,,,,,,,,,,,,,,0,34,34,17,1,B,Y,N,o2_image,stimuli/out2.png,stimuli/out1.png,stimuli/correct_out2.png,,,,,,,,,,,,,,,,,,,,,,,,,,,,,,,,,,,,,,
,,5d9b4e21b56c51035c35cb3d,49,male,2024-04-24_11h31.57.157,stockport_simplified,2022.2.4,Win32,60.0240096,661e456ee6de07e70aa9ef7b,6628df87be58904555d86461,,,,,,,,,,,,,,,,,,,,,,,,,,,,,,,,,,303.862,305.578,"[2,6,4,8,5,3,7,1]","[[0.3,0.2],[-0.3,0.2]]","[[0.125,-0.2],[-0.125,-0.2]]",-0.094907407,-0.208333333,1,0,0,1.199,o2_image,305.581,1,306.078,306.079,308.079,0,0,0,0,1,,,,,,,,,,,,,,,,,,,,,,,,,,,,,,,,,,,,,,,,,,,,,,,,,,
,,5d9b4e21b56c51035c35cb3d,49,male,2024-04-24_11h31.57.157,stockport_simplified,2022.2.4,Win32,60.0240096,661e456ee6de07e70aa9ef7b,6628df87be58904555d86461,,,,,,,,,,,,,,,,,,,,,,,,,,,,,,,,,,,,,,,,,,,,,,,,,,,,,,,,0,35,35,19,1,B,Y,N,o2_image,stimuli/out2.png,stimuli/out1.png,stimuli/correct_out2.png,,,,,,,,,,,,,,,,,,,,,,,,,,,,,,,,,,,,,,
,,5d9b4e21b56c51035c35cb3d,49,male,2024-04-24_11h31.57.157,stockport_simplified,2022.2.4,Win32,60.0240096,661e456ee6de07e70aa9ef7b,6628df87be58904555d86461,,,,,,,,,,,,,,,,,,,,,,,,,,,,,,,,,,308.08,312.211,"[2,6,4,8,5,3,7,1]","[[-0.3,0.2],[0.3,0.2]]","[[-0.125,-0.2],[0.125,-0.2]]",0.109953704,-0.204861111,1,0,0,3.615,o2_image,312.214,1,312.711,312.711,314.711,0,0,0,0,1,,,,,,,,,,,,,,,,,,,,,,,,,,,,,,,,,,,,,,,,,,,,,,,,,,
,,5d9b4e21b56c51035c35cb3d,49,male,2024-04-24_11h31.57.157,stockport_simplified,2022.2.4,Win32,60.0240096,661e456ee6de07e70aa9ef7b,6628df87be58904555d86461,,,,,,,,,,,,,,,,,,,,,,,,,,,,,,,,,,,,,,,,,,,,,,,,,,,,,,,,0,36,36,26,1,N,M,D,o2_image,stimuli/out2.png,stimuli/out1.png,stimuli/correct_out2.png,,,,,,,,,,,,,,,,,,,,,,,,,,,,,,,,,,,,,,
,,5d9b4e21b56c51035c35cb3d,49,male,2024-04-24_11h31.57.157,stockport_simplified,2022.2.4,Win32,60.0240096,661e456ee6de07e70aa9ef7b,6628df87be58904555d86461,,,,,,,,,,,,,,,,,,,,,,,,,,,,,,,,,,314.712,316.361,"[2,6,4,8,5,3,7,1]","[[-0.3,0.2],[0.3,0.2]]","[[-0.125,-0.2],[0.125,-0.2]]",-0.128472222,-0.202546296,1,0,0,1.133,o1_image,316.364,1,316.86,316.86,318.861,0,0,0,0,1,,,,,,,,,,,,,,,,,,,,,,,,,,,,,,,,,,,,,,,,,,,,,,,,,,
,,5d9b4e21b56c51035c35cb3d,49,male,2024-04-24_11h31.57.157,stockport_simplified,2022.2.4,Win32,60.0240096,661e456ee6de07e70aa9ef7b,6628df87be58904555d86461,,,,,,,,,,,,,,,,,,,,,,,,,,,,,,,,,,,,,,,,,,,,,,,,,,,,,,,,0,37,37,23,1,N,M,C,o1_image,stimuli/out1.png,stimuli/correct_out1.png,stimuli/out2.png,,,,,,,,,,,,,,,,,,,,,,,,,,,,,,,,,,,,,,
,,5d9b4e21b56c51035c35cb3d,49,male,2024-04-24_11h31.57.157,stockport_simplified,2022.2.4,Win32,60.0240096,661e456ee6de07e70aa9ef7b,6628df87be58904555d86461,,,,,,,,,,,,,,,,,,,,,,,,,,,,,,,,,,318.862,321.611,"[2,6,4,8,5,3,7,1]","[[-0.3,0.2],[0.3,0.2]]","[[0.125,-0.2],[-0.125,-0.2]]",0.143518519,-0.215277778,1,0,0,2.232,o1_image,321.614,0,322.111,322.111,324.111,0,0,0,0,1,,,,,,,,,,,,,,,,,,,,,,,,,,,,,,,,,,,,,,,,,,,,,,,,,,
,,5d9b4e21b56c51035c35cb3d,49,male,2024-04-24_11h31.57.157,stockport_simplified,2022.2.4,Win32,60.0240096,661e456ee6de07e70aa9ef7b,6628df87be58904555d86461,,,,,,,,,,,,,,,,,,,,,,,,,,,,,,,,,,,,,,,,,,,,,,,,,,,,,,,,0,38,38,49,1,B,Y,N,o2_image,stimuli/out2.png,stimuli/out1.png,stimuli/correct_out2.png,,,,,,,,,,,,,,,,,,,,,,,,,,,,,,,,,,,,,,
,,5d9b4e21b56c51035c35cb3d,49,male,2024-04-24_11h31.57.157,stockport_simplified,2022.2.4,Win32,60.0240096,661e456ee6de07e70aa9ef7b,6628df87be58904555d86461,,,,,,,,,,,,,,,,,,,,,,,,,,,,,,,,,,324.112,326.91,"[2,6,4,8,5,3,7,1]","[[-0.3,0.2],[0.3,0.2]]","[[-0.125,-0.2],[0.125,-0.2]]",-0.090277778,-0.210648148,1,0,0,2.281,o1_image,326.912,1,327.411,327.411,329.411,0,0,0,0,1,,,,,,,,,,,,,,,,,,,,,,,,,,,,,,,,,,,,,,,,,,,,,,,,,,
,,5d9b4e21b56c51035c35cb3d,49,male,2024-04-24_11h31.57.157,stockport_simplified,2022.2.4,Win32,60.0240096,661e456ee6de07e70aa9ef7b,6628df87be58904555d86461,,,,,,,,,,,,,,,,,,,,,,,,,,,,,,,,,,,,,,,,,,,,,,,,,,,,,,,,0,39,39,33,1,A,X,N,o1_image,stimuli/out1.png,stimuli/correct_out1.png,stimuli/out2.png,,,,,,,,,,,,,,,,,,,,,,,,,,,,,,,,,,,,,,
,,5d9b4e21b56c51035c35cb3d,49,male,2024-04-24_11h31.57.157,stockport_simplified,2022.2.4,Win32,60.0240096,661e456ee6de07e70aa9ef7b,6628df87be58904555d86461,,,,,,,,,,,,,,,,,,,,,,,,,,,,,,,,,,329.411,332.527,"[2,6,4,8,5,3,7,1]","[[0.3,0.2],[-0.3,0.2]]","[[0.125,-0.2],[-0.125,-0.2]]",0.104166667,-0.210648148,1,0,0,2.616,o1_image,332.53,0,333.028,333.028,335.029,0,0,0,0,1,,,,,,,,,,,,,,,,,,,,,,,,,,,,,,,,,,,,,,,,,,,,,,,,,,
,,5d9b4e21b56c51035c35cb3d,49,male,2024-04-24_11h31.57.157,stockport_simplified,2022.2.4,Win32,60.0240096,661e456ee6de07e70aa9ef7b,6628df87be58904555d86461,,,,,,,,,,,,,,,,,,,,,,,,,,,,,,,,,,,,,,,,,,,,,,,,,,,,,,,,0,40,40,41,1,B,X,N,o2_image,stimuli/out2.png,stimuli/out1.png,stimuli/correct_out2.png,,,,,,,,,,,,,,,,,,,,,,,,,,,,,,,,,,,,,,
,,5d9b4e21b56c51035c35cb3d,49,male,2024-04-24_11h31.57.157,stockport_simplified,2022.2.4,Win32,60.0240096,661e456ee6de07e70aa9ef7b,6628df87be58904555d86461,,,,,,,,,,,,,,,,,,,,,,,,,,,,,,,,,,335.035,337.628,"[2,6,4,8,5,3,7,1]","[[-0.3,0.2],[0.3,0.2]]","[[-0.125,-0.2],[0.125,-0.2]]",-0.100694444,-0.211805556,1,0,0,2.077,o1_image,337.632,1,338.129,338.129,340.129,0,0,0,0,1,,,,,,,,,,,,,,,,,,,,,,,,,,,,,,,,,,,,,,,,,,,,,,,,,,
,,5d9b4e21b56c51035c35cb3d,49,male,2024-04-24_11h31.57.157,stockport_simplified,2022.2.4,Win32,60.0240096,661e456ee6de07e70aa9ef7b,6628df87be58904555d86461,,,,,,,,,,,,,,,,,,,,,,,,,,,,,,,,,,,,,,,,,,,,,,,,,,,,,,,,0,41,41,35,1,A,Y,N,o1_image,stimuli/out1.png,stimuli/correct_out1.png,stimuli/out2.png,,,,,,,,,,,,,,,,,,,,,,,,,,,,,,,,,,,,,,
,,5d9b4e21b56c51035c35cb3d,49,male,2024-04-24_11h31.57.157,stockport_simplified,2022.2.4,Win32,60.0240096,661e456ee6de07e70aa9ef7b,6628df87be58904555d86461,,,,,,,,,,,,,,,,,,,,,,,,,,,,,,,,,,340.131,344.329,"[2,6,4,8,5,3,7,1]","[[-0.3,0.2],[0.3,0.2]]","[[-0.125,-0.2],[0.125,-0.2]]",-0.115740741,-0.209490741,1,0,0,3.678,o1_image,344.332,1,344.828,344.828,346.829,0,0,0,0,1,,,,,,,,,,,,,,,,,,,,,,,,,,,,,,,,,,,,,,,,,,,,,,,,,,
,,5d9b4e21b56c51035c35cb3d,49,male,2024-04-24_11h31.57.157,stockport_simplified,2022.2.4,Win32,60.0240096,661e456ee6de07e70aa9ef7b,6628df87be58904555d86461,,,,,,,,,,,,,,,,,,,,,,,,,,,,,,,,,,,,,,,,,,,,,,,,,,,,,,,,0,42,42,21,1,N,M,C,o1_image,stimuli/out1.png,stimuli/correct_out1.png,stimuli/out2.png,,,,,,,,,,,,,,,,,,,,,,,,,,,,,,,,,,,,,,
,,5d9b4e21b56c51035c35cb3d,49,male,2024-04-24_11h31.57.157,stockport_simplified,2022.2.4,Win32,60.0240096,661e456ee6de07e70aa9ef7b,6628df87be58904555d86461,,,,,,,,,,,,,,,,,,,,,,,,,,,,,,,,,,346.83,348.762,"[2,6,4,8,5,3,7,1]","[[-0.3,0.2],[0.3,0.2]]","[[-0.125,-0.2],[0.125,-0.2]]",-0.108796296,-0.209490741,1,0,0,1.416,o1_image,348.764,0,349.261,349.261,351.261,0,0,0,0,1,,,,,,,,,,,,,,,,,,,,,,,,,,,,,,,,,,,,,,,,,,,,,,,,,,
,,5d9b4e21b56c51035c35cb3d,49,male,2024-04-24_11h31.57.157,stockport_simplified,2022.2.4,Win32,60.0240096,661e456ee6de07e70aa9ef7b,6628df87be58904555d86461,,,,,,,,,,,,,,,,,,,,,,,,,,,,,,,,,,,,,,,,,,,,,,,,,,,,,,,,0,43,43,43,1,B,X,N,o2_image,stimuli/out2.png,stimuli/out1.png,stimuli/correct_out2.png,,,,,,,,,,,,,,,,,,,,,,,,,,,,,,,,,,,,,,
,,5d9b4e21b56c51035c35cb3d,49,male,2024-04-24_11h31.57.157,stockport_simplified,2022.2.4,Win32,60.0240096,661e456ee6de07e70aa9ef7b,6628df87be58904555d86461,,,,,,,,,,,,,,,,,,,,,,,,,,,,,,,,,,351.262,353.478,"[2,6,4,8,5,3,7,1]","[[0.3,0.2],[-0.3,0.2]]","[[0.125,-0.2],[-0.125,-0.2]]",-0.099537037,-0.207175926,1,0,0,1.699,o2_image,353.482,1,353.978,353.978,355.978,0,0,0,0,1,,,,,,,,,,,,,,,,,,,,,,,,,,,,,,,,,,,,,,,,,,,,,,,,,,
,,5d9b4e21b56c51035c35cb3d,49,male,2024-04-24_11h31.57.157,stockport_simplified,2022.2.4,Win32,60.0240096,661e456ee6de07e70aa9ef7b,6628df87be58904555d86461,,,,,,,,,,,,,,,,,,,,,,,,,,,,,,,,,,,,,,,,,,,,,,,,,,,,,,,,0,44,44,56,1,N,M,D,o2_image,stimuli/out2.png,stimuli/out1.png,stimuli/correct_out2.png,,,,,,,,,,,,,,,,,,,,,,,,,,,,,,,,,,,,,,
,,5d9b4e21b56c51035c35cb3d,49,male,2024-04-24_11h31.57.157,stockport_simplified,2022.2.4,Win32,60.0240096,661e456ee6de07e70aa9ef7b,6628df87be58904555d86461,,,,,,,,,,,,,,,,,,,,,,,,,,,,,,,,,,355.978,357.73,"[2,6,4,8,5,3,7,1]","[[0.3,0.2],[-0.3,0.2]]","[[-0.125,-0.2],[0.125,-0.2]]",-0.08912037,-0.209490741,1,0,0,1.233,o1_image,357.733,0,358.228,358.228,360.228,0,0,0,0,1,,,,,,,,,,,,,,,,,,,,,,,,,,,,,,,,,,,,,,,,,,,,,,,,,,
,,5d9b4e21b56c51035c35cb3d,49,male,2024-04-24_11h31.57.157,stockport_simplified,2022.2.4,Win32,60.0240096,661e456ee6de07e70aa9ef7b,6628df87be58904555d86461,,,,,,,,,,,,,,,,,,,,,,,,,,,,,,,,,,,,,,,,,,,,,,,,,,,,,,,,0,45,45,18,1,B,Y,N,o2_image,stimuli/out2.png,stimuli/out1.png,stimuli/correct_out2.png,,,,,,,,,,,,,,,,,,,,,,,,,,,,,,,,,,,,,,
,,5d9b4e21b56c51035c35cb3d,49,male,2024-04-24_11h31.57.157,stockport_simplified,2022.2.4,Win32,60.0240096,661e456ee6de07e70aa9ef7b,6628df87be58904555d86461,,,,,,,,,,,,,,,,,,,,,,,,,,,,,,,,,,360.229,362.13,"[2,6,4,8,5,3,7,1]","[[0.3,0.2],[-0.3,0.2]]","[[0.125,-0.2],[-0.125,-0.2]]",-0.128472222,-0.212962963,1,0,0,1.385,o2_image,362.132,0,362.627,362.627,364.627,0,0,0,0,1,,,,,,,,,,,,,,,,,,,,,,,,,,,,,,,,,,,,,,,,,,,,,,,,,,
,,5d9b4e21b56c51035c35cb3d,49,male,2024-04-24_11h31.57.157,stockport_simplified,2022.2.4,Win32,60.0240096,661e456ee6de07e70aa9ef7b,6628df87be58904555d86461,,,,,,,,,,,,,,,,,,,,,,,,,,,,,,,,,,,,,,,,,,,,,,,,,,,,,,,,0,46,46,37,1,A,Y,N,o1_image,stimuli/out1.png,stimuli/correct_out1.png,stimuli/out2.png,,,,,,,,,,,,,,,,,,,,,,,,,,,,,,,,,,,,,,
,,5d9b4e21b56c51035c35cb3d,49,male,2024-04-24_11h31.57.157,stockport_simplified,2022.2.4,Win32,60.0240096,661e456ee6de07e70aa9ef7b,6628df87be58904555d86461,,,,,,,,,,,,,,,,,,,,,,,,,,,,,,,,,,364.628,367.347,"[2,6,4,8,5,3,7,1]","[[0.3,0.2],[-0.3,0.2]]","[[0.125,-0.2],[-0.125,-0.2]]",0.097222222,-0.210648148,1,0,0,2.217,o1_image,367.35,1,367.845,367.845,369.845,0,0,0,0,1,,,,,,,,,,,,,,,,,,,,,,,,,,,,,,,,,,,,,,,,,,,,,,,,,,
,,5d9b4e21b56c51035c35cb3d,49,male,2024-04-24_11h31.57.157,stockport_simplified,2022.2.4,Win32,60.0240096,661e456ee6de07e70aa9ef7b,6628df87be58904555d86461,,,,,,,,,,,,,,,,,,,,,,,,,,,,,,,,,,,,,,,,,,,,,,,,,,,,,,,,0,47,47,54,1,N,M,C,o1_image,stimuli/out1.png,stimuli/correct_out1.png,stimuli/out2.png,,,,,,,,,,,,,,,,,,,,,,,,,,,,,,,,,,,,,,
,,5d9b4e21b56c51035c35cb3d,49,male,2024-04-24_11h31.57.157,stockport_simplified,2022.2.4,Win32,60.0240096,661e456ee6de07e70aa9ef7b,6628df87be58904555d86461,,,,,,,,,,,,,,,,,,,,,,,,,,,,,,,,,,369.845,371.832,"[2,6,4,8,5,3,7,1]","[[-0.3,0.2],[0.3,0.2]]","[[-0.125,-0.2],[0.125,-0.2]]",0.09375,-0.212962963,1,0,0,1.466,o2_image,371.836,0,372.328,372.328,374.328,0,0,0,0,1,,,,,,,,,,,,,,,,,,,,,,,,,,,,,,,,,,,,,,,,,,,,,,,,,,
,,5d9b4e21b56c51035c35cb3d,49,male,2024-04-24_11h31.57.157,stockport_simplified,2022.2.4,Win32,60.0240096,661e456ee6de07e70aa9ef7b,6628df87be58904555d86461,,,,,,,,,,,,,,,,,,,,,,,,,,,,,,,,,,,,,,,,,,,,,,,,,,,,,,,,0,48,48,36,1,A,Y,N,o1_image,stimuli/out1.png,stimuli/correct_out1.png,stimuli/out2.png,,,,,,,,,,,,,,,,,,,,,,,,,,,,,,,,,,,,,,
,,5d9b4e21b56c51035c35cb3d,49,male,2024-04-24_11h31.57.157,stockport_simplified,2022.2.4,Win32,60.0240096,661e456ee6de07e70aa9ef7b,6628df87be58904555d86461,,,,,,,,,,,,,,,,,,,,,,,,,,,,,,,,,,374.33,376.178,"[2,6,4,8,5,3,7,1]","[[-0.3,0.2],[0.3,0.2]]","[[0.125,-0.2],[-0.125,-0.2]]",0.087962963,-0.206018519,1,0,0,1.33,o1_image,376.181,0,376.678,376.678,378.679,0,0,0,0,1,,,,,,,,,,,,,,,,,,,,,,,,,,,,,,,,,,,,,,,,,,,,,,,,,,
,,5d9b4e21b56c51035c35cb3d,49,male,2024-04-24_11h31.57.157,stockport_simplified,2022.2.4,Win32,60.0240096,661e456ee6de07e70aa9ef7b,6628df87be58904555d86461,,,,,,,,,,,,,,,,,,,,,,,,,,,,,,,,,,,,,,,,,,,,,,,,,,,,,,,,0,49,49,15,1,B,Y,N,o2_image,stimuli/out2.png,stimuli/out1.png,stimuli/correct_out2.png,,,,,,,,,,,,,,,,,,,,,,,,,,,,,,,,,,,,,,
,,5d9b4e21b56c51035c35cb3d,49,male,2024-04-24_11h31.57.157,stockport_simplified,2022.2.4,Win32,60.0240096,661e456ee6de07e70aa9ef7b,6628df87be58904555d86461,,,,,,,,,,,,,,,,,,,,,,,,,,,,,,,,,,378.68,381.295,"[2,6,4,8,5,3,7,1]","[[-0.3,0.2],[0.3,0.2]]","[[-0.125,-0.2],[0.125,-0.2]]",-0.105324074,-0.202546296,1,0,0,2.1,o1_image,381.297,1,381.795,381.795,383.795,0,0,0,0,1,,,,,,,,,,,,,,,,,,,,,,,,,,,,,,,,,,,,,,,,,,,,,,,,,,
,,5d9b4e21b56c51035c35cb3d,49,male,2024-04-24_11h31.57.157,stockport_simplified,2022.2.4,Win32,60.0240096,661e456ee6de07e70aa9ef7b,6628df87be58904555d86461,,,,,,,,,,,,,,,,,,,,,,,,,,,,,,,,,,,,,,,,,,,,,,,,,,,,,,,,0,50,50,53,1,N,M,C,o1_image,stimuli/out1.png,stimuli/correct_out1.png,stimuli/out2.png,,,,,,,,,,,,,,,,,,,,,,,,,,,,,,,,,,,,,,
,,5d9b4e21b56c51035c35cb3d,49,male,2024-04-24_11h31.57.157,stockport_simplified,2022.2.4,Win32,60.0240096,661e456ee6de07e70aa9ef7b,6628df87be58904555d86461,,,,,,,,,,,,,,,,,,,,,,,,,,,,,,,,,,383.795,385.496,"[2,6,4,8,5,3,7,1]","[[-0.3,0.2],[0.3,0.2]]","[[-0.125,-0.2],[0.125,-0.2]]",-0.099537037,-0.199074074,1,0,0,1.183,o1_image,385.499,0,385.994,385.994,387.995,0,0,0,0,1,,,,,,,,,,,,,,,,,,,,,,,,,,,,,,,,,,,,,,,,,,,,,,,,,,
,,5d9b4e21b56c51035c35cb3d,49,male,2024-04-24_11h31.57.157,stockport_simplified,2022.2.4,Win32,60.0240096,661e456ee6de07e70aa9ef7b,6628df87be58904555d86461,,,,,,,,,,,,,,,,,,,,,,,,,,,,,,,,,,,,,,,,,,,,,,,,,,,,,,,,0,51,51,14,1,B,X,N,o2_image,stimuli/out2.png,stimuli/out1.png,stimuli/correct_out2.png,,,,,,,,,,,,,,,,,,,,,,,,,,,,,,,,,,,,,,
,,5d9b4e21b56c51035c35cb3d,49,male,2024-04-24_11h31.57.157,stockport_simplified,2022.2.4,Win32,60.0240096,661e456ee6de07e70aa9ef7b,6628df87be58904555d86461,,,,,,,,,,,,,,,,,,,,,,,,,,,,,,,,,,387.996,390.312,"[2,6,4,8,5,3,7,1]","[[-0.3,0.2],[0.3,0.2]]","[[-0.125,-0.2],[0.125,-0.2]]",0.072916667,-0.199074074,1,0,0,1.801,o2_image,390.314,1,390.811,390.811,392.811,0,0,0,0,1,,,,,,,,,,,,,,,,,,,,,,,,,,,,,,,,,,,,,,,,,,,,,,,,,,
,,5d9b4e21b56c51035c35cb3d,49,male,2024-04-24_11h31.57.157,stockport_simplified,2022.2.4,Win32,60.0240096,661e456ee6de07e70aa9ef7b,6628df87be58904555d86461,,,,,,,,,,,,,,,,,,,,,,,,,,,,,,,,,,,,,,,,,,,,,,,,,,,,,,,,0,52,52,47,1,B,Y,N,o2_image,stimuli/out2.png,stimuli/out1.png,stimuli/correct_out2.png,,,,,,,,,,,,,,,,,,,,,,,,,,,,,,,,,,,,,,
,,5d9b4e21b56c51035c35cb3d,49,male,2024-04-24_11h31.57.157,stockport_simplified,2022.2.4,Win32,60.0240096,661e456ee6de07e70aa9ef7b,6628df87be58904555d86461,,,,,,,,,,,,,,,,,,,,,,,,,,,,,,,,,,392.811,394.911,"[2,6,4,8,5,3,7,1]","[[0.3,0.2],[-0.3,0.2]]","[[-0.125,-0.2],[0.125,-0.2]]",-0.103009259,-0.201388889,1,0,0,1.599,o1_image,394.915,1,395.411,395.411,397.415,0,0,0,0,1,,,,,,,,,,,,,,,,,,,,,,,,,,,,,,,,,,,,,,,,,,,,,,,,,,
,,5d9b4e21b56c51035c35cb3d,49,male,2024-04-24_11h31.57.157,stockport_simplified,2022.2.4,Win32,60.0240096,661e456ee6de07e70aa9ef7b,6628df87be58904555d86461,,,,,,,,,,,,,,,,,,,,,,,,,,,,,,,,,,,,,,,,,,,,,,,,,,,,,,,,0,53,53,51,1,N,M,C,o1_image,stimuli/out1.png,stimuli/correct_out1.png,stimuli/out2.png,,,,,,,,,,,,,,,,,,,,,,,,,,,,,,,,,,,,,,
,,5d9b4e21b56c51035c35cb3d,49,male,2024-04-24_11h31.57.157,stockport_simplified,2022.2.4,Win32,60.0240096,661e456ee6de07e70aa9ef7b,6628df87be58904555d86461,,,,,,,,,,,,,,,,,,,,,,,,,,,,,,,,,,397.415,399.261,"[2,6,4,8,5,3,7,1]","[[0.3,0.2],[-0.3,0.2]]","[[0.125,-0.2],[-0.125,-0.2]]",-0.099537037,-0.194444444,1,0,0,1.333,o2_image,399.262,1,399.762,399.762,401.762,0,0,0,0,1,,,,,,,,,,,,,,,,,,,,,,,,,,,,,,,,,,,,,,,,,,,,,,,,,,
,,5d9b4e21b56c51035c35cb3d,49,male,2024-04-24_11h31.57.157,stockport_simplified,2022.2.4,Win32,60.0240096,661e456ee6de07e70aa9ef7b,6628df87be58904555d86461,,,,,,,,,,,,,,,,,,,,,,,,,,,,,,,,,,,,,,,,,,,,,,,,,,,,,,,,0,54,54,28,1,N,M,D,o2_image,stimuli/out2.png,stimuli/out1.png,stimuli/correct_out2.png,,,,,,,,,,,,,,,,,,,,,,,,,,,,,,,,,,,,,,
,,5d9b4e21b56c51035c35cb3d,49,male,2024-04-24_11h31.57.157,stockport_simplified,2022.2.4,Win32,60.0240096,661e456ee6de07e70aa9ef7b,6628df87be58904555d86461,,,,,,,,,,,,,,,,,,,,,,,,,,,,,,,,,,401.766,404.944,"[2,6,4,8,5,3,7,1]","[[-0.3,0.2],[0.3,0.2]]","[[-0.125,-0.2],[0.125,-0.2]]",0.101851852,-0.194444444,1,0,0,2.663,o2_image,404.948,1,405.444,405.444,407.449,0,0,0,0,1,,,,,,,,,,,,,,,,,,,,,,,,,,,,,,,,,,,,,,,,,,,,,,,,,,
,,5d9b4e21b56c51035c35cb3d,49,male,2024-04-24_11h31.57.157,stockport_simplified,2022.2.4,Win32,60.0240096,661e456ee6de07e70aa9ef7b,6628df87be58904555d86461,,,,,,,,,,,,,,,,,,,,,,,,,,,,,,,,,,,,,,,,,,,,,,,,,,,,,,,,0,55,55,12,1,B,X,N,o2_image,stimuli/out2.png,stimuli/out1.png,stimuli/correct_out2.png,,,,,,,,,,,,,,,,,,,,,,,,,,,,,,,,,,,,,,
,,5d9b4e21b56c51035c35cb3d,49,male,2024-04-24_11h31.57.157,stockport_simplified,2022.2.4,Win32,60.0240096,661e456ee6de07e70aa9ef7b,6628df87be58904555d86461,,,,,,,,,,,,,,,,,,,,,,,,,,,,,,,,,,407.45,409.428,"[2,6,4,8,5,3,7,1]","[[0.3,0.2],[-0.3,0.2]]","[[0.125,-0.2],[-0.125,-0.2]]",-0.084490741,-0.200231481,1,0,0,1.466,o2_image,409.429,0,409.927,409.927,411.928,0,0,0,0,1,,,,,,,,,,,,,,,,,,,,,,,,,,,,,,,,,,,,,,,,,,,,,,,,,,
,,5d9b4e21b56c51035c35cb3d,49,male,2024-04-24_11h31.57.157,stockport_simplified,2022.2.4,Win32,60.0240096,661e456ee6de07e70aa9ef7b,6628df87be58904555d86461,,,,,,,,,,,,,,,,,,,,,,,,,,,,,,,,,,,,,,,,,,,,,,,,,,,,,,,,0,56,56,2,1,A,X,N,o1_image,stimuli/out1.png,stimuli/correct_out1.png,stimuli/out2.png,,,,,,,,,,,,,,,,,,,,,,,,,,,,,,,,,,,,,,
,,5d9b4e21b56c51035c35cb3d,49,male,2024-04-24_11h31.57.157,stockport_simplified,2022.2.4,Win32,60.0240096,661e456ee6de07e70aa9ef7b,6628df87be58904555d86461,,,,,,,,,,,,,,,,,,,,,,,,,,,,,,,,,,411.929,414.278,"[2,6,4,8,5,3,7,1]","[[0.3,0.2],[-0.3,0.2]]","[[-0.125,-0.2],[0.125,-0.2]]",-0.097222222,-0.19212963,1,0,0,1.834,o1_image,414.281,1,414.778,414.778,416.778,0,0,0,0,1,,,,,,,,,,,,,,,,,,,,,,,,,,,,,,,,,,,,,,,,,,,,,,,,,,
,,5d9b4e21b56c51035c35cb3d,49,male,2024-04-24_11h31.57.157,stockport_simplified,2022.2.4,Win32,60.0240096,661e456ee6de07e70aa9ef7b,6628df87be58904555d86461,,,,,,,,,,,,,,,,,,,,,,,,,,,,,,,,,,,,,,,,,,,,,,,,,,,,,,,,0,57,57,32,1,A,X,N,o1_image,stimuli/out1.png,stimuli/correct_out1.png,stimuli/out2.png,,,,,,,,,,,,,,,,,,,,,,,,,,,,,,,,,,,,,,
,,5d9b4e21b56c51035c35cb3d,49,male,2024-04-24_11h31.57.157,stockport_simplified,2022.2.4,Win32,60.0240096,661e456ee6de07e70aa9ef7b,6628df87be58904555d86461,,,,,,,,,,,,,,,,,,,,,,,,,,,,,,,,,,416.779,418.711,"[2,6,4,8,5,3,7,1]","[[-0.3,0.2],[0.3,0.2]]","[[0.125,-0.2],[-0.125,-0.2]]",-0.09375,-0.19212963,1,0,0,1.416,o2_image,418.712,1,419.21,419.21,421.211,0,0,0,0,1,,,,,,,,,,,,,,,,,,,,,,,,,,,,,,,,,,,,,,,,,,,,,,,,,,
,,5d9b4e21b56c51035c35cb3d,49,male,2024-04-24_11h31.57.157,stockport_simplified,2022.2.4,Win32,60.0240096,661e456ee6de07e70aa9ef7b,6628df87be58904555d86461,,,,,,,,,,,,,,,,,,,,,,,,,,,,,,,,,,,,,,,,,,,,,,,,,,,,,,,,0,58,58,57,1,N,M,D,o2_image,stimuli/out2.png,stimuli/out1.png,stimuli/correct_out2.png,,,,,,,,,,,,,,,,,,,,,,,,,,,,,,,,,,,,,,
,,5d9b4e21b56c51035c35cb3d,49,male,2024-04-24_11h31.57.157,stockport_simplified,2022.2.4,Win32,60.0240096,661e456ee6de07e70aa9ef7b,6628df87be58904555d86461,,,,,,,,,,,,,,,,,,,,,,,,,,,,,,,,,,421.212,423.91,"[2,6,4,8,5,3,7,1]","[[-0.3,0.2],[0.3,0.2]]","[[-0.125,-0.2],[0.125,-0.2]]",0.159722222,-0.203703704,1,0,0,2.181,o2_image,423.913,1,424.411,424.411,426.411,0,0,0,0,1,,,,,,,,,,,,,,,,,,,,,,,,,,,,,,,,,,,,,,,,,,,,,,,,,,
,,5d9b4e21b56c51035c35cb3d,49,male,2024-04-24_11h31.57.157,stockport_simplified,2022.2.4,Win32,60.0240096,661e456ee6de07e70aa9ef7b,6628df87be58904555d86461,,,,,,,,,,,,,,,,,,,,,,,,,,,,,,,,,,,,,,,,,,,,,,,,,,,,,,,,0,59,59,11,1,B,X,N,o2_image,stimuli/out2.png,stimuli/out1.png,stimuli/correct_out2.png,,,,,,,,,,,,,,,,,,,,,,,,,,,,,,,,,,,,,,
,,5d9b4e21b56c51035c35cb3d,49,male,2024-04-24_11h31.57.157,stockport_simplified,2022.2.4,Win32,60.0240096,661e456ee6de07e70aa9ef7b,6628df87be58904555d86461,,,,,,,,,,,,,,,,,,,,,,,,,,,,,,,,,,426.411,428.713,"[2,6,4,8,5,3,7,1]","[[0.3,0.2],[-0.3,0.2]]","[[0.125,-0.2],[-0.125,-0.2]]",0.155092593,-0.204861111,1,0,0,1.8,o1_image,428.715,1,429.211,429.211,431.211,0,0,0,0,1,,,,,,,,,,,,,,,,,,,,,,,,,,,,,,,,,,,,,,,,,,,,,,,,,,
,,5d9b4e21b56c51035c35cb3d,49,male,2024-04-24_11h31.57.157,stockport_simplified,2022.2.4,Win32,60.0240096,661e456ee6de07e70aa9ef7b,6628df87be58904555d86461,,,,,,,,,,,,,,,,,,,,,,,,,,,,,,,,,,,,,,,,,,,,,,,,,,,,,,,,1,0,60,50,1,N,M,C,o1_image,stimuli/out1.png,stimuli/correct_out1.png,stimuli/out2.png,,,,,,,,,,,,,,,,,,,,,,,,,,,,,,,,,,,,,,
,,5d9b4e21b56c51035c35cb3d,49,male,2024-04-24_11h31.57.157,stockport_simplified,2022.2.4,Win32,60.0240096,661e456ee6de07e70aa9ef7b,6628df87be58904555d86461,,,,,,,,,,,,,,,,,,,,,,,,,,,,,,,,,,431.215,432.829,"[2,6,4,8,5,3,7,1]","[[0.3,0.2],[-0.3,0.2]]","[[0.125,-0.2],[-0.125,-0.2]]",-0.100694444,-0.202546296,1,0,0,1.097,o2_image,432.834,1,433.33,433.33,435.328,0,0,0,0,1,,,,,,,,,,,,,,,,,,,,,,,,,,,,,,,,,,,,,,,,,,,,,,,,,,
,,5d9b4e21b56c51035c35cb3d,49,male,2024-04-24_11h31.57.157,stockport_simplified,2022.2.4,Win32,60.0240096,661e456ee6de07e70aa9ef7b,6628df87be58904555d86461,,,,,,,,,,,,,,,,,,,,,,,,,,,,,,,,,,,,,,,,,,,,,,,,,,,,,,,,1,1,61,59,1,N,M,D,o2_image,stimuli/out2.png,stimuli/out1.png,stimuli/correct_out2.png,,,,,,,,,,,,,,,,,,,,,,,,,,,,,,,,,,,,,,
,,5d9b4e21b56c51035c35cb3d,49,male,2024-04-24_11h31.57.157,stockport_simplified,2022.2.4,Win32,60.0240096,661e456ee6de07e70aa9ef7b,6628df87be58904555d86461,,,,,,,,,,,,,,,,,,,,,,,,,,,,,,,,,,435.329,438.245,"[2,6,4,8,5,3,7,1]","[[0.3,0.2],[-0.3,0.2]]","[[0.125,-0.2],[-0.125,-0.2]]",-0.092592593,-0.184027778,1,0,0,2.398,o2_image,438.247,1,438.744,438.744,440.744,0,0,0,0,1,,,,,,,,,,,,,,,,,,,,,,,,,,,,,,,,,,,,,,,,,,,,,,,,,,
,,5d9b4e21b56c51035c35cb3d,49,male,2024-04-24_11h31.57.157,stockport_simplified,2022.2.4,Win32,60.0240096,661e456ee6de07e70aa9ef7b,6628df87be58904555d86461,,,,,,,,,,,,,,,,,,,,,,,,,,,,,,,,,,,,,,,,,,,,,,,,,,,,,,,,1,2,62,43,1,B,X,N,o2_image,stimuli/out2.png,stimuli/out1.png,stimuli/correct_out2.png,,,,,,,,,,,,,,,,,,,,,,,,,,,,,,,,,,,,,,
,,5d9b4e21b56c51035c35cb3d,49,male,2024-04-24_11h31.57.157,stockport_simplified,2022.2.4,Win32,60.0240096,661e456ee6de07e70aa9ef7b,6628df87be58904555d86461,,,,,,,,,,,,,,,,,,,,,,,,,,,,,,,,,,440.745,443.228,"[2,6,4,8,5,3,7,1]","[[-0.3,0.2],[0.3,0.2]]","[[-0.125,-0.2],[0.125,-0.2]]",-0.092592593,-0.184027778,1,0,0,1.966,o1_image,443.23,1,443.728,443.728,445.728,0,0,0,0,1,,,,,,,,,,,,,,,,,,,,,,,,,,,,,,,,,,,,,,,,,,,,,,,,,,
,,5d9b4e21b56c51035c35cb3d,49,male,2024-04-24_11h31.57.157,stockport_simplified,2022.2.4,Win32,60.0240096,661e456ee6de07e70aa9ef7b,6628df87be58904555d86461,,,,,,,,,,,,,,,,,,,,,,,,,,,,,,,,,,,,,,,,,,,,,,,,,,,,,,,,1,3,63,54,1,N,M,C,o1_image,stimuli/out1.png,stimuli/correct_out1.png,stimuli/out2.png,,,,,,,,,,,,,,,,,,,,,,,,,,,,,,,,,,,,,,
,,5d9b4e21b56c51035c35cb3d,49,male,2024-04-24_11h31.57.157,stockport_simplified,2022.2.4,Win32,60.0240096,661e456ee6de07e70aa9ef7b,6628df87be58904555d86461,,,,,,,,,,,,,,,,,,,,,,,,,,,,,,,,,,445.729,448.328,"[2,6,4,8,5,3,7,1]","[[-0.3,0.2],[0.3,0.2]]","[[-0.125,-0.2],[0.125,-0.2]]",-0.092592593,-0.184027778,1,0,0,2.083,o1_image,448.331,0,448.827,448.827,450.828,0,0,0,0,1,,,,,,,,,,,,,,,,,,,,,,,,,,,,,,,,,,,,,,,,,,,,,,,,,,
,,5d9b4e21b56c51035c35cb3d,49,male,2024-04-24_11h31.57.157,stockport_simplified,2022.2.4,Win32,60.0240096,661e456ee6de07e70aa9ef7b,6628df87be58904555d86461,,,,,,,,,,,,,,,,,,,,,,,,,,,,,,,,,,,,,,,,,,,,,,,,,,,,,,,,1,4,64,45,1,B,Y,N,o2_image,stimuli/out2.png,stimuli/out1.png,stimuli/correct_out2.png,,,,,,,,,,,,,,,,,,,,,,,,,,,,,,,,,,,,,,
,,5d9b4e21b56c51035c35cb3d,49,male,2024-04-24_11h31.57.157,stockport_simplified,2022.2.4,Win32,60.0240096,661e456ee6de07e70aa9ef7b,6628df87be58904555d86461,,,,,,,,,,,,,,,,,,,,,,,,,,,,,,,,,,450.829,452.961,"[2,6,4,8,5,3,7,1]","[[0.3,0.2],[-0.3,0.2]]","[[0.125,-0.2],[-0.125,-0.2]]",-0.092592593,-0.184027778,1,0,0,1.616,o2_image,452.965,0,453.461,453.461,455.461,0,0,0,0,1,,,,,,,,,,,,,,,,,,,,,,,,,,,,,,,,,,,,,,,,,,,,,,,,,,
,,5d9b4e21b56c51035c35cb3d,49,male,2024-04-24_11h31.57.157,stockport_simplified,2022.2.4,Win32,60.0240096,661e456ee6de07e70aa9ef7b,6628df87be58904555d86461,,,,,,,,,,,,,,,,,,,,,,,,,,,,,,,,,,,,,,,,,,,,,,,,,,,,,,,,1,5,65,0,1,A,X,N,o1_image,stimuli/out1.png,stimuli/correct_out1.png,stimuli/out2.png,,,,,,,,,,,,,,,,,,,,,,,,,,,,,,,,,,,,,,
,,5d9b4e21b56c51035c35cb3d,49,male,2024-04-24_11h31.57.157,stockport_simplified,2022.2.4,Win32,60.0240096,661e456ee6de07e70aa9ef7b,6628df87be58904555d86461,,,,,,,,,,,,,,,,,,,,,,,,,,,,,,,,,,455.462,457.744,"[2,6,4,8,5,3,7,1]","[[-0.3,0.2],[0.3,0.2]]","[[-0.125,-0.2],[0.125,-0.2]]",-0.076388889,-0.194444444,1,0,0,1.765,o1_image,457.746,0,458.244,458.244,460.244,0,0,0,0,1,,,,,,,,,,,,,,,,,,,,,,,,,,,,,,,,,,,,,,,,,,,,,,,,,,
,,5d9b4e21b56c51035c35cb3d,49,male,2024-04-24_11h31.57.157,stockport_simplified,2022.2.4,Win32,60.0240096,661e456ee6de07e70aa9ef7b,6628df87be58904555d86461,,,,,,,,,,,,,,,,,,,,,,,,,,,,,,,,,,,,,,,,,,,,,,,,,,,,,,,,1,6,66,48,1,B,Y,N,o2_image,stimuli/out2.png,stimuli/out1.png,stimuli/correct_out2.png,,,,,,,,,,,,,,,,,,,,,,,,,,,,,,,,,,,,,,
,,5d9b4e21b56c51035c35cb3d,49,male,2024-04-24_11h31.57.157,stockport_simplified,2022.2.4,Win32,60.0240096,661e456ee6de07e70aa9ef7b,6628df87be58904555d86461,,,,,,,,,,,,,,,,,,,,,,,,,,,,,,,,,,460.244,461.98,"[2,6,4,8,5,3,7,1]","[[-0.3,0.2],[0.3,0.2]]","[[0.125,-0.2],[-0.125,-0.2]]",-0.075231481,-0.190972222,1,0,0,1.235,o2_image,461.982,1,462.478,462.478,464.478,0,0,0,0,1,,,,,,,,,,,,,,,,,,,,,,,,,,,,,,,,,,,,,,,,,,,,,,,,,,
,,5d9b4e21b56c51035c35cb3d,49,male,2024-04-24_11h31.57.157,stockport_simplified,2022.2.4,Win32,60.0240096,661e456ee6de07e70aa9ef7b,6628df87be58904555d86461,,,,,,,,,,,,,,,,,,,,,,,,,,,,,,,,,,,,,,,,,,,,,,,,,,,,,,,,1,7,67,55,1,N,M,D,o2_image,stimuli/out2.png,stimuli/out1.png,stimuli/correct_out2.png,,,,,,,,,,,,,,,,,,,,,,,,,,,,,,,,,,,,,,
,,5d9b4e21b56c51035c35cb3d,49,male,2024-04-24_11h31.57.157,stockport_simplified,2022.2.4,Win32,60.0240096,661e456ee6de07e70aa9ef7b,6628df87be58904555d86461,,,,,,,,,,,,,,,,,,,,,,,,,,,,,,,,,,464.479,466.63,"[2,6,4,8,5,3,7,1]","[[-0.3,0.2],[0.3,0.2]]","[[0.125,-0.2],[-0.125,-0.2]]",0.0625,-0.1875,1,0,0,1.632,o1_image,466.637,0,467.128,467.128,469.127,0,0,0,0,1,,,,,,,,,,,,,,,,,,,,,,,,,,,,,,,,,,,,,,,,,,,,,,,,,,
,,5d9b4e21b56c51035c35cb3d,49,male,2024-04-24_11h31.57.157,stockport_simplified,2022.2.4,Win32,60.0240096,661e456ee6de07e70aa9ef7b,6628df87be58904555d86461,,,,,,,,,,,,,,,,,,,,,,,,,,,,,,,,,,,,,,,,,,,,,,,,,,,,,,,,1,8,68,14,1,B,X,N,o2_image,stimuli/out2.png,stimuli/out1.png,stimuli/correct_out2.png,,,,,,,,,,,,,,,,,,,,,,,,,,,,,,,,,,,,,,
,,5d9b4e21b56c51035c35cb3d,49,male,2024-04-24_11h31.57.157,stockport_simplified,2022.2.4,Win32,60.0240096,661e456ee6de07e70aa9ef7b,6628df87be58904555d86461,,,,,,,,,,,,,,,,,,,,,,,,,,,,,,,,,,469.128,471.095,"[2,6,4,8,5,3,7,1]","[[-0.3,0.2],[0.3,0.2]]","[[0.125,-0.2],[-0.125,-0.2]]",0.086805556,-0.18287037,1,0,0,1.447,o1_image,471.097,1,471.595,471.595,473.595,0,0,0,0,1,,,,,,,,,,,,,,,,,,,,,,,,,,,,,,,,,,,,,,,,,,,,,,,,,,
,,5d9b4e21b56c51035c35cb3d,49,male,2024-04-24_11h31.57.157,stockport_simplified,2022.2.4,Win32,60.0240096,661e456ee6de07e70aa9ef7b,6628df87be58904555d86461,,,,,,,,,,,,,,,,,,,,,,,,,,,,,,,,,,,,,,,,,,,,,,,,,,,,,,,,1,9,69,52,1,N,M,C,o1_image,stimuli/out1.png,stimuli/correct_out1.png,stimuli/out2.png,,,,,,,,,,,,,,,,,,,,,,,,,,,,,,,,,,,,,,
,,5d9b4e21b56c51035c35cb3d,49,male,2024-04-24_11h31.57.157,stockport_simplified,2022.2.4,Win32,60.0240096,661e456ee6de07e70aa9ef7b,6628df87be58904555d86461,,,,,,,,,,,,,,,,,,,,,,,,,,,,,,,,,,473.596,477.06,"[2,6,4,8,5,3,7,1]","[[-0.3,0.2],[0.3,0.2]]","[[0.125,-0.2],[-0.125,-0.2]]",-0.042824074,-0.1875,1,0,0,2.432,o2_image,477.062,0,477.561,477.561,479.55,0,0,0,0,1,,,,,,,,,,,,,,,,,,,,,,,,,,,,,,,,,,,,,,,,,,,,,,,,,,
,,5d9b4e21b56c51035c35cb3d,49,male,2024-04-24_11h31.57.157,stockport_simplified,2022.2.4,Win32,60.0240096,661e456ee6de07e70aa9ef7b,6628df87be58904555d86461,,,,,,,,,,,,,,,,,,,,,,,,,,,,,,,,,,,,,,,,,,,,,,,,,,,,,,,,1,10,70,37,1,A,Y,N,o1_image,stimuli/out1.png,stimuli/correct_out1.png,stimuli/out2.png,,,,,,,,,,,,,,,,,,,,,,,,,,,,,,,,,,,,,,
,,5d9b4e21b56c51035c35cb3d,49,male,2024-04-24_11h31.57.157,stockport_simplified,2022.2.4,Win32,60.0240096,661e456ee6de07e70aa9ef7b,6628df87be58904555d86461,,,,,,,,,,,,,,,,,,,,,,,,,,,,,,,,,,479.552,481.513,"[2,6,4,8,5,3,7,1]","[[-0.3,0.2],[0.3,0.2]]","[[-0.125,-0.2],[0.125,-0.2]]",-0.100694444,-0.199074074,1,0,0,1.45,o1_image,481.515,0,482.011,482.011,484.011,0,0,0,0,1,,,,,,,,,,,,,,,,,,,,,,,,,,,,,,,,,,,,,,,,,,,,,,,,,,
,,5d9b4e21b56c51035c35cb3d,49,male,2024-04-24_11h31.57.157,stockport_simplified,2022.2.4,Win32,60.0240096,661e456ee6de07e70aa9ef7b,6628df87be58904555d86461,,,,,,,,,,,,,,,,,,,,,,,,,,,,,,,,,,,,,,,,,,,,,,,,,,,,,,,,1,11,71,19,1,B,Y,N,o2_image,stimuli/out2.png,stimuli/out1.png,stimuli/correct_out2.png,,,,,,,,,,,,,,,,,,,,,,,,,,,,,,,,,,,,,,
,,5d9b4e21b56c51035c35cb3d,49,male,2024-04-24_11h31.57.157,stockport_simplified,2022.2.4,Win32,60.0240096,661e456ee6de07e70aa9ef7b,6628df87be58904555d86461,,,,,,,,,,,,,,,,,,,,,,,,,,,,,,,,,,484.011,486.028,"[2,6,4,8,5,3,7,1]","[[-0.3,0.2],[0.3,0.2]]","[[-0.125,-0.2],[0.125,-0.2]]",0.072916667,-0.189814815,1,0,0,1.499,o2_image,486.031,1,486.528,486.528,488.528,0,0,0,0,1,,,,,,,,,,,,,,,,,,,,,,,,,,,,,,,,,,,,,,,,,,,,,,,,,,
,,5d9b4e21b56c51035c35cb3d,49,male,2024-04-24_11h31.57.157,stockport_simplified,2022.2.4,Win32,60.0240096,661e456ee6de07e70aa9ef7b,6628df87be58904555d86461,,,,,,,,,,,,,,,,,,,,,,,,,,,,,,,,,,,,,,,,,,,,,,,,,,,,,,,,1,12,72,27,1,N,M,D,o2_image,stimuli/out2.png,stimuli/out1.png,stimuli/correct_out2.png,,,,,,,,,,,,,,,,,,,,,,,,,,,,,,,,,,,,,,
,,5d9b4e21b56c51035c35cb3d,49,male,2024-04-24_11h31.57.157,stockport_simplified,2022.2.4,Win32,60.0240096,661e456ee6de07e70aa9ef7b,6628df87be58904555d86461,,,,,,,,,,,,,,,,,,,,,,,,,,,,,,,,,,488.529,490.561,"[2,6,4,8,5,3,7,1]","[[-0.3,0.2],[0.3,0.2]]","[[-0.125,-0.2],[0.125,-0.2]]",0.072916667,-0.189814815,1,0,0,1.516,o2_image,490.564,0,491.061,491.061,493.063,0,0,0,0,1,,,,,,,,,,,,,,,,,,,,,,,,,,,,,,,,,,,,,,,,,,,,,,,,,,
,,5d9b4e21b56c51035c35cb3d,49,male,2024-04-24_11h31.57.157,stockport_simplified,2022.2.4,Win32,60.0240096,661e456ee6de07e70aa9ef7b,6628df87be58904555d86461,,,,,,,,,,,,,,,,,,,,,,,,,,,,,,,,,,,,,,,,,,,,,,,,,,,,,,,,1,13,73,5,1,A,Y,N,o1_image,stimuli/out1.png,stimuli/correct_out1.png,stimuli/out2.png,,,,,,,,,,,,,,,,,,,,,,,,,,,,,,,,,,,,,,
,,5d9b4e21b56c51035c35cb3d,49,male,2024-04-24_11h31.57.157,stockport_simplified,2022.2.4,Win32,60.0240096,661e456ee6de07e70aa9ef7b,6628df87be58904555d86461,,,,,,,,,,,,,,,,,,,,,,,,,,,,,,,,,,493.064,495.162,"[2,6,4,8,5,3,7,1]","[[-0.3,0.2],[0.3,0.2]]","[[0.125,-0.2],[-0.125,-0.2]]",0.090277778,-0.19212963,1,0,0,1.583,o1_image,495.167,1,495.661,495.661,497.661,0,0,0,0,1,,,,,,,,,,,,,,,,,,,,,,,,,,,,,,,,,,,,,,,,,,,,,,,,,,
,,5d9b4e21b56c51035c35cb3d,49,male,2024-04-24_11h31.57.157,stockport_simplified,2022.2.4,Win32,60.0240096,661e456ee6de07e70aa9ef7b,6628df87be58904555d86461,,,,,,,,,,,,,,,,,,,,,,,,,,,,,,,,,,,,,,,,,,,,,,,,,,,,,,,,1,14,74,9,1,A,Y,N,o1_image,stimuli/out1.png,stimuli/correct_out1.png,stimuli/out2.png,,,,,,,,,,,,,,,,,,,,,,,,,,,,,,,,,,,,,,
,,5d9b4e21b56c51035c35cb3d,49,male,2024-04-24_11h31.57.157,stockport_simplified,2022.2.4,Win32,60.0240096,661e456ee6de07e70aa9ef7b,6628df87be58904555d86461,,,,,,,,,,,,,,,,,,,,,,,,,,,,,,,,,,497.662,499.394,"[2,6,4,8,5,3,7,1]","[[0.3,0.2],[-0.3,0.2]]","[[-0.125,-0.2],[0.125,-0.2]]",0.119212963,-0.19212963,1,0,0,1.214,o2_image,499.395,1,499.895,499.895,501.895,0,0,0,0,1,,,,,,,,,,,,,,,,,,,,,,,,,,,,,,,,,,,,,,,,,,,,,,,,,,
,,5d9b4e21b56c51035c35cb3d,49,male,2024-04-24_11h31.57.157,stockport_simplified,2022.2.4,Win32,60.0240096,661e456ee6de07e70aa9ef7b,6628df87be58904555d86461,,,,,,,,,,,,,,,,,,,,,,,,,,,,,,,,,,,,,,,,,,,,,,,,,,,,,,,,1,15,75,28,1,N,M,D,o2_image,stimuli/out2.png,stimuli/out1.png,stimuli/correct_out2.png,,,,,,,,,,,,,,,,,,,,,,,,,,,,,,,,,,,,,,
,,5d9b4e21b56c51035c35cb3d,49,male,2024-04-24_11h31.57.157,stockport_simplified,2022.2.4,Win32,60.0240096,661e456ee6de07e70aa9ef7b,6628df87be58904555d86461,,,,,,,,,,,,,,,,,,,,,,,,,,,,,,,,,,501.895,504.794,"[2,6,4,8,5,3,7,1]","[[-0.3,0.2],[0.3,0.2]]","[[-0.125,-0.2],[0.125,-0.2]]",0.118055556,-0.189814815,1,0,0,2.382,o2_image,504.795,1,505.294,505.294,507.295,0,0,0,0,1,,,,,,,,,,,,,,,,,,,,,,,,,,,,,,,,,,,,,,,,,,,,,,,,,,
,,5d9b4e21b56c51035c35cb3d,49,male,2024-04-24_11h31.57.157,stockport_simplified,2022.2.4,Win32,60.0240096,661e456ee6de07e70aa9ef7b,6628df87be58904555d86461,,,,,,,,,,,,,,,,,,,,,,,,,,,,,,,,,,,,,,,,,,,,,,,,,,,,,,,,1,16,76,16,1,B,Y,N,o2_image,stimuli/out2.png,stimuli/out1.png,stimuli/correct_out2.png,,,,,,,,,,,,,,,,,,,,,,,,,,,,,,,,,,,,,,
,,5d9b4e21b56c51035c35cb3d,49,male,2024-04-24_11h31.57.157,stockport_simplified,2022.2.4,Win32,60.0240096,661e456ee6de07e70aa9ef7b,6628df87be58904555d86461,,,,,,,,,,,,,,,,,,,,,,,,,,,,,,,,,,507.295,509.428,"[2,6,4,8,5,3,7,1]","[[0.3,0.2],[-0.3,0.2]]","[[0.125,-0.2],[-0.125,-0.2]]",0.150462963,-0.19212963,1,0,0,1.616,o1_image,509.429,0,509.928,509.928,511.928,0,0,0,0,1,,,,,,,,,,,,,,,,,,,,,,,,,,,,,,,,,,,,,,,,,,,,,,,,,,
,,5d9b4e21b56c51035c35cb3d,49,male,2024-04-24_11h31.57.157,stockport_simplified,2022.2.4,Win32,60.0240096,661e456ee6de07e70aa9ef7b,6628df87be58904555d86461,,,,,,,,,,,,,,,,,,,,,,,,,,,,,,,,,,,,,,,,,,,,,,,,,,,,,,,,1,17,77,15,1,B,Y,N,o2_image,stimuli/out2.png,stimuli/out1.png,stimuli/correct_out2.png,,,,,,,,,,,,,,,,,,,,,,,,,,,,,,,,,,,,,,
,,5d9b4e21b56c51035c35cb3d,49,male,2024-04-24_11h31.57.157,stockport_simplified,2022.2.4,Win32,60.0240096,661e456ee6de07e70aa9ef7b,6628df87be58904555d86461,,,,,,,,,,,,,,,,,,,,,,,,,,,,,,,,,,511.929,514.043,"[2,6,4,8,5,3,7,1]","[[-0.3,0.2],[0.3,0.2]]","[[-0.125,-0.2],[0.125,-0.2]]",0.121527778,-0.189814815,1,0,0,1.598,o2_image,514.045,1,514.544,514.544,516.545,0,0,0,0,1,,,,,,,,,,,,,,,,,,,,,,,,,,,,,,,,,,,,,,,,,,,,,,,,,,
,,5d9b4e21b56c51035c35cb3d,49,male,2024-04-24_11h31.57.157,stockport_simplified,2022.2.4,Win32,60.0240096,661e456ee6de07e70aa9ef7b,6628df87be58904555d86461,,,,,,,,,,,,,,,,,,,,,,,,,,,,,,,,,,,,,,,,,,,,,,,,,,,,,,,,1,18,78,10,1,B,X,N,o2_image,stimuli/out2.png,stimuli/out1.png,stimuli/correct_out2.png,,,,,,,,,,,,,,,,,,,,,,,,,,,,,,,,,,,,,,
,,5d9b4e21b56c51035c35cb3d,49,male,2024-04-24_11h31.57.157,stockport_simplified,2022.2.4,Win32,60.0240096,661e456ee6de07e70aa9ef7b,6628df87be58904555d86461,,,,,,,,,,,,,,,,,,,,,,,,,,,,,,,,,,516.545,518.585,"[2,6,4,8,5,3,7,1]","[[0.3,0.2],[-0.3,0.2]]","[[0.125,-0.2],[-0.125,-0.2]]",0.107638889,-0.190972222,1,0,0,1.524,o1_image,518.586,1,519.078,519.078,521.078,0,0,0,0,1,,,,,,,,,,,,,,,,,,,,,,,,,,,,,,,,,,,,,,,,,,,,,,,,,,
,,5d9b4e21b56c51035c35cb3d,49,male,2024-04-24_11h31.57.157,stockport_simplified,2022.2.4,Win32,60.0240096,661e456ee6de07e70aa9ef7b,6628df87be58904555d86461,,,,,,,,,,,,,,,,,,,,,,,,,,,,,,,,,,,,,,,,,,,,,,,,,,,,,,,,1,19,79,31,1,A,X,N,o1_image,stimuli/out1.png,stimuli/correct_out1.png,stimuli/out2.png,,,,,,,,,,,,,,,,,,,,,,,,,,,,,,,,,,,,,,
,,5d9b4e21b56c51035c35cb3d,49,male,2024-04-24_11h31.57.157,stockport_simplified,2022.2.4,Win32,60.0240096,661e456ee6de07e70aa9ef7b,6628df87be58904555d86461,,,,,,,,,,,,,,,,,,,,,,,,,,,,,,,,,,521.078,524.328,"[2,6,4,8,5,3,7,1]","[[-0.3,0.2],[0.3,0.2]]","[[-0.125,-0.2],[0.125,-0.2]]",-0.09837963,-0.206018519,1,0,0,2.734,o1_image,524.329,0,524.828,524.829,526.828,0,0,0,0,1,,,,,,,,,,,,,,,,,,,,,,,,,,,,,,,,,,,,,,,,,,,,,,,,,,
,,5d9b4e21b56c51035c35cb3d,49,male,2024-04-24_11h31.57.157,stockport_simplified,2022.2.4,Win32,60.0240096,661e456ee6de07e70aa9ef7b,6628df87be58904555d86461,,,,,,,,,,,,,,,,,,,,,,,,,,,,,,,,,,,,,,,,,,,,,,,,,,,,,,,,1,20,80,49,1,B,Y,N,o2_image,stimuli/out2.png,stimuli/out1.png,stimuli/correct_out2.png,,,,,,,,,,,,,,,,,,,,,,,,,,,,,,,,,,,,,,
,,5d9b4e21b56c51035c35cb3d,49,male,2024-04-24_11h31.57.157,stockport_simplified,2022.2.4,Win32,60.0240096,661e456ee6de07e70aa9ef7b,6628df87be58904555d86461,,,,,,,,,,,,,,,,,,,,,,,,,,,,,,,,,,526.833,528.579,"[2,6,4,8,5,3,7,1]","[[0.3,0.2],[-0.3,0.2]]","[[0.125,-0.2],[-0.125,-0.2]]",0.12037037,-0.196759259,1,0,0,1.231,o1_image,528.583,1,529.078,529.078,531.078,0,0,0,0,1,,,,,,,,,,,,,,,,,,,,,,,,,,,,,,,,,,,,,,,,,,,,,,,,,,
,,5d9b4e21b56c51035c35cb3d,49,male,2024-04-24_11h31.57.157,stockport_simplified,2022.2.4,Win32,60.0240096,661e456ee6de07e70aa9ef7b,6628df87be58904555d86461,,,,,,,,,,,,,,,,,,,,,,,,,,,,,,,,,,,,,,,,,,,,,,,,,,,,,,,,1,21,81,21,1,N,M,C,o1_image,stimuli/out1.png,stimuli/correct_out1.png,stimuli/out2.png,,,,,,,,,,,,,,,,,,,,,,,,,,,,,,,,,,,,,,
,,5d9b4e21b56c51035c35cb3d,49,male,2024-04-24_11h31.57.157,stockport_simplified,2022.2.4,Win32,60.0240096,661e456ee6de07e70aa9ef7b,6628df87be58904555d86461,,,,,,,,,,,,,,,,,,,,,,,,,,,,,,,,,,531.08,532.611,"[2,6,4,8,5,3,7,1]","[[-0.3,0.2],[0.3,0.2]]","[[0.125,-0.2],[-0.125,-0.2]]",-0.053240741,-0.229166667,1,0,0,1.016,o2_image,532.613,1,533.11,533.11,535.112,0,0,0,0,1,,,,,,,,,,,,,,,,,,,,,,,,,,,,,,,,,,,,,,,,,,,,,,,,,,
,,5d9b4e21b56c51035c35cb3d,49,male,2024-04-24_11h31.57.157,stockport_simplified,2022.2.4,Win32,60.0240096,661e456ee6de07e70aa9ef7b,6628df87be58904555d86461,,,,,,,,,,,,,,,,,,,,,,,,,,,,,,,,,,,,,,,,,,,,,,,,,,,,,,,,1,22,82,25,1,N,M,D,o2_image,stimuli/out2.png,stimuli/out1.png,stimuli/correct_out2.png,,,,,,,,,,,,,,,,,,,,,,,,,,,,,,,,,,,,,,
,,5d9b4e21b56c51035c35cb3d,49,male,2024-04-24_11h31.57.157,stockport_simplified,2022.2.4,Win32,60.0240096,661e456ee6de07e70aa9ef7b,6628df87be58904555d86461,,,,,,,,,,,,,,,,,,,,,,,,,,,,,,,,,,535.112,537.811,"[2,6,4,8,5,3,7,1]","[[0.3,0.2],[-0.3,0.2]]","[[0.125,-0.2],[-0.125,-0.2]]",0.042824074,-0.206018519,1,0,0,1.669,o1_image,537.812,0,538.31,538.311,540.311,0,0,0,0,1,,,,,,,,,,,,,,,,,,,,,,,,,,,,,,,,,,,,,,,,,,,,,,,,,,
,,5d9b4e21b56c51035c35cb3d,49,male,2024-04-24_11h31.57.157,stockport_simplified,2022.2.4,Win32,60.0240096,661e456ee6de07e70aa9ef7b,6628df87be58904555d86461,,,,,,,,,,,,,,,,,,,,,,,,,,,,,,,,,,,,,,,,,,,,,,,,,,,,,,,,1,23,83,18,1,B,Y,N,o2_image,stimuli/out2.png,stimuli/out1.png,stimuli/correct_out2.png,,,,,,,,,,,,,,,,,,,,,,,,,,,,,,,,,,,,,,
,,5d9b4e21b56c51035c35cb3d,49,male,2024-04-24_11h31.57.157,stockport_simplified,2022.2.4,Win32,60.0240096,661e456ee6de07e70aa9ef7b,6628df87be58904555d86461,,,,,,,,,,,,,,,,,,,,,,,,,,,,,,,,,,540.312,542.297,"[2,6,4,8,5,3,7,1]","[[0.3,0.2],[-0.3,0.2]]","[[0.125,-0.2],[-0.125,-0.2]]",0.109953704,-0.197916667,1,0,0,1.469,o1_image,542.299,1,542.795,542.795,544.794,0,0,0,0,1,,,,,,,,,,,,,,,,,,,,,,,,,,,,,,,,,,,,,,,,,,,,,,,,,,
,,5d9b4e21b56c51035c35cb3d,49,male,2024-04-24_11h31.57.157,stockport_simplified,2022.2.4,Win32,60.0240096,661e456ee6de07e70aa9ef7b,6628df87be58904555d86461,,,,,,,,,,,,,,,,,,,,,,,,,,,,,,,,,,,,,,,,,,,,,,,,,,,,,,,,1,24,84,8,1,A,Y,N,o1_image,stimuli/out1.png,stimuli/correct_out1.png,stimuli/out2.png,,,,,,,,,,,,,,,,,,,,,,,,,,,,,,,,,,,,,,
,,5d9b4e21b56c51035c35cb3d,49,male,2024-04-24_11h31.57.157,stockport_simplified,2022.2.4,Win32,60.0240096,661e456ee6de07e70aa9ef7b,6628df87be58904555d86461,,,,,,,,,,,,,,,,,,,,,,,,,,,,,,,,,,544.794,546.762,"[2,6,4,8,5,3,7,1]","[[0.3,0.2],[-0.3,0.2]]","[[0.125,-0.2],[-0.125,-0.2]]",0.194444444,-0.207175926,1,0,0,1.468,o1_image,546.764,1,547.261,547.261,549.261,0,0,0,0,1,,,,,,,,,,,,,,,,,,,,,,,,,,,,,,,,,,,,,,,,,,,,,,,,,,
,,5d9b4e21b56c51035c35cb3d,49,male,2024-04-24_11h31.57.157,stockport_simplified,2022.2.4,Win32,60.0240096,661e456ee6de07e70aa9ef7b,6628df87be58904555d86461,,,,,,,,,,,,,,,,,,,,,,,,,,,,,,,,,,,,,,,,,,,,,,,,,,,,,,,,1,25,85,4,1,A,X,N,o1_image,stimuli/out1.png,stimuli/correct_out1.png,stimuli/out2.png,,,,,,,,,,,,,,,,,,,,,,,,,,,,,,,,,,,,,,
,,5d9b4e21b56c51035c35cb3d,49,male,2024-04-24_11h31.57.157,stockport_simplified,2022.2.4,Win32,60.0240096,661e456ee6de07e70aa9ef7b,6628df87be58904555d86461,,,,,,,,,,,,,,,,,,,,,,,,,,,,,,,,,,549.262,551.179,"[2,6,4,8,5,3,7,1]","[[-0.3,0.2],[0.3,0.2]]","[[0.125,-0.2],[-0.125,-0.2]]",-0.128472222,-0.18287037,1,0,0,1.401,o2_image,551.181,1,551.677,551.677,553.677,0,0,0,0,1,,,,,,,,,,,,,,,,,,,,,,,,,,,,,,,,,,,,,,,,,,,,,,,,,,
,,5d9b4e21b56c51035c35cb3d,49,male,2024-04-24_11h31.57.157,stockport_simplified,2022.2.4,Win32,60.0240096,661e456ee6de07e70aa9ef7b,6628df87be58904555d86461,,,,,,,,,,,,,,,,,,,,,,,,,,,,,,,,,,,,,,,,,,,,,,,,,,,,,,,,1,26,86,58,1,N,M,D,o2_image,stimuli/out2.png,stimuli/out1.png,stimuli/correct_out2.png,,,,,,,,,,,,,,,,,,,,,,,,,,,,,,,,,,,,,,
,,5d9b4e21b56c51035c35cb3d,49,male,2024-04-24_11h31.57.157,stockport_simplified,2022.2.4,Win32,60.0240096,661e456ee6de07e70aa9ef7b,6628df87be58904555d86461,,,,,,,,,,,,,,,,,,,,,,,,,,,,,,,,,,553.678,555.361,"[2,6,4,8,5,3,7,1]","[[-0.3,0.2],[0.3,0.2]]","[[0.125,-0.2],[-0.125,-0.2]]",-0.101851852,-0.201388889,1,0,0,1.167,o2_image,555.362,1,555.861,555.861,557.861,0,0,0,0,1,,,,,,,,,,,,,,,,,,,,,,,,,,,,,,,,,,,,,,,,,,,,,,,,,,
,,5d9b4e21b56c51035c35cb3d,49,male,2024-04-24_11h31.57.157,stockport_simplified,2022.2.4,Win32,60.0240096,661e456ee6de07e70aa9ef7b,6628df87be58904555d86461,,,,,,,,,,,,,,,,,,,,,,,,,,,,,,,,,,,,,,,,,,,,,,,,,,,,,,,,1,27,87,56,1,N,M,D,o2_image,stimuli/out2.png,stimuli/out1.png,stimuli/correct_out2.png,,,,,,,,,,,,,,,,,,,,,,,,,,,,,,,,,,,,,,
,,5d9b4e21b56c51035c35cb3d,49,male,2024-04-24_11h31.57.157,stockport_simplified,2022.2.4,Win32,60.0240096,661e456ee6de07e70aa9ef7b,6628df87be58904555d86461,,,,,,,,,,,,,,,,,,,,,,,,,,,,,,,,,,557.861,560.178,"[2,6,4,8,5,3,7,1]","[[0.3,0.2],[-0.3,0.2]]","[[-0.125,-0.2],[0.125,-0.2]]",-0.059027778,-0.21875,1,0,0,1.799,o1_image,560.18,1,560.678,560.678,562.679,0,0,0,0,1,,,,,,,,,,,,,,,,,,,,,,,,,,,,,,,,,,,,,,,,,,,,,,,,,,
,,5d9b4e21b56c51035c35cb3d,49,male,2024-04-24_11h31.57.157,stockport_simplified,2022.2.4,Win32,60.0240096,661e456ee6de07e70aa9ef7b,6628df87be58904555d86461,,,,,,,,,,,,,,,,,,,,,,,,,,,,,,,,,,,,,,,,,,,,,,,,,,,,,,,,1,28,88,24,1,N,M,C,o1_image,stimuli/out1.png,stimuli/correct_out1.png,stimuli/out2.png,,,,,,,,,,,,,,,,,,,,,,,,,,,,,,,,,,,,,,
,,5d9b4e21b56c51035c35cb3d,49,male,2024-04-24_11h31.57.157,stockport_simplified,2022.2.4,Win32,60.0240096,661e456ee6de07e70aa9ef7b,6628df87be58904555d86461,,,,,,,,,,,,,,,,,,,,,,,,,,,,,,,,,,562.683,564.595,"[2,6,4,8,5,3,7,1]","[[-0.3,0.2],[0.3,0.2]]","[[0.125,-0.2],[-0.125,-0.2]]",0.12037037,-0.219907407,1,0,0,1.396,o1_image,564.6,1,565.095,565.095,567.094,0,0,0,0,1,,,,,,,,,,,,,,,,,,,,,,,,,,,,,,,,,,,,,,,,,,,,,,,,,,
,,5d9b4e21b56c51035c35cb3d,49,male,2024-04-24_11h31.57.157,stockport_simplified,2022.2.4,Win32,60.0240096,661e456ee6de07e70aa9ef7b,6628df87be58904555d86461,,,,,,,,,,,,,,,,,,,,,,,,,,,,,,,,,,,,,,,,,,,,,,,,,,,,,,,,1,29,89,33,1,A,X,N,o1_image,stimuli/out1.png,stimuli/correct_out1.png,stimuli/out2.png,,,,,,,,,,,,,,,,,,,,,,,,,,,,,,,,,,,,,,
,,5d9b4e21b56c51035c35cb3d,49,male,2024-04-24_11h31.57.157,stockport_simplified,2022.2.4,Win32,60.0240096,661e456ee6de07e70aa9ef7b,6628df87be58904555d86461,,,,,,,,,,,,,,,,,,,,,,,,,,,,,,,,,,567.095,569.227,"[2,6,4,8,5,3,7,1]","[[0.3,0.2],[-0.3,0.2]]","[[-0.125,-0.2],[0.125,-0.2]]",0.119212963,-0.209490741,1,0,0,1.616,o2_image,569.23,1,569.727,569.728,571.727,0,0,0,0,1,,,,,,,,,,,,,,,,,,,,,,,,,,,,,,,,,,,,,,,,,,,,,,,,,,
,,5d9b4e21b56c51035c35cb3d,49,male,2024-04-24_11h31.57.157,stockport_simplified,2022.2.4,Win32,60.0240096,661e456ee6de07e70aa9ef7b,6628df87be58904555d86461,,,,,,,,,,,,,,,,,,,,,,,,,,,,,,,,,,,,,,,,,,,,,,,,,,,,,,,,1,30,90,44,1,B,X,N,o2_image,stimuli/out2.png,stimuli/out1.png,stimuli/correct_out2.png,,,,,,,,,,,,,,,,,,,,,,,,,,,,,,,,,,,,,,
,,5d9b4e21b56c51035c35cb3d,49,male,2024-04-24_11h31.57.157,stockport_simplified,2022.2.4,Win32,60.0240096,661e456ee6de07e70aa9ef7b,6628df87be58904555d86461,,,,,,,,,,,,,,,,,,,,,,,,,,,,,,,,,,571.728,574.51,"[2,6,4,8,5,3,7,1]","[[0.3,0.2],[-0.3,0.2]]","[[0.125,-0.2],[-0.125,-0.2]]",0.152777778,-0.209490741,1,0,0,2.281,o1_image,574.513,1,575.011,575.011,577.011,0,0,0,0,1,,,,,,,,,,,,,,,,,,,,,,,,,,,,,,,,,,,,,,,,,,,,,,,,,,
,,5d9b4e21b56c51035c35cb3d,49,male,2024-04-24_11h31.57.157,stockport_simplified,2022.2.4,Win32,60.0240096,661e456ee6de07e70aa9ef7b,6628df87be58904555d86461,,,,,,,,,,,,,,,,,,,,,,,,,,,,,,,,,,,,,,,,,,,,,,,,,,,,,,,,1,31,91,20,1,N,M,C,o1_image,stimuli/out1.png,stimuli/correct_out1.png,stimuli/out2.png,,,,,,,,,,,,,,,,,,,,,,,,,,,,,,,,,,,,,,
,,5d9b4e21b56c51035c35cb3d,49,male,2024-04-24_11h31.57.157,stockport_simplified,2022.2.4,Win32,60.0240096,661e456ee6de07e70aa9ef7b,6628df87be58904555d86461,,,,,,,,,,,,,,,,,,,,,,,,,,,,,,,,,,577.011,579.061,"[2,6,4,8,5,3,7,1]","[[0.3,0.2],[-0.3,0.2]]","[[-0.125,-0.2],[0.125,-0.2]]",-0.094907407,-0.185185185,1,0,0,1.533,o1_image,579.063,1,579.561,579.561,581.561,0,0,0,0,1,,,,,,,,,,,,,,,,,,,,,,,,,,,,,,,,,,,,,,,,,,,,,,,,,,
,,5d9b4e21b56c51035c35cb3d,49,male,2024-04-24_11h31.57.157,stockport_simplified,2022.2.4,Win32,60.0240096,661e456ee6de07e70aa9ef7b,6628df87be58904555d86461,,,,,,,,,,,,,,,,,,,,,,,,,,,,,,,,,,,,,,,,,,,,,,,,,,,,,,,,1,32,92,39,1,A,Y,N,o1_image,stimuli/out1.png,stimuli/correct_out1.png,stimuli/out2.png,,,,,,,,,,,,,,,,,,,,,,,,,,,,,,,,,,,,,,
,,5d9b4e21b56c51035c35cb3d,49,male,2024-04-24_11h31.57.157,stockport_simplified,2022.2.4,Win32,60.0240096,661e456ee6de07e70aa9ef7b,6628df87be58904555d86461,,,,,,,,,,,,,,,,,,,,,,,,,,,,,,,,,,581.561,583.227,"[2,6,4,8,5,3,7,1]","[[0.3,0.2],[-0.3,0.2]]","[[-0.125,-0.2],[0.125,-0.2]]",0.107638889,-0.190972222,1,0,0,1.149,o2_image,583.229,1,583.727,583.727,585.719,0,0,0,0,1,,,,,,,,,,,,,,,,,,,,,,,,,,,,,,,,,,,,,,,,,,,,,,,,,,
,,5d9b4e21b56c51035c35cb3d,49,male,2024-04-24_11h31.57.157,stockport_simplified,2022.2.4,Win32,60.0240096,661e456ee6de07e70aa9ef7b,6628df87be58904555d86461,,,,,,,,,,,,,,,,,,,,,,,,,,,,,,,,,,,,,,,,,,,,,,,,,,,,,,,,1,33,93,57,1,N,M,D,o2_image,stimuli/out2.png,stimuli/out1.png,stimuli/correct_out2.png,,,,,,,,,,,,,,,,,,,,,,,,,,,,,,,,,,,,,,
,,5d9b4e21b56c51035c35cb3d,49,male,2024-04-24_11h31.57.157,stockport_simplified,2022.2.4,Win32,60.0240096,661e456ee6de07e70aa9ef7b,6628df87be58904555d86461,,,,,,,,,,,,,,,,,,,,,,,,,,,,,,,,,,585.72,587.81,"[2,6,4,8,5,3,7,1]","[[0.3,0.2],[-0.3,0.2]]","[[0.125,-0.2],[-0.125,-0.2]]",0.130787037,-0.19212963,1,0,0,1.582,o1_image,587.813,0,588.31,588.31,590.314,0,0,0,0,1,,,,,,,,,,,,,,,,,,,,,,,,,,,,,,,,,,,,,,,,,,,,,,,,,,
,,5d9b4e21b56c51035c35cb3d,49,male,2024-04-24_11h31.57.157,stockport_simplified,2022.2.4,Win32,60.0240096,661e456ee6de07e70aa9ef7b,6628df87be58904555d86461,,,,,,,,,,,,,,,,,,,,,,,,,,,,,,,,,,,,,,,,,,,,,,,,,,,,,,,,1,34,94,47,1,B,Y,N,o2_image,stimuli/out2.png,stimuli/out1.png,stimuli/correct_out2.png,,,,,,,,,,,,,,,,,,,,,,,,,,,,,,,,,,,,,,
,,5d9b4e21b56c51035c35cb3d,49,male,2024-04-24_11h31.57.157,stockport_simplified,2022.2.4,Win32,60.0240096,661e456ee6de07e70aa9ef7b,6628df87be58904555d86461,,,,,,,,,,,,,,,,,,,,,,,,,,,,,,,,,,590.314,592.144,"[2,6,4,8,5,3,7,1]","[[-0.3,0.2],[0.3,0.2]]","[[0.125,-0.2],[-0.125,-0.2]]",-0.121527778,-0.171296296,1,0,0,1.316,o2_image,592.145,1,592.634,592.634,594.628,0,0,0,0,1,,,,,,,,,,,,,,,,,,,,,,,,,,,,,,,,,,,,,,,,,,,,,,,,,,
,,5d9b4e21b56c51035c35cb3d,49,male,2024-04-24_11h31.57.157,stockport_simplified,2022.2.4,Win32,60.0240096,661e456ee6de07e70aa9ef7b,6628df87be58904555d86461,,,,,,,,,,,,,,,,,,,,,,,,,,,,,,,,,,,,,,,,,,,,,,,,,,,,,,,,1,35,95,40,1,B,X,N,o2_image,stimuli/out2.png,stimuli/out1.png,stimuli/correct_out2.png,,,,,,,,,,,,,,,,,,,,,,,,,,,,,,,,,,,,,,
,,5d9b4e21b56c51035c35cb3d,49,male,2024-04-24_11h31.57.157,stockport_simplified,2022.2.4,Win32,60.0240096,661e456ee6de07e70aa9ef7b,6628df87be58904555d86461,,,,,,,,,,,,,,,,,,,,,,,,,,,,,,,,,,594.631,596.179,"[2,6,4,8,5,3,7,1]","[[-0.3,0.2],[0.3,0.2]]","[[0.125,-0.2],[-0.125,-0.2]]",0.146990741,-0.173611111,1,0,0,1.032,o1_image,596.183,1,596.678,596.678,598.678,0,0,0,0,1,,,,,,,,,,,,,,,,,,,,,,,,,,,,,,,,,,,,,,,,,,,,,,,,,,
,,5d9b4e21b56c51035c35cb3d,49,male,2024-04-24_11h31.57.157,stockport_simplified,2022.2.4,Win32,60.0240096,661e456ee6de07e70aa9ef7b,6628df87be58904555d86461,,,,,,,,,,,,,,,,,,,,,,,,,,,,,,,,,,,,,,,,,,,,,,,,,,,,,,,,1,36,96,38,1,A,Y,N,o1_image,stimuli/out1.png,stimuli/correct_out1.png,stimuli/out2.png,,,,,,,,,,,,,,,,,,,,,,,,,,,,,,,,,,,,,,
,,5d9b4e21b56c51035c35cb3d,49,male,2024-04-24_11h31.57.157,stockport_simplified,2022.2.4,Win32,60.0240096,661e456ee6de07e70aa9ef7b,6628df87be58904555d86461,,,,,,,,,,,,,,,,,,,,,,,,,,,,,,,,,,598.678,600.43,"[2,6,4,8,5,3,7,1]","[[-0.3,0.2],[0.3,0.2]]","[[0.125,-0.2],[-0.125,-0.2]]",0.118055556,-0.173611111,1,0,0,1.235,o1_image,600.434,1,600.927,600.928,602.928,0,0,0,0,1,,,,,,,,,,,,,,,,,,,,,,,,,,,,,,,,,,,,,,,,,,,,,,,,,,
,,5d9b4e21b56c51035c35cb3d,49,male,2024-04-24_11h31.57.157,stockport_simplified,2022.2.4,Win32,60.0240096,661e456ee6de07e70aa9ef7b,6628df87be58904555d86461,,,,,,,,,,,,,,,,,,,,,,,,,,,,,,,,,,,,,,,,,,,,,,,,,,,,,,,,1,37,97,2,1,A,X,N,o1_image,stimuli/out1.png,stimuli/correct_out1.png,stimuli/out2.png,,,,,,,,,,,,,,,,,,,,,,,,,,,,,,,,,,,,,,
,,5d9b4e21b56c51035c35cb3d,49,male,2024-04-24_11h31.57.157,stockport_simplified,2022.2.4,Win32,60.0240096,661e456ee6de07e70aa9ef7b,6628df87be58904555d86461,,,,,,,,,,,,,,,,,,,,,,,,,,,,,,,,,,602.928,605.013,"[2,6,4,8,5,3,7,1]","[[-0.3,0.2],[0.3,0.2]]","[[0.125,-0.2],[-0.125,-0.2]]",-0.078703704,-0.194444444,1,0,0,1.568,o2_image,605.016,1,605.511,605.511,607.511,0,0,0,0,1,,,,,,,,,,,,,,,,,,,,,,,,,,,,,,,,,,,,,,,,,,,,,,,,,,
,,5d9b4e21b56c51035c35cb3d,49,male,2024-04-24_11h31.57.157,stockport_simplified,2022.2.4,Win32,60.0240096,661e456ee6de07e70aa9ef7b,6628df87be58904555d86461,,,,,,,,,,,,,,,,,,,,,,,,,,,,,,,,,,,,,,,,,,,,,,,,,,,,,,,,1,38,98,11,1,B,X,N,o2_image,stimuli/out2.png,stimuli/out1.png,stimuli/correct_out2.png,,,,,,,,,,,,,,,,,,,,,,,,,,,,,,,,,,,,,,
,,5d9b4e21b56c51035c35cb3d,49,male,2024-04-24_11h31.57.157,stockport_simplified,2022.2.4,Win32,60.0240096,661e456ee6de07e70aa9ef7b,6628df87be58904555d86461,,,,,,,,,,,,,,,,,,,,,,,,,,,,,,,,,,607.511,609.296,"[2,6,4,8,5,3,7,1]","[[-0.3,0.2],[0.3,0.2]]","[[0.125,-0.2],[-0.125,-0.2]]",-0.072916667,-0.19212963,1,0,0,1.281,o2_image,609.299,1,609.794,609.794,611.794,0,0,0,0,1,,,,,,,,,,,,,,,,,,,,,,,,,,,,,,,,,,,,,,,,,,,,,,,,,,
,,5d9b4e21b56c51035c35cb3d,49,male,2024-04-24_11h31.57.157,stockport_simplified,2022.2.4,Win32,60.0240096,661e456ee6de07e70aa9ef7b,6628df87be58904555d86461,,,,,,,,,,,,,,,,,,,,,,,,,,,,,,,,,,,,,,,,,,,,,,,,,,,,,,,,1,39,99,29,1,N,M,D,o2_image,stimuli/out2.png,stimuli/out1.png,stimuli/correct_out2.png,,,,,,,,,,,,,,,,,,,,,,,,,,,,,,,,,,,,,,
,,5d9b4e21b56c51035c35cb3d,49,male,2024-04-24_11h31.57.157,stockport_simplified,2022.2.4,Win32,60.0240096,661e456ee6de07e70aa9ef7b,6628df87be58904555d86461,,,,,,,,,,,,,,,,,,,,,,,,,,,,,,,,,,611.795,613.811,"[2,6,4,8,5,3,7,1]","[[-0.3,0.2],[0.3,0.2]]","[[0.125,-0.2],[-0.125,-0.2]]",-0.106481481,-0.173611111,1,0,0,1.5,o2_image,613.813,1,614.311,614.311,616.31,0,0,0,0,1,,,,,,,,,,,,,,,,,,,,,,,,,,,,,,,,,,,,,,,,,,,,,,,,,,
,,5d9b4e21b56c51035c35cb3d,49,male,2024-04-24_11h31.57.157,stockport_simplified,2022.2.4,Win32,60.0240096,661e456ee6de07e70aa9ef7b,6628df87be58904555d86461,,,,,,,,,,,,,,,,,,,,,,,,,,,,,,,,,,,,,,,,,,,,,,,,,,,,,,,,1,40,100,42,1,B,X,N,o2_image,stimuli/out2.png,stimuli/out1.png,stimuli/correct_out2.png,,,,,,,,,,,,,,,,,,,,,,,,,,,,,,,,,,,,,,
,,5d9b4e21b56c51035c35cb3d,49,male,2024-04-24_11h31.57.157,stockport_simplified,2022.2.4,Win32,60.0240096,661e456ee6de07e70aa9ef7b,6628df87be58904555d86461,,,,,,,,,,,,,,,,,,,,,,,,,,,,,,,,,,616.312,617.896,"[2,6,4,8,5,3,7,1]","[[-0.3,0.2],[0.3,0.2]]","[[0.125,-0.2],[-0.125,-0.2]]",0.094907407,-0.184027778,1,0,0,1.067,o1_image,617.898,1,618.394,618.395,620.394,0,0,0,0,1,,,,,,,,,,,,,,,,,,,,,,,,,,,,,,,,,,,,,,,,,,,,,,,,,,
,,5d9b4e21b56c51035c35cb3d,49,male,2024-04-24_11h31.57.157,stockport_simplified,2022.2.4,Win32,60.0240096,661e456ee6de07e70aa9ef7b,6628df87be58904555d86461,,,,,,,,,,,,,,,,,,,,,,,,,,,,,,,,,,,,,,,,,,,,,,,,,,,,,,,,1,41,101,35,1,A,Y,N,o1_image,stimuli/out1.png,stimuli/correct_out1.png,stimuli/out2.png,,,,,,,,,,,,,,,,,,,,,,,,,,,,,,,,,,,,,,
,,5d9b4e21b56c51035c35cb3d,49,male,2024-04-24_11h31.57.157,stockport_simplified,2022.2.4,Win32,60.0240096,661e456ee6de07e70aa9ef7b,6628df87be58904555d86461,,,,,,,,,,,,,,,,,,,,,,,,,,,,,,,,,,620.397,621.927,"[2,6,4,8,5,3,7,1]","[[-0.3,0.2],[0.3,0.2]]","[[0.125,-0.2],[-0.125,-0.2]]",0.087962963,-0.1875,1,0,0,1.016,o1_image,621.928,1,622.427,622.427,624.427,0,0,0,0,1,,,,,,,,,,,,,,,,,,,,,,,,,,,,,,,,,,,,,,,,,,,,,,,,,,
,,5d9b4e21b56c51035c35cb3d,49,male,2024-04-24_11h31.57.157,stockport_simplified,2022.2.4,Win32,60.0240096,661e456ee6de07e70aa9ef7b,6628df87be58904555d86461,,,,,,,,,,,,,,,,,,,,,,,,,,,,,,,,,,,,,,,,,,,,,,,,,,,,,,,,1,42,102,53,1,N,M,C,o1_image,stimuli/out1.png,stimuli/correct_out1.png,stimuli/out2.png,,,,,,,,,,,,,,,,,,,,,,,,,,,,,,,,,,,,,,
,,5d9b4e21b56c51035c35cb3d,49,male,2024-04-24_11h31.57.157,stockport_simplified,2022.2.4,Win32,60.0240096,661e456ee6de07e70aa9ef7b,6628df87be58904555d86461,,,,,,,,,,,,,,,,,,,,,,,,,,,,,,,,,,624.428,626.612,"[2,6,4,8,5,3,7,1]","[[-0.3,0.2],[0.3,0.2]]","[[-0.125,-0.2],[0.125,-0.2]]",0.094907407,-0.193287037,1,0,0,1.667,o2_image,626.619,1,627.11,627.11,629.111,0,0,0,0,1,,,,,,,,,,,,,,,,,,,,,,,,,,,,,,,,,,,,,,,,,,,,,,,,,,
,,5d9b4e21b56c51035c35cb3d,49,male,2024-04-24_11h31.57.157,stockport_simplified,2022.2.4,Win32,60.0240096,661e456ee6de07e70aa9ef7b,6628df87be58904555d86461,,,,,,,,,,,,,,,,,,,,,,,,,,,,,,,,,,,,,,,,,,,,,,,,,,,,,,,,1,43,103,17,1,B,Y,N,o2_image,stimuli/out2.png,stimuli/out1.png,stimuli/correct_out2.png,,,,,,,,,,,,,,,,,,,,,,,,,,,,,,,,,,,,,,
,,5d9b4e21b56c51035c35cb3d,49,male,2024-04-24_11h31.57.157,stockport_simplified,2022.2.4,Win32,60.0240096,661e456ee6de07e70aa9ef7b,6628df87be58904555d86461,,,,,,,,,,,,,,,,,,,,,,,,,,,,,,,,,,629.112,631.028,"[2,6,4,8,5,3,7,1]","[[0.3,0.2],[-0.3,0.2]]","[[0.125,-0.2],[-0.125,-0.2]]",0.113425926,-0.1875,1,0,0,1.399,o1_image,631.03,1,631.528,631.528,633.527,0,0,0,0,1,,,,,,,,,,,,,,,,,,,,,,,,,,,,,,,,,,,,,,,,,,,,,,,,,,
,,5d9b4e21b56c51035c35cb3d,49,male,2024-04-24_11h31.57.157,stockport_simplified,2022.2.4,Win32,60.0240096,661e456ee6de07e70aa9ef7b,6628df87be58904555d86461,,,,,,,,,,,,,,,,,,,,,,,,,,,,,,,,,,,,,,,,,,,,,,,,,,,,,,,,1,44,104,1,1,A,X,N,o1_image,stimuli/out1.png,stimuli/correct_out1.png,stimuli/out2.png,,,,,,,,,,,,,,,,,,,,,,,,,,,,,,,,,,,,,,
,,5d9b4e21b56c51035c35cb3d,49,male,2024-04-24_11h31.57.157,stockport_simplified,2022.2.4,Win32,60.0240096,661e456ee6de07e70aa9ef7b,6628df87be58904555d86461,,,,,,,,,,,,,,,,,,,,,,,,,,,,,,,,,,633.529,635.377,"[2,6,4,8,5,3,7,1]","[[0.3,0.2],[-0.3,0.2]]","[[-0.125,-0.2],[0.125,-0.2]]",-0.178240741,-0.186342593,1,0,0,1.333,o1_image,635.38,1,635.878,635.878,637.877,0,0,0,0,1,,,,,,,,,,,,,,,,,,,,,,,,,,,,,,,,,,,,,,,,,,,,,,,,,,
,,5d9b4e21b56c51035c35cb3d,49,male,2024-04-24_11h31.57.157,stockport_simplified,2022.2.4,Win32,60.0240096,661e456ee6de07e70aa9ef7b,6628df87be58904555d86461,,,,,,,,,,,,,,,,,,,,,,,,,,,,,,,,,,,,,,,,,,,,,,,,,,,,,,,,1,45,105,32,1,A,X,N,o1_image,stimuli/out1.png,stimuli/correct_out1.png,stimuli/out2.png,,,,,,,,,,,,,,,,,,,,,,,,,,,,,,,,,,,,,,
,,5d9b4e21b56c51035c35cb3d,49,male,2024-04-24_11h31.57.157,stockport_simplified,2022.2.4,Win32,60.0240096,661e456ee6de07e70aa9ef7b,6628df87be58904555d86461,,,,,,,,,,,,,,,,,,,,,,,,,,,,,,,,,,637.878,639.461,"[2,6,4,8,5,3,7,1]","[[0.3,0.2],[-0.3,0.2]]","[[-0.125,-0.2],[0.125,-0.2]]",0.119212963,-0.210648148,1,0,0,1.067,o2_image,639.462,1,639.96,639.96,641.961,0,0,0,0,1,,,,,,,,,,,,,,,,,,,,,,,,,,,,,,,,,,,,,,,,,,,,,,,,,,
,,5d9b4e21b56c51035c35cb3d,49,male,2024-04-24_11h31.57.157,stockport_simplified,2022.2.4,Win32,60.0240096,661e456ee6de07e70aa9ef7b,6628df87be58904555d86461,,,,,,,,,,,,,,,,,,,,,,,,,,,,,,,,,,,,,,,,,,,,,,,,,,,,,,,,1,46,106,41,1,B,X,N,o2_image,stimuli/out2.png,stimuli/out1.png,stimuli/correct_out2.png,,,,,,,,,,,,,,,,,,,,,,,,,,,,,,,,,,,,,,
,,5d9b4e21b56c51035c35cb3d,49,male,2024-04-24_11h31.57.157,stockport_simplified,2022.2.4,Win32,60.0240096,661e456ee6de07e70aa9ef7b,6628df87be58904555d86461,,,,,,,,,,,,,,,,,,,,,,,,,,,,,,,,,,641.961,643.795,"[2,6,4,8,5,3,7,1]","[[0.3,0.2],[-0.3,0.2]]","[[0.125,-0.2],[-0.125,-0.2]]",0.133101852,-0.210648148,1,0,0,1.334,o1_image,643.796,1,644.295,644.295,646.294,0,0,0,0,1,,,,,,,,,,,,,,,,,,,,,,,,,,,,,,,,,,,,,,,,,,,,,,,,,,
,,5d9b4e21b56c51035c35cb3d,49,male,2024-04-24_11h31.57.157,stockport_simplified,2022.2.4,Win32,60.0240096,661e456ee6de07e70aa9ef7b,6628df87be58904555d86461,,,,,,,,,,,,,,,,,,,,,,,,,,,,,,,,,,,,,,,,,,,,,,,,,,,,,,,,1,47,107,36,1,A,Y,N,o1_image,stimuli/out1.png,stimuli/correct_out1.png,stimuli/out2.png,,,,,,,,,,,,,,,,,,,,,,,,,,,,,,,,,,,,,,
,,5d9b4e21b56c51035c35cb3d,49,male,2024-04-24_11h31.57.157,stockport_simplified,2022.2.4,Win32,60.0240096,661e456ee6de07e70aa9ef7b,6628df87be58904555d86461,,,,,,,,,,,,,,,,,,,,,,,,,,,,,,,,,,646.294,647.912,"[2,6,4,8,5,3,7,1]","[[0.3,0.2],[-0.3,0.2]]","[[-0.125,-0.2],[0.125,-0.2]]",0.104166667,-0.203703704,1,0,0,1.117,o2_image,647.914,1,648.41,648.41,650.411,0,0,0,0,1,,,,,,,,,,,,,,,,,,,,,,,,,,,,,,,,,,,,,,,,,,,,,,,,,,
,,5d9b4e21b56c51035c35cb3d,49,male,2024-04-24_11h31.57.157,stockport_simplified,2022.2.4,Win32,60.0240096,661e456ee6de07e70aa9ef7b,6628df87be58904555d86461,,,,,,,,,,,,,,,,,,,,,,,,,,,,,,,,,,,,,,,,,,,,,,,,,,,,,,,,1,48,108,12,1,B,X,N,o2_image,stimuli/out2.png,stimuli/out1.png,stimuli/correct_out2.png,,,,,,,,,,,,,,,,,,,,,,,,,,,,,,,,,,,,,,
,,5d9b4e21b56c51035c35cb3d,49,male,2024-04-24_11h31.57.157,stockport_simplified,2022.2.4,Win32,60.0240096,661e456ee6de07e70aa9ef7b,6628df87be58904555d86461,,,,,,,,,,,,,,,,,,,,,,,,,,,,,,,,,,650.411,652.212,"[2,6,4,8,5,3,7,1]","[[0.3,0.2],[-0.3,0.2]]","[[-0.125,-0.2],[0.125,-0.2]]",-0.09375,-0.201388889,1,0,0,1.299,o1_image,652.213,1,652.711,652.711,654.71,0,0,0,0,1,,,,,,,,,,,,,,,,,,,,,,,,,,,,,,,,,,,,,,,,,,,,,,,,,,
,,5d9b4e21b56c51035c35cb3d,49,male,2024-04-24_11h31.57.157,stockport_simplified,2022.2.4,Win32,60.0240096,661e456ee6de07e70aa9ef7b,6628df87be58904555d86461,,,,,,,,,,,,,,,,,,,,,,,,,,,,,,,,,,,,,,,,,,,,,,,,,,,,,,,,1,49,109,30,1,A,X,N,o1_image,stimuli/out1.png,stimuli/correct_out1.png,stimuli/out2.png,,,,,,,,,,,,,,,,,,,,,,,,,,,,,,,,,,,,,,
,,5d9b4e21b56c51035c35cb3d,49,male,2024-04-24_11h31.57.157,stockport_simplified,2022.2.4,Win32,60.0240096,661e456ee6de07e70aa9ef7b,6628df87be58904555d86461,,,,,,,,,,,,,,,,,,,,,,,,,,,,,,,,,,654.711,656.313,"[2,6,4,8,5,3,7,1]","[[0.3,0.2],[-0.3,0.2]]","[[-0.125,-0.2],[0.125,-0.2]]",-0.127314815,-0.185185185,1,0,0,1.101,o1_image,656.315,1,656.812,656.812,658.811,0,0,0,0,1,,,,,,,,,,,,,,,,,,,,,,,,,,,,,,,,,,,,,,,,,,,,,,,,,,
,,5d9b4e21b56c51035c35cb3d,49,male,2024-04-24_11h31.57.157,stockport_simplified,2022.2.4,Win32,60.0240096,661e456ee6de07e70aa9ef7b,6628df87be58904555d86461,,,,,,,,,,,,,,,,,,,,,,,,,,,,,,,,,,,,,,,,,,,,,,,,,,,,,,,,1,50,110,3,1,A,X,N,o1_image,stimuli/out1.png,stimuli/correct_out1.png,stimuli/out2.png,,,,,,,,,,,,,,,,,,,,,,,,,,,,,,,,,,,,,,
,,5d9b4e21b56c51035c35cb3d,49,male,2024-04-24_11h31.57.157,stockport_simplified,2022.2.4,Win32,60.0240096,661e456ee6de07e70aa9ef7b,6628df87be58904555d86461,,,,,,,,,,,,,,,,,,,,,,,,,,,,,,,,,,658.813,660.411,"[2,6,4,8,5,3,7,1]","[[-0.3,0.2],[0.3,0.2]]","[[-0.125,-0.2],[0.125,-0.2]]",0.155092593,-0.179398148,1,0,0,1.081,o2_image,660.416,1,660.911,660.911,662.911,0,0,0,0,1,,,,,,,,,,,,,,,,,,,,,,,,,,,,,,,,,,,,,,,,,,,,,,,,,,
,,5d9b4e21b56c51035c35cb3d,49,male,2024-04-24_11h31.57.157,stockport_simplified,2022.2.4,Win32,60.0240096,661e456ee6de07e70aa9ef7b,6628df87be58904555d86461,,,,,,,,,,,,,,,,,,,,,,,,,,,,,,,,,,,,,,,,,,,,,,,,,,,,,,,,1,51,111,46,1,B,Y,N,o2_image,stimuli/out2.png,stimuli/out1.png,stimuli/correct_out2.png,,,,,,,,,,,,,,,,,,,,,,,,,,,,,,,,,,,,,,
,,5d9b4e21b56c51035c35cb3d,49,male,2024-04-24_11h31.57.157,stockport_simplified,2022.2.4,Win32,60.0240096,661e456ee6de07e70aa9ef7b,6628df87be58904555d86461,,,,,,,,,,,,,,,,,,,,,,,,,,,,,,,,,,662.912,664.663,"[2,6,4,8,5,3,7,1]","[[0.3,0.2],[-0.3,0.2]]","[[-0.125,-0.2],[0.125,-0.2]]",-0.127314815,-0.186342593,1,0,0,1.234,o1_image,664.665,1,665.16,665.16,667.161,0,0,0,0,1,,,,,,,,,,,,,,,,,,,,,,,,,,,,,,,,,,,,,,,,,,,,,,,,,,
,,5d9b4e21b56c51035c35cb3d,49,male,2024-04-24_11h31.57.157,stockport_simplified,2022.2.4,Win32,60.0240096,661e456ee6de07e70aa9ef7b,6628df87be58904555d86461,,,,,,,,,,,,,,,,,,,,,,,,,,,,,,,,,,,,,,,,,,,,,,,,,,,,,,,,1,52,112,34,1,A,X,N,o1_image,stimuli/out1.png,stimuli/correct_out1.png,stimuli/out2.png,,,,,,,,,,,,,,,,,,,,,,,,,,,,,,,,,,,,,,
,,5d9b4e21b56c51035c35cb3d,49,male,2024-04-24_11h31.57.157,stockport_simplified,2022.2.4,Win32,60.0240096,661e456ee6de07e70aa9ef7b,6628df87be58904555d86461,,,,,,,,,,,,,,,,,,,,,,,,,,,,,,,,,,667.161,669.594,"[2,6,4,8,5,3,7,1]","[[0.3,0.2],[-0.3,0.2]]","[[-0.125,-0.2],[0.125,-0.2]]",0.09375,-0.173611111,1,0,0,1.915,o2_image,669.596,1,670.094,670.094,672.094,0,0,0,0,1,,,,,,,,,,,,,,,,,,,,,,,,,,,,,,,,,,,,,,,,,,,,,,,,,,
,,5d9b4e21b56c51035c35cb3d,49,male,2024-04-24_11h31.57.157,stockport_simplified,2022.2.4,Win32,60.0240096,661e456ee6de07e70aa9ef7b,6628df87be58904555d86461,,,,,,,,,,,,,,,,,,,,,,,,,,,,,,,,,,,,,,,,,,,,,,,,,,,,,,,,1,53,113,26,1,N,M,D,o2_image,stimuli/out2.png,stimuli/out1.png,stimuli/correct_out2.png,,,,,,,,,,,,,,,,,,,,,,,,,,,,,,,,,,,,,,
,,5d9b4e21b56c51035c35cb3d,49,male,2024-04-24_11h31.57.157,stockport_simplified,2022.2.4,Win32,60.0240096,661e456ee6de07e70aa9ef7b,6628df87be58904555d86461,,,,,,,,,,,,,,,,,,,,,,,,,,,,,,,,,,672.096,674.21,"[2,6,4,8,5,3,7,1]","[[0.3,0.2],[-0.3,0.2]]","[[0.125,-0.2],[-0.125,-0.2]]",-0.091435185,-0.179398148,1,0,0,1.598,o2_image,674.212,1,674.711,674.711,676.711,0,0,0,0,1,,,,,,,,,,,,,,,,,,,,,,,,,,,,,,,,,,,,,,,,,,,,,,,,,,
,,5d9b4e21b56c51035c35cb3d,49,male,2024-04-24_11h31.57.157,stockport_simplified,2022.2.4,Win32,60.0240096,661e456ee6de07e70aa9ef7b,6628df87be58904555d86461,,,,,,,,,,,,,,,,,,,,,,,,,,,,,,,,,,,,,,,,,,,,,,,,,,,,,,,,1,54,114,13,1,B,X,N,o2_image,stimuli/out2.png,stimuli/out1.png,stimuli/correct_out2.png,,,,,,,,,,,,,,,,,,,,,,,,,,,,,,,,,,,,,,
,,5d9b4e21b56c51035c35cb3d,49,male,2024-04-24_11h31.57.157,stockport_simplified,2022.2.4,Win32,60.0240096,661e456ee6de07e70aa9ef7b,6628df87be58904555d86461,,,,,,,,,,,,,,,,,,,,,,,,,,,,,,,,,,676.711,679.895,"[2,6,4,8,5,3,7,1]","[[-0.3,0.2],[0.3,0.2]]","[[-0.125,-0.2],[0.125,-0.2]]",-0.127314815,-0.188657407,1,0,0,2.666,o1_image,679.898,1,680.394,680.394,682.394,0,0,0,0,1,,,,,,,,,,,,,,,,,,,,,,,,,,,,,,,,,,,,,,,,,,,,,,,,,,
,,5d9b4e21b56c51035c35cb3d,49,male,2024-04-24_11h31.57.157,stockport_simplified,2022.2.4,Win32,60.0240096,661e456ee6de07e70aa9ef7b,6628df87be58904555d86461,,,,,,,,,,,,,,,,,,,,,,,,,,,,,,,,,,,,,,,,,,,,,,,,,,,,,,,,1,55,115,23,1,N,M,C,o1_image,stimuli/out1.png,stimuli/correct_out1.png,stimuli/out2.png,,,,,,,,,,,,,,,,,,,,,,,,,,,,,,,,,,,,,,
,,5d9b4e21b56c51035c35cb3d,49,male,2024-04-24_11h31.57.157,stockport_simplified,2022.2.4,Win32,60.0240096,661e456ee6de07e70aa9ef7b,6628df87be58904555d86461,,,,,,,,,,,,,,,,,,,,,,,,,,,,,,,,,,682.395,684.365,"[2,6,4,8,5,3,7,1]","[[-0.3,0.2],[0.3,0.2]]","[[0.125,-0.2],[-0.125,-0.2]]",0.118055556,-0.180555556,1,0,0,1.453,o1_image,684.367,1,684.86,684.86,686.861,0,0,0,0,1,,,,,,,,,,,,,,,,,,,,,,,,,,,,,,,,,,,,,,,,,,,,,,,,,,
,,5d9b4e21b56c51035c35cb3d,49,male,2024-04-24_11h31.57.157,stockport_simplified,2022.2.4,Win32,60.0240096,661e456ee6de07e70aa9ef7b,6628df87be58904555d86461,,,,,,,,,,,,,,,,,,,,,,,,,,,,,,,,,,,,,,,,,,,,,,,,,,,,,,,,1,56,116,6,1,A,Y,N,o1_image,stimuli/out1.png,stimuli/correct_out1.png,stimuli/out2.png,,,,,,,,,,,,,,,,,,,,,,,,,,,,,,,,,,,,,,
,,5d9b4e21b56c51035c35cb3d,49,male,2024-04-24_11h31.57.157,stockport_simplified,2022.2.4,Win32,60.0240096,661e456ee6de07e70aa9ef7b,6628df87be58904555d86461,,,,,,,,,,,,,,,,,,,,,,,,,,,,,,,,,,686.861,688.761,"[2,6,4,8,5,3,7,1]","[[0.3,0.2],[-0.3,0.2]]","[[0.125,-0.2],[-0.125,-0.2]]",0.126157407,-0.181712963,1,0,0,1.379,o1_image,688.767,1,689.261,689.261,691.263,0,0,0,0,1,,,,,,,,,,,,,,,,,,,,,,,,,,,,,,,,,,,,,,,,,,,,,,,,,,
,,5d9b4e21b56c51035c35cb3d,49,male,2024-04-24_11h31.57.157,stockport_simplified,2022.2.4,Win32,60.0240096,661e456ee6de07e70aa9ef7b,6628df87be58904555d86461,,,,,,,,,,,,,,,,,,,,,,,,,,,,,,,,,,,,,,,,,,,,,,,,,,,,,,,,1,57,117,51,1,N,M,C,o1_image,stimuli/out1.png,stimuli/correct_out1.png,stimuli/out2.png,,,,,,,,,,,,,,,,,,,,,,,,,,,,,,,,,,,,,,
,,5d9b4e21b56c51035c35cb3d,49,male,2024-04-24_11h31.57.157,stockport_simplified,2022.2.4,Win32,60.0240096,661e456ee6de07e70aa9ef7b,6628df87be58904555d86461,,,,,,,,,,,,,,,,,,,,,,,,,,,,,,,,,,691.264,693.129,"[2,6,4,8,5,3,7,1]","[[0.3,0.2],[-0.3,0.2]]","[[-0.125,-0.2],[0.125,-0.2]]",-0.069444444,-0.1875,1,0,0,1.347,o1_image,693.132,1,693.627,693.627,695.628,0,0,0,0,1,,,,,,,,,,,,,,,,,,,,,,,,,,,,,,,,,,,,,,,,,,,,,,,,,,
,,5d9b4e21b56c51035c35cb3d,49,male,2024-04-24_11h31.57.157,stockport_simplified,2022.2.4,Win32,60.0240096,661e456ee6de07e70aa9ef7b,6628df87be58904555d86461,,,,,,,,,,,,,,,,,,,,,,,,,,,,,,,,,,,,,,,,,,,,,,,,,,,,,,,,1,58,118,7,1,A,Y,N,o1_image,stimuli/out1.png,stimuli/correct_out1.png,stimuli/out2.png,,,,,,,,,,,,,,,,,,,,,,,,,,,,,,,,,,,,,,
,,5d9b4e21b56c51035c35cb3d,49,male,2024-04-24_11h31.57.157,stockport_simplified,2022.2.4,Win32,60.0240096,661e456ee6de07e70aa9ef7b,6628df87be58904555d86461,,,,,,,,,,,,,,,,,,,,,,,,,,,,,,,,,,695.629,697.445,"[2,6,4,8,5,3,7,1]","[[0.3,0.2],[-0.3,0.2]]","[[-0.125,-0.2],[0.125,-0.2]]",-0.077546296,-0.19212963,1,0,0,1.298,o1_image,697.447,1,697.944,697.944,699.944,0,0,0,0,1,,,,,,,,,,,,,,,,,,,,,,,,,,,,,,,,,,,,,,,,,,,,,,,,,,
,,5d9b4e21b56c51035c35cb3d,49,male,2024-04-24_11h31.57.157,stockport_simplified,2022.2.4,Win32,60.0240096,661e456ee6de07e70aa9ef7b,6628df87be58904555d86461,,,,,,,,,,,,,,,,,,,,,,,,,,,,,,,,,,,,,,,,,,,,,,,,,,,,,,,,1,59,119,22,1,N,M,C,o1_image,stimuli/out1.png,stimuli/correct_out1.png,stimuli/out2.png,,,,,,,,,,,,,,,,,,,,,,,,,,,,,,,,,,,,,,
,,5d9b4e21b56c51035c35cb3d,49,male,2024-04-24_11h31.57.157,stockport_simplified,2022.2.4,Win32,60.0240096,661e456ee6de07e70aa9ef7b,6628df87be58904555d86461,,,,,,,,,,,,,,,,,,,,,,,,,,,,,,,,,,699.965,703.21,"[2,6,4,8,5,3,7,1]","[[-0.3,0.2],[0.3,0.2]]","[[0.125,-0.2],[-0.125,-0.2]]",-0.105324074,-0.193287037,1,0,0,2.732,o2_image,703.212,1,703.71,703.71,705.711,,,,,,,,,,,,,,,,,,0,0,0,0,1,,,,,,,,,,,,,,,,,,,,,,,,,,,,,,,,,
,,5d9b4e21b56c51035c35cb3d,49,male,2024-04-24_11h31.57.157,stockport_simplified,2022.2.4,Win32,60.0240096,661e456ee6de07e70aa9ef7b,6628df87be58904555d86461,,,,,,,,,,,,,,,,,,,,,,,,,,,,,,,,,,,,,,,,,,,,,,,,,,,,,,,,,,,,,B,X,N,o2_image,stimuli/out2.png,stimuli/out1.png,stimuli/correct_out2.png,,,,,,0,0,0,22,1,,,,,,,,,,,,,,,,,,,,,,,,,,,,
,,5d9b4e21b56c51035c35cb3d,49,male,2024-04-24_11h31.57.157,stockport_simplified,2022.2.4,Win32,60.0240096,661e456ee6de07e70aa9ef7b,6628df87be58904555d86461,,,,,,,,,,,,,,,,,,,,,,,,,,,,,,,,,,705.711,707.595,"[2,6,4,8,5,3,7,1]","[[0.3,0.2],[-0.3,0.2]]","[[0.125,-0.2],[-0.125,-0.2]]",0.076388889,-0.193287037,1,0,0,1.366,o1_image,707.596,1,708.094,708.094,710.094,,,,,,,,,,,,,,,,,,0,0,0,0,1,,,,,,,,,,,,,,,,,,,,,,,,,,,,,,,,,
,,5d9b4e21b56c51035c35cb3d,49,male,2024-04-24_11h31.57.157,stockport_simplified,2022.2.4,Win32,60.0240096,661e456ee6de07e70aa9ef7b,6628df87be58904555d86461,,,,,,,,,,,,,,,,,,,,,,,,,,,,,,,,,,,,,,,,,,,,,,,,,,,,,,,,,,,,,A,X,N,o1_image,stimuli/out1.png,stimuli/correct_out1.png,stimuli/out2.png,,,,,,0,1,1,0,1,,,,,,,,,,,,,,,,,,,,,,,,,,,,
,,5d9b4e21b56c51035c35cb3d,49,male,2024-04-24_11h31.57.157,stockport_simplified,2022.2.4,Win32,60.0240096,661e456ee6de07e70aa9ef7b,6628df87be58904555d86461,,,,,,,,,,,,,,,,,,,,,,,,,,,,,,,,,,710.095,713.227,"[2,6,4,8,5,3,7,1]","[[-0.3,0.2],[0.3,0.2]]","[[-0.125,-0.2],[0.125,-0.2]]",0.118055556,-0.185185185,1,0,0,2.615,o2_image,713.228,1,713.728,713.728,715.727,,,,,,,,,,,,,,,,,,0,0,0,0,1,,,,,,,,,,,,,,,,,,,,,,,,,,,,,,,,,
,,5d9b4e21b56c51035c35cb3d,49,male,2024-04-24_11h31.57.157,stockport_simplified,2022.2.4,Win32,60.0240096,661e456ee6de07e70aa9ef7b,6628df87be58904555d86461,,,,,,,,,,,,,,,,,,,,,,,,,,,,,,,,,,,,,,,,,,,,,,,,,,,,,,,,,,,,,N,M,D,o2_image,stimuli/out2.png,stimuli/out1.png,stimuli/correct_out2.png,,,,,,0,2,2,51,1,,,,,,,,,,,,,,,,,,,,,,,,,,,,
,,5d9b4e21b56c51035c35cb3d,49,male,2024-04-24_11h31.57.157,stockport_simplified,2022.2.4,Win32,60.0240096,661e456ee6de07e70aa9ef7b,6628df87be58904555d86461,,,,,,,,,,,,,,,,,,,,,,,,,,,,,,,,,,715.728,717.962,"[2,6,4,8,5,3,7,1]","[[0.3,0.2],[-0.3,0.2]]","[[0.125,-0.2],[-0.125,-0.2]]",0.145833333,-0.189814815,1,0,0,1.716,o1_image,717.967,1,718.46,718.46,720.461,,,,,,,,,,,,,,,,,,0,0,0,0,1,,,,,,,,,,,,,,,,,,,,,,,,,,,,,,,,,
,,5d9b4e21b56c51035c35cb3d,49,male,2024-04-24_11h31.57.157,stockport_simplified,2022.2.4,Win32,60.0240096,661e456ee6de07e70aa9ef7b,6628df87be58904555d86461,,,,,,,,,,,,,,,,,,,,,,,,,,,,,,,,,,,,,,,,,,,,,,,,,,,,,,,,,,,,,N,M,C,o1_image,stimuli/out1.png,stimuli/correct_out1.png,stimuli/out2.png,,,,,,0,3,3,43,1,,,,,,,,,,,,,,,,,,,,,,,,,,,,
,,5d9b4e21b56c51035c35cb3d,49,male,2024-04-24_11h31.57.157,stockport_simplified,2022.2.4,Win32,60.0240096,661e456ee6de07e70aa9ef7b,6628df87be58904555d86461,,,,,,,,,,,,,,,,,,,,,,,,,,,,,,,,,,720.464,722.01,"[2,6,4,8,5,3,7,1]","[[0.3,0.2],[-0.3,0.2]]","[[0.125,-0.2],[-0.125,-0.2]]",0.146990741,-0.189814815,1,0,0,1.032,o1_image,722.014,0,722.51,722.51,724.511,,,,,,,,,,,,,,,,,,0,0,0,0,1,,,,,,,,,,,,,,,,,,,,,,,,,,,,,,,,,
,,5d9b4e21b56c51035c35cb3d,49,male,2024-04-24_11h31.57.157,stockport_simplified,2022.2.4,Win32,60.0240096,661e456ee6de07e70aa9ef7b,6628df87be58904555d86461,,,,,,,,,,,,,,,,,,,,,,,,,,,,,,,,,,,,,,,,,,,,,,,,,,,,,,,,,,,,,A,X,N,o2_image,stimuli/out2.png,stimuli/out1.png,stimuli/correct_out2.png,,,,,,0,4,4,7,1,,,,,,,,,,,,,,,,,,,,,,,,,,,,
,,5d9b4e21b56c51035c35cb3d,49,male,2024-04-24_11h31.57.157,stockport_simplified,2022.2.4,Win32,60.0240096,661e456ee6de07e70aa9ef7b,6628df87be58904555d86461,,,,,,,,,,,,,,,,,,,,,,,,,,,,,,,,,,724.512,725.897,"[2,6,4,8,5,3,7,1]","[[-0.3,0.2],[0.3,0.2]]","[[0.125,-0.2],[-0.125,-0.2]]",0.145833333,-0.188657407,1,0,0,0.869,o1_image,725.9,1,726.394,726.394,728.394,,,,,,,,,,,,,,,,,,0,0,0,0,1,,,,,,,,,,,,,,,,,,,,,,,,,,,,,,,,,
,,5d9b4e21b56c51035c35cb3d,49,male,2024-04-24_11h31.57.157,stockport_simplified,2022.2.4,Win32,60.0240096,661e456ee6de07e70aa9ef7b,6628df87be58904555d86461,,,,,,,,,,,,,,,,,,,,,,,,,,,,,,,,,,,,,,,,,,,,,,,,,,,,,,,,,,,,,A,X,N,o1_image,stimuli/out1.png,stimuli/correct_out1.png,stimuli/out2.png,,,,,,0,5,5,4,1,,,,,,,,,,,,,,,,,,,,,,,,,,,,
