counterbalance_2.started,counterbalance_2.stopped,participant,age,gender,date,expName,psychopyVersion,OS,frameRate,STUDY_ID,SESSION_ID,information_2.started,information_2.stopped,information_loop.thisRepN,information_loop.thisTrialN,information_loop.thisN,information_loop.thisIndex,information_loop.ran,information,consent_2.started,consent_2.stopped,slider_1.response,slider_2.response,slider_3.response,slider_4.response,slider_5.response,slider_6.response,instructions.started,instructions.stopped,task1_instr.thisRepN,task1_instr.thisTrialN,task1_instr.thisN,task1_instr.thisIndex,task1_instr.ran,task1,comprehension1_2.started,comprehension1_2.stopped,comp1_mouse.x,comp1_mouse.y,comp1_mouse.leftButton,comp1_mouse.midButton,comp1_mouse.rightButton,comp1_mouse.time,comp1_mouse.clicked_name,cue_o__trial_2.started,cue_o__trial_2.stopped,order,cue_order,out_order,cue_o_mouse.x,cue_o_mouse.y,cue_o_mouse.leftButton,cue_o_mouse.midButton,cue_o_mouse.rightButton,cue_o_mouse.time,cue_o_mouse.clicked_name,cue_selection_2.started,correct_answer,cue_selection_2.stopped,feedback_2.started,feedback_2.stopped,feedback_loop.thisRepN,feedback_loop.thisTrialN,feedback_loop.thisN,feedback_loop.thisIndex,feedback_loop.ran,stage1_trials.thisRepN,stage1_trials.thisTrialN,stage1_trials.thisN,stage1_trials.thisIndex,stage1_trials.ran,cue1,cue2,cue3,outcome,correct_out,o1_feedback,o2_feedback,stage2_feedback_loop.thisRepN,stage2_feedback_loop.thisTrialN,stage2_feedback_loop.thisN,stage2_feedback_loop.thisIndex,stage2_feedback_loop.ran,stage2_trials.thisRepN,stage2_trials.thisTrialN,stage2_trials.thisN,stage2_trials.thisIndex,stage2_trials.ran,stage3_feedback_loop.thisRepN,stage3_feedback_loop.thisTrialN,stage3_feedback_loop.thisN,stage3_feedback_loop.thisIndex,stage3_feedback_loop.ran,stage3_trials.thisRepN,stage3_trials.thisTrialN,stage3_trials.thisN,stage3_trials.thisIndex,stage3_trials.ran,debrief_2.started,debrief_2.stopped,debrief_loop.thisRepN,debrief_loop.thisTrialN,debrief_loop.thisN,debrief_loop.thisIndex,debrief_loop.ran,debrief_img,compr1_completed.thisRepN,compr1_completed.thisTrialN,compr1_completed.thisN,compr1_completed.thisIndex,compr1_completed.ran,consent_loop.thisRepN,consent_loop.thisTrialN,consent_loop.thisN,consent_loop.thisIndex,consent_loop.ran
0.0003,0.0006,5dfe7de0bf3d4eb1cc979a7a,22,male,2024-04-19_18h37.30.160,stockport_simplified,2022.2.4,Win32,163.9344262,661e456ee6de07e70aa9ef7b,66229d94094ac4f560514077,,,,,,,,,,,,,,,,,,,,,,,,,,,,,,,,,,,,,,,,,,,,,,,,,,,,,,,,,,,,,,,,,,,,,,,,,,,,,,,,,,,,,,,,,,,,,,,,,,,,,,,,,
,,5dfe7de0bf3d4eb1cc979a7a,22,male,2024-04-19_18h37.30.160,stockport_simplified,2022.2.4,Win32,163.9344262,661e456ee6de07e70aa9ef7b,66229d94094ac4f560514077,0.0245,23.2842,0,0,0,0,1,instructions/info1.png,,,,,,,,,,,,,,,,,,,,,,,,,,,,,,,,,,,,,,,,,,,,,,,,,,,,,,,,,,,,,,,,,,,,,,,,,,,,,,,,,,,,,,,,,,,,,,,,,
,,5dfe7de0bf3d4eb1cc979a7a,22,male,2024-04-19_18h37.30.160,stockport_simplified,2022.2.4,Win32,163.9344262,661e456ee6de07e70aa9ef7b,66229d94094ac4f560514077,23.2846,27.0105,0,1,1,1,1,instructions/info2.png,,,,,,,,,,,,,,,,,,,,,,,,,,,,,,,,,,,,,,,,,,,,,,,,,,,,,,,,,,,,,,,,,,,,,,,,,,,,,,,,,,,,,,,,,,,,,,,,,
,,5dfe7de0bf3d4eb1cc979a7a,22,male,2024-04-19_18h37.30.160,stockport_simplified,2022.2.4,Win32,163.9344262,661e456ee6de07e70aa9ef7b,66229d94094ac4f560514077,27.0108,29.7257,0,2,2,2,1,instructions/info3.png,,,,,,,,,,,,,,,,,,,,,,,,,,,,,,,,,,,,,,,,,,,,,,,,,,,,,,,,,,,,,,,,,,,,,,,,,,,,,,,,,,,,,,,,,,,,,,,,,
,,5dfe7de0bf3d4eb1cc979a7a,22,male,2024-04-19_18h37.30.160,stockport_simplified,2022.2.4,Win32,163.9344262,661e456ee6de07e70aa9ef7b,66229d94094ac4f560514077,,,,,,,,,29.7259,49.9517,1,1,1,1,1,1,,,,,,,,,,,,,,,,,,,,,,,,,,,,,,,,,,,,,,,,,,,,,,,,,,,,,,,,,,,,,,,,,,,,,,,,,,,,,,,,,,,,,,,,,
,,5dfe7de0bf3d4eb1cc979a7a,22,male,2024-04-19_18h37.30.160,stockport_simplified,2022.2.4,Win32,163.9344262,661e456ee6de07e70aa9ef7b,66229d94094ac4f560514077,,,,,,,,,,,,,,,,,49.9619,70.6012,0,0,0,0,1,instructions/task1_1.png,,,,,,,,,,,,,,,,,,,,,,,,,,,,,,,,,,,,,,,,,,,,,,,,,,,,,,,,,,,,,,,,,,,,,,,,,,,,,,,,,
,,5dfe7de0bf3d4eb1cc979a7a,22,male,2024-04-19_18h37.30.160,stockport_simplified,2022.2.4,Win32,163.9344262,661e456ee6de07e70aa9ef7b,66229d94094ac4f560514077,,,,,,,,,,,,,,,,,70.6074,81.5112,0,1,1,1,1,instructions/task1_2.png,,,,,,,,,,,,,,,,,,,,,,,,,,,,,,,,,,,,,,,,,,,,,,,,,,,,,,,,,,,,,,,,,,,,,,,,,,,,,,,,,
,,5dfe7de0bf3d4eb1cc979a7a,22,male,2024-04-19_18h37.30.160,stockport_simplified,2022.2.4,Win32,163.9344262,661e456ee6de07e70aa9ef7b,66229d94094ac4f560514077,,,,,,,,,,,,,,,,,81.5181,104.4202,0,2,2,2,1,instructions/task1_3.png,,,,,,,,,,,,,,,,,,,,,,,,,,,,,,,,,,,,,,,,,,,,,,,,,,,,,,,,,,,,,,,,,,,,,,,,,,,,,,,,,
,,5dfe7de0bf3d4eb1cc979a7a,22,male,2024-04-19_18h37.30.160,stockport_simplified,2022.2.4,Win32,163.9344262,661e456ee6de07e70aa9ef7b,66229d94094ac4f560514077,,,,,,,,,,,,,,,,,,,,,,,,,104.4207,121.9913,0.042592593,-0.325925926,1,0,0,17.57,comp1_resp1,122.0071,125.4395,"[7,6,8,2,3,4,1,5]","[[0.3,0.2],[-0.3,0.2]]","[[-0.125,-0.2],[0.125,-0.2]]",0.105555556,-0.188888889,1,0,0,2.9267,o2_image,125.4404,0,125.9365,125.9367,127.9366,0,0,0,0,1,,,,,,,,,,,,,,,,,,,,,,,,,,,,,,,,,,,,,,,,,,,,,,,,,,
,,5dfe7de0bf3d4eb1cc979a7a,22,male,2024-04-19_18h37.30.160,stockport_simplified,2022.2.4,Win32,163.9344262,661e456ee6de07e70aa9ef7b,66229d94094ac4f560514077,,,,,,,,,,,,,,,,,,,,,,,,,,,,,,,,,,,,,,,,,,,,,,,,,,,,,,,,0,0,0,22,1,N,M,C,o1_image,stimuli/out1.png,stimuli/correct_out1.png,stimuli/out2.png,,,,,,,,,,,,,,,,,,,,,,,,,,,,,,,,,,,,,,
,,5dfe7de0bf3d4eb1cc979a7a,22,male,2024-04-19_18h37.30.160,stockport_simplified,2022.2.4,Win32,163.9344262,661e456ee6de07e70aa9ef7b,66229d94094ac4f560514077,,,,,,,,,,,,,,,,,,,,,,,,,,,,,,,,,,127.9369,130.9852,"[7,6,8,2,3,4,1,5]","[[0.3,0.2],[-0.3,0.2]]","[[-0.125,-0.2],[0.125,-0.2]]",0.118518519,-0.182407407,1,0,0,2.5453,o2_image,130.9918,0,131.4881,131.4882,133.4886,0,0,0,0,1,,,,,,,,,,,,,,,,,,,,,,,,,,,,,,,,,,,,,,,,,,,,,,,,,,
,,5dfe7de0bf3d4eb1cc979a7a,22,male,2024-04-19_18h37.30.160,stockport_simplified,2022.2.4,Win32,163.9344262,661e456ee6de07e70aa9ef7b,66229d94094ac4f560514077,,,,,,,,,,,,,,,,,,,,,,,,,,,,,,,,,,,,,,,,,,,,,,,,,,,,,,,,0,1,1,8,1,A,Y,N,o1_image,stimuli/out1.png,stimuli/correct_out1.png,stimuli/out2.png,,,,,,,,,,,,,,,,,,,,,,,,,,,,,,,,,,,,,,
,,5dfe7de0bf3d4eb1cc979a7a,22,male,2024-04-19_18h37.30.160,stockport_simplified,2022.2.4,Win32,163.9344262,661e456ee6de07e70aa9ef7b,66229d94094ac4f560514077,,,,,,,,,,,,,,,,,,,,,,,,,,,,,,,,,,133.4891,135.852,"[7,6,8,2,3,4,1,5]","[[-0.3,0.2],[0.3,0.2]]","[[0.125,-0.2],[-0.125,-0.2]]",-0.102777778,-0.203703704,1,0,0,1.8604,o2_image,135.8524,0,136.3494,136.3494,138.3497,0,0,0,0,1,,,,,,,,,,,,,,,,,,,,,,,,,,,,,,,,,,,,,,,,,,,,,,,,,,
,,5dfe7de0bf3d4eb1cc979a7a,22,male,2024-04-19_18h37.30.160,stockport_simplified,2022.2.4,Win32,163.9344262,661e456ee6de07e70aa9ef7b,66229d94094ac4f560514077,,,,,,,,,,,,,,,,,,,,,,,,,,,,,,,,,,,,,,,,,,,,,,,,,,,,,,,,0,2,2,33,1,A,X,N,o1_image,stimuli/out1.png,stimuli/correct_out1.png,stimuli/out2.png,,,,,,,,,,,,,,,,,,,,,,,,,,,,,,,,,,,,,,
,,5dfe7de0bf3d4eb1cc979a7a,22,male,2024-04-19_18h37.30.160,stockport_simplified,2022.2.4,Win32,163.9344262,661e456ee6de07e70aa9ef7b,66229d94094ac4f560514077,,,,,,,,,,,,,,,,,,,,,,,,,,,,,,,,,,138.35,139.5433,"[7,6,8,2,3,4,1,5]","[[-0.3,0.2],[0.3,0.2]]","[[-0.125,-0.2],[0.125,-0.2]]",-0.085185185,-0.186111111,1,0,0,0.6909,o1_image,139.5439,0,140.04,140.04,142.0402,0,0,0,0,1,,,,,,,,,,,,,,,,,,,,,,,,,,,,,,,,,,,,,,,,,,,,,,,,,,
,,5dfe7de0bf3d4eb1cc979a7a,22,male,2024-04-19_18h37.30.160,stockport_simplified,2022.2.4,Win32,163.9344262,661e456ee6de07e70aa9ef7b,66229d94094ac4f560514077,,,,,,,,,,,,,,,,,,,,,,,,,,,,,,,,,,,,,,,,,,,,,,,,,,,,,,,,0,3,3,43,1,B,X,N,o2_image,stimuli/out2.png,stimuli/out1.png,stimuli/correct_out2.png,,,,,,,,,,,,,,,,,,,,,,,,,,,,,,,,,,,,,,
,,5dfe7de0bf3d4eb1cc979a7a,22,male,2024-04-19_18h37.30.160,stockport_simplified,2022.2.4,Win32,163.9344262,661e456ee6de07e70aa9ef7b,66229d94094ac4f560514077,,,,,,,,,,,,,,,,,,,,,,,,,,,,,,,,,,142.0404,144.6774,"[7,6,8,2,3,4,1,5]","[[-0.3,0.2],[0.3,0.2]]","[[-0.125,-0.2],[0.125,-0.2]]",0.109259259,-0.187037037,1,0,0,2.1341,o2_image,144.6779,1,145.1739,145.174,147.1739,0,0,0,0,1,,,,,,,,,,,,,,,,,,,,,,,,,,,,,,,,,,,,,,,,,,,,,,,,,,
,,5dfe7de0bf3d4eb1cc979a7a,22,male,2024-04-19_18h37.30.160,stockport_simplified,2022.2.4,Win32,163.9344262,661e456ee6de07e70aa9ef7b,66229d94094ac4f560514077,,,,,,,,,,,,,,,,,,,,,,,,,,,,,,,,,,,,,,,,,,,,,,,,,,,,,,,,0,4,4,49,1,B,Y,N,o2_image,stimuli/out2.png,stimuli/out1.png,stimuli/correct_out2.png,,,,,,,,,,,,,,,,,,,,,,,,,,,,,,,,,,,,,,
,,5dfe7de0bf3d4eb1cc979a7a,22,male,2024-04-19_18h37.30.160,stockport_simplified,2022.2.4,Win32,163.9344262,661e456ee6de07e70aa9ef7b,66229d94094ac4f560514077,,,,,,,,,,,,,,,,,,,,,,,,,,,,,,,,,,147.1742,149.265,"[7,6,8,2,3,4,1,5]","[[-0.3,0.2],[0.3,0.2]]","[[-0.125,-0.2],[0.125,-0.2]]",-0.096296296,-0.186111111,1,0,0,1.5876,o1_image,149.2655,0,149.7617,149.7618,151.7618,0,0,0,0,1,,,,,,,,,,,,,,,,,,,,,,,,,,,,,,,,,,,,,,,,,,,,,,,,,,
,,5dfe7de0bf3d4eb1cc979a7a,22,male,2024-04-19_18h37.30.160,stockport_simplified,2022.2.4,Win32,163.9344262,661e456ee6de07e70aa9ef7b,66229d94094ac4f560514077,,,,,,,,,,,,,,,,,,,,,,,,,,,,,,,,,,,,,,,,,,,,,,,,,,,,,,,,0,5,5,29,1,N,M,D,o2_image,stimuli/out2.png,stimuli/out1.png,stimuli/correct_out2.png,,,,,,,,,,,,,,,,,,,,,,,,,,,,,,,,,,,,,,
,,5dfe7de0bf3d4eb1cc979a7a,22,male,2024-04-19_18h37.30.160,stockport_simplified,2022.2.4,Win32,163.9344262,661e456ee6de07e70aa9ef7b,66229d94094ac4f560514077,,,,,,,,,,,,,,,,,,,,,,,,,,,,,,,,,,151.7621,154.6469,"[7,6,8,2,3,4,1,5]","[[0.3,0.2],[-0.3,0.2]]","[[0.125,-0.2],[-0.125,-0.2]]",-0.093518519,-0.186111111,1,0,0,2.3815,o2_image,154.6529,1,155.1499,155.1499,157.15,0,0,0,0,1,,,,,,,,,,,,,,,,,,,,,,,,,,,,,,,,,,,,,,,,,,,,,,,,,,
,,5dfe7de0bf3d4eb1cc979a7a,22,male,2024-04-19_18h37.30.160,stockport_simplified,2022.2.4,Win32,163.9344262,661e456ee6de07e70aa9ef7b,66229d94094ac4f560514077,,,,,,,,,,,,,,,,,,,,,,,,,,,,,,,,,,,,,,,,,,,,,,,,,,,,,,,,0,6,6,10,1,B,X,N,o2_image,stimuli/out2.png,stimuli/out1.png,stimuli/correct_out2.png,,,,,,,,,,,,,,,,,,,,,,,,,,,,,,,,,,,,,,
,,5dfe7de0bf3d4eb1cc979a7a,22,male,2024-04-19_18h37.30.160,stockport_simplified,2022.2.4,Win32,163.9344262,661e456ee6de07e70aa9ef7b,66229d94094ac4f560514077,,,,,,,,,,,,,,,,,,,,,,,,,,,,,,,,,,157.1502,159.5441,"[7,6,8,2,3,4,1,5]","[[0.3,0.2],[-0.3,0.2]]","[[0.125,-0.2],[-0.125,-0.2]]",-0.089814815,-0.186111111,1,0,0,1.8906,o2_image,159.5445,1,160.0412,160.0412,162.0412,0,0,0,0,1,,,,,,,,,,,,,,,,,,,,,,,,,,,,,,,,,,,,,,,,,,,,,,,,,,
,,5dfe7de0bf3d4eb1cc979a7a,22,male,2024-04-19_18h37.30.160,stockport_simplified,2022.2.4,Win32,163.9344262,661e456ee6de07e70aa9ef7b,66229d94094ac4f560514077,,,,,,,,,,,,,,,,,,,,,,,,,,,,,,,,,,,,,,,,,,,,,,,,,,,,,,,,0,7,7,25,1,N,M,D,o2_image,stimuli/out2.png,stimuli/out1.png,stimuli/correct_out2.png,,,,,,,,,,,,,,,,,,,,,,,,,,,,,,,,,,,,,,
,,5dfe7de0bf3d4eb1cc979a7a,22,male,2024-04-19_18h37.30.160,stockport_simplified,2022.2.4,Win32,163.9344262,661e456ee6de07e70aa9ef7b,66229d94094ac4f560514077,,,,,,,,,,,,,,,,,,,,,,,,,,,,,,,,,,162.0416,163.2837,"[7,6,8,2,3,4,1,5]","[[-0.3,0.2],[0.3,0.2]]","[[-0.125,-0.2],[0.125,-0.2]]",-0.088888889,-0.185185185,1,0,0,0.7394,o1_image,163.2842,0,163.7807,163.7807,165.7812,0,0,0,0,1,,,,,,,,,,,,,,,,,,,,,,,,,,,,,,,,,,,,,,,,,,,,,,,,,,
,,5dfe7de0bf3d4eb1cc979a7a,22,male,2024-04-19_18h37.30.160,stockport_simplified,2022.2.4,Win32,163.9344262,661e456ee6de07e70aa9ef7b,66229d94094ac4f560514077,,,,,,,,,,,,,,,,,,,,,,,,,,,,,,,,,,,,,,,,,,,,,,,,,,,,,,,,0,8,8,27,1,N,M,D,o2_image,stimuli/out2.png,stimuli/out1.png,stimuli/correct_out2.png,,,,,,,,,,,,,,,,,,,,,,,,,,,,,,,,,,,,,,
,,5dfe7de0bf3d4eb1cc979a7a,22,male,2024-04-19_18h37.30.160,stockport_simplified,2022.2.4,Win32,163.9344262,661e456ee6de07e70aa9ef7b,66229d94094ac4f560514077,,,,,,,,,,,,,,,,,,,,,,,,,,,,,,,,,,165.7816,167.7811,"[7,6,8,2,3,4,1,5]","[[-0.3,0.2],[0.3,0.2]]","[[-0.125,-0.2],[0.125,-0.2]]",-0.1,-0.189814815,1,0,0,1.4969,o1_image,167.7816,1,168.2777,168.2778,170.278,0,0,0,0,1,,,,,,,,,,,,,,,,,,,,,,,,,,,,,,,,,,,,,,,,,,,,,,,,,,
,,5dfe7de0bf3d4eb1cc979a7a,22,male,2024-04-19_18h37.30.160,stockport_simplified,2022.2.4,Win32,163.9344262,661e456ee6de07e70aa9ef7b,66229d94094ac4f560514077,,,,,,,,,,,,,,,,,,,,,,,,,,,,,,,,,,,,,,,,,,,,,,,,,,,,,,,,0,9,9,23,1,N,M,C,o1_image,stimuli/out1.png,stimuli/correct_out1.png,stimuli/out2.png,,,,,,,,,,,,,,,,,,,,,,,,,,,,,,,,,,,,,,
,,5dfe7de0bf3d4eb1cc979a7a,22,male,2024-04-19_18h37.30.160,stockport_simplified,2022.2.4,Win32,163.9344262,661e456ee6de07e70aa9ef7b,66229d94094ac4f560514077,,,,,,,,,,,,,,,,,,,,,,,,,,,,,,,,,,170.2785,173.175,"[7,6,8,2,3,4,1,5]","[[0.3,0.2],[-0.3,0.2]]","[[0.125,-0.2],[-0.125,-0.2]]",-0.098148148,-0.197222222,1,0,0,2.3935,o2_image,173.1755,0,173.6719,173.672,175.672,0,0,0,0,1,,,,,,,,,,,,,,,,,,,,,,,,,,,,,,,,,,,,,,,,,,,,,,,,,,
,,5dfe7de0bf3d4eb1cc979a7a,22,male,2024-04-19_18h37.30.160,stockport_simplified,2022.2.4,Win32,163.9344262,661e456ee6de07e70aa9ef7b,66229d94094ac4f560514077,,,,,,,,,,,,,,,,,,,,,,,,,,,,,,,,,,,,,,,,,,,,,,,,,,,,,,,,0,10,10,38,1,A,Y,N,o1_image,stimuli/out1.png,stimuli/correct_out1.png,stimuli/out2.png,,,,,,,,,,,,,,,,,,,,,,,,,,,,,,,,,,,,,,
,,5dfe7de0bf3d4eb1cc979a7a,22,male,2024-04-19_18h37.30.160,stockport_simplified,2022.2.4,Win32,163.9344262,661e456ee6de07e70aa9ef7b,66229d94094ac4f560514077,,,,,,,,,,,,,,,,,,,,,,,,,,,,,,,,,,175.6724,179.5996,"[7,6,8,2,3,4,1,5]","[[-0.3,0.2],[0.3,0.2]]","[[0.125,-0.2],[-0.125,-0.2]]",-0.075925926,-0.192592593,1,0,0,3.4241,o2_image,179.6055,1,180.1026,180.1026,182.1027,0,0,0,0,1,,,,,,,,,,,,,,,,,,,,,,,,,,,,,,,,,,,,,,,,,,,,,,,,,,
,,5dfe7de0bf3d4eb1cc979a7a,22,male,2024-04-19_18h37.30.160,stockport_simplified,2022.2.4,Win32,163.9344262,661e456ee6de07e70aa9ef7b,66229d94094ac4f560514077,,,,,,,,,,,,,,,,,,,,,,,,,,,,,,,,,,,,,,,,,,,,,,,,,,,,,,,,0,11,11,46,1,B,Y,N,o2_image,stimuli/out2.png,stimuli/out1.png,stimuli/correct_out2.png,,,,,,,,,,,,,,,,,,,,,,,,,,,,,,,,,,,,,,
,,5dfe7de0bf3d4eb1cc979a7a,22,male,2024-04-19_18h37.30.160,stockport_simplified,2022.2.4,Win32,163.9344262,661e456ee6de07e70aa9ef7b,66229d94094ac4f560514077,,,,,,,,,,,,,,,,,,,,,,,,,,,,,,,,,,182.103,183.9937,"[7,6,8,2,3,4,1,5]","[[-0.3,0.2],[0.3,0.2]]","[[0.125,-0.2],[-0.125,-0.2]]",0.081481481,-0.194444444,1,0,0,1.3877,o1_image,183.9942,1,184.4906,184.4906,186.491,0,0,0,0,1,,,,,,,,,,,,,,,,,,,,,,,,,,,,,,,,,,,,,,,,,,,,,,,,,,
,,5dfe7de0bf3d4eb1cc979a7a,22,male,2024-04-19_18h37.30.160,stockport_simplified,2022.2.4,Win32,163.9344262,661e456ee6de07e70aa9ef7b,66229d94094ac4f560514077,,,,,,,,,,,,,,,,,,,,,,,,,,,,,,,,,,,,,,,,,,,,,,,,,,,,,,,,0,12,12,30,1,A,X,N,o1_image,stimuli/out1.png,stimuli/correct_out1.png,stimuli/out2.png,,,,,,,,,,,,,,,,,,,,,,,,,,,,,,,,,,,,,,
,,5dfe7de0bf3d4eb1cc979a7a,22,male,2024-04-19_18h37.30.160,stockport_simplified,2022.2.4,Win32,163.9344262,661e456ee6de07e70aa9ef7b,66229d94094ac4f560514077,,,,,,,,,,,,,,,,,,,,,,,,,,,,,,,,,,186.4914,188.297,"[7,6,8,2,3,4,1,5]","[[-0.3,0.2],[0.3,0.2]]","[[0.125,-0.2],[-0.125,-0.2]]",-0.062962963,-0.189814815,1,0,0,1.3028,o2_image,188.2973,1,188.7939,188.7939,190.7941,0,0,0,0,1,,,,,,,,,,,,,,,,,,,,,,,,,,,,,,,,,,,,,,,,,,,,,,,,,,
,,5dfe7de0bf3d4eb1cc979a7a,22,male,2024-04-19_18h37.30.160,stockport_simplified,2022.2.4,Win32,163.9344262,661e456ee6de07e70aa9ef7b,66229d94094ac4f560514077,,,,,,,,,,,,,,,,,,,,,,,,,,,,,,,,,,,,,,,,,,,,,,,,,,,,,,,,0,13,13,15,1,B,Y,N,o2_image,stimuli/out2.png,stimuli/out1.png,stimuli/correct_out2.png,,,,,,,,,,,,,,,,,,,,,,,,,,,,,,,,,,,,,,
,,5dfe7de0bf3d4eb1cc979a7a,22,male,2024-04-19_18h37.30.160,stockport_simplified,2022.2.4,Win32,163.9344262,661e456ee6de07e70aa9ef7b,66229d94094ac4f560514077,,,,,,,,,,,,,,,,,,,,,,,,,,,,,,,,,,190.7944,193.77,"[7,6,8,2,3,4,1,5]","[[-0.3,0.2],[0.3,0.2]]","[[0.125,-0.2],[-0.125,-0.2]]",-0.037037037,-0.212037037,1,0,0,2.1271,o2_image,193.7705,0,194.2669,194.267,196.267,0,0,0,0,1,,,,,,,,,,,,,,,,,,,,,,,,,,,,,,,,,,,,,,,,,,,,,,,,,,
,,5dfe7de0bf3d4eb1cc979a7a,22,male,2024-04-19_18h37.30.160,stockport_simplified,2022.2.4,Win32,163.9344262,661e456ee6de07e70aa9ef7b,66229d94094ac4f560514077,,,,,,,,,,,,,,,,,,,,,,,,,,,,,,,,,,,,,,,,,,,,,,,,,,,,,,,,0,14,14,31,1,A,X,N,o1_image,stimuli/out1.png,stimuli/correct_out1.png,stimuli/out2.png,,,,,,,,,,,,,,,,,,,,,,,,,,,,,,,,,,,,,,
,,5dfe7de0bf3d4eb1cc979a7a,22,male,2024-04-19_18h37.30.160,stockport_simplified,2022.2.4,Win32,163.9344262,661e456ee6de07e70aa9ef7b,66229d94094ac4f560514077,,,,,,,,,,,,,,,,,,,,,,,,,,,,,,,,,,196.2673,198.4429,"[7,6,8,2,3,4,1,5]","[[0.3,0.2],[-0.3,0.2]]","[[-0.125,-0.2],[0.125,-0.2]]",0.087037037,-0.206481481,1,0,0,1.6725,o2_image,198.4434,1,198.9398,198.9399,200.94,0,0,0,0,1,,,,,,,,,,,,,,,,,,,,,,,,,,,,,,,,,,,,,,,,,,,,,,,,,,
,,5dfe7de0bf3d4eb1cc979a7a,22,male,2024-04-19_18h37.30.160,stockport_simplified,2022.2.4,Win32,163.9344262,661e456ee6de07e70aa9ef7b,66229d94094ac4f560514077,,,,,,,,,,,,,,,,,,,,,,,,,,,,,,,,,,,,,,,,,,,,,,,,,,,,,,,,0,15,15,59,1,N,M,D,o2_image,stimuli/out2.png,stimuli/out1.png,stimuli/correct_out2.png,,,,,,,,,,,,,,,,,,,,,,,,,,,,,,,,,,,,,,
,,5dfe7de0bf3d4eb1cc979a7a,22,male,2024-04-19_18h37.30.160,stockport_simplified,2022.2.4,Win32,163.9344262,661e456ee6de07e70aa9ef7b,66229d94094ac4f560514077,,,,,,,,,,,,,,,,,,,,,,,,,,,,,,,,,,200.9404,203.438,"[7,6,8,2,3,4,1,5]","[[-0.3,0.2],[0.3,0.2]]","[[-0.125,-0.2],[0.125,-0.2]]",-0.090740741,-0.209259259,1,0,0,1.9943,o1_image,203.4384,0,203.9341,203.9342,205.9342,0,0,0,0,1,,,,,,,,,,,,,,,,,,,,,,,,,,,,,,,,,,,,,,,,,,,,,,,,,,
,,5dfe7de0bf3d4eb1cc979a7a,22,male,2024-04-19_18h37.30.160,stockport_simplified,2022.2.4,Win32,163.9344262,661e456ee6de07e70aa9ef7b,66229d94094ac4f560514077,,,,,,,,,,,,,,,,,,,,,,,,,,,,,,,,,,,,,,,,,,,,,,,,,,,,,,,,0,16,16,12,1,B,X,N,o2_image,stimuli/out2.png,stimuli/out1.png,stimuli/correct_out2.png,,,,,,,,,,,,,,,,,,,,,,,,,,,,,,,,,,,,,,
,,5dfe7de0bf3d4eb1cc979a7a,22,male,2024-04-19_18h37.30.160,stockport_simplified,2022.2.4,Win32,163.9344262,661e456ee6de07e70aa9ef7b,66229d94094ac4f560514077,,,,,,,,,,,,,,,,,,,,,,,,,,,,,,,,,,205.9345,208.001,"[7,6,8,2,3,4,1,5]","[[-0.3,0.2],[0.3,0.2]]","[[-0.125,-0.2],[0.125,-0.2]]",-0.096296296,-0.207407407,1,0,0,1.5638,o1_image,208.0015,0,208.4979,208.4979,210.498,0,0,0,0,1,,,,,,,,,,,,,,,,,,,,,,,,,,,,,,,,,,,,,,,,,,,,,,,,,,
,,5dfe7de0bf3d4eb1cc979a7a,22,male,2024-04-19_18h37.30.160,stockport_simplified,2022.2.4,Win32,163.9344262,661e456ee6de07e70aa9ef7b,66229d94094ac4f560514077,,,,,,,,,,,,,,,,,,,,,,,,,,,,,,,,,,,,,,,,,,,,,,,,,,,,,,,,0,17,17,42,1,B,X,N,o2_image,stimuli/out2.png,stimuli/out1.png,stimuli/correct_out2.png,,,,,,,,,,,,,,,,,,,,,,,,,,,,,,,,,,,,,,
,,5dfe7de0bf3d4eb1cc979a7a,22,male,2024-04-19_18h37.30.160,stockport_simplified,2022.2.4,Win32,163.9344262,661e456ee6de07e70aa9ef7b,66229d94094ac4f560514077,,,,,,,,,,,,,,,,,,,,,,,,,,,,,,,,,,210.4982,212.6316,"[7,6,8,2,3,4,1,5]","[[-0.3,0.2],[0.3,0.2]]","[[-0.125,-0.2],[0.125,-0.2]]",-0.098148148,-0.205555556,1,0,0,1.6299,o1_image,212.632,1,213.1285,213.1285,215.1286,0,0,0,0,1,,,,,,,,,,,,,,,,,,,,,,,,,,,,,,,,,,,,,,,,,,,,,,,,,,
,,5dfe7de0bf3d4eb1cc979a7a,22,male,2024-04-19_18h37.30.160,stockport_simplified,2022.2.4,Win32,163.9344262,661e456ee6de07e70aa9ef7b,66229d94094ac4f560514077,,,,,,,,,,,,,,,,,,,,,,,,,,,,,,,,,,,,,,,,,,,,,,,,,,,,,,,,0,18,18,53,1,N,M,C,o1_image,stimuli/out1.png,stimuli/correct_out1.png,stimuli/out2.png,,,,,,,,,,,,,,,,,,,,,,,,,,,,,,,,,,,,,,
,,5dfe7de0bf3d4eb1cc979a7a,22,male,2024-04-19_18h37.30.160,stockport_simplified,2022.2.4,Win32,163.9344262,661e456ee6de07e70aa9ef7b,66229d94094ac4f560514077,,,,,,,,,,,,,,,,,,,,,,,,,,,,,,,,,,215.1288,218.7591,"[7,6,8,2,3,4,1,5]","[[-0.3,0.2],[0.3,0.2]]","[[-0.125,-0.2],[0.125,-0.2]]",-0.107407407,-0.198148148,1,0,0,3.1271,o1_image,218.7649,1,219.2621,219.2621,221.2621,0,0,0,0,1,,,,,,,,,,,,,,,,,,,,,,,,,,,,,,,,,,,,,,,,,,,,,,,,,,
,,5dfe7de0bf3d4eb1cc979a7a,22,male,2024-04-19_18h37.30.160,stockport_simplified,2022.2.4,Win32,163.9344262,661e456ee6de07e70aa9ef7b,66229d94094ac4f560514077,,,,,,,,,,,,,,,,,,,,,,,,,,,,,,,,,,,,,,,,,,,,,,,,,,,,,,,,0,19,19,35,1,A,Y,N,o1_image,stimuli/out1.png,stimuli/correct_out1.png,stimuli/out2.png,,,,,,,,,,,,,,,,,,,,,,,,,,,,,,,,,,,,,,
,,5dfe7de0bf3d4eb1cc979a7a,22,male,2024-04-19_18h37.30.160,stockport_simplified,2022.2.4,Win32,163.9344262,661e456ee6de07e70aa9ef7b,66229d94094ac4f560514077,,,,,,,,,,,,,,,,,,,,,,,,,,,,,,,,,,221.2623,223.6987,"[7,6,8,2,3,4,1,5]","[[-0.3,0.2],[0.3,0.2]]","[[0.125,-0.2],[-0.125,-0.2]]",0.061111111,-0.212037037,1,0,0,1.9332,o1_image,223.6992,0,224.1959,224.196,226.1961,0,0,0,0,1,,,,,,,,,,,,,,,,,,,,,,,,,,,,,,,,,,,,,,,,,,,,,,,,,,
,,5dfe7de0bf3d4eb1cc979a7a,22,male,2024-04-19_18h37.30.160,stockport_simplified,2022.2.4,Win32,163.9344262,661e456ee6de07e70aa9ef7b,66229d94094ac4f560514077,,,,,,,,,,,,,,,,,,,,,,,,,,,,,,,,,,,,,,,,,,,,,,,,,,,,,,,,0,20,20,40,1,B,X,N,o2_image,stimuli/out2.png,stimuli/out1.png,stimuli/correct_out2.png,,,,,,,,,,,,,,,,,,,,,,,,,,,,,,,,,,,,,,
,,5dfe7de0bf3d4eb1cc979a7a,22,male,2024-04-19_18h37.30.160,stockport_simplified,2022.2.4,Win32,163.9344262,661e456ee6de07e70aa9ef7b,66229d94094ac4f560514077,,,,,,,,,,,,,,,,,,,,,,,,,,,,,,,,,,226.1963,230.7961,"[7,6,8,2,3,4,1,5]","[[0.3,0.2],[-0.3,0.2]]","[[0.125,-0.2],[-0.125,-0.2]]",0.077777778,-0.192592593,1,0,0,4.0969,o1_image,230.802,1,231.2991,231.2991,233.2991,0,0,0,0,1,,,,,,,,,,,,,,,,,,,,,,,,,,,,,,,,,,,,,,,,,,,,,,,,,,
,,5dfe7de0bf3d4eb1cc979a7a,22,male,2024-04-19_18h37.30.160,stockport_simplified,2022.2.4,Win32,163.9344262,661e456ee6de07e70aa9ef7b,66229d94094ac4f560514077,,,,,,,,,,,,,,,,,,,,,,,,,,,,,,,,,,,,,,,,,,,,,,,,,,,,,,,,0,21,21,4,1,A,X,N,o1_image,stimuli/out1.png,stimuli/correct_out1.png,stimuli/out2.png,,,,,,,,,,,,,,,,,,,,,,,,,,,,,,,,,,,,,,
,,5dfe7de0bf3d4eb1cc979a7a,22,male,2024-04-19_18h37.30.160,stockport_simplified,2022.2.4,Win32,163.9344262,661e456ee6de07e70aa9ef7b,66229d94094ac4f560514077,,,,,,,,,,,,,,,,,,,,,,,,,,,,,,,,,,233.2994,235.5235,"[7,6,8,2,3,4,1,5]","[[0.3,0.2],[-0.3,0.2]]","[[-0.125,-0.2],[0.125,-0.2]]",-0.103703704,-0.213888889,1,0,0,1.721,o1_image,235.524,1,236.0204,236.0204,238.0205,0,0,0,0,1,,,,,,,,,,,,,,,,,,,,,,,,,,,,,,,,,,,,,,,,,,,,,,,,,,
,,5dfe7de0bf3d4eb1cc979a7a,22,male,2024-04-19_18h37.30.160,stockport_simplified,2022.2.4,Win32,163.9344262,661e456ee6de07e70aa9ef7b,66229d94094ac4f560514077,,,,,,,,,,,,,,,,,,,,,,,,,,,,,,,,,,,,,,,,,,,,,,,,,,,,,,,,0,22,22,9,1,A,Y,N,o1_image,stimuli/out1.png,stimuli/correct_out1.png,stimuli/out2.png,,,,,,,,,,,,,,,,,,,,,,,,,,,,,,,,,,,,,,
,,5dfe7de0bf3d4eb1cc979a7a,22,male,2024-04-19_18h37.30.160,stockport_simplified,2022.2.4,Win32,163.9344262,661e456ee6de07e70aa9ef7b,66229d94094ac4f560514077,,,,,,,,,,,,,,,,,,,,,,,,,,,,,,,,,,238.0207,241.8826,"[7,6,8,2,3,4,1,5]","[[-0.3,0.2],[0.3,0.2]]","[[0.125,-0.2],[-0.125,-0.2]]",0.074074074,-0.190740741,1,0,0,3.3583,o1_image,241.8889,1,242.3905,242.3906,244.3906,0,0,0,0,1,,,,,,,,,,,,,,,,,,,,,,,,,,,,,,,,,,,,,,,,,,,,,,,,,,
,,5dfe7de0bf3d4eb1cc979a7a,22,male,2024-04-19_18h37.30.160,stockport_simplified,2022.2.4,Win32,163.9344262,661e456ee6de07e70aa9ef7b,66229d94094ac4f560514077,,,,,,,,,,,,,,,,,,,,,,,,,,,,,,,,,,,,,,,,,,,,,,,,,,,,,,,,0,23,23,36,1,A,Y,N,o1_image,stimuli/out1.png,stimuli/correct_out1.png,stimuli/out2.png,,,,,,,,,,,,,,,,,,,,,,,,,,,,,,,,,,,,,,
,,5dfe7de0bf3d4eb1cc979a7a,22,male,2024-04-19_18h37.30.160,stockport_simplified,2022.2.4,Win32,163.9344262,661e456ee6de07e70aa9ef7b,66229d94094ac4f560514077,,,,,,,,,,,,,,,,,,,,,,,,,,,,,,,,,,244.3908,246.324,"[7,6,8,2,3,4,1,5]","[[-0.3,0.2],[0.3,0.2]]","[[0.125,-0.2],[-0.125,-0.2]]",-0.073148148,-0.209259259,1,0,0,1.4301,o2_image,246.3245,0,246.8211,246.8211,248.8214,0,0,0,0,1,,,,,,,,,,,,,,,,,,,,,,,,,,,,,,,,,,,,,,,,,,,,,,,,,,
,,5dfe7de0bf3d4eb1cc979a7a,22,male,2024-04-19_18h37.30.160,stockport_simplified,2022.2.4,Win32,163.9344262,661e456ee6de07e70aa9ef7b,66229d94094ac4f560514077,,,,,,,,,,,,,,,,,,,,,,,,,,,,,,,,,,,,,,,,,,,,,,,,,,,,,,,,0,24,24,1,1,A,X,N,o1_image,stimuli/out1.png,stimuli/correct_out1.png,stimuli/out2.png,,,,,,,,,,,,,,,,,,,,,,,,,,,,,,,,,,,,,,
,,5dfe7de0bf3d4eb1cc979a7a,22,male,2024-04-19_18h37.30.160,stockport_simplified,2022.2.4,Win32,163.9344262,661e456ee6de07e70aa9ef7b,66229d94094ac4f560514077,,,,,,,,,,,,,,,,,,,,,,,,,,,,,,,,,,248.8217,252.5851,"[7,6,8,2,3,4,1,5]","[[0.3,0.2],[-0.3,0.2]]","[[0.125,-0.2],[-0.125,-0.2]]",-0.066666667,-0.189814815,1,0,0,3.2605,o2_image,252.5915,0,253.0879,253.0879,255.088,0,0,0,0,1,,,,,,,,,,,,,,,,,,,,,,,,,,,,,,,,,,,,,,,,,,,,,,,,,,
,,5dfe7de0bf3d4eb1cc979a7a,22,male,2024-04-19_18h37.30.160,stockport_simplified,2022.2.4,Win32,163.9344262,661e456ee6de07e70aa9ef7b,66229d94094ac4f560514077,,,,,,,,,,,,,,,,,,,,,,,,,,,,,,,,,,,,,,,,,,,,,,,,,,,,,,,,0,25,25,5,1,A,Y,N,o1_image,stimuli/out1.png,stimuli/correct_out1.png,stimuli/out2.png,,,,,,,,,,,,,,,,,,,,,,,,,,,,,,,,,,,,,,
,,5dfe7de0bf3d4eb1cc979a7a,22,male,2024-04-19_18h37.30.160,stockport_simplified,2022.2.4,Win32,163.9344262,661e456ee6de07e70aa9ef7b,66229d94094ac4f560514077,,,,,,,,,,,,,,,,,,,,,,,,,,,,,,,,,,255.0882,258.8824,"[7,6,8,2,3,4,1,5]","[[0.3,0.2],[-0.3,0.2]]","[[-0.125,-0.2],[0.125,-0.2]]",0.090740741,-0.161111111,1,0,0,3.2909,o2_image,258.8887,0,259.3853,259.3854,261.3854,0,0,0,0,1,,,,,,,,,,,,,,,,,,,,,,,,,,,,,,,,,,,,,,,,,,,,,,,,,,
,,5dfe7de0bf3d4eb1cc979a7a,22,male,2024-04-19_18h37.30.160,stockport_simplified,2022.2.4,Win32,163.9344262,661e456ee6de07e70aa9ef7b,66229d94094ac4f560514077,,,,,,,,,,,,,,,,,,,,,,,,,,,,,,,,,,,,,,,,,,,,,,,,,,,,,,,,0,26,26,20,1,N,M,C,o1_image,stimuli/out1.png,stimuli/correct_out1.png,stimuli/out2.png,,,,,,,,,,,,,,,,,,,,,,,,,,,,,,,,,,,,,,
,,5dfe7de0bf3d4eb1cc979a7a,22,male,2024-04-19_18h37.30.160,stockport_simplified,2022.2.4,Win32,163.9344262,661e456ee6de07e70aa9ef7b,66229d94094ac4f560514077,,,,,,,,,,,,,,,,,,,,,,,,,,,,,,,,,,261.3859,263.7129,"[7,6,8,2,3,4,1,5]","[[-0.3,0.2],[0.3,0.2]]","[[-0.125,-0.2],[0.125,-0.2]]",-0.125,-0.184259259,1,0,0,1.8241,o1_image,263.7133,0,264.2099,264.21,266.2098,0,0,0,0,1,,,,,,,,,,,,,,,,,,,,,,,,,,,,,,,,,,,,,,,,,,,,,,,,,,
,,5dfe7de0bf3d4eb1cc979a7a,22,male,2024-04-19_18h37.30.160,stockport_simplified,2022.2.4,Win32,163.9344262,661e456ee6de07e70aa9ef7b,66229d94094ac4f560514077,,,,,,,,,,,,,,,,,,,,,,,,,,,,,,,,,,,,,,,,,,,,,,,,,,,,,,,,0,27,27,13,1,B,X,N,o2_image,stimuli/out2.png,stimuli/out1.png,stimuli/correct_out2.png,,,,,,,,,,,,,,,,,,,,,,,,,,,,,,,,,,,,,,
,,5dfe7de0bf3d4eb1cc979a7a,22,male,2024-04-19_18h37.30.160,stockport_simplified,2022.2.4,Win32,163.9344262,661e456ee6de07e70aa9ef7b,66229d94094ac4f560514077,,,,,,,,,,,,,,,,,,,,,,,,,,,,,,,,,,266.2101,269.4888,"[7,6,8,2,3,4,1,5]","[[-0.3,0.2],[0.3,0.2]]","[[-0.125,-0.2],[0.125,-0.2]]",0.068518519,-0.193518519,1,0,0,2.7757,o2_image,269.4891,1,269.9858,269.9858,271.9858,0,0,0,0,1,,,,,,,,,,,,,,,,,,,,,,,,,,,,,,,,,,,,,,,,,,,,,,,,,,
,,5dfe7de0bf3d4eb1cc979a7a,22,male,2024-04-19_18h37.30.160,stockport_simplified,2022.2.4,Win32,163.9344262,661e456ee6de07e70aa9ef7b,66229d94094ac4f560514077,,,,,,,,,,,,,,,,,,,,,,,,,,,,,,,,,,,,,,,,,,,,,,,,,,,,,,,,0,28,28,11,1,B,X,N,o2_image,stimuli/out2.png,stimuli/out1.png,stimuli/correct_out2.png,,,,,,,,,,,,,,,,,,,,,,,,,,,,,,,,,,,,,,
,,5dfe7de0bf3d4eb1cc979a7a,22,male,2024-04-19_18h37.30.160,stockport_simplified,2022.2.4,Win32,163.9344262,661e456ee6de07e70aa9ef7b,66229d94094ac4f560514077,,,,,,,,,,,,,,,,,,,,,,,,,,,,,,,,,,271.9861,274.7194,"[7,6,8,2,3,4,1,5]","[[-0.3,0.2],[0.3,0.2]]","[[0.125,-0.2],[-0.125,-0.2]]",0.083333333,-0.192592593,1,0,0,2.2303,o1_image,274.7255,0,275.2223,275.2223,277.2225,0,0,0,0,1,,,,,,,,,,,,,,,,,,,,,,,,,,,,,,,,,,,,,,,,,,,,,,,,,,
,,5dfe7de0bf3d4eb1cc979a7a,22,male,2024-04-19_18h37.30.160,stockport_simplified,2022.2.4,Win32,163.9344262,661e456ee6de07e70aa9ef7b,66229d94094ac4f560514077,,,,,,,,,,,,,,,,,,,,,,,,,,,,,,,,,,,,,,,,,,,,,,,,,,,,,,,,0,29,29,58,1,N,M,D,o2_image,stimuli/out2.png,stimuli/out1.png,stimuli/correct_out2.png,,,,,,,,,,,,,,,,,,,,,,,,,,,,,,,,,,,,,,
,,5dfe7de0bf3d4eb1cc979a7a,22,male,2024-04-19_18h37.30.160,stockport_simplified,2022.2.4,Win32,163.9344262,661e456ee6de07e70aa9ef7b,66229d94094ac4f560514077,,,,,,,,,,,,,,,,,,,,,,,,,,,,,,,,,,277.2228,279.762,"[7,6,8,2,3,4,1,5]","[[-0.3,0.2],[0.3,0.2]]","[[-0.125,-0.2],[0.125,-0.2]]",-0.098148148,-0.187037037,1,0,0,2.0362,o1_image,279.7625,1,280.2591,280.2591,282.2591,0,0,0,0,1,,,,,,,,,,,,,,,,,,,,,,,,,,,,,,,,,,,,,,,,,,,,,,,,,,
,,5dfe7de0bf3d4eb1cc979a7a,22,male,2024-04-19_18h37.30.160,stockport_simplified,2022.2.4,Win32,163.9344262,661e456ee6de07e70aa9ef7b,66229d94094ac4f560514077,,,,,,,,,,,,,,,,,,,,,,,,,,,,,,,,,,,,,,,,,,,,,,,,,,,,,,,,0,30,30,24,1,N,M,C,o1_image,stimuli/out1.png,stimuli/correct_out1.png,stimuli/out2.png,,,,,,,,,,,,,,,,,,,,,,,,,,,,,,,,,,,,,,
,,5dfe7de0bf3d4eb1cc979a7a,22,male,2024-04-19_18h37.30.160,stockport_simplified,2022.2.4,Win32,163.9344262,661e456ee6de07e70aa9ef7b,66229d94094ac4f560514077,,,,,,,,,,,,,,,,,,,,,,,,,,,,,,,,,,282.2594,285.7017,"[7,6,8,2,3,4,1,5]","[[0.3,0.2],[-0.3,0.2]]","[[-0.125,-0.2],[0.125,-0.2]]",0.036111111,-0.199074074,1,0,0,2.6727,o2_image,285.7021,1,286.1988,286.1988,288.1988,0,0,0,0,1,,,,,,,,,,,,,,,,,,,,,,,,,,,,,,,,,,,,,,,,,,,,,,,,,,
,,5dfe7de0bf3d4eb1cc979a7a,22,male,2024-04-19_18h37.30.160,stockport_simplified,2022.2.4,Win32,163.9344262,661e456ee6de07e70aa9ef7b,66229d94094ac4f560514077,,,,,,,,,,,,,,,,,,,,,,,,,,,,,,,,,,,,,,,,,,,,,,,,,,,,,,,,0,31,31,17,1,B,Y,N,o2_image,stimuli/out2.png,stimuli/out1.png,stimuli/correct_out2.png,,,,,,,,,,,,,,,,,,,,,,,,,,,,,,,,,,,,,,
,,5dfe7de0bf3d4eb1cc979a7a,22,male,2024-04-19_18h37.30.160,stockport_simplified,2022.2.4,Win32,163.9344262,661e456ee6de07e70aa9ef7b,66229d94094ac4f560514077,,,,,,,,,,,,,,,,,,,,,,,,,,,,,,,,,,288.1991,291.7265,"[7,6,8,2,3,4,1,5]","[[0.3,0.2],[-0.3,0.2]]","[[-0.125,-0.2],[0.125,-0.2]]",0.065740741,-0.198148148,1,0,0,3.0243,o2_image,291.7271,0,292.2232,292.2233,294.2234,0,0,0,0,1,,,,,,,,,,,,,,,,,,,,,,,,,,,,,,,,,,,,,,,,,,,,,,,,,,
,,5dfe7de0bf3d4eb1cc979a7a,22,male,2024-04-19_18h37.30.160,stockport_simplified,2022.2.4,Win32,163.9344262,661e456ee6de07e70aa9ef7b,66229d94094ac4f560514077,,,,,,,,,,,,,,,,,,,,,,,,,,,,,,,,,,,,,,,,,,,,,,,,,,,,,,,,0,32,32,52,1,N,M,C,o1_image,stimuli/out1.png,stimuli/correct_out1.png,stimuli/out2.png,,,,,,,,,,,,,,,,,,,,,,,,,,,,,,,,,,,,,,
,,5dfe7de0bf3d4eb1cc979a7a,22,male,2024-04-19_18h37.30.160,stockport_simplified,2022.2.4,Win32,163.9344262,661e456ee6de07e70aa9ef7b,66229d94094ac4f560514077,,,,,,,,,,,,,,,,,,,,,,,,,,,,,,,,,,294.2236,297.1325,"[7,6,8,2,3,4,1,5]","[[0.3,0.2],[-0.3,0.2]]","[[0.125,-0.2],[-0.125,-0.2]]",0.060185185,-0.199074074,1,0,0,2.4059,o1_image,297.133,0,297.6296,297.6296,299.6296,0,0,0,0,1,,,,,,,,,,,,,,,,,,,,,,,,,,,,,,,,,,,,,,,,,,,,,,,,,,
,,5dfe7de0bf3d4eb1cc979a7a,22,male,2024-04-19_18h37.30.160,stockport_simplified,2022.2.4,Win32,163.9344262,661e456ee6de07e70aa9ef7b,66229d94094ac4f560514077,,,,,,,,,,,,,,,,,,,,,,,,,,,,,,,,,,,,,,,,,,,,,,,,,,,,,,,,0,33,33,18,1,B,Y,N,o2_image,stimuli/out2.png,stimuli/out1.png,stimuli/correct_out2.png,,,,,,,,,,,,,,,,,,,,,,,,,,,,,,,,,,,,,,
,,5dfe7de0bf3d4eb1cc979a7a,22,male,2024-04-19_18h37.30.160,stockport_simplified,2022.2.4,Win32,163.9344262,661e456ee6de07e70aa9ef7b,66229d94094ac4f560514077,,,,,,,,,,,,,,,,,,,,,,,,,,,,,,,,,,299.6299,303.7208,"[7,6,8,2,3,4,1,5]","[[0.3,0.2],[-0.3,0.2]]","[[0.125,-0.2],[-0.125,-0.2]]",0.111111111,-0.197222222,1,0,0,3.5879,o1_image,303.7267,1,304.2238,304.2238,306.2238,0,0,0,0,1,,,,,,,,,,,,,,,,,,,,,,,,,,,,,,,,,,,,,,,,,,,,,,,,,,
,,5dfe7de0bf3d4eb1cc979a7a,22,male,2024-04-19_18h37.30.160,stockport_simplified,2022.2.4,Win32,163.9344262,661e456ee6de07e70aa9ef7b,66229d94094ac4f560514077,,,,,,,,,,,,,,,,,,,,,,,,,,,,,,,,,,,,,,,,,,,,,,,,,,,,,,,,0,34,34,34,1,A,X,N,o1_image,stimuli/out1.png,stimuli/correct_out1.png,stimuli/out2.png,,,,,,,,,,,,,,,,,,,,,,,,,,,,,,,,,,,,,,
,,5dfe7de0bf3d4eb1cc979a7a,22,male,2024-04-19_18h37.30.160,stockport_simplified,2022.2.4,Win32,163.9344262,661e456ee6de07e70aa9ef7b,66229d94094ac4f560514077,,,,,,,,,,,,,,,,,,,,,,,,,,,,,,,,,,306.2242,308.4422,"[7,6,8,2,3,4,1,5]","[[-0.3,0.2],[0.3,0.2]]","[[0.125,-0.2],[-0.125,-0.2]]",-0.050925926,-0.235185185,1,0,0,1.715,o2_image,308.4426,1,308.9391,308.9391,310.9392,0,0,0,0,1,,,,,,,,,,,,,,,,,,,,,,,,,,,,,,,,,,,,,,,,,,,,,,,,,,
,,5dfe7de0bf3d4eb1cc979a7a,22,male,2024-04-19_18h37.30.160,stockport_simplified,2022.2.4,Win32,163.9344262,661e456ee6de07e70aa9ef7b,66229d94094ac4f560514077,,,,,,,,,,,,,,,,,,,,,,,,,,,,,,,,,,,,,,,,,,,,,,,,,,,,,,,,0,35,35,47,1,B,Y,N,o2_image,stimuli/out2.png,stimuli/out1.png,stimuli/correct_out2.png,,,,,,,,,,,,,,,,,,,,,,,,,,,,,,,,,,,,,,
,,5dfe7de0bf3d4eb1cc979a7a,22,male,2024-04-19_18h37.30.160,stockport_simplified,2022.2.4,Win32,163.9344262,661e456ee6de07e70aa9ef7b,66229d94094ac4f560514077,,,,,,,,,,,,,,,,,,,,,,,,,,,,,,,,,,310.9394,313.2849,"[7,6,8,2,3,4,1,5]","[[0.3,0.2],[-0.3,0.2]]","[[0.125,-0.2],[-0.125,-0.2]]",0.07037037,-0.194444444,1,0,0,1.842,o1_image,313.2852,1,313.7818,313.7818,315.7819,0,0,0,0,1,,,,,,,,,,,,,,,,,,,,,,,,,,,,,,,,,,,,,,,,,,,,,,,,,,
,,5dfe7de0bf3d4eb1cc979a7a,22,male,2024-04-19_18h37.30.160,stockport_simplified,2022.2.4,Win32,163.9344262,661e456ee6de07e70aa9ef7b,66229d94094ac4f560514077,,,,,,,,,,,,,,,,,,,,,,,,,,,,,,,,,,,,,,,,,,,,,,,,,,,,,,,,0,36,36,50,1,N,M,C,o1_image,stimuli/out1.png,stimuli/correct_out1.png,stimuli/out2.png,,,,,,,,,,,,,,,,,,,,,,,,,,,,,,,,,,,,,,
,,5dfe7de0bf3d4eb1cc979a7a,22,male,2024-04-19_18h37.30.160,stockport_simplified,2022.2.4,Win32,163.9344262,661e456ee6de07e70aa9ef7b,66229d94094ac4f560514077,,,,,,,,,,,,,,,,,,,,,,,,,,,,,,,,,,315.7822,318.7032,"[7,6,8,2,3,4,1,5]","[[0.3,0.2],[-0.3,0.2]]","[[0.125,-0.2],[-0.125,-0.2]]",-0.057407407,-0.198148148,1,0,0,2.4179,o2_image,318.7091,0,319.2065,319.2065,321.2065,0,0,0,0,1,,,,,,,,,,,,,,,,,,,,,,,,,,,,,,,,,,,,,,,,,,,,,,,,,,
,,5dfe7de0bf3d4eb1cc979a7a,22,male,2024-04-19_18h37.30.160,stockport_simplified,2022.2.4,Win32,163.9344262,661e456ee6de07e70aa9ef7b,66229d94094ac4f560514077,,,,,,,,,,,,,,,,,,,,,,,,,,,,,,,,,,,,,,,,,,,,,,,,,,,,,,,,0,37,37,7,1,A,Y,N,o1_image,stimuli/out1.png,stimuli/correct_out1.png,stimuli/out2.png,,,,,,,,,,,,,,,,,,,,,,,,,,,,,,,,,,,,,,
,,5dfe7de0bf3d4eb1cc979a7a,22,male,2024-04-19_18h37.30.160,stockport_simplified,2022.2.4,Win32,163.9344262,661e456ee6de07e70aa9ef7b,66229d94094ac4f560514077,,,,,,,,,,,,,,,,,,,,,,,,,,,,,,,,,,321.2067,323.6733,"[7,6,8,2,3,4,1,5]","[[-0.3,0.2],[0.3,0.2]]","[[-0.125,-0.2],[0.125,-0.2]]",-0.106481481,-0.194444444,1,0,0,1.9636,o1_image,323.6737,1,324.1702,324.1702,326.1703,0,0,0,0,1,,,,,,,,,,,,,,,,,,,,,,,,,,,,,,,,,,,,,,,,,,,,,,,,,,
,,5dfe7de0bf3d4eb1cc979a7a,22,male,2024-04-19_18h37.30.160,stockport_simplified,2022.2.4,Win32,163.9344262,661e456ee6de07e70aa9ef7b,66229d94094ac4f560514077,,,,,,,,,,,,,,,,,,,,,,,,,,,,,,,,,,,,,,,,,,,,,,,,,,,,,,,,0,38,38,32,1,A,X,N,o1_image,stimuli/out1.png,stimuli/correct_out1.png,stimuli/out2.png,,,,,,,,,,,,,,,,,,,,,,,,,,,,,,,,,,,,,,
,,5dfe7de0bf3d4eb1cc979a7a,22,male,2024-04-19_18h37.30.160,stockport_simplified,2022.2.4,Win32,163.9344262,661e456ee6de07e70aa9ef7b,66229d94094ac4f560514077,,,,,,,,,,,,,,,,,,,,,,,,,,,,,,,,,,326.1705,328.3765,"[7,6,8,2,3,4,1,5]","[[-0.3,0.2],[0.3,0.2]]","[[0.125,-0.2],[-0.125,-0.2]]",-0.133333333,-0.208333333,1,0,0,1.7031,o2_image,328.3769,0,328.8737,328.8737,330.8736,0,0,0,0,1,,,,,,,,,,,,,,,,,,,,,,,,,,,,,,,,,,,,,,,,,,,,,,,,,,
,,5dfe7de0bf3d4eb1cc979a7a,22,male,2024-04-19_18h37.30.160,stockport_simplified,2022.2.4,Win32,163.9344262,661e456ee6de07e70aa9ef7b,66229d94094ac4f560514077,,,,,,,,,,,,,,,,,,,,,,,,,,,,,,,,,,,,,,,,,,,,,,,,,,,,,,,,0,39,39,3,1,A,X,N,o1_image,stimuli/out1.png,stimuli/correct_out1.png,stimuli/out2.png,,,,,,,,,,,,,,,,,,,,,,,,,,,,,,,,,,,,,,
,,5dfe7de0bf3d4eb1cc979a7a,22,male,2024-04-19_18h37.30.160,stockport_simplified,2022.2.4,Win32,163.9344262,661e456ee6de07e70aa9ef7b,66229d94094ac4f560514077,,,,,,,,,,,,,,,,,,,,,,,,,,,,,,,,,,330.8739,333.5707,"[7,6,8,2,3,4,1,5]","[[-0.3,0.2],[0.3,0.2]]","[[0.125,-0.2],[-0.125,-0.2]]",0.113888889,-0.235185185,1,0,0,2.1937,o1_image,333.5712,1,334.0676,334.0676,336.0677,0,0,0,0,1,,,,,,,,,,,,,,,,,,,,,,,,,,,,,,,,,,,,,,,,,,,,,,,,,,
,,5dfe7de0bf3d4eb1cc979a7a,22,male,2024-04-19_18h37.30.160,stockport_simplified,2022.2.4,Win32,163.9344262,661e456ee6de07e70aa9ef7b,66229d94094ac4f560514077,,,,,,,,,,,,,,,,,,,,,,,,,,,,,,,,,,,,,,,,,,,,,,,,,,,,,,,,0,40,40,21,1,N,M,C,o1_image,stimuli/out1.png,stimuli/correct_out1.png,stimuli/out2.png,,,,,,,,,,,,,,,,,,,,,,,,,,,,,,,,,,,,,,
,,5dfe7de0bf3d4eb1cc979a7a,22,male,2024-04-19_18h37.30.160,stockport_simplified,2022.2.4,Win32,163.9344262,661e456ee6de07e70aa9ef7b,66229d94094ac4f560514077,,,,,,,,,,,,,,,,,,,,,,,,,,,,,,,,,,336.068,339.2255,"[7,6,8,2,3,4,1,5]","[[-0.3,0.2],[0.3,0.2]]","[[-0.125,-0.2],[0.125,-0.2]]",-0.103703704,-0.214814815,1,0,0,2.6539,o1_image,339.232,0,339.7286,339.7286,341.7295,0,0,0,0,1,,,,,,,,,,,,,,,,,,,,,,,,,,,,,,,,,,,,,,,,,,,,,,,,,,
,,5dfe7de0bf3d4eb1cc979a7a,22,male,2024-04-19_18h37.30.160,stockport_simplified,2022.2.4,Win32,163.9344262,661e456ee6de07e70aa9ef7b,66229d94094ac4f560514077,,,,,,,,,,,,,,,,,,,,,,,,,,,,,,,,,,,,,,,,,,,,,,,,,,,,,,,,0,41,41,41,1,B,X,N,o2_image,stimuli/out2.png,stimuli/out1.png,stimuli/correct_out2.png,,,,,,,,,,,,,,,,,,,,,,,,,,,,,,,,,,,,,,
,,5dfe7de0bf3d4eb1cc979a7a,22,male,2024-04-19_18h37.30.160,stockport_simplified,2022.2.4,Win32,163.9344262,661e456ee6de07e70aa9ef7b,66229d94094ac4f560514077,,,,,,,,,,,,,,,,,,,,,,,,,,,,,,,,,,341.7298,344.6016,"[7,6,8,2,3,4,1,5]","[[0.3,0.2],[-0.3,0.2]]","[[0.125,-0.2],[-0.125,-0.2]]",0.088888889,-0.212037037,1,0,0,2.3697,o1_image,344.6075,1,345.1046,345.1046,347.1047,0,0,0,0,1,,,,,,,,,,,,,,,,,,,,,,,,,,,,,,,,,,,,,,,,,,,,,,,,,,
,,5dfe7de0bf3d4eb1cc979a7a,22,male,2024-04-19_18h37.30.160,stockport_simplified,2022.2.4,Win32,163.9344262,661e456ee6de07e70aa9ef7b,66229d94094ac4f560514077,,,,,,,,,,,,,,,,,,,,,,,,,,,,,,,,,,,,,,,,,,,,,,,,,,,,,,,,0,42,42,51,1,N,M,C,o1_image,stimuli/out1.png,stimuli/correct_out1.png,stimuli/out2.png,,,,,,,,,,,,,,,,,,,,,,,,,,,,,,,,,,,,,,
,,5dfe7de0bf3d4eb1cc979a7a,22,male,2024-04-19_18h37.30.160,stockport_simplified,2022.2.4,Win32,163.9344262,661e456ee6de07e70aa9ef7b,66229d94094ac4f560514077,,,,,,,,,,,,,,,,,,,,,,,,,,,,,,,,,,347.1049,349.4562,"[7,6,8,2,3,4,1,5]","[[0.3,0.2],[-0.3,0.2]]","[[0.125,-0.2],[-0.125,-0.2]]",-0.09537037,-0.210185185,1,0,0,1.8484,o2_image,349.4567,1,349.9533,349.9533,351.9533,0,0,0,0,1,,,,,,,,,,,,,,,,,,,,,,,,,,,,,,,,,,,,,,,,,,,,,,,,,,
,,5dfe7de0bf3d4eb1cc979a7a,22,male,2024-04-19_18h37.30.160,stockport_simplified,2022.2.4,Win32,163.9344262,661e456ee6de07e70aa9ef7b,66229d94094ac4f560514077,,,,,,,,,,,,,,,,,,,,,,,,,,,,,,,,,,,,,,,,,,,,,,,,,,,,,,,,0,43,43,28,1,N,M,D,o2_image,stimuli/out2.png,stimuli/out1.png,stimuli/correct_out2.png,,,,,,,,,,,,,,,,,,,,,,,,,,,,,,,,,,,,,,
,,5dfe7de0bf3d4eb1cc979a7a,22,male,2024-04-19_18h37.30.160,stockport_simplified,2022.2.4,Win32,163.9344262,661e456ee6de07e70aa9ef7b,66229d94094ac4f560514077,,,,,,,,,,,,,,,,,,,,,,,,,,,,,,,,,,351.9536,354.8991,"[7,6,8,2,3,4,1,5]","[[0.3,0.2],[-0.3,0.2]]","[[0.125,-0.2],[-0.125,-0.2]]",-0.092592593,-0.207407407,1,0,0,2.4423,o2_image,354.9067,1,355.4081,355.4082,357.4082,0,0,0,0,1,,,,,,,,,,,,,,,,,,,,,,,,,,,,,,,,,,,,,,,,,,,,,,,,,,
,,5dfe7de0bf3d4eb1cc979a7a,22,male,2024-04-19_18h37.30.160,stockport_simplified,2022.2.4,Win32,163.9344262,661e456ee6de07e70aa9ef7b,66229d94094ac4f560514077,,,,,,,,,,,,,,,,,,,,,,,,,,,,,,,,,,,,,,,,,,,,,,,,,,,,,,,,0,44,44,44,1,B,X,N,o2_image,stimuli/out2.png,stimuli/out1.png,stimuli/correct_out2.png,,,,,,,,,,,,,,,,,,,,,,,,,,,,,,,,,,,,,,
,,5dfe7de0bf3d4eb1cc979a7a,22,male,2024-04-19_18h37.30.160,stockport_simplified,2022.2.4,Win32,163.9344262,661e456ee6de07e70aa9ef7b,66229d94094ac4f560514077,,,,,,,,,,,,,,,,,,,,,,,,,,,,,,,,,,357.4085,360.0912,"[7,6,8,2,3,4,1,5]","[[0.3,0.2],[-0.3,0.2]]","[[-0.125,-0.2],[0.125,-0.2]]",0.064814815,-0.202777778,1,0,0,2.1793,o2_image,360.0916,1,360.5901,360.5902,362.5902,0,0,0,0,1,,,,,,,,,,,,,,,,,,,,,,,,,,,,,,,,,,,,,,,,,,,,,,,,,,
,,5dfe7de0bf3d4eb1cc979a7a,22,male,2024-04-19_18h37.30.160,stockport_simplified,2022.2.4,Win32,163.9344262,661e456ee6de07e70aa9ef7b,66229d94094ac4f560514077,,,,,,,,,,,,,,,,,,,,,,,,,,,,,,,,,,,,,,,,,,,,,,,,,,,,,,,,0,45,45,55,1,N,M,D,o2_image,stimuli/out2.png,stimuli/out1.png,stimuli/correct_out2.png,,,,,,,,,,,,,,,,,,,,,,,,,,,,,,,,,,,,,,
,,5dfe7de0bf3d4eb1cc979a7a,22,male,2024-04-19_18h37.30.160,stockport_simplified,2022.2.4,Win32,163.9344262,661e456ee6de07e70aa9ef7b,66229d94094ac4f560514077,,,,,,,,,,,,,,,,,,,,,,,,,,,,,,,,,,362.5905,366.548,"[7,6,8,2,3,4,1,5]","[[0.3,0.2],[-0.3,0.2]]","[[-0.125,-0.2],[0.125,-0.2]]",0.122222222,-0.209259259,1,0,0,3.4542,o2_image,366.5542,0,367.0511,367.0512,369.0513,0,0,0,0,1,,,,,,,,,,,,,,,,,,,,,,,,,,,,,,,,,,,,,,,,,,,,,,,,,,
,,5dfe7de0bf3d4eb1cc979a7a,22,male,2024-04-19_18h37.30.160,stockport_simplified,2022.2.4,Win32,163.9344262,661e456ee6de07e70aa9ef7b,66229d94094ac4f560514077,,,,,,,,,,,,,,,,,,,,,,,,,,,,,,,,,,,,,,,,,,,,,,,,,,,,,,,,0,46,46,37,1,A,Y,N,o1_image,stimuli/out1.png,stimuli/correct_out1.png,stimuli/out2.png,,,,,,,,,,,,,,,,,,,,,,,,,,,,,,,,,,,,,,
,,5dfe7de0bf3d4eb1cc979a7a,22,male,2024-04-19_18h37.30.160,stockport_simplified,2022.2.4,Win32,163.9344262,661e456ee6de07e70aa9ef7b,66229d94094ac4f560514077,,,,,,,,,,,,,,,,,,,,,,,,,,,,,,,,,,369.0516,371.2573,"[7,6,8,2,3,4,1,5]","[[-0.3,0.2],[0.3,0.2]]","[[-0.125,-0.2],[0.125,-0.2]]",0.086111111,-0.200925926,1,0,0,1.7026,o2_image,371.2577,1,371.7543,371.7544,373.7544,0,0,0,0,1,,,,,,,,,,,,,,,,,,,,,,,,,,,,,,,,,,,,,,,,,,,,,,,,,,
,,5dfe7de0bf3d4eb1cc979a7a,22,male,2024-04-19_18h37.30.160,stockport_simplified,2022.2.4,Win32,163.9344262,661e456ee6de07e70aa9ef7b,66229d94094ac4f560514077,,,,,,,,,,,,,,,,,,,,,,,,,,,,,,,,,,,,,,,,,,,,,,,,,,,,,,,,0,47,47,26,1,N,M,D,o2_image,stimuli/out2.png,stimuli/out1.png,stimuli/correct_out2.png,,,,,,,,,,,,,,,,,,,,,,,,,,,,,,,,,,,,,,
,,5dfe7de0bf3d4eb1cc979a7a,22,male,2024-04-19_18h37.30.160,stockport_simplified,2022.2.4,Win32,163.9344262,661e456ee6de07e70aa9ef7b,66229d94094ac4f560514077,,,,,,,,,,,,,,,,,,,,,,,,,,,,,,,,,,373.7547,376.7364,"[7,6,8,2,3,4,1,5]","[[0.3,0.2],[-0.3,0.2]]","[[0.125,-0.2],[-0.125,-0.2]]",-0.09537037,-0.181481481,1,0,0,2.4787,o2_image,376.7421,0,377.2394,377.2395,379.2395,0,0,0,0,1,,,,,,,,,,,,,,,,,,,,,,,,,,,,,,,,,,,,,,,,,,,,,,,,,,
,,5dfe7de0bf3d4eb1cc979a7a,22,male,2024-04-19_18h37.30.160,stockport_simplified,2022.2.4,Win32,163.9344262,661e456ee6de07e70aa9ef7b,66229d94094ac4f560514077,,,,,,,,,,,,,,,,,,,,,,,,,,,,,,,,,,,,,,,,,,,,,,,,,,,,,,,,0,48,48,39,1,A,Y,N,o1_image,stimuli/out1.png,stimuli/correct_out1.png,stimuli/out2.png,,,,,,,,,,,,,,,,,,,,,,,,,,,,,,,,,,,,,,
,,5dfe7de0bf3d4eb1cc979a7a,22,male,2024-04-19_18h37.30.160,stockport_simplified,2022.2.4,Win32,163.9344262,661e456ee6de07e70aa9ef7b,66229d94094ac4f560514077,,,,,,,,,,,,,,,,,,,,,,,,,,,,,,,,,,379.2398,382.47,"[7,6,8,2,3,4,1,5]","[[-0.3,0.2],[0.3,0.2]]","[[-0.125,-0.2],[0.125,-0.2]]",-0.093518519,-0.176851852,1,0,0,2.727,o1_image,382.4764,0,382.9731,382.9731,384.9731,0,0,0,0,1,,,,,,,,,,,,,,,,,,,,,,,,,,,,,,,,,,,,,,,,,,,,,,,,,,
,,5dfe7de0bf3d4eb1cc979a7a,22,male,2024-04-19_18h37.30.160,stockport_simplified,2022.2.4,Win32,163.9344262,661e456ee6de07e70aa9ef7b,66229d94094ac4f560514077,,,,,,,,,,,,,,,,,,,,,,,,,,,,,,,,,,,,,,,,,,,,,,,,,,,,,,,,0,49,49,45,1,B,Y,N,o2_image,stimuli/out2.png,stimuli/out1.png,stimuli/correct_out2.png,,,,,,,,,,,,,,,,,,,,,,,,,,,,,,,,,,,,,,
,,5dfe7de0bf3d4eb1cc979a7a,22,male,2024-04-19_18h37.30.160,stockport_simplified,2022.2.4,Win32,163.9344262,661e456ee6de07e70aa9ef7b,66229d94094ac4f560514077,,,,,,,,,,,,,,,,,,,,,,,,,,,,,,,,,,384.9735,387.2344,"[7,6,8,2,3,4,1,5]","[[-0.3,0.2],[0.3,0.2]]","[[0.125,-0.2],[-0.125,-0.2]]",0.097222222,-0.2,1,0,0,1.7576,o1_image,387.2353,1,387.7311,387.7311,389.7312,0,0,0,0,1,,,,,,,,,,,,,,,,,,,,,,,,,,,,,,,,,,,,,,,,,,,,,,,,,,
,,5dfe7de0bf3d4eb1cc979a7a,22,male,2024-04-19_18h37.30.160,stockport_simplified,2022.2.4,Win32,163.9344262,661e456ee6de07e70aa9ef7b,66229d94094ac4f560514077,,,,,,,,,,,,,,,,,,,,,,,,,,,,,,,,,,,,,,,,,,,,,,,,,,,,,,,,0,50,50,0,1,A,X,N,o1_image,stimuli/out1.png,stimuli/correct_out1.png,stimuli/out2.png,,,,,,,,,,,,,,,,,,,,,,,,,,,,,,,,,,,,,,
,,5dfe7de0bf3d4eb1cc979a7a,22,male,2024-04-19_18h37.30.160,stockport_simplified,2022.2.4,Win32,163.9344262,661e456ee6de07e70aa9ef7b,66229d94094ac4f560514077,,,,,,,,,,,,,,,,,,,,,,,,,,,,,,,,,,389.7316,391.2523,"[7,6,8,2,3,4,1,5]","[[-0.3,0.2],[0.3,0.2]]","[[-0.125,-0.2],[0.125,-0.2]]",0.12962963,-0.223148148,1,0,0,1.0179,o2_image,391.2527,1,391.7492,391.7492,393.7493,0,0,0,0,1,,,,,,,,,,,,,,,,,,,,,,,,,,,,,,,,,,,,,,,,,,,,,,,,,,
,,5dfe7de0bf3d4eb1cc979a7a,22,male,2024-04-19_18h37.30.160,stockport_simplified,2022.2.4,Win32,163.9344262,661e456ee6de07e70aa9ef7b,66229d94094ac4f560514077,,,,,,,,,,,,,,,,,,,,,,,,,,,,,,,,,,,,,,,,,,,,,,,,,,,,,,,,0,51,51,19,1,B,Y,N,o2_image,stimuli/out2.png,stimuli/out1.png,stimuli/correct_out2.png,,,,,,,,,,,,,,,,,,,,,,,,,,,,,,,,,,,,,,
,,5dfe7de0bf3d4eb1cc979a7a,22,male,2024-04-19_18h37.30.160,stockport_simplified,2022.2.4,Win32,163.9344262,661e456ee6de07e70aa9ef7b,66229d94094ac4f560514077,,,,,,,,,,,,,,,,,,,,,,,,,,,,,,,,,,393.7495,395.4706,"[7,6,8,2,3,4,1,5]","[[-0.3,0.2],[0.3,0.2]]","[[-0.125,-0.2],[0.125,-0.2]]",0.12962963,-0.223148148,1,0,0,1.2181,o2_image,395.4711,0,395.9676,395.9676,397.9678,0,0,0,0,1,,,,,,,,,,,,,,,,,,,,,,,,,,,,,,,,,,,,,,,,,,,,,,,,,,
,,5dfe7de0bf3d4eb1cc979a7a,22,male,2024-04-19_18h37.30.160,stockport_simplified,2022.2.4,Win32,163.9344262,661e456ee6de07e70aa9ef7b,66229d94094ac4f560514077,,,,,,,,,,,,,,,,,,,,,,,,,,,,,,,,,,,,,,,,,,,,,,,,,,,,,,,,0,52,52,6,1,A,Y,N,o1_image,stimuli/out1.png,stimuli/correct_out1.png,stimuli/out2.png,,,,,,,,,,,,,,,,,,,,,,,,,,,,,,,,,,,,,,
,,5dfe7de0bf3d4eb1cc979a7a,22,male,2024-04-19_18h37.30.160,stockport_simplified,2022.2.4,Win32,163.9344262,661e456ee6de07e70aa9ef7b,66229d94094ac4f560514077,,,,,,,,,,,,,,,,,,,,,,,,,,,,,,,,,,397.968,400.2164,"[7,6,8,2,3,4,1,5]","[[0.3,0.2],[-0.3,0.2]]","[[-0.125,-0.2],[0.125,-0.2]]",-0.081481481,-0.210185185,1,0,0,1.7454,o1_image,400.2224,0,400.7195,400.7196,402.7195,0,0,0,0,1,,,,,,,,,,,,,,,,,,,,,,,,,,,,,,,,,,,,,,,,,,,,,,,,,,
,,5dfe7de0bf3d4eb1cc979a7a,22,male,2024-04-19_18h37.30.160,stockport_simplified,2022.2.4,Win32,163.9344262,661e456ee6de07e70aa9ef7b,66229d94094ac4f560514077,,,,,,,,,,,,,,,,,,,,,,,,,,,,,,,,,,,,,,,,,,,,,,,,,,,,,,,,0,53,53,14,1,B,X,N,o2_image,stimuli/out2.png,stimuli/out1.png,stimuli/correct_out2.png,,,,,,,,,,,,,,,,,,,,,,,,,,,,,,,,,,,,,,
,,5dfe7de0bf3d4eb1cc979a7a,22,male,2024-04-19_18h37.30.160,stockport_simplified,2022.2.4,Win32,163.9344262,661e456ee6de07e70aa9ef7b,66229d94094ac4f560514077,,,,,,,,,,,,,,,,,,,,,,,,,,,,,,,,,,402.7197,405.6165,"[7,6,8,2,3,4,1,5]","[[-0.3,0.2],[0.3,0.2]]","[[0.125,-0.2],[-0.125,-0.2]]",0.107407407,-0.194444444,1,0,0,2.3937,o1_image,405.6169,1,406.1136,406.1136,408.1136,0,0,0,0,1,,,,,,,,,,,,,,,,,,,,,,,,,,,,,,,,,,,,,,,,,,,,,,,,,,
,,5dfe7de0bf3d4eb1cc979a7a,22,male,2024-04-19_18h37.30.160,stockport_simplified,2022.2.4,Win32,163.9344262,661e456ee6de07e70aa9ef7b,66229d94094ac4f560514077,,,,,,,,,,,,,,,,,,,,,,,,,,,,,,,,,,,,,,,,,,,,,,,,,,,,,,,,0,54,54,54,1,N,M,C,o1_image,stimuli/out1.png,stimuli/correct_out1.png,stimuli/out2.png,,,,,,,,,,,,,,,,,,,,,,,,,,,,,,,,,,,,,,
,,5dfe7de0bf3d4eb1cc979a7a,22,male,2024-04-19_18h37.30.160,stockport_simplified,2022.2.4,Win32,163.9344262,661e456ee6de07e70aa9ef7b,66229d94094ac4f560514077,,,,,,,,,,,,,,,,,,,,,,,,,,,,,,,,,,408.1139,411.6715,"[7,6,8,2,3,4,1,5]","[[0.3,0.2],[-0.3,0.2]]","[[-0.125,-0.2],[0.125,-0.2]]",-0.086111111,-0.203703704,1,0,0,3.0544,o1_image,411.678,1,412.1744,412.1745,414.1746,0,0,0,0,1,,,,,,,,,,,,,,,,,,,,,,,,,,,,,,,,,,,,,,,,,,,,,,,,,,
,,5dfe7de0bf3d4eb1cc979a7a,22,male,2024-04-19_18h37.30.160,stockport_simplified,2022.2.4,Win32,163.9344262,661e456ee6de07e70aa9ef7b,66229d94094ac4f560514077,,,,,,,,,,,,,,,,,,,,,,,,,,,,,,,,,,,,,,,,,,,,,,,,,,,,,,,,0,55,55,2,1,A,X,N,o1_image,stimuli/out1.png,stimuli/correct_out1.png,stimuli/out2.png,,,,,,,,,,,,,,,,,,,,,,,,,,,,,,,,,,,,,,
,,5dfe7de0bf3d4eb1cc979a7a,22,male,2024-04-19_18h37.30.160,stockport_simplified,2022.2.4,Win32,163.9344262,661e456ee6de07e70aa9ef7b,66229d94094ac4f560514077,,,,,,,,,,,,,,,,,,,,,,,,,,,,,,,,,,414.1749,417.5931,"[7,6,8,2,3,4,1,5]","[[-0.3,0.2],[0.3,0.2]]","[[-0.125,-0.2],[0.125,-0.2]]",0.081481481,-0.192592593,1,0,0,2.9149,o2_image,417.5935,1,418.0899,418.0899,420.0899,0,0,0,0,1,,,,,,,,,,,,,,,,,,,,,,,,,,,,,,,,,,,,,,,,,,,,,,,,,,
,,5dfe7de0bf3d4eb1cc979a7a,22,male,2024-04-19_18h37.30.160,stockport_simplified,2022.2.4,Win32,163.9344262,661e456ee6de07e70aa9ef7b,66229d94094ac4f560514077,,,,,,,,,,,,,,,,,,,,,,,,,,,,,,,,,,,,,,,,,,,,,,,,,,,,,,,,0,56,56,56,1,N,M,D,o2_image,stimuli/out2.png,stimuli/out1.png,stimuli/correct_out2.png,,,,,,,,,,,,,,,,,,,,,,,,,,,,,,,,,,,,,,
,,5dfe7de0bf3d4eb1cc979a7a,22,male,2024-04-19_18h37.30.160,stockport_simplified,2022.2.4,Win32,163.9344262,661e456ee6de07e70aa9ef7b,66229d94094ac4f560514077,,,,,,,,,,,,,,,,,,,,,,,,,,,,,,,,,,420.0902,421.8599,"[7,6,8,2,3,4,1,5]","[[-0.3,0.2],[0.3,0.2]]","[[-0.125,-0.2],[0.125,-0.2]]",0.098148148,-0.19537037,1,0,0,1.2666,o2_image,421.8603,1,422.3569,422.357,424.3569,0,0,0,0,1,,,,,,,,,,,,,,,,,,,,,,,,,,,,,,,,,,,,,,,,,,,,,,,,,,
,,5dfe7de0bf3d4eb1cc979a7a,22,male,2024-04-19_18h37.30.160,stockport_simplified,2022.2.4,Win32,163.9344262,661e456ee6de07e70aa9ef7b,66229d94094ac4f560514077,,,,,,,,,,,,,,,,,,,,,,,,,,,,,,,,,,,,,,,,,,,,,,,,,,,,,,,,0,57,57,57,1,N,M,D,o2_image,stimuli/out2.png,stimuli/out1.png,stimuli/correct_out2.png,,,,,,,,,,,,,,,,,,,,,,,,,,,,,,,,,,,,,,
,,5dfe7de0bf3d4eb1cc979a7a,22,male,2024-04-19_18h37.30.160,stockport_simplified,2022.2.4,Win32,163.9344262,661e456ee6de07e70aa9ef7b,66229d94094ac4f560514077,,,,,,,,,,,,,,,,,,,,,,,,,,,,,,,,,,424.3572,427.2177,"[7,6,8,2,3,4,1,5]","[[-0.3,0.2],[0.3,0.2]]","[[0.125,-0.2],[-0.125,-0.2]]",0.144444444,-0.199074074,1,0,0,2.3575,o1_image,427.2181,0,427.7146,427.7147,429.715,0,0,0,0,1,,,,,,,,,,,,,,,,,,,,,,,,,,,,,,,,,,,,,,,,,,,,,,,,,,
,,5dfe7de0bf3d4eb1cc979a7a,22,male,2024-04-19_18h37.30.160,stockport_simplified,2022.2.4,Win32,163.9344262,661e456ee6de07e70aa9ef7b,66229d94094ac4f560514077,,,,,,,,,,,,,,,,,,,,,,,,,,,,,,,,,,,,,,,,,,,,,,,,,,,,,,,,0,58,58,16,1,B,Y,N,o2_image,stimuli/out2.png,stimuli/out1.png,stimuli/correct_out2.png,,,,,,,,,,,,,,,,,,,,,,,,,,,,,,,,,,,,,,
,,5dfe7de0bf3d4eb1cc979a7a,22,male,2024-04-19_18h37.30.160,stockport_simplified,2022.2.4,Win32,163.9344262,661e456ee6de07e70aa9ef7b,66229d94094ac4f560514077,,,,,,,,,,,,,,,,,,,,,,,,,,,,,,,,,,429.7153,432.9391,"[7,6,8,2,3,4,1,5]","[[-0.3,0.2],[0.3,0.2]]","[[0.125,-0.2],[-0.125,-0.2]]",-0.087037037,-0.194444444,1,0,0,2.7214,o2_image,432.945,1,433.4422,433.4422,435.4424,0,0,0,0,1,,,,,,,,,,,,,,,,,,,,,,,,,,,,,,,,,,,,,,,,,,,,,,,,,,
,,5dfe7de0bf3d4eb1cc979a7a,22,male,2024-04-19_18h37.30.160,stockport_simplified,2022.2.4,Win32,163.9344262,661e456ee6de07e70aa9ef7b,66229d94094ac4f560514077,,,,,,,,,,,,,,,,,,,,,,,,,,,,,,,,,,,,,,,,,,,,,,,,,,,,,,,,0,59,59,48,1,B,Y,N,o2_image,stimuli/out2.png,stimuli/out1.png,stimuli/correct_out2.png,,,,,,,,,,,,,,,,,,,,,,,,,,,,,,,,,,,,,,
,,5dfe7de0bf3d4eb1cc979a7a,22,male,2024-04-19_18h37.30.160,stockport_simplified,2022.2.4,Win32,163.9344262,661e456ee6de07e70aa9ef7b,66229d94094ac4f560514077,,,,,,,,,,,,,,,,,,,,,,,,,,,,,,,,,,435.4426,437.8547,"[7,6,8,2,3,4,1,5]","[[0.3,0.2],[-0.3,0.2]]","[[0.125,-0.2],[-0.125,-0.2]]",0.072222222,-0.202777778,1,0,0,1.9091,o1_image,437.8551,1,438.3516,438.3516,440.3516,0,0,0,0,1,,,,,,,,,,,,,,,,,,,,,,,,,,,,,,,,,,,,,,,,,,,,,,,,,,
,,5dfe7de0bf3d4eb1cc979a7a,22,male,2024-04-19_18h37.30.160,stockport_simplified,2022.2.4,Win32,163.9344262,661e456ee6de07e70aa9ef7b,66229d94094ac4f560514077,,,,,,,,,,,,,,,,,,,,,,,,,,,,,,,,,,,,,,,,,,,,,,,,,,,,,,,,1,0,60,3,1,A,X,N,o1_image,stimuli/out1.png,stimuli/correct_out1.png,stimuli/out2.png,,,,,,,,,,,,,,,,,,,,,,,,,,,,,,,,,,,,,,
,,5dfe7de0bf3d4eb1cc979a7a,22,male,2024-04-19_18h37.30.160,stockport_simplified,2022.2.4,Win32,163.9344262,661e456ee6de07e70aa9ef7b,66229d94094ac4f560514077,,,,,,,,,,,,,,,,,,,,,,,,,,,,,,,,,,440.3518,444.0185,"[7,6,8,2,3,4,1,5]","[[-0.3,0.2],[0.3,0.2]]","[[-0.125,-0.2],[0.125,-0.2]]",-0.097222222,-0.223148148,1,0,0,3.1635,o1_image,444.0189,1,444.5155,444.5155,446.5156,0,0,0,0,1,,,,,,,,,,,,,,,,,,,,,,,,,,,,,,,,,,,,,,,,,,,,,,,,,,
,,5dfe7de0bf3d4eb1cc979a7a,22,male,2024-04-19_18h37.30.160,stockport_simplified,2022.2.4,Win32,163.9344262,661e456ee6de07e70aa9ef7b,66229d94094ac4f560514077,,,,,,,,,,,,,,,,,,,,,,,,,,,,,,,,,,,,,,,,,,,,,,,,,,,,,,,,1,1,61,52,1,N,M,C,o1_image,stimuli/out1.png,stimuli/correct_out1.png,stimuli/out2.png,,,,,,,,,,,,,,,,,,,,,,,,,,,,,,,,,,,,,,
,,5dfe7de0bf3d4eb1cc979a7a,22,male,2024-04-19_18h37.30.160,stockport_simplified,2022.2.4,Win32,163.9344262,661e456ee6de07e70aa9ef7b,66229d94094ac4f560514077,,,,,,,,,,,,,,,,,,,,,,,,,,,,,,,,,,446.5159,449.1702,"[7,6,8,2,3,4,1,5]","[[0.3,0.2],[-0.3,0.2]]","[[-0.125,-0.2],[0.125,-0.2]]",0.110185185,-0.219444444,1,0,0,2.1514,o2_image,449.1707,1,449.6672,449.6672,451.6674,0,0,0,0,1,,,,,,,,,,,,,,,,,,,,,,,,,,,,,,,,,,,,,,,,,,,,,,,,,,
,,5dfe7de0bf3d4eb1cc979a7a,22,male,2024-04-19_18h37.30.160,stockport_simplified,2022.2.4,Win32,163.9344262,661e456ee6de07e70aa9ef7b,66229d94094ac4f560514077,,,,,,,,,,,,,,,,,,,,,,,,,,,,,,,,,,,,,,,,,,,,,,,,,,,,,,,,1,2,62,13,1,B,X,N,o2_image,stimuli/out2.png,stimuli/out1.png,stimuli/correct_out2.png,,,,,,,,,,,,,,,,,,,,,,,,,,,,,,,,,,,,,,
,,5dfe7de0bf3d4eb1cc979a7a,22,male,2024-04-19_18h37.30.160,stockport_simplified,2022.2.4,Win32,163.9344262,661e456ee6de07e70aa9ef7b,66229d94094ac4f560514077,,,,,,,,,,,,,,,,,,,,,,,,,,,,,,,,,,451.6678,457.9465,"[7,6,8,2,3,4,1,5]","[[0.3,0.2],[-0.3,0.2]]","[[0.125,-0.2],[-0.125,-0.2]]",-0.123148148,-0.20462963,1,0,0,5.7759,o2_image,457.9522,1,458.4494,458.4494,460.4498,0,0,0,0,1,,,,,,,,,,,,,,,,,,,,,,,,,,,,,,,,,,,,,,,,,,,,,,,,,,
,,5dfe7de0bf3d4eb1cc979a7a,22,male,2024-04-19_18h37.30.160,stockport_simplified,2022.2.4,Win32,163.9344262,661e456ee6de07e70aa9ef7b,66229d94094ac4f560514077,,,,,,,,,,,,,,,,,,,,,,,,,,,,,,,,,,,,,,,,,,,,,,,,,,,,,,,,1,3,63,16,1,B,Y,N,o2_image,stimuli/out2.png,stimuli/out1.png,stimuli/correct_out2.png,,,,,,,,,,,,,,,,,,,,,,,,,,,,,,,,,,,,,,
,,5dfe7de0bf3d4eb1cc979a7a,22,male,2024-04-19_18h37.30.160,stockport_simplified,2022.2.4,Win32,163.9344262,661e456ee6de07e70aa9ef7b,66229d94094ac4f560514077,,,,,,,,,,,,,,,,,,,,,,,,,,,,,,,,,,460.45,462.9771,"[7,6,8,2,3,4,1,5]","[[-0.3,0.2],[0.3,0.2]]","[[-0.125,-0.2],[0.125,-0.2]]",0.118518519,-0.199074074,1,0,0,2.0241,o2_image,462.9774,1,463.4739,463.4739,465.4741,0,0,0,0,1,,,,,,,,,,,,,,,,,,,,,,,,,,,,,,,,,,,,,,,,,,,,,,,,,,
,,5dfe7de0bf3d4eb1cc979a7a,22,male,2024-04-19_18h37.30.160,stockport_simplified,2022.2.4,Win32,163.9344262,661e456ee6de07e70aa9ef7b,66229d94094ac4f560514077,,,,,,,,,,,,,,,,,,,,,,,,,,,,,,,,,,,,,,,,,,,,,,,,,,,,,,,,1,4,64,56,1,N,M,D,o2_image,stimuli/out2.png,stimuli/out1.png,stimuli/correct_out2.png,,,,,,,,,,,,,,,,,,,,,,,,,,,,,,,,,,,,,,
,,5dfe7de0bf3d4eb1cc979a7a,22,male,2024-04-19_18h37.30.160,stockport_simplified,2022.2.4,Win32,163.9344262,661e456ee6de07e70aa9ef7b,66229d94094ac4f560514077,,,,,,,,,,,,,,,,,,,,,,,,,,,,,,,,,,465.4743,467.9963,"[7,6,8,2,3,4,1,5]","[[-0.3,0.2],[0.3,0.2]]","[[-0.125,-0.2],[0.125,-0.2]]",0.12962963,-0.216666667,1,0,0,2.0189,o2_image,467.9968,0,468.4924,468.4924,470.4925,0,0,0,0,1,,,,,,,,,,,,,,,,,,,,,,,,,,,,,,,,,,,,,,,,,,,,,,,,,,
,,5dfe7de0bf3d4eb1cc979a7a,22,male,2024-04-19_18h37.30.160,stockport_simplified,2022.2.4,Win32,163.9344262,661e456ee6de07e70aa9ef7b,66229d94094ac4f560514077,,,,,,,,,,,,,,,,,,,,,,,,,,,,,,,,,,,,,,,,,,,,,,,,,,,,,,,,1,5,65,30,1,A,X,N,o1_image,stimuli/out1.png,stimuli/correct_out1.png,stimuli/out2.png,,,,,,,,,,,,,,,,,,,,,,,,,,,,,,,,,,,,,,
,,5dfe7de0bf3d4eb1cc979a7a,22,male,2024-04-19_18h37.30.160,stockport_simplified,2022.2.4,Win32,163.9344262,661e456ee6de07e70aa9ef7b,66229d94094ac4f560514077,,,,,,,,,,,,,,,,,,,,,,,,,,,,,,,,,,470.4928,472.6865,"[7,6,8,2,3,4,1,5]","[[-0.3,0.2],[0.3,0.2]]","[[-0.125,-0.2],[0.125,-0.2]]",0.128703704,-0.217592593,1,0,0,1.6908,o2_image,472.687,0,473.1836,473.1837,475.1836,0,0,0,0,1,,,,,,,,,,,,,,,,,,,,,,,,,,,,,,,,,,,,,,,,,,,,,,,,,,
,,5dfe7de0bf3d4eb1cc979a7a,22,male,2024-04-19_18h37.30.160,stockport_simplified,2022.2.4,Win32,163.9344262,661e456ee6de07e70aa9ef7b,66229d94094ac4f560514077,,,,,,,,,,,,,,,,,,,,,,,,,,,,,,,,,,,,,,,,,,,,,,,,,,,,,,,,1,6,66,7,1,A,Y,N,o1_image,stimuli/out1.png,stimuli/correct_out1.png,stimuli/out2.png,,,,,,,,,,,,,,,,,,,,,,,,,,,,,,,,,,,,,,
,,5dfe7de0bf3d4eb1cc979a7a,22,male,2024-04-19_18h37.30.160,stockport_simplified,2022.2.4,Win32,163.9344262,661e456ee6de07e70aa9ef7b,66229d94094ac4f560514077,,,,,,,,,,,,,,,,,,,,,,,,,,,,,,,,,,475.1839,476.9595,"[7,6,8,2,3,4,1,5]","[[-0.3,0.2],[0.3,0.2]]","[[0.125,-0.2],[-0.125,-0.2]]",-0.058333333,-0.193518519,1,0,0,1.2725,o2_image,476.9599,1,477.4564,477.4564,479.4565,0,0,0,0,1,,,,,,,,,,,,,,,,,,,,,,,,,,,,,,,,,,,,,,,,,,,,,,,,,,
,,5dfe7de0bf3d4eb1cc979a7a,22,male,2024-04-19_18h37.30.160,stockport_simplified,2022.2.4,Win32,163.9344262,661e456ee6de07e70aa9ef7b,66229d94094ac4f560514077,,,,,,,,,,,,,,,,,,,,,,,,,,,,,,,,,,,,,,,,,,,,,,,,,,,,,,,,1,7,67,57,1,N,M,D,o2_image,stimuli/out2.png,stimuli/out1.png,stimuli/correct_out2.png,,,,,,,,,,,,,,,,,,,,,,,,,,,,,,,,,,,,,,
,,5dfe7de0bf3d4eb1cc979a7a,22,male,2024-04-19_18h37.30.160,stockport_simplified,2022.2.4,Win32,163.9344262,661e456ee6de07e70aa9ef7b,66229d94094ac4f560514077,,,,,,,,,,,,,,,,,,,,,,,,,,,,,,,,,,479.4567,482.7174,"[7,6,8,2,3,4,1,5]","[[-0.3,0.2],[0.3,0.2]]","[[0.125,-0.2],[-0.125,-0.2]]",0.137962963,-0.209259259,1,0,0,2.7572,o1_image,482.7232,0,483.2203,483.2203,485.2205,0,0,0,0,1,,,,,,,,,,,,,,,,,,,,,,,,,,,,,,,,,,,,,,,,,,,,,,,,,,
,,5dfe7de0bf3d4eb1cc979a7a,22,male,2024-04-19_18h37.30.160,stockport_simplified,2022.2.4,Win32,163.9344262,661e456ee6de07e70aa9ef7b,66229d94094ac4f560514077,,,,,,,,,,,,,,,,,,,,,,,,,,,,,,,,,,,,,,,,,,,,,,,,,,,,,,,,1,8,68,19,1,B,Y,N,o2_image,stimuli/out2.png,stimuli/out1.png,stimuli/correct_out2.png,,,,,,,,,,,,,,,,,,,,,,,,,,,,,,,,,,,,,,
,,5dfe7de0bf3d4eb1cc979a7a,22,male,2024-04-19_18h37.30.160,stockport_simplified,2022.2.4,Win32,163.9344262,661e456ee6de07e70aa9ef7b,66229d94094ac4f560514077,,,,,,,,,,,,,,,,,,,,,,,,,,,,,,,,,,485.2207,488.8813,"[7,6,8,2,3,4,1,5]","[[0.3,0.2],[-0.3,0.2]]","[[-0.125,-0.2],[0.125,-0.2]]",0.12037037,-0.215740741,1,0,0,3.1576,o2_image,488.8874,0,489.3843,489.3843,491.3844,0,0,0,0,1,,,,,,,,,,,,,,,,,,,,,,,,,,,,,,,,,,,,,,,,,,,,,,,,,,
,,5dfe7de0bf3d4eb1cc979a7a,22,male,2024-04-19_18h37.30.160,stockport_simplified,2022.2.4,Win32,163.9344262,661e456ee6de07e70aa9ef7b,66229d94094ac4f560514077,,,,,,,,,,,,,,,,,,,,,,,,,,,,,,,,,,,,,,,,,,,,,,,,,,,,,,,,1,9,69,35,1,A,Y,N,o1_image,stimuli/out1.png,stimuli/correct_out1.png,stimuli/out2.png,,,,,,,,,,,,,,,,,,,,,,,,,,,,,,,,,,,,,,
,,5dfe7de0bf3d4eb1cc979a7a,22,male,2024-04-19_18h37.30.160,stockport_simplified,2022.2.4,Win32,163.9344262,661e456ee6de07e70aa9ef7b,66229d94094ac4f560514077,,,,,,,,,,,,,,,,,,,,,,,,,,,,,,,,,,491.3846,494.1118,"[7,6,8,2,3,4,1,5]","[[0.3,0.2],[-0.3,0.2]]","[[-0.125,-0.2],[0.125,-0.2]]",-0.080555556,-0.193518519,1,0,0,2.2242,o1_image,494.1122,1,494.6087,494.6087,496.6088,0,0,0,0,1,,,,,,,,,,,,,,,,,,,,,,,,,,,,,,,,,,,,,,,,,,,,,,,,,,
,,5dfe7de0bf3d4eb1cc979a7a,22,male,2024-04-19_18h37.30.160,stockport_simplified,2022.2.4,Win32,163.9344262,661e456ee6de07e70aa9ef7b,66229d94094ac4f560514077,,,,,,,,,,,,,,,,,,,,,,,,,,,,,,,,,,,,,,,,,,,,,,,,,,,,,,,,1,10,70,22,1,N,M,C,o1_image,stimuli/out1.png,stimuli/correct_out1.png,stimuli/out2.png,,,,,,,,,,,,,,,,,,,,,,,,,,,,,,,,,,,,,,
,,5dfe7de0bf3d4eb1cc979a7a,22,male,2024-04-19_18h37.30.160,stockport_simplified,2022.2.4,Win32,163.9344262,661e456ee6de07e70aa9ef7b,66229d94094ac4f560514077,,,,,,,,,,,,,,,,,,,,,,,,,,,,,,,,,,496.609,499.2574,"[7,6,8,2,3,4,1,5]","[[0.3,0.2],[-0.3,0.2]]","[[-0.125,-0.2],[0.125,-0.2]]",-0.092592593,-0.187962963,1,0,0,2.1452,o1_image,499.2579,1,499.7544,499.7544,501.7545,0,0,0,0,1,,,,,,,,,,,,,,,,,,,,,,,,,,,,,,,,,,,,,,,,,,,,,,,,,,
,,5dfe7de0bf3d4eb1cc979a7a,22,male,2024-04-19_18h37.30.160,stockport_simplified,2022.2.4,Win32,163.9344262,661e456ee6de07e70aa9ef7b,66229d94094ac4f560514077,,,,,,,,,,,,,,,,,,,,,,,,,,,,,,,,,,,,,,,,,,,,,,,,,,,,,,,,1,11,71,39,1,A,Y,N,o1_image,stimuli/out1.png,stimuli/correct_out1.png,stimuli/out2.png,,,,,,,,,,,,,,,,,,,,,,,,,,,,,,,,,,,,,,
,,5dfe7de0bf3d4eb1cc979a7a,22,male,2024-04-19_18h37.30.160,stockport_simplified,2022.2.4,Win32,163.9344262,661e456ee6de07e70aa9ef7b,66229d94094ac4f560514077,,,,,,,,,,,,,,,,,,,,,,,,,,,,,,,,,,501.7548,504.7366,"[7,6,8,2,3,4,1,5]","[[-0.3,0.2],[0.3,0.2]]","[[-0.125,-0.2],[0.125,-0.2]]",0.069444444,-0.197222222,1,0,0,2.4788,o2_image,504.7425,0,505.2396,505.2396,507.2398,0,0,0,0,1,,,,,,,,,,,,,,,,,,,,,,,,,,,,,,,,,,,,,,,,,,,,,,,,,,
,,5dfe7de0bf3d4eb1cc979a7a,22,male,2024-04-19_18h37.30.160,stockport_simplified,2022.2.4,Win32,163.9344262,661e456ee6de07e70aa9ef7b,66229d94094ac4f560514077,,,,,,,,,,,,,,,,,,,,,,,,,,,,,,,,,,,,,,,,,,,,,,,,,,,,,,,,1,12,72,33,1,A,X,N,o1_image,stimuli/out1.png,stimuli/correct_out1.png,stimuli/out2.png,,,,,,,,,,,,,,,,,,,,,,,,,,,,,,,,,,,,,,
,,5dfe7de0bf3d4eb1cc979a7a,22,male,2024-04-19_18h37.30.160,stockport_simplified,2022.2.4,Win32,163.9344262,661e456ee6de07e70aa9ef7b,66229d94094ac4f560514077,,,,,,,,,,,,,,,,,,,,,,,,,,,,,,,,,,507.2401,510.7311,"[7,6,8,2,3,4,1,5]","[[0.3,0.2],[-0.3,0.2]]","[[-0.125,-0.2],[0.125,-0.2]]",-0.118518519,-0.177777778,1,0,0,2.9878,o1_image,510.7373,1,511.2338,511.2338,513.2341,0,0,0,0,1,,,,,,,,,,,,,,,,,,,,,,,,,,,,,,,,,,,,,,,,,,,,,,,,,,
,,5dfe7de0bf3d4eb1cc979a7a,22,male,2024-04-19_18h37.30.160,stockport_simplified,2022.2.4,Win32,163.9344262,661e456ee6de07e70aa9ef7b,66229d94094ac4f560514077,,,,,,,,,,,,,,,,,,,,,,,,,,,,,,,,,,,,,,,,,,,,,,,,,,,,,,,,1,13,73,20,1,N,M,C,o1_image,stimuli/out1.png,stimuli/correct_out1.png,stimuli/out2.png,,,,,,,,,,,,,,,,,,,,,,,,,,,,,,,,,,,,,,
,,5dfe7de0bf3d4eb1cc979a7a,22,male,2024-04-19_18h37.30.160,stockport_simplified,2022.2.4,Win32,163.9344262,661e456ee6de07e70aa9ef7b,66229d94094ac4f560514077,,,,,,,,,,,,,,,,,,,,,,,,,,,,,,,,,,513.2344,515.1433,"[7,6,8,2,3,4,1,5]","[[0.3,0.2],[-0.3,0.2]]","[[-0.125,-0.2],[0.125,-0.2]]",0.093518519,-0.180555556,1,0,0,1.406,o2_image,515.1438,1,515.6401,515.6401,517.6402,0,0,0,0,1,,,,,,,,,,,,,,,,,,,,,,,,,,,,,,,,,,,,,,,,,,,,,,,,,,
,,5dfe7de0bf3d4eb1cc979a7a,22,male,2024-04-19_18h37.30.160,stockport_simplified,2022.2.4,Win32,163.9344262,661e456ee6de07e70aa9ef7b,66229d94094ac4f560514077,,,,,,,,,,,,,,,,,,,,,,,,,,,,,,,,,,,,,,,,,,,,,,,,,,,,,,,,1,14,74,26,1,N,M,D,o2_image,stimuli/out2.png,stimuli/out1.png,stimuli/correct_out2.png,,,,,,,,,,,,,,,,,,,,,,,,,,,,,,,,,,,,,,
,,5dfe7de0bf3d4eb1cc979a7a,22,male,2024-04-19_18h37.30.160,stockport_simplified,2022.2.4,Win32,163.9344262,661e456ee6de07e70aa9ef7b,66229d94094ac4f560514077,,,,,,,,,,,,,,,,,,,,,,,,,,,,,,,,,,517.6405,522.3375,"[7,6,8,2,3,4,1,5]","[[-0.3,0.2],[0.3,0.2]]","[[0.125,-0.2],[-0.125,-0.2]]",-0.134259259,-0.165740741,1,0,0,4.1939,o2_image,522.3439,0,522.8407,522.8408,524.8405,0,0,0,0,1,,,,,,,,,,,,,,,,,,,,,,,,,,,,,,,,,,,,,,,,,,,,,,,,,,
,,5dfe7de0bf3d4eb1cc979a7a,22,male,2024-04-19_18h37.30.160,stockport_simplified,2022.2.4,Win32,163.9344262,661e456ee6de07e70aa9ef7b,66229d94094ac4f560514077,,,,,,,,,,,,,,,,,,,,,,,,,,,,,,,,,,,,,,,,,,,,,,,,,,,,,,,,1,15,75,4,1,A,X,N,o1_image,stimuli/out1.png,stimuli/correct_out1.png,stimuli/out2.png,,,,,,,,,,,,,,,,,,,,,,,,,,,,,,,,,,,,,,
,,5dfe7de0bf3d4eb1cc979a7a,22,male,2024-04-19_18h37.30.160,stockport_simplified,2022.2.4,Win32,163.9344262,661e456ee6de07e70aa9ef7b,66229d94094ac4f560514077,,,,,,,,,,,,,,,,,,,,,,,,,,,,,,,,,,524.8408,527.5861,"[7,6,8,2,3,4,1,5]","[[-0.3,0.2],[0.3,0.2]]","[[-0.125,-0.2],[0.125,-0.2]]",0.088888889,-0.182407407,1,0,0,2.2424,o2_image,527.5866,1,528.0833,528.0833,530.0832,0,0,0,0,1,,,,,,,,,,,,,,,,,,,,,,,,,,,,,,,,,,,,,,,,,,,,,,,,,,
,,5dfe7de0bf3d4eb1cc979a7a,22,male,2024-04-19_18h37.30.160,stockport_simplified,2022.2.4,Win32,163.9344262,661e456ee6de07e70aa9ef7b,66229d94094ac4f560514077,,,,,,,,,,,,,,,,,,,,,,,,,,,,,,,,,,,,,,,,,,,,,,,,,,,,,,,,1,16,76,10,1,B,X,N,o2_image,stimuli/out2.png,stimuli/out1.png,stimuli/correct_out2.png,,,,,,,,,,,,,,,,,,,,,,,,,,,,,,,,,,,,,,
,,5dfe7de0bf3d4eb1cc979a7a,22,male,2024-04-19_18h37.30.160,stockport_simplified,2022.2.4,Win32,163.9344262,661e456ee6de07e70aa9ef7b,66229d94094ac4f560514077,,,,,,,,,,,,,,,,,,,,,,,,,,,,,,,,,,530.0835,535.0717,"[7,6,8,2,3,4,1,5]","[[-0.3,0.2],[0.3,0.2]]","[[0.125,-0.2],[-0.125,-0.2]]",-0.124074074,-0.17962963,1,0,0,4.4853,o2_image,535.0775,1,535.5744,535.5744,537.5745,0,0,0,0,1,,,,,,,,,,,,,,,,,,,,,,,,,,,,,,,,,,,,,,,,,,,,,,,,,,
,,5dfe7de0bf3d4eb1cc979a7a,22,male,2024-04-19_18h37.30.160,stockport_simplified,2022.2.4,Win32,163.9344262,661e456ee6de07e70aa9ef7b,66229d94094ac4f560514077,,,,,,,,,,,,,,,,,,,,,,,,,,,,,,,,,,,,,,,,,,,,,,,,,,,,,,,,1,17,77,49,1,B,Y,N,o2_image,stimuli/out2.png,stimuli/out1.png,stimuli/correct_out2.png,,,,,,,,,,,,,,,,,,,,,,,,,,,,,,,,,,,,,,
,,5dfe7de0bf3d4eb1cc979a7a,22,male,2024-04-19_18h37.30.160,stockport_simplified,2022.2.4,Win32,163.9344262,661e456ee6de07e70aa9ef7b,66229d94094ac4f560514077,,,,,,,,,,,,,,,,,,,,,,,,,,,,,,,,,,537.5748,539.5565,"[7,6,8,2,3,4,1,5]","[[-0.3,0.2],[0.3,0.2]]","[[-0.125,-0.2],[0.125,-0.2]]",-0.098148148,-0.184259259,1,0,0,1.4785,o1_image,539.5569,1,540.0534,540.0535,542.0535,0,0,0,0,1,,,,,,,,,,,,,,,,,,,,,,,,,,,,,,,,,,,,,,,,,,,,,,,,,,
,,5dfe7de0bf3d4eb1cc979a7a,22,male,2024-04-19_18h37.30.160,stockport_simplified,2022.2.4,Win32,163.9344262,661e456ee6de07e70aa9ef7b,66229d94094ac4f560514077,,,,,,,,,,,,,,,,,,,,,,,,,,,,,,,,,,,,,,,,,,,,,,,,,,,,,,,,1,18,78,8,1,A,Y,N,o1_image,stimuli/out1.png,stimuli/correct_out1.png,stimuli/out2.png,,,,,,,,,,,,,,,,,,,,,,,,,,,,,,,,,,,,,,
,,5dfe7de0bf3d4eb1cc979a7a,22,male,2024-04-19_18h37.30.160,stockport_simplified,2022.2.4,Win32,163.9344262,661e456ee6de07e70aa9ef7b,66229d94094ac4f560514077,,,,,,,,,,,,,,,,,,,,,,,,,,,,,,,,,,542.0538,544.0901,"[7,6,8,2,3,4,1,5]","[[0.3,0.2],[-0.3,0.2]]","[[-0.125,-0.2],[0.125,-0.2]]",-0.096296296,-0.183333333,1,0,0,1.5335,o1_image,544.0905,1,544.587,544.5871,546.5872,0,0,0,0,1,,,,,,,,,,,,,,,,,,,,,,,,,,,,,,,,,,,,,,,,,,,,,,,,,,
,,5dfe7de0bf3d4eb1cc979a7a,22,male,2024-04-19_18h37.30.160,stockport_simplified,2022.2.4,Win32,163.9344262,661e456ee6de07e70aa9ef7b,66229d94094ac4f560514077,,,,,,,,,,,,,,,,,,,,,,,,,,,,,,,,,,,,,,,,,,,,,,,,,,,,,,,,1,19,79,37,1,A,Y,N,o1_image,stimuli/out1.png,stimuli/correct_out1.png,stimuli/out2.png,,,,,,,,,,,,,,,,,,,,,,,,,,,,,,,,,,,,,,
,,5dfe7de0bf3d4eb1cc979a7a,22,male,2024-04-19_18h37.30.160,stockport_simplified,2022.2.4,Win32,163.9344262,661e456ee6de07e70aa9ef7b,66229d94094ac4f560514077,,,,,,,,,,,,,,,,,,,,,,,,,,,,,,,,,,546.5875,548.4297,"[7,6,8,2,3,4,1,5]","[[-0.3,0.2],[0.3,0.2]]","[[0.125,-0.2],[-0.125,-0.2]]",0.075925926,-0.199074074,1,0,0,1.3394,o1_image,548.4301,1,548.9266,548.9267,550.9267,0,0,0,0,1,,,,,,,,,,,,,,,,,,,,,,,,,,,,,,,,,,,,,,,,,,,,,,,,,,
,,5dfe7de0bf3d4eb1cc979a7a,22,male,2024-04-19_18h37.30.160,stockport_simplified,2022.2.4,Win32,163.9344262,661e456ee6de07e70aa9ef7b,66229d94094ac4f560514077,,,,,,,,,,,,,,,,,,,,,,,,,,,,,,,,,,,,,,,,,,,,,,,,,,,,,,,,1,20,80,2,1,A,X,N,o1_image,stimuli/out1.png,stimuli/correct_out1.png,stimuli/out2.png,,,,,,,,,,,,,,,,,,,,,,,,,,,,,,,,,,,,,,
,,5dfe7de0bf3d4eb1cc979a7a,22,male,2024-04-19_18h37.30.160,stockport_simplified,2022.2.4,Win32,163.9344262,661e456ee6de07e70aa9ef7b,66229d94094ac4f560514077,,,,,,,,,,,,,,,,,,,,,,,,,,,,,,,,,,550.9269,553.1571,"[7,6,8,2,3,4,1,5]","[[0.3,0.2],[-0.3,0.2]]","[[-0.125,-0.2],[0.125,-0.2]]",-0.090740741,-0.189814815,1,0,0,1.7271,o1_image,553.1574,0,553.6542,553.6542,555.6541,0,0,0,0,1,,,,,,,,,,,,,,,,,,,,,,,,,,,,,,,,,,,,,,,,,,,,,,,,,,
,,5dfe7de0bf3d4eb1cc979a7a,22,male,2024-04-19_18h37.30.160,stockport_simplified,2022.2.4,Win32,163.9344262,661e456ee6de07e70aa9ef7b,66229d94094ac4f560514077,,,,,,,,,,,,,,,,,,,,,,,,,,,,,,,,,,,,,,,,,,,,,,,,,,,,,,,,1,21,81,14,1,B,X,N,o2_image,stimuli/out2.png,stimuli/out1.png,stimuli/correct_out2.png,,,,,,,,,,,,,,,,,,,,,,,,,,,,,,,,,,,,,,
,,5dfe7de0bf3d4eb1cc979a7a,22,male,2024-04-19_18h37.30.160,stockport_simplified,2022.2.4,Win32,163.9344262,661e456ee6de07e70aa9ef7b,66229d94094ac4f560514077,,,,,,,,,,,,,,,,,,,,,,,,,,,,,,,,,,555.6543,557.3269,"[7,6,8,2,3,4,1,5]","[[-0.3,0.2],[0.3,0.2]]","[[0.125,-0.2],[-0.125,-0.2]]",-0.084259259,-0.186111111,1,0,0,1.1695,o2_image,557.3274,1,557.8239,557.824,559.8241,0,0,0,0,1,,,,,,,,,,,,,,,,,,,,,,,,,,,,,,,,,,,,,,,,,,,,,,,,,,
,,5dfe7de0bf3d4eb1cc979a7a,22,male,2024-04-19_18h37.30.160,stockport_simplified,2022.2.4,Win32,163.9344262,661e456ee6de07e70aa9ef7b,66229d94094ac4f560514077,,,,,,,,,,,,,,,,,,,,,,,,,,,,,,,,,,,,,,,,,,,,,,,,,,,,,,,,1,22,82,28,1,N,M,D,o2_image,stimuli/out2.png,stimuli/out1.png,stimuli/correct_out2.png,,,,,,,,,,,,,,,,,,,,,,,,,,,,,,,,,,,,,,
,,5dfe7de0bf3d4eb1cc979a7a,22,male,2024-04-19_18h37.30.160,stockport_simplified,2022.2.4,Win32,163.9344262,661e456ee6de07e70aa9ef7b,66229d94094ac4f560514077,,,,,,,,,,,,,,,,,,,,,,,,,,,,,,,,,,559.8243,563.3156,"[7,6,8,2,3,4,1,5]","[[0.3,0.2],[-0.3,0.2]]","[[-0.125,-0.2],[0.125,-0.2]]",0.117592593,-0.203703704,1,0,0,2.9882,o2_image,563.322,1,563.8182,563.8182,565.8183,0,0,0,0,1,,,,,,,,,,,,,,,,,,,,,,,,,,,,,,,,,,,,,,,,,,,,,,,,,,
,,5dfe7de0bf3d4eb1cc979a7a,22,male,2024-04-19_18h37.30.160,stockport_simplified,2022.2.4,Win32,163.9344262,661e456ee6de07e70aa9ef7b,66229d94094ac4f560514077,,,,,,,,,,,,,,,,,,,,,,,,,,,,,,,,,,,,,,,,,,,,,,,,,,,,,,,,1,23,83,40,1,B,X,N,o2_image,stimuli/out2.png,stimuli/out1.png,stimuli/correct_out2.png,,,,,,,,,,,,,,,,,,,,,,,,,,,,,,,,,,,,,,
,,5dfe7de0bf3d4eb1cc979a7a,22,male,2024-04-19_18h37.30.160,stockport_simplified,2022.2.4,Win32,163.9344262,661e456ee6de07e70aa9ef7b,66229d94094ac4f560514077,,,,,,,,,,,,,,,,,,,,,,,,,,,,,,,,,,565.8185,569.5943,"[7,6,8,2,3,4,1,5]","[[-0.3,0.2],[0.3,0.2]]","[[0.125,-0.2],[-0.125,-0.2]]",-0.081481481,-0.194444444,1,0,0,3.2727,o2_image,569.6004,1,570.0973,570.0973,572.0973,0,0,0,0,1,,,,,,,,,,,,,,,,,,,,,,,,,,,,,,,,,,,,,,,,,,,,,,,,,,
,,5dfe7de0bf3d4eb1cc979a7a,22,male,2024-04-19_18h37.30.160,stockport_simplified,2022.2.4,Win32,163.9344262,661e456ee6de07e70aa9ef7b,66229d94094ac4f560514077,,,,,,,,,,,,,,,,,,,,,,,,,,,,,,,,,,,,,,,,,,,,,,,,,,,,,,,,1,24,84,48,1,B,Y,N,o2_image,stimuli/out2.png,stimuli/out1.png,stimuli/correct_out2.png,,,,,,,,,,,,,,,,,,,,,,,,,,,,,,,,,,,,,,
,,5dfe7de0bf3d4eb1cc979a7a,22,male,2024-04-19_18h37.30.160,stockport_simplified,2022.2.4,Win32,163.9344262,661e456ee6de07e70aa9ef7b,66229d94094ac4f560514077,,,,,,,,,,,,,,,,,,,,,,,,,,,,,,,,,,572.0976,576.4799,"[7,6,8,2,3,4,1,5]","[[-0.3,0.2],[0.3,0.2]]","[[0.125,-0.2],[-0.125,-0.2]]",0.093518519,-0.203703704,1,0,0,3.8793,o1_image,576.4866,1,576.9824,576.9824,578.9826,0,0,0,0,1,,,,,,,,,,,,,,,,,,,,,,,,,,,,,,,,,,,,,,,,,,,,,,,,,,
,,5dfe7de0bf3d4eb1cc979a7a,22,male,2024-04-19_18h37.30.160,stockport_simplified,2022.2.4,Win32,163.9344262,661e456ee6de07e70aa9ef7b,66229d94094ac4f560514077,,,,,,,,,,,,,,,,,,,,,,,,,,,,,,,,,,,,,,,,,,,,,,,,,,,,,,,,1,25,85,50,1,N,M,C,o1_image,stimuli/out1.png,stimuli/correct_out1.png,stimuli/out2.png,,,,,,,,,,,,,,,,,,,,,,,,,,,,,,,,,,,,,,
,,5dfe7de0bf3d4eb1cc979a7a,22,male,2024-04-19_18h37.30.160,stockport_simplified,2022.2.4,Win32,163.9344262,661e456ee6de07e70aa9ef7b,66229d94094ac4f560514077,,,,,,,,,,,,,,,,,,,,,,,,,,,,,,,,,,578.9828,581.6071,"[7,6,8,2,3,4,1,5]","[[0.3,0.2],[-0.3,0.2]]","[[-0.125,-0.2],[0.125,-0.2]]",0.169444444,-0.223148148,1,0,0,2.1211,o2_image,581.6074,1,582.104,582.104,584.104,0,0,0,0,1,,,,,,,,,,,,,,,,,,,,,,,,,,,,,,,,,,,,,,,,,,,,,,,,,,
,,5dfe7de0bf3d4eb1cc979a7a,22,male,2024-04-19_18h37.30.160,stockport_simplified,2022.2.4,Win32,163.9344262,661e456ee6de07e70aa9ef7b,66229d94094ac4f560514077,,,,,,,,,,,,,,,,,,,,,,,,,,,,,,,,,,,,,,,,,,,,,,,,,,,,,,,,1,26,86,11,1,B,X,N,o2_image,stimuli/out2.png,stimuli/out1.png,stimuli/correct_out2.png,,,,,,,,,,,,,,,,,,,,,,,,,,,,,,,,,,,,,,
,,5dfe7de0bf3d4eb1cc979a7a,22,male,2024-04-19_18h37.30.160,stockport_simplified,2022.2.4,Win32,163.9344262,661e456ee6de07e70aa9ef7b,66229d94094ac4f560514077,,,,,,,,,,,,,,,,,,,,,,,,,,,,,,,,,,584.1042,586.5951,"[7,6,8,2,3,4,1,5]","[[0.3,0.2],[-0.3,0.2]]","[[0.125,-0.2],[-0.125,-0.2]]",0.146296296,-0.201851852,1,0,0,1.9878,o1_image,586.6009,1,587.0983,587.0983,589.0982,0,0,0,0,1,,,,,,,,,,,,,,,,,,,,,,,,,,,,,,,,,,,,,,,,,,,,,,,,,,
,,5dfe7de0bf3d4eb1cc979a7a,22,male,2024-04-19_18h37.30.160,stockport_simplified,2022.2.4,Win32,163.9344262,661e456ee6de07e70aa9ef7b,66229d94094ac4f560514077,,,,,,,,,,,,,,,,,,,,,,,,,,,,,,,,,,,,,,,,,,,,,,,,,,,,,,,,1,27,87,5,1,A,Y,N,o1_image,stimuli/out1.png,stimuli/correct_out1.png,stimuli/out2.png,,,,,,,,,,,,,,,,,,,,,,,,,,,,,,,,,,,,,,
,,5dfe7de0bf3d4eb1cc979a7a,22,male,2024-04-19_18h37.30.160,stockport_simplified,2022.2.4,Win32,163.9344262,661e456ee6de07e70aa9ef7b,66229d94094ac4f560514077,,,,,,,,,,,,,,,,,,,,,,,,,,,,,,,,,,589.0984,591.0923,"[7,6,8,2,3,4,1,5]","[[-0.3,0.2],[0.3,0.2]]","[[-0.125,-0.2],[0.125,-0.2]]",0.089814815,-0.183333333,1,0,0,1.4906,o2_image,591.0928,1,591.5891,591.5892,593.5894,0,0,0,0,1,,,,,,,,,,,,,,,,,,,,,,,,,,,,,,,,,,,,,,,,,,,,,,,,,,
,,5dfe7de0bf3d4eb1cc979a7a,22,male,2024-04-19_18h37.30.160,stockport_simplified,2022.2.4,Win32,163.9344262,661e456ee6de07e70aa9ef7b,66229d94094ac4f560514077,,,,,,,,,,,,,,,,,,,,,,,,,,,,,,,,,,,,,,,,,,,,,,,,,,,,,,,,1,28,88,25,1,N,M,D,o2_image,stimuli/out2.png,stimuli/out1.png,stimuli/correct_out2.png,,,,,,,,,,,,,,,,,,,,,,,,,,,,,,,,,,,,,,
,,5dfe7de0bf3d4eb1cc979a7a,22,male,2024-04-19_18h37.30.160,stockport_simplified,2022.2.4,Win32,163.9344262,661e456ee6de07e70aa9ef7b,66229d94094ac4f560514077,,,,,,,,,,,,,,,,,,,,,,,,,,,,,,,,,,593.5896,597.1471,"[7,6,8,2,3,4,1,5]","[[-0.3,0.2],[0.3,0.2]]","[[0.125,-0.2],[-0.125,-0.2]]",-0.112962963,-0.165740741,1,0,0,3.0545,o2_image,597.1528,0,597.6501,597.6501,599.6502,0,0,0,0,1,,,,,,,,,,,,,,,,,,,,,,,,,,,,,,,,,,,,,,,,,,,,,,,,,,
,,5dfe7de0bf3d4eb1cc979a7a,22,male,2024-04-19_18h37.30.160,stockport_simplified,2022.2.4,Win32,163.9344262,661e456ee6de07e70aa9ef7b,66229d94094ac4f560514077,,,,,,,,,,,,,,,,,,,,,,,,,,,,,,,,,,,,,,,,,,,,,,,,,,,,,,,,1,29,89,54,1,N,M,C,o1_image,stimuli/out1.png,stimuli/correct_out1.png,stimuli/out2.png,,,,,,,,,,,,,,,,,,,,,,,,,,,,,,,,,,,,,,
,,5dfe7de0bf3d4eb1cc979a7a,22,male,2024-04-19_18h37.30.160,stockport_simplified,2022.2.4,Win32,163.9344262,661e456ee6de07e70aa9ef7b,66229d94094ac4f560514077,,,,,,,,,,,,,,,,,,,,,,,,,,,,,,,,,,599.6506,601.3302,"[7,6,8,2,3,4,1,5]","[[0.3,0.2],[-0.3,0.2]]","[[-0.125,-0.2],[0.125,-0.2]]",0.073148148,-0.175925926,1,0,0,1.1763,o2_image,601.3306,1,601.8264,601.8265,603.8262,0,0,0,0,1,,,,,,,,,,,,,,,,,,,,,,,,,,,,,,,,,,,,,,,,,,,,,,,,,,
,,5dfe7de0bf3d4eb1cc979a7a,22,male,2024-04-19_18h37.30.160,stockport_simplified,2022.2.4,Win32,163.9344262,661e456ee6de07e70aa9ef7b,66229d94094ac4f560514077,,,,,,,,,,,,,,,,,,,,,,,,,,,,,,,,,,,,,,,,,,,,,,,,,,,,,,,,1,30,90,27,1,N,M,D,o2_image,stimuli/out2.png,stimuli/out1.png,stimuli/correct_out2.png,,,,,,,,,,,,,,,,,,,,,,,,,,,,,,,,,,,,,,
,,5dfe7de0bf3d4eb1cc979a7a,22,male,2024-04-19_18h37.30.160,stockport_simplified,2022.2.4,Win32,163.9344262,661e456ee6de07e70aa9ef7b,66229d94094ac4f560514077,,,,,,,,,,,,,,,,,,,,,,,,,,,,,,,,,,603.8264,610.9963,"[7,6,8,2,3,4,1,5]","[[0.3,0.2],[-0.3,0.2]]","[[-0.125,-0.2],[0.125,-0.2]]",-0.112962963,-0.162962963,1,0,0,6.6669,o1_image,611.0027,0,611.4993,611.4993,613.4994,0,0,0,0,1,,,,,,,,,,,,,,,,,,,,,,,,,,,,,,,,,,,,,,,,,,,,,,,,,,
,,5dfe7de0bf3d4eb1cc979a7a,22,male,2024-04-19_18h37.30.160,stockport_simplified,2022.2.4,Win32,163.9344262,661e456ee6de07e70aa9ef7b,66229d94094ac4f560514077,,,,,,,,,,,,,,,,,,,,,,,,,,,,,,,,,,,,,,,,,,,,,,,,,,,,,,,,1,31,91,42,1,B,X,N,o2_image,stimuli/out2.png,stimuli/out1.png,stimuli/correct_out2.png,,,,,,,,,,,,,,,,,,,,,,,,,,,,,,,,,,,,,,
,,5dfe7de0bf3d4eb1cc979a7a,22,male,2024-04-19_18h37.30.160,stockport_simplified,2022.2.4,Win32,163.9344262,661e456ee6de07e70aa9ef7b,66229d94094ac4f560514077,,,,,,,,,,,,,,,,,,,,,,,,,,,,,,,,,,613.4998,617.0088,"[7,6,8,2,3,4,1,5]","[[-0.3,0.2],[0.3,0.2]]","[[0.125,-0.2],[-0.125,-0.2]]",-0.087962963,-0.17962963,1,0,0,3.0063,o2_image,617.0146,1,617.5117,617.5117,619.5119,0,0,0,0,1,,,,,,,,,,,,,,,,,,,,,,,,,,,,,,,,,,,,,,,,,,,,,,,,,,
,,5dfe7de0bf3d4eb1cc979a7a,22,male,2024-04-19_18h37.30.160,stockport_simplified,2022.2.4,Win32,163.9344262,661e456ee6de07e70aa9ef7b,66229d94094ac4f560514077,,,,,,,,,,,,,,,,,,,,,,,,,,,,,,,,,,,,,,,,,,,,,,,,,,,,,,,,1,32,92,46,1,B,Y,N,o2_image,stimuli/out2.png,stimuli/out1.png,stimuli/correct_out2.png,,,,,,,,,,,,,,,,,,,,,,,,,,,,,,,,,,,,,,
,,5dfe7de0bf3d4eb1cc979a7a,22,male,2024-04-19_18h37.30.160,stockport_simplified,2022.2.4,Win32,163.9344262,661e456ee6de07e70aa9ef7b,66229d94094ac4f560514077,,,,,,,,,,,,,,,,,,,,,,,,,,,,,,,,,,619.5122,621.9483,"[7,6,8,2,3,4,1,5]","[[0.3,0.2],[-0.3,0.2]]","[[0.125,-0.2],[-0.125,-0.2]]",-0.084259259,-0.174074074,1,0,0,1.9332,o2_image,621.9486,0,622.4453,622.4453,624.4454,0,0,0,0,1,,,,,,,,,,,,,,,,,,,,,,,,,,,,,,,,,,,,,,,,,,,,,,,,,,
,,5dfe7de0bf3d4eb1cc979a7a,22,male,2024-04-19_18h37.30.160,stockport_simplified,2022.2.4,Win32,163.9344262,661e456ee6de07e70aa9ef7b,66229d94094ac4f560514077,,,,,,,,,,,,,,,,,,,,,,,,,,,,,,,,,,,,,,,,,,,,,,,,,,,,,,,,1,33,93,38,1,A,Y,N,o1_image,stimuli/out1.png,stimuli/correct_out1.png,stimuli/out2.png,,,,,,,,,,,,,,,,,,,,,,,,,,,,,,,,,,,,,,
,,5dfe7de0bf3d4eb1cc979a7a,22,male,2024-04-19_18h37.30.160,stockport_simplified,2022.2.4,Win32,163.9344262,661e456ee6de07e70aa9ef7b,66229d94094ac4f560514077,,,,,,,,,,,,,,,,,,,,,,,,,,,,,,,,,,624.4457,626.2153,"[7,6,8,2,3,4,1,5]","[[0.3,0.2],[-0.3,0.2]]","[[-0.125,-0.2],[0.125,-0.2]]",0.109259259,-0.180555556,1,0,0,1.2665,o2_image,626.2157,1,626.7122,626.7122,628.7123,0,0,0,0,1,,,,,,,,,,,,,,,,,,,,,,,,,,,,,,,,,,,,,,,,,,,,,,,,,,
,,5dfe7de0bf3d4eb1cc979a7a,22,male,2024-04-19_18h37.30.160,stockport_simplified,2022.2.4,Win32,163.9344262,661e456ee6de07e70aa9ef7b,66229d94094ac4f560514077,,,,,,,,,,,,,,,,,,,,,,,,,,,,,,,,,,,,,,,,,,,,,,,,,,,,,,,,1,34,94,29,1,N,M,D,o2_image,stimuli/out2.png,stimuli/out1.png,stimuli/correct_out2.png,,,,,,,,,,,,,,,,,,,,,,,,,,,,,,,,,,,,,,
,,5dfe7de0bf3d4eb1cc979a7a,22,male,2024-04-19_18h37.30.160,stockport_simplified,2022.2.4,Win32,163.9344262,661e456ee6de07e70aa9ef7b,66229d94094ac4f560514077,,,,,,,,,,,,,,,,,,,,,,,,,,,,,,,,,,628.7126,631.9791,"[7,6,8,2,3,4,1,5]","[[0.3,0.2],[-0.3,0.2]]","[[0.125,-0.2],[-0.125,-0.2]]",-0.04537037,-0.185185185,1,0,0,2.7635,o2_image,631.985,1,632.4821,632.4821,634.4825,0,0,0,0,1,,,,,,,,,,,,,,,,,,,,,,,,,,,,,,,,,,,,,,,,,,,,,,,,,,
,,5dfe7de0bf3d4eb1cc979a7a,22,male,2024-04-19_18h37.30.160,stockport_simplified,2022.2.4,Win32,163.9344262,661e456ee6de07e70aa9ef7b,66229d94094ac4f560514077,,,,,,,,,,,,,,,,,,,,,,,,,,,,,,,,,,,,,,,,,,,,,,,,,,,,,,,,1,35,95,18,1,B,Y,N,o2_image,stimuli/out2.png,stimuli/out1.png,stimuli/correct_out2.png,,,,,,,,,,,,,,,,,,,,,,,,,,,,,,,,,,,,,,
,,5dfe7de0bf3d4eb1cc979a7a,22,male,2024-04-19_18h37.30.160,stockport_simplified,2022.2.4,Win32,163.9344262,661e456ee6de07e70aa9ef7b,66229d94094ac4f560514077,,,,,,,,,,,,,,,,,,,,,,,,,,,,,,,,,,634.4829,636.2157,"[7,6,8,2,3,4,1,5]","[[0.3,0.2],[-0.3,0.2]]","[[0.125,-0.2],[-0.125,-0.2]]",0.105555556,-0.189814815,1,0,0,1.2302,o1_image,636.2163,1,636.7126,636.7126,638.7128,0,0,0,0,1,,,,,,,,,,,,,,,,,,,,,,,,,,,,,,,,,,,,,,,,,,,,,,,,,,
,,5dfe7de0bf3d4eb1cc979a7a,22,male,2024-04-19_18h37.30.160,stockport_simplified,2022.2.4,Win32,163.9344262,661e456ee6de07e70aa9ef7b,66229d94094ac4f560514077,,,,,,,,,,,,,,,,,,,,,,,,,,,,,,,,,,,,,,,,,,,,,,,,,,,,,,,,1,36,96,31,1,A,X,N,o1_image,stimuli/out1.png,stimuli/correct_out1.png,stimuli/out2.png,,,,,,,,,,,,,,,,,,,,,,,,,,,,,,,,,,,,,,
,,5dfe7de0bf3d4eb1cc979a7a,22,male,2024-04-19_18h37.30.160,stockport_simplified,2022.2.4,Win32,163.9344262,661e456ee6de07e70aa9ef7b,66229d94094ac4f560514077,,,,,,,,,,,,,,,,,,,,,,,,,,,,,,,,,,638.7131,640.4341,"[7,6,8,2,3,4,1,5]","[[-0.3,0.2],[0.3,0.2]]","[[0.125,-0.2],[-0.125,-0.2]]",0.105555556,-0.190740741,1,0,0,1.218,o1_image,640.4345,1,640.931,640.931,642.931,0,0,0,0,1,,,,,,,,,,,,,,,,,,,,,,,,,,,,,,,,,,,,,,,,,,,,,,,,,,
,,5dfe7de0bf3d4eb1cc979a7a,22,male,2024-04-19_18h37.30.160,stockport_simplified,2022.2.4,Win32,163.9344262,661e456ee6de07e70aa9ef7b,66229d94094ac4f560514077,,,,,,,,,,,,,,,,,,,,,,,,,,,,,,,,,,,,,,,,,,,,,,,,,,,,,,,,1,37,97,9,1,A,Y,N,o1_image,stimuli/out1.png,stimuli/correct_out1.png,stimuli/out2.png,,,,,,,,,,,,,,,,,,,,,,,,,,,,,,,,,,,,,,
,,5dfe7de0bf3d4eb1cc979a7a,22,male,2024-04-19_18h37.30.160,stockport_simplified,2022.2.4,Win32,163.9344262,661e456ee6de07e70aa9ef7b,66229d94094ac4f560514077,,,,,,,,,,,,,,,,,,,,,,,,,,,,,,,,,,642.9315,644.901,"[7,6,8,2,3,4,1,5]","[[-0.3,0.2],[0.3,0.2]]","[[-0.125,-0.2],[0.125,-0.2]]",0.102777778,-0.192592593,1,0,0,1.4666,o2_image,644.9015,1,645.3979,645.3979,647.398,0,0,0,0,1,,,,,,,,,,,,,,,,,,,,,,,,,,,,,,,,,,,,,,,,,,,,,,,,,,
,,5dfe7de0bf3d4eb1cc979a7a,22,male,2024-04-19_18h37.30.160,stockport_simplified,2022.2.4,Win32,163.9344262,661e456ee6de07e70aa9ef7b,66229d94094ac4f560514077,,,,,,,,,,,,,,,,,,,,,,,,,,,,,,,,,,,,,,,,,,,,,,,,,,,,,,,,1,38,98,45,1,B,Y,N,o2_image,stimuli/out2.png,stimuli/out1.png,stimuli/correct_out2.png,,,,,,,,,,,,,,,,,,,,,,,,,,,,,,,,,,,,,,
,,5dfe7de0bf3d4eb1cc979a7a,22,male,2024-04-19_18h37.30.160,stockport_simplified,2022.2.4,Win32,163.9344262,661e456ee6de07e70aa9ef7b,66229d94094ac4f560514077,,,,,,,,,,,,,,,,,,,,,,,,,,,,,,,,,,647.3982,650.1921,"[7,6,8,2,3,4,1,5]","[[-0.3,0.2],[0.3,0.2]]","[[-0.125,-0.2],[0.125,-0.2]]",0.103703704,-0.161111111,1,0,0,2.2909,o2_image,650.1926,0,650.6893,650.6893,652.6892,0,0,0,0,1,,,,,,,,,,,,,,,,,,,,,,,,,,,,,,,,,,,,,,,,,,,,,,,,,,
,,5dfe7de0bf3d4eb1cc979a7a,22,male,2024-04-19_18h37.30.160,stockport_simplified,2022.2.4,Win32,163.9344262,661e456ee6de07e70aa9ef7b,66229d94094ac4f560514077,,,,,,,,,,,,,,,,,,,,,,,,,,,,,,,,,,,,,,,,,,,,,,,,,,,,,,,,1,39,99,36,1,A,Y,N,o1_image,stimuli/out1.png,stimuli/correct_out1.png,stimuli/out2.png,,,,,,,,,,,,,,,,,,,,,,,,,,,,,,,,,,,,,,
,,5dfe7de0bf3d4eb1cc979a7a,22,male,2024-04-19_18h37.30.160,stockport_simplified,2022.2.4,Win32,163.9344262,661e456ee6de07e70aa9ef7b,66229d94094ac4f560514077,,,,,,,,,,,,,,,,,,,,,,,,,,,,,,,,,,652.6894,654.6407,"[7,6,8,2,3,4,1,5]","[[0.3,0.2],[-0.3,0.2]]","[[-0.125,-0.2],[0.125,-0.2]]",-0.112037037,-0.263888889,1,0,0,1.4481,o1_image,654.6412,1,655.1377,655.1377,657.1378,0,0,0,0,1,,,,,,,,,,,,,,,,,,,,,,,,,,,,,,,,,,,,,,,,,,,,,,,,,,
,,5dfe7de0bf3d4eb1cc979a7a,22,male,2024-04-19_18h37.30.160,stockport_simplified,2022.2.4,Win32,163.9344262,661e456ee6de07e70aa9ef7b,66229d94094ac4f560514077,,,,,,,,,,,,,,,,,,,,,,,,,,,,,,,,,,,,,,,,,,,,,,,,,,,,,,,,1,40,100,34,1,A,X,N,o1_image,stimuli/out1.png,stimuli/correct_out1.png,stimuli/out2.png,,,,,,,,,,,,,,,,,,,,,,,,,,,,,,,,,,,,,,
,,5dfe7de0bf3d4eb1cc979a7a,22,male,2024-04-19_18h37.30.160,stockport_simplified,2022.2.4,Win32,163.9344262,661e456ee6de07e70aa9ef7b,66229d94094ac4f560514077,,,,,,,,,,,,,,,,,,,,,,,,,,,,,,,,,,657.1381,659.0048,"[7,6,8,2,3,4,1,5]","[[-0.3,0.2],[0.3,0.2]]","[[-0.125,-0.2],[0.125,-0.2]]",0.064814815,-0.240740741,1,0,0,1.3635,o2_image,659.0052,1,659.5017,659.5017,661.5017,0,0,0,0,1,,,,,,,,,,,,,,,,,,,,,,,,,,,,,,,,,,,,,,,,,,,,,,,,,,
,,5dfe7de0bf3d4eb1cc979a7a,22,male,2024-04-19_18h37.30.160,stockport_simplified,2022.2.4,Win32,163.9344262,661e456ee6de07e70aa9ef7b,66229d94094ac4f560514077,,,,,,,,,,,,,,,,,,,,,,,,,,,,,,,,,,,,,,,,,,,,,,,,,,,,,,,,1,41,101,15,1,B,Y,N,o2_image,stimuli/out2.png,stimuli/out1.png,stimuli/correct_out2.png,,,,,,,,,,,,,,,,,,,,,,,,,,,,,,,,,,,,,,
,,5dfe7de0bf3d4eb1cc979a7a,22,male,2024-04-19_18h37.30.160,stockport_simplified,2022.2.4,Win32,163.9344262,661e456ee6de07e70aa9ef7b,66229d94094ac4f560514077,,,,,,,,,,,,,,,,,,,,,,,,,,,,,,,,,,661.5021,664.2427,"[7,6,8,2,3,4,1,5]","[[-0.3,0.2],[0.3,0.2]]","[[0.125,-0.2],[-0.125,-0.2]]",0.105555556,-0.160185185,1,0,0,2.2374,o1_image,664.2432,1,664.7444,664.7445,666.7444,0,0,0,0,1,,,,,,,,,,,,,,,,,,,,,,,,,,,,,,,,,,,,,,,,,,,,,,,,,,
,,5dfe7de0bf3d4eb1cc979a7a,22,male,2024-04-19_18h37.30.160,stockport_simplified,2022.2.4,Win32,163.9344262,661e456ee6de07e70aa9ef7b,66229d94094ac4f560514077,,,,,,,,,,,,,,,,,,,,,,,,,,,,,,,,,,,,,,,,,,,,,,,,,,,,,,,,1,42,102,21,1,N,M,C,o1_image,stimuli/out1.png,stimuli/correct_out1.png,stimuli/out2.png,,,,,,,,,,,,,,,,,,,,,,,,,,,,,,,,,,,,,,
,,5dfe7de0bf3d4eb1cc979a7a,22,male,2024-04-19_18h37.30.160,stockport_simplified,2022.2.4,Win32,163.9344262,661e456ee6de07e70aa9ef7b,66229d94094ac4f560514077,,,,,,,,,,,,,,,,,,,,,,,,,,,,,,,,,,666.7447,668.7204,"[7,6,8,2,3,4,1,5]","[[0.3,0.2],[-0.3,0.2]]","[[-0.125,-0.2],[0.125,-0.2]]",-0.065740741,-0.162962963,1,0,0,1.4728,o1_image,668.7207,1,669.2174,669.2174,671.2175,0,0,0,0,1,,,,,,,,,,,,,,,,,,,,,,,,,,,,,,,,,,,,,,,,,,,,,,,,,,
,,5dfe7de0bf3d4eb1cc979a7a,22,male,2024-04-19_18h37.30.160,stockport_simplified,2022.2.4,Win32,163.9344262,661e456ee6de07e70aa9ef7b,66229d94094ac4f560514077,,,,,,,,,,,,,,,,,,,,,,,,,,,,,,,,,,,,,,,,,,,,,,,,,,,,,,,,1,43,103,53,1,N,M,C,o1_image,stimuli/out1.png,stimuli/correct_out1.png,stimuli/out2.png,,,,,,,,,,,,,,,,,,,,,,,,,,,,,,,,,,,,,,
,,5dfe7de0bf3d4eb1cc979a7a,22,male,2024-04-19_18h37.30.160,stockport_simplified,2022.2.4,Win32,163.9344262,661e456ee6de07e70aa9ef7b,66229d94094ac4f560514077,,,,,,,,,,,,,,,,,,,,,,,,,,,,,,,,,,671.2178,674.351,"[7,6,8,2,3,4,1,5]","[[0.3,0.2],[-0.3,0.2]]","[[0.125,-0.2],[-0.125,-0.2]]",-0.094444444,-0.184259259,1,0,0,2.6302,o2_image,674.3514,1,674.8479,674.8479,676.8481,0,0,0,0,1,,,,,,,,,,,,,,,,,,,,,,,,,,,,,,,,,,,,,,,,,,,,,,,,,,
,,5dfe7de0bf3d4eb1cc979a7a,22,male,2024-04-19_18h37.30.160,stockport_simplified,2022.2.4,Win32,163.9344262,661e456ee6de07e70aa9ef7b,66229d94094ac4f560514077,,,,,,,,,,,,,,,,,,,,,,,,,,,,,,,,,,,,,,,,,,,,,,,,,,,,,,,,1,44,104,44,1,B,X,N,o2_image,stimuli/out2.png,stimuli/out1.png,stimuli/correct_out2.png,,,,,,,,,,,,,,,,,,,,,,,,,,,,,,,,,,,,,,
,,5dfe7de0bf3d4eb1cc979a7a,22,male,2024-04-19_18h37.30.160,stockport_simplified,2022.2.4,Win32,163.9344262,661e456ee6de07e70aa9ef7b,66229d94094ac4f560514077,,,,,,,,,,,,,,,,,,,,,,,,,,,,,,,,,,676.8484,679.5148,"[7,6,8,2,3,4,1,5]","[[0.3,0.2],[-0.3,0.2]]","[[0.125,-0.2],[-0.125,-0.2]]",-0.125925926,-0.173148148,1,0,0,2.1636,o2_image,679.521,1,680.0178,680.0178,682.018,0,0,0,0,1,,,,,,,,,,,,,,,,,,,,,,,,,,,,,,,,,,,,,,,,,,,,,,,,,,
,,5dfe7de0bf3d4eb1cc979a7a,22,male,2024-04-19_18h37.30.160,stockport_simplified,2022.2.4,Win32,163.9344262,661e456ee6de07e70aa9ef7b,66229d94094ac4f560514077,,,,,,,,,,,,,,,,,,,,,,,,,,,,,,,,,,,,,,,,,,,,,,,,,,,,,,,,1,45,105,12,1,B,X,N,o2_image,stimuli/out2.png,stimuli/out1.png,stimuli/correct_out2.png,,,,,,,,,,,,,,,,,,,,,,,,,,,,,,,,,,,,,,
,,5dfe7de0bf3d4eb1cc979a7a,22,male,2024-04-19_18h37.30.160,stockport_simplified,2022.2.4,Win32,163.9344262,661e456ee6de07e70aa9ef7b,66229d94094ac4f560514077,,,,,,,,,,,,,,,,,,,,,,,,,,,,,,,,,,682.0183,684.4787,"[7,6,8,2,3,4,1,5]","[[-0.3,0.2],[0.3,0.2]]","[[0.125,-0.2],[-0.125,-0.2]]",-0.078703704,-0.163888889,1,0,0,1.9571,o2_image,684.4793,1,684.9757,684.9758,686.9759,0,0,0,0,1,,,,,,,,,,,,,,,,,,,,,,,,,,,,,,,,,,,,,,,,,,,,,,,,,,
,,5dfe7de0bf3d4eb1cc979a7a,22,male,2024-04-19_18h37.30.160,stockport_simplified,2022.2.4,Win32,163.9344262,661e456ee6de07e70aa9ef7b,66229d94094ac4f560514077,,,,,,,,,,,,,,,,,,,,,,,,,,,,,,,,,,,,,,,,,,,,,,,,,,,,,,,,1,46,106,58,1,N,M,D,o2_image,stimuli/out2.png,stimuli/out1.png,stimuli/correct_out2.png,,,,,,,,,,,,,,,,,,,,,,,,,,,,,,,,,,,,,,
,,5dfe7de0bf3d4eb1cc979a7a,22,male,2024-04-19_18h37.30.160,stockport_simplified,2022.2.4,Win32,163.9344262,661e456ee6de07e70aa9ef7b,66229d94094ac4f560514077,,,,,,,,,,,,,,,,,,,,,,,,,,,,,,,,,,686.9764,689.8003,"[7,6,8,2,3,4,1,5]","[[0.3,0.2],[-0.3,0.2]]","[[-0.125,-0.2],[0.125,-0.2]]",-0.137037037,-0.155555556,1,0,0,2.3212,o1_image,689.8067,1,690.3031,690.3031,692.3033,0,0,0,0,1,,,,,,,,,,,,,,,,,,,,,,,,,,,,,,,,,,,,,,,,,,,,,,,,,,
,,5dfe7de0bf3d4eb1cc979a7a,22,male,2024-04-19_18h37.30.160,stockport_simplified,2022.2.4,Win32,163.9344262,661e456ee6de07e70aa9ef7b,66229d94094ac4f560514077,,,,,,,,,,,,,,,,,,,,,,,,,,,,,,,,,,,,,,,,,,,,,,,,,,,,,,,,1,47,107,6,1,A,Y,N,o1_image,stimuli/out1.png,stimuli/correct_out1.png,stimuli/out2.png,,,,,,,,,,,,,,,,,,,,,,,,,,,,,,,,,,,,,,
,,5dfe7de0bf3d4eb1cc979a7a,22,male,2024-04-19_18h37.30.160,stockport_simplified,2022.2.4,Win32,163.9344262,661e456ee6de07e70aa9ef7b,66229d94094ac4f560514077,,,,,,,,,,,,,,,,,,,,,,,,,,,,,,,,,,692.3035,695.4068,"[7,6,8,2,3,4,1,5]","[[0.3,0.2],[-0.3,0.2]]","[[0.125,-0.2],[-0.125,-0.2]]",0.076851852,-0.176851852,1,0,0,2.5998,o1_image,695.4129,1,695.9095,695.9095,697.9097,0,0,0,0,1,,,,,,,,,,,,,,,,,,,,,,,,,,,,,,,,,,,,,,,,,,,,,,,,,,
,,5dfe7de0bf3d4eb1cc979a7a,22,male,2024-04-19_18h37.30.160,stockport_simplified,2022.2.4,Win32,163.9344262,661e456ee6de07e70aa9ef7b,66229d94094ac4f560514077,,,,,,,,,,,,,,,,,,,,,,,,,,,,,,,,,,,,,,,,,,,,,,,,,,,,,,,,1,48,108,24,1,N,M,C,o1_image,stimuli/out1.png,stimuli/correct_out1.png,stimuli/out2.png,,,,,,,,,,,,,,,,,,,,,,,,,,,,,,,,,,,,,,
,,5dfe7de0bf3d4eb1cc979a7a,22,male,2024-04-19_18h37.30.160,stockport_simplified,2022.2.4,Win32,163.9344262,661e456ee6de07e70aa9ef7b,66229d94094ac4f560514077,,,,,,,,,,,,,,,,,,,,,,,,,,,,,,,,,,697.9101,700.328,"[7,6,8,2,3,4,1,5]","[[-0.3,0.2],[0.3,0.2]]","[[-0.125,-0.2],[0.125,-0.2]]",-0.085185185,-0.196296296,1,0,0,1.9152,o1_image,700.3283,1,700.8249,700.8249,702.8251,0,0,0,0,1,,,,,,,,,,,,,,,,,,,,,,,,,,,,,,,,,,,,,,,,,,,,,,,,,,
,,5dfe7de0bf3d4eb1cc979a7a,22,male,2024-04-19_18h37.30.160,stockport_simplified,2022.2.4,Win32,163.9344262,661e456ee6de07e70aa9ef7b,66229d94094ac4f560514077,,,,,,,,,,,,,,,,,,,,,,,,,,,,,,,,,,,,,,,,,,,,,,,,,,,,,,,,1,49,109,23,1,N,M,C,o1_image,stimuli/out1.png,stimuli/correct_out1.png,stimuli/out2.png,,,,,,,,,,,,,,,,,,,,,,,,,,,,,,,,,,,,,,
,,5dfe7de0bf3d4eb1cc979a7a,22,male,2024-04-19_18h37.30.160,stockport_simplified,2022.2.4,Win32,163.9344262,661e456ee6de07e70aa9ef7b,66229d94094ac4f560514077,,,,,,,,,,,,,,,,,,,,,,,,,,,,,,,,,,702.8253,704.6494,"[7,6,8,2,3,4,1,5]","[[0.3,0.2],[-0.3,0.2]]","[[0.125,-0.2],[-0.125,-0.2]]",-0.04537037,-0.190740741,1,0,0,1.321,o2_image,704.6499,1,705.1463,705.1464,707.1465,0,0,0,0,1,,,,,,,,,,,,,,,,,,,,,,,,,,,,,,,,,,,,,,,,,,,,,,,,,,
,,5dfe7de0bf3d4eb1cc979a7a,22,male,2024-04-19_18h37.30.160,stockport_simplified,2022.2.4,Win32,163.9344262,661e456ee6de07e70aa9ef7b,66229d94094ac4f560514077,,,,,,,,,,,,,,,,,,,,,,,,,,,,,,,,,,,,,,,,,,,,,,,,,,,,,,,,1,50,110,59,1,N,M,D,o2_image,stimuli/out2.png,stimuli/out1.png,stimuli/correct_out2.png,,,,,,,,,,,,,,,,,,,,,,,,,,,,,,,,,,,,,,
,,5dfe7de0bf3d4eb1cc979a7a,22,male,2024-04-19_18h37.30.160,stockport_simplified,2022.2.4,Win32,163.9344262,661e456ee6de07e70aa9ef7b,66229d94094ac4f560514077,,,,,,,,,,,,,,,,,,,,,,,,,,,,,,,,,,707.1468,710.1709,"[7,6,8,2,3,4,1,5]","[[-0.3,0.2],[0.3,0.2]]","[[-0.125,-0.2],[0.125,-0.2]]",0.064814815,-0.187962963,1,0,0,2.5211,o2_image,710.1715,1,710.6678,710.6678,712.6679,0,0,0,0,1,,,,,,,,,,,,,,,,,,,,,,,,,,,,,,,,,,,,,,,,,,,,,,,,,,
,,5dfe7de0bf3d4eb1cc979a7a,22,male,2024-04-19_18h37.30.160,stockport_simplified,2022.2.4,Win32,163.9344262,661e456ee6de07e70aa9ef7b,66229d94094ac4f560514077,,,,,,,,,,,,,,,,,,,,,,,,,,,,,,,,,,,,,,,,,,,,,,,,,,,,,,,,1,51,111,43,1,B,X,N,o2_image,stimuli/out2.png,stimuli/out1.png,stimuli/correct_out2.png,,,,,,,,,,,,,,,,,,,,,,,,,,,,,,,,,,,,,,
,,5dfe7de0bf3d4eb1cc979a7a,22,male,2024-04-19_18h37.30.160,stockport_simplified,2022.2.4,Win32,163.9344262,661e456ee6de07e70aa9ef7b,66229d94094ac4f560514077,,,,,,,,,,,,,,,,,,,,,,,,,,,,,,,,,,712.6681,714.4861,"[7,6,8,2,3,4,1,5]","[[0.3,0.2],[-0.3,0.2]]","[[0.125,-0.2],[-0.125,-0.2]]",-0.072222222,-0.212037037,1,0,0,1.3151,o2_image,714.4865,0,714.9831,714.9831,716.9832,0,0,0,0,1,,,,,,,,,,,,,,,,,,,,,,,,,,,,,,,,,,,,,,,,,,,,,,,,,,
,,5dfe7de0bf3d4eb1cc979a7a,22,male,2024-04-19_18h37.30.160,stockport_simplified,2022.2.4,Win32,163.9344262,661e456ee6de07e70aa9ef7b,66229d94094ac4f560514077,,,,,,,,,,,,,,,,,,,,,,,,,,,,,,,,,,,,,,,,,,,,,,,,,,,,,,,,1,52,112,0,1,A,X,N,o1_image,stimuli/out1.png,stimuli/correct_out1.png,stimuli/out2.png,,,,,,,,,,,,,,,,,,,,,,,,,,,,,,,,,,,,,,
,,5dfe7de0bf3d4eb1cc979a7a,22,male,2024-04-19_18h37.30.160,stockport_simplified,2022.2.4,Win32,163.9344262,661e456ee6de07e70aa9ef7b,66229d94094ac4f560514077,,,,,,,,,,,,,,,,,,,,,,,,,,,,,,,,,,716.9836,719.6812,"[7,6,8,2,3,4,1,5]","[[-0.3,0.2],[0.3,0.2]]","[[0.125,-0.2],[-0.125,-0.2]]",-0.071296296,-0.213888889,1,0,0,2.1947,o2_image,719.6871,1,720.1833,720.1834,722.1835,0,0,0,0,1,,,,,,,,,,,,,,,,,,,,,,,,,,,,,,,,,,,,,,,,,,,,,,,,,,
,,5dfe7de0bf3d4eb1cc979a7a,22,male,2024-04-19_18h37.30.160,stockport_simplified,2022.2.4,Win32,163.9344262,661e456ee6de07e70aa9ef7b,66229d94094ac4f560514077,,,,,,,,,,,,,,,,,,,,,,,,,,,,,,,,,,,,,,,,,,,,,,,,,,,,,,,,1,53,113,41,1,B,X,N,o2_image,stimuli/out2.png,stimuli/out1.png,stimuli/correct_out2.png,,,,,,,,,,,,,,,,,,,,,,,,,,,,,,,,,,,,,,
,,5dfe7de0bf3d4eb1cc979a7a,22,male,2024-04-19_18h37.30.160,stockport_simplified,2022.2.4,Win32,163.9344262,661e456ee6de07e70aa9ef7b,66229d94094ac4f560514077,,,,,,,,,,,,,,,,,,,,,,,,,,,,,,,,,,722.1837,724.2867,"[7,6,8,2,3,4,1,5]","[[-0.3,0.2],[0.3,0.2]]","[[0.125,-0.2],[-0.125,-0.2]]",-0.1,-0.182407407,1,0,0,1.5998,o2_image,724.2872,1,724.7836,724.7836,726.7837,0,0,0,0,1,,,,,,,,,,,,,,,,,,,,,,,,,,,,,,,,,,,,,,,,,,,,,,,,,,
,,5dfe7de0bf3d4eb1cc979a7a,22,male,2024-04-19_18h37.30.160,stockport_simplified,2022.2.4,Win32,163.9344262,661e456ee6de07e70aa9ef7b,66229d94094ac4f560514077,,,,,,,,,,,,,,,,,,,,,,,,,,,,,,,,,,,,,,,,,,,,,,,,,,,,,,,,1,54,114,55,1,N,M,D,o2_image,stimuli/out2.png,stimuli/out1.png,stimuli/correct_out2.png,,,,,,,,,,,,,,,,,,,,,,,,,,,,,,,,,,,,,,
,,5dfe7de0bf3d4eb1cc979a7a,22,male,2024-04-19_18h37.30.160,stockport_simplified,2022.2.4,Win32,163.9344262,661e456ee6de07e70aa9ef7b,66229d94094ac4f560514077,,,,,,,,,,,,,,,,,,,,,,,,,,,,,,,,,,726.7839,730.2263,"[7,6,8,2,3,4,1,5]","[[-0.3,0.2],[0.3,0.2]]","[[0.125,-0.2],[-0.125,-0.2]]",-0.069444444,-0.210185185,1,0,0,2.9394,o2_image,730.2325,1,730.7294,730.7295,732.7295,0,0,0,0,1,,,,,,,,,,,,,,,,,,,,,,,,,,,,,,,,,,,,,,,,,,,,,,,,,,
,,5dfe7de0bf3d4eb1cc979a7a,22,male,2024-04-19_18h37.30.160,stockport_simplified,2022.2.4,Win32,163.9344262,661e456ee6de07e70aa9ef7b,66229d94094ac4f560514077,,,,,,,,,,,,,,,,,,,,,,,,,,,,,,,,,,,,,,,,,,,,,,,,,,,,,,,,1,55,115,47,1,B,Y,N,o2_image,stimuli/out2.png,stimuli/out1.png,stimuli/correct_out2.png,,,,,,,,,,,,,,,,,,,,,,,,,,,,,,,,,,,,,,
,,5dfe7de0bf3d4eb1cc979a7a,22,male,2024-04-19_18h37.30.160,stockport_simplified,2022.2.4,Win32,163.9344262,661e456ee6de07e70aa9ef7b,66229d94094ac4f560514077,,,,,,,,,,,,,,,,,,,,,,,,,,,,,,,,,,732.7298,735.2689,"[7,6,8,2,3,4,1,5]","[[0.3,0.2],[-0.3,0.2]]","[[-0.125,-0.2],[0.125,-0.2]]",-0.076851852,-0.211111111,1,0,0,2.0362,o1_image,735.275,1,735.7721,735.7721,737.7721,0,0,0,0,1,,,,,,,,,,,,,,,,,,,,,,,,,,,,,,,,,,,,,,,,,,,,,,,,,,
,,5dfe7de0bf3d4eb1cc979a7a,22,male,2024-04-19_18h37.30.160,stockport_simplified,2022.2.4,Win32,163.9344262,661e456ee6de07e70aa9ef7b,66229d94094ac4f560514077,,,,,,,,,,,,,,,,,,,,,,,,,,,,,,,,,,,,,,,,,,,,,,,,,,,,,,,,1,56,116,32,1,A,X,N,o1_image,stimuli/out1.png,stimuli/correct_out1.png,stimuli/out2.png,,,,,,,,,,,,,,,,,,,,,,,,,,,,,,,,,,,,,,
,,5dfe7de0bf3d4eb1cc979a7a,22,male,2024-04-19_18h37.30.160,stockport_simplified,2022.2.4,Win32,163.9344262,661e456ee6de07e70aa9ef7b,66229d94094ac4f560514077,,,,,,,,,,,,,,,,,,,,,,,,,,,,,,,,,,737.7724,740.9783,"[7,6,8,2,3,4,1,5]","[[0.3,0.2],[-0.3,0.2]]","[[-0.125,-0.2],[0.125,-0.2]]",-0.102777778,-0.206481481,1,0,0,2.7028,o1_image,740.9787,1,741.4753,741.4753,743.4754,0,0,0,0,1,,,,,,,,,,,,,,,,,,,,,,,,,,,,,,,,,,,,,,,,,,,,,,,,,,
,,5dfe7de0bf3d4eb1cc979a7a,22,male,2024-04-19_18h37.30.160,stockport_simplified,2022.2.4,Win32,163.9344262,661e456ee6de07e70aa9ef7b,66229d94094ac4f560514077,,,,,,,,,,,,,,,,,,,,,,,,,,,,,,,,,,,,,,,,,,,,,,,,,,,,,,,,1,57,117,51,1,N,M,C,o1_image,stimuli/out1.png,stimuli/correct_out1.png,stimuli/out2.png,,,,,,,,,,,,,,,,,,,,,,,,,,,,,,,,,,,,,,
,,5dfe7de0bf3d4eb1cc979a7a,22,male,2024-04-19_18h37.30.160,stockport_simplified,2022.2.4,Win32,163.9344262,661e456ee6de07e70aa9ef7b,66229d94094ac4f560514077,,,,,,,,,,,,,,,,,,,,,,,,,,,,,,,,,,743.4756,749.2696,"[7,6,8,2,3,4,1,5]","[[-0.3,0.2],[0.3,0.2]]","[[-0.125,-0.2],[0.125,-0.2]]",-0.103703704,-0.206481481,1,0,0,5.2909,o1_image,749.2753,0,749.7726,749.7727,751.7728,0,0,0,0,1,,,,,,,,,,,,,,,,,,,,,,,,,,,,,,,,,,,,,,,,,,,,,,,,,,
,,5dfe7de0bf3d4eb1cc979a7a,22,male,2024-04-19_18h37.30.160,stockport_simplified,2022.2.4,Win32,163.9344262,661e456ee6de07e70aa9ef7b,66229d94094ac4f560514077,,,,,,,,,,,,,,,,,,,,,,,,,,,,,,,,,,,,,,,,,,,,,,,,,,,,,,,,1,58,118,17,1,B,Y,N,o2_image,stimuli/out2.png,stimuli/out1.png,stimuli/correct_out2.png,,,,,,,,,,,,,,,,,,,,,,,,,,,,,,,,,,,,,,
,,5dfe7de0bf3d4eb1cc979a7a,22,male,2024-04-19_18h37.30.160,stockport_simplified,2022.2.4,Win32,163.9344262,661e456ee6de07e70aa9ef7b,66229d94094ac4f560514077,,,,,,,,,,,,,,,,,,,,,,,,,,,,,,,,,,751.773,754.2036,"[7,6,8,2,3,4,1,5]","[[0.3,0.2],[-0.3,0.2]]","[[0.125,-0.2],[-0.125,-0.2]]",0.109259259,-0.203703704,1,0,0,1.927,o1_image,754.204,1,754.7002,754.7002,756.7003,0,0,0,0,1,,,,,,,,,,,,,,,,,,,,,,,,,,,,,,,,,,,,,,,,,,,,,,,,,,
,,5dfe7de0bf3d4eb1cc979a7a,22,male,2024-04-19_18h37.30.160,stockport_simplified,2022.2.4,Win32,163.9344262,661e456ee6de07e70aa9ef7b,66229d94094ac4f560514077,,,,,,,,,,,,,,,,,,,,,,,,,,,,,,,,,,,,,,,,,,,,,,,,,,,,,,,,1,59,119,1,1,A,X,N,o1_image,stimuli/out1.png,stimuli/correct_out1.png,stimuli/out2.png,,,,,,,,,,,,,,,,,,,,,,,,,,,,,,,,,,,,,,
,,5dfe7de0bf3d4eb1cc979a7a,22,male,2024-04-19_18h37.30.160,stockport_simplified,2022.2.4,Win32,163.9344262,661e456ee6de07e70aa9ef7b,66229d94094ac4f560514077,,,,,,,,,,,,,,,,,,,,,,,,,,,,,,,,,,756.7115,759.4702,"[7,6,8,2,3,4,1,5]","[[0.3,0.2],[-0.3,0.2]]","[[-0.125,-0.2],[0.125,-0.2]]",-0.086111111,-0.191666667,1,0,0,2.2544,o1_image,759.4764,1,759.9731,759.9731,761.9733,,,,,,,,,,,,,,,,,,0,0,0,0,1,,,,,,,,,,,,,,,,,,,,,,,,,,,,,,,,,
,,5dfe7de0bf3d4eb1cc979a7a,22,male,2024-04-19_18h37.30.160,stockport_simplified,2022.2.4,Win32,163.9344262,661e456ee6de07e70aa9ef7b,66229d94094ac4f560514077,,,,,,,,,,,,,,,,,,,,,,,,,,,,,,,,,,,,,,,,,,,,,,,,,,,,,,,,,,,,,A,Y,N,o1_image,stimuli/out1.png,stimuli/correct_out1.png,stimuli/out2.png,,,,,,0,0,0,13,1,,,,,,,,,,,,,,,,,,,,,,,,,,,,
,,5dfe7de0bf3d4eb1cc979a7a,22,male,2024-04-19_18h37.30.160,stockport_simplified,2022.2.4,Win32,163.9344262,661e456ee6de07e70aa9ef7b,66229d94094ac4f560514077,,,,,,,,,,,,,,,,,,,,,,,,,,,,,,,,,,761.9737,764.2401,"[7,6,8,2,3,4,1,5]","[[0.3,0.2],[-0.3,0.2]]","[[0.125,-0.2],[-0.125,-0.2]]",0.089814815,-0.185185185,1,0,0,1.7637,o1_image,764.2406,1,764.737,764.737,766.7371,,,,,,,,,,,,,,,,,,0,0,0,0,1,,,,,,,,,,,,,,,,,,,,,,,,,,,,,,,,,
,,5dfe7de0bf3d4eb1cc979a7a,22,male,2024-04-19_18h37.30.160,stockport_simplified,2022.2.4,Win32,163.9344262,661e456ee6de07e70aa9ef7b,66229d94094ac4f560514077,,,,,,,,,,,,,,,,,,,,,,,,,,,,,,,,,,,,,,,,,,,,,,,,,,,,,,,,,,,,,A,Y,N,o1_image,stimuli/out1.png,stimuli/correct_out1.png,stimuli/out2.png,,,,,,0,1,1,12,1,,,,,,,,,,,,,,,,,,,,,,,,,,,,
,,5dfe7de0bf3d4eb1cc979a7a,22,male,2024-04-19_18h37.30.160,stockport_simplified,2022.2.4,Win32,163.9344262,661e456ee6de07e70aa9ef7b,66229d94094ac4f560514077,,,,,,,,,,,,,,,,,,,,,,,,,,,,,,,,,,766.7374,769.4706,"[7,6,8,2,3,4,1,5]","[[-0.3,0.2],[0.3,0.2]]","[[-0.125,-0.2],[0.125,-0.2]]",-0.092592593,-0.213888889,1,0,0,2.2302,o1_image,769.4764,1,769.9737,769.9737,771.9737,,,,,,,,,,,,,,,,,,0,0,0,0,1,,,,,,,,,,,,,,,,,,,,,,,,,,,,,,,,,
,,5dfe7de0bf3d4eb1cc979a7a,22,male,2024-04-19_18h37.30.160,stockport_simplified,2022.2.4,Win32,163.9344262,661e456ee6de07e70aa9ef7b,66229d94094ac4f560514077,,,,,,,,,,,,,,,,,,,,,,,,,,,,,,,,,,,,,,,,,,,,,,,,,,,,,,,,,,,,,B,X,N,o1_image,stimuli/out1.png,stimuli/correct_out1.png,stimuli/out2.png,,,,,,0,2,2,27,1,,,,,,,,,,,,,,,,,,,,,,,,,,,,
,,5dfe7de0bf3d4eb1cc979a7a,22,male,2024-04-19_18h37.30.160,stockport_simplified,2022.2.4,Win32,163.9344262,661e456ee6de07e70aa9ef7b,66229d94094ac4f560514077,,,,,,,,,,,,,,,,,,,,,,,,,,,,,,,,,,771.9739,774.9437,"[7,6,8,2,3,4,1,5]","[[0.3,0.2],[-0.3,0.2]]","[[-0.125,-0.2],[0.125,-0.2]]",-0.122222222,-0.203703704,1,0,0,2.4668,o1_image,774.9443,1,775.4406,775.4406,777.4407,,,,,,,,,,,,,,,,,,0,0,0,0,1,,,,,,,,,,,,,,,,,,,,,,,,,,,,,,,,,
,,5dfe7de0bf3d4eb1cc979a7a,22,male,2024-04-19_18h37.30.160,stockport_simplified,2022.2.4,Win32,163.9344262,661e456ee6de07e70aa9ef7b,66229d94094ac4f560514077,,,,,,,,,,,,,,,,,,,,,,,,,,,,,,,,,,,,,,,,,,,,,,,,,,,,,,,,,,,,,A,X,N,o1_image,stimuli/out1.png,stimuli/correct_out1.png,stimuli/out2.png,,,,,,0,3,3,4,1,,,,,,,,,,,,,,,,,,,,,,,,,,,,
