counterbalance_2.started,counterbalance_2.stopped,participant,age,gender,date,expName,psychopyVersion,OS,frameRate,STUDY_ID,SESSION_ID,information_2.started,information_2.stopped,information_loop.thisRepN,information_loop.thisTrialN,information_loop.thisN,information_loop.thisIndex,information_loop.ran,information,consent_2.started,consent_2.stopped,slider_1.response,slider_2.response,slider_3.response,slider_4.response,slider_5.response,slider_6.response,instructions.started,instructions.stopped,task1_instr.thisRepN,task1_instr.thisTrialN,task1_instr.thisN,task1_instr.thisIndex,task1_instr.ran,task1,comprehension1_2.started,comprehension1_2.stopped,comp1_mouse.x,comp1_mouse.y,comp1_mouse.leftButton,comp1_mouse.midButton,comp1_mouse.rightButton,comp1_mouse.time,comp1_mouse.clicked_name,cue_o__trial_2.started,cue_o__trial_2.stopped,order,cue_order,out_order,cue_o_mouse.x,cue_o_mouse.y,cue_o_mouse.leftButton,cue_o_mouse.midButton,cue_o_mouse.rightButton,cue_o_mouse.time,cue_o_mouse.clicked_name,cue_selection_2.started,correct_answer,cue_selection_2.stopped,feedback_2.started,feedback_2.stopped,feedback_loop.thisRepN,feedback_loop.thisTrialN,feedback_loop.thisN,feedback_loop.thisIndex,feedback_loop.ran,stage1_trials.thisRepN,stage1_trials.thisTrialN,stage1_trials.thisN,stage1_trials.thisIndex,stage1_trials.ran,cue1,cue2,cue3,outcome,correct_out,o1_feedback,o2_feedback,stage2_feedback_loop.thisRepN,stage2_feedback_loop.thisTrialN,stage2_feedback_loop.thisN,stage2_feedback_loop.thisIndex,stage2_feedback_loop.ran,stage2_trials.thisRepN,stage2_trials.thisTrialN,stage2_trials.thisN,stage2_trials.thisIndex,stage2_trials.ran,stage3_feedback_loop.thisRepN,stage3_feedback_loop.thisTrialN,stage3_feedback_loop.thisN,stage3_feedback_loop.thisIndex,stage3_feedback_loop.ran,stage3_trials.thisRepN,stage3_trials.thisTrialN,stage3_trials.thisN,stage3_trials.thisIndex,stage3_trials.ran,debrief_2.started,debrief_2.stopped,debrief_loop.thisRepN,debrief_loop.thisTrialN,debrief_loop.thisN,debrief_loop.thisIndex,debrief_loop.ran,debrief_img,compr1_completed.thisRepN,compr1_completed.thisTrialN,compr1_completed.thisN,compr1_completed.thisIndex,compr1_completed.ran,consent_loop.thisRepN,consent_loop.thisTrialN,consent_loop.thisN,consent_loop.thisIndex,consent_loop.ran
0.001,0.0015,5ea152aca876c6000aa73a2a,27,female,2024-04-16_12h25.11.018,stockport_simplified,2022.2.4,Win32,59.88023952,661e456ee6de07e70aa9ef7b,661e5123a5dead6f48924df7,,,,,,,,,,,,,,,,,,,,,,,,,,,,,,,,,,,,,,,,,,,,,,,,,,,,,,,,,,,,,,,,,,,,,,,,,,,,,,,,,,,,,,,,,,,,,,,,,,,,,,,,,
,,5ea152aca876c6000aa73a2a,27,female,2024-04-16_12h25.11.018,stockport_simplified,2022.2.4,Win32,59.88023952,661e456ee6de07e70aa9ef7b,661e5123a5dead6f48924df7,0.0205,15.9607,0,0,0,0,1,instructions/info1.png,,,,,,,,,,,,,,,,,,,,,,,,,,,,,,,,,,,,,,,,,,,,,,,,,,,,,,,,,,,,,,,,,,,,,,,,,,,,,,,,,,,,,,,,,,,,,,,,,
,,5ea152aca876c6000aa73a2a,27,female,2024-04-16_12h25.11.018,stockport_simplified,2022.2.4,Win32,59.88023952,661e456ee6de07e70aa9ef7b,661e5123a5dead6f48924df7,15.9614,21.1446,0,1,1,1,1,instructions/info2.png,,,,,,,,,,,,,,,,,,,,,,,,,,,,,,,,,,,,,,,,,,,,,,,,,,,,,,,,,,,,,,,,,,,,,,,,,,,,,,,,,,,,,,,,,,,,,,,,,
,,5ea152aca876c6000aa73a2a,27,female,2024-04-16_12h25.11.018,stockport_simplified,2022.2.4,Win32,59.88023952,661e456ee6de07e70aa9ef7b,661e5123a5dead6f48924df7,21.1579,25.9478,0,2,2,2,1,instructions/info3.png,,,,,,,,,,,,,,,,,,,,,,,,,,,,,,,,,,,,,,,,,,,,,,,,,,,,,,,,,,,,,,,,,,,,,,,,,,,,,,,,,,,,,,,,,,,,,,,,,
,,5ea152aca876c6000aa73a2a,27,female,2024-04-16_12h25.11.018,stockport_simplified,2022.2.4,Win32,59.88023952,661e456ee6de07e70aa9ef7b,661e5123a5dead6f48924df7,,,,,,,,,25.9565,35.0319,1,1,1,1,1,1,,,,,,,,,,,,,,,,,,,,,,,,,,,,,,,,,,,,,,,,,,,,,,,,,,,,,,,,,,,,,,,,,,,,,,,,,,,,,,,,,,,,,,,,,
,,5ea152aca876c6000aa73a2a,27,female,2024-04-16_12h25.11.018,stockport_simplified,2022.2.4,Win32,59.88023952,661e456ee6de07e70aa9ef7b,661e5123a5dead6f48924df7,,,,,,,,,,,,,,,,,35.0533,52.0948,0,0,0,0,1,instructions/task1_1.png,,,,,,,,,,,,,,,,,,,,,,,,,,,,,,,,,,,,,,,,,,,,,,,,,,,,,,,,,,,,,,,,,,,,,,,,,,,,,,,,,
,,5ea152aca876c6000aa73a2a,27,female,2024-04-16_12h25.11.018,stockport_simplified,2022.2.4,Win32,59.88023952,661e456ee6de07e70aa9ef7b,661e5123a5dead6f48924df7,,,,,,,,,,,,,,,,,52.1063,61.6757,0,1,1,1,1,instructions/task1_2.png,,,,,,,,,,,,,,,,,,,,,,,,,,,,,,,,,,,,,,,,,,,,,,,,,,,,,,,,,,,,,,,,,,,,,,,,,,,,,,,,,
,,5ea152aca876c6000aa73a2a,27,female,2024-04-16_12h25.11.018,stockport_simplified,2022.2.4,Win32,59.88023952,661e456ee6de07e70aa9ef7b,661e5123a5dead6f48924df7,,,,,,,,,,,,,,,,,61.6933,74.2257,0,2,2,2,1,instructions/task1_3.png,,,,,,,,,,,,,,,,,,,,,,,,,,,,,,,,,,,,,,,,,,,,,,,,,,,,,,,,,,,,,,,,,,,,,,,,,,,,,,,,,
,,5ea152aca876c6000aa73a2a,27,female,2024-04-16_12h25.11.018,stockport_simplified,2022.2.4,Win32,59.88023952,661e456ee6de07e70aa9ef7b,661e5123a5dead6f48924df7,,,,,,,,,,,,,,,,,,,,,,,,,74.2403,92.6679,0.199999986,-0.325925968,1,0,0,18.4258,comp1_resp1,92.6969,95.1261,"[2,8,7,1,5,6,4,3]","[[-0.3,0.2],[0.3,0.2]]","[[0.125,-0.2],[-0.125,-0.2]]",0.115740741,-0.171296296,1,0,0,1.925599998,o1_image,95.1283,1,95.6246,95.625,97.6196,0,0,0,0,1,,,,,,,,,,,,,,,,,,,,,,,,,,,,,,,,,,,,,,,,,,,,,,,,,,
,,5ea152aca876c6000aa73a2a,27,female,2024-04-16_12h25.11.018,stockport_simplified,2022.2.4,Win32,59.88023952,661e456ee6de07e70aa9ef7b,661e5123a5dead6f48924df7,,,,,,,,,,,,,,,,,,,,,,,,,,,,,,,,,,,,,,,,,,,,,,,,,,,,,,,,0,0,0,21,1,N,M,C,o1_image,stimuli/out1.png,stimuli/correct_out1.png,stimuli/out2.png,,,,,,,,,,,,,,,,,,,,,,,,,,,,,,,,,,,,,,
,,5ea152aca876c6000aa73a2a,27,female,2024-04-16_12h25.11.018,stockport_simplified,2022.2.4,Win32,59.88023952,661e456ee6de07e70aa9ef7b,661e5123a5dead6f48924df7,,,,,,,,,,,,,,,,,,,,,,,,,,,,,,,,,,97.621,100.0292,"[2,8,7,1,5,6,4,3]","[[0.3,0.2],[-0.3,0.2]]","[[-0.125,-0.2],[0.125,-0.2]]",-0.102777764,-0.234259288,1,0,0,1.8945,o1_image,100.0311,1,100.5278,100.5279,102.5227,0,0,0,0,1,,,,,,,,,,,,,,,,,,,,,,,,,,,,,,,,,,,,,,,,,,,,,,,,,,
,,5ea152aca876c6000aa73a2a,27,female,2024-04-16_12h25.11.018,stockport_simplified,2022.2.4,Win32,59.88023952,661e456ee6de07e70aa9ef7b,661e5123a5dead6f48924df7,,,,,,,,,,,,,,,,,,,,,,,,,,,,,,,,,,,,,,,,,,,,,,,,,,,,,,,,0,1,1,24,1,N,M,C,o1_image,stimuli/out1.png,stimuli/correct_out1.png,stimuli/out2.png,,,,,,,,,,,,,,,,,,,,,,,,,,,,,,,,,,,,,,
,,5ea152aca876c6000aa73a2a,27,female,2024-04-16_12h25.11.018,stockport_simplified,2022.2.4,Win32,59.88023952,661e456ee6de07e70aa9ef7b,661e5123a5dead6f48924df7,,,,,,,,,,,,,,,,,,,,,,,,,,,,,,,,,,102.5239,107.5417,"[2,8,7,1,5,6,4,3]","[[-0.3,0.2],[0.3,0.2]]","[[-0.125,-0.2],[0.125,-0.2]]",0.140740783,-0.235185199,1,0,0,4.5025,o2_image,107.5512,1,108.0408,108.0409,110.0357,0,0,0,0,1,,,,,,,,,,,,,,,,,,,,,,,,,,,,,,,,,,,,,,,,,,,,,,,,,,
,,5ea152aca876c6000aa73a2a,27,female,2024-04-16_12h25.11.018,stockport_simplified,2022.2.4,Win32,59.88023952,661e456ee6de07e70aa9ef7b,661e5123a5dead6f48924df7,,,,,,,,,,,,,,,,,,,,,,,,,,,,,,,,,,,,,,,,,,,,,,,,,,,,,,,,0,2,2,10,1,B,X,N,o2_image,stimuli/out2.png,stimuli/out1.png,stimuli/correct_out2.png,,,,,,,,,,,,,,,,,,,,,,,,,,,,,,,,,,,,,,
,,5ea152aca876c6000aa73a2a,27,female,2024-04-16_12h25.11.018,stockport_simplified,2022.2.4,Win32,59.88023952,661e456ee6de07e70aa9ef7b,661e5123a5dead6f48924df7,,,,,,,,,,,,,,,,,,,,,,,,,,,,,,,,,,110.0366,112.4291,"[2,8,7,1,5,6,4,3]","[[0.3,0.2],[-0.3,0.2]]","[[-0.125,-0.2],[0.125,-0.2]]",0.147222236,-0.217592593,1,0,0,1.8774,o2_image,112.4313,1,112.927,112.9271,114.922,0,0,0,0,1,,,,,,,,,,,,,,,,,,,,,,,,,,,,,,,,,,,,,,,,,,,,,,,,,,
,,5ea152aca876c6000aa73a2a,27,female,2024-04-16_12h25.11.018,stockport_simplified,2022.2.4,Win32,59.88023952,661e456ee6de07e70aa9ef7b,661e5123a5dead6f48924df7,,,,,,,,,,,,,,,,,,,,,,,,,,,,,,,,,,,,,,,,,,,,,,,,,,,,,,,,0,3,3,25,1,N,M,D,o2_image,stimuli/out2.png,stimuli/out1.png,stimuli/correct_out2.png,,,,,,,,,,,,,,,,,,,,,,,,,,,,,,,,,,,,,,
,,5ea152aca876c6000aa73a2a,27,female,2024-04-16_12h25.11.018,stockport_simplified,2022.2.4,Win32,59.88023952,661e456ee6de07e70aa9ef7b,661e5123a5dead6f48924df7,,,,,,,,,,,,,,,,,,,,,,,,,,,,,,,,,,114.9228,118.6454,"[2,8,7,1,5,6,4,3]","[[0.3,0.2],[-0.3,0.2]]","[[0.125,-0.2],[-0.125,-0.2]]",0.147222236,-0.217592593,1,0,0,3.2069,o1_image,118.6467,0,119.1437,119.1437,121.139,0,0,0,0,1,,,,,,,,,,,,,,,,,,,,,,,,,,,,,,,,,,,,,,,,,,,,,,,,,,
,,5ea152aca876c6000aa73a2a,27,female,2024-04-16_12h25.11.018,stockport_simplified,2022.2.4,Win32,59.88023952,661e456ee6de07e70aa9ef7b,661e5123a5dead6f48924df7,,,,,,,,,,,,,,,,,,,,,,,,,,,,,,,,,,,,,,,,,,,,,,,,,,,,,,,,0,4,4,15,1,B,Y,N,o2_image,stimuli/out2.png,stimuli/out1.png,stimuli/correct_out2.png,,,,,,,,,,,,,,,,,,,,,,,,,,,,,,,,,,,,,,
,,5ea152aca876c6000aa73a2a,27,female,2024-04-16_12h25.11.018,stockport_simplified,2022.2.4,Win32,59.88023952,661e456ee6de07e70aa9ef7b,661e5123a5dead6f48924df7,,,,,,,,,,,,,,,,,,,,,,,,,,,,,,,,,,121.1404,124.7953,"[2,8,7,1,5,6,4,3]","[[0.3,0.2],[-0.3,0.2]]","[[0.125,-0.2],[-0.125,-0.2]]",0.173148191,-0.229629658,1,0,0,3.1405,o1_image,124.8132,0,125.3104,125.3105,127.3049,0,0,0,0,1,,,,,,,,,,,,,,,,,,,,,,,,,,,,,,,,,,,,,,,,,,,,,,,,,,
,,5ea152aca876c6000aa73a2a,27,female,2024-04-16_12h25.11.018,stockport_simplified,2022.2.4,Win32,59.88023952,661e456ee6de07e70aa9ef7b,661e5123a5dead6f48924df7,,,,,,,,,,,,,,,,,,,,,,,,,,,,,,,,,,,,,,,,,,,,,,,,,,,,,,,,0,5,5,27,1,N,M,D,o2_image,stimuli/out2.png,stimuli/out1.png,stimuli/correct_out2.png,,,,,,,,,,,,,,,,,,,,,,,,,,,,,,,,,,,,,,
,,5ea152aca876c6000aa73a2a,27,female,2024-04-16_12h25.11.018,stockport_simplified,2022.2.4,Win32,59.88023952,661e456ee6de07e70aa9ef7b,661e5123a5dead6f48924df7,,,,,,,,,,,,,,,,,,,,,,,,,,,,,,,,,,127.3054,130.9612,"[2,8,7,1,5,6,4,3]","[[-0.3,0.2],[0.3,0.2]]","[[0.125,-0.2],[-0.125,-0.2]]",0.113888917,-0.217592593,1,0,0,3.140700001,o1_image,130.972,0,131.4603,131.4603,133.4549,0,0,0,0,1,,,,,,,,,,,,,,,,,,,,,,,,,,,,,,,,,,,,,,,,,,,,,,,,,,
,,5ea152aca876c6000aa73a2a,27,female,2024-04-16_12h25.11.018,stockport_simplified,2022.2.4,Win32,59.88023952,661e456ee6de07e70aa9ef7b,661e5123a5dead6f48924df7,,,,,,,,,,,,,,,,,,,,,,,,,,,,,,,,,,,,,,,,,,,,,,,,,,,,,,,,0,6,6,47,1,B,Y,N,o2_image,stimuli/out2.png,stimuli/out1.png,stimuli/correct_out2.png,,,,,,,,,,,,,,,,,,,,,,,,,,,,,,,,,,,,,,
,,5ea152aca876c6000aa73a2a,27,female,2024-04-16_12h25.11.018,stockport_simplified,2022.2.4,Win32,59.88023952,661e456ee6de07e70aa9ef7b,661e5123a5dead6f48924df7,,,,,,,,,,,,,,,,,,,,,,,,,,,,,,,,,,133.456,136.6965,"[2,8,7,1,5,6,4,3]","[[0.3,0.2],[-0.3,0.2]]","[[-0.125,-0.2],[0.125,-0.2]]",-0.122222194,-0.228703746,1,0,0,2.7244,o1_image,136.6985,1,137.1947,137.1948,139.1896,0,0,0,0,1,,,,,,,,,,,,,,,,,,,,,,,,,,,,,,,,,,,,,,,,,,,,,,,,,,
,,5ea152aca876c6000aa73a2a,27,female,2024-04-16_12h25.11.018,stockport_simplified,2022.2.4,Win32,59.88023952,661e456ee6de07e70aa9ef7b,661e5123a5dead6f48924df7,,,,,,,,,,,,,,,,,,,,,,,,,,,,,,,,,,,,,,,,,,,,,,,,,,,,,,,,0,7,7,0,1,A,X,N,o1_image,stimuli/out1.png,stimuli/correct_out1.png,stimuli/out2.png,,,,,,,,,,,,,,,,,,,,,,,,,,,,,,,,,,,,,,
,,5ea152aca876c6000aa73a2a,27,female,2024-04-16_12h25.11.018,stockport_simplified,2022.2.4,Win32,59.88023952,661e456ee6de07e70aa9ef7b,661e5123a5dead6f48924df7,,,,,,,,,,,,,,,,,,,,,,,,,,,,,,,,,,139.1903,141.8649,"[2,8,7,1,5,6,4,3]","[[0.3,0.2],[-0.3,0.2]]","[[0.125,-0.2],[-0.125,-0.2]]",-0.10555557,-0.205555598,1,0,0,2.158900002,o2_image,141.866,1,142.3639,142.3639,144.3585,0,0,0,0,1,,,,,,,,,,,,,,,,,,,,,,,,,,,,,,,,,,,,,,,,,,,,,,,,,,
,,5ea152aca876c6000aa73a2a,27,female,2024-04-16_12h25.11.018,stockport_simplified,2022.2.4,Win32,59.88023952,661e456ee6de07e70aa9ef7b,661e5123a5dead6f48924df7,,,,,,,,,,,,,,,,,,,,,,,,,,,,,,,,,,,,,,,,,,,,,,,,,,,,,,,,0,8,8,29,1,N,M,D,o2_image,stimuli/out2.png,stimuli/out1.png,stimuli/correct_out2.png,,,,,,,,,,,,,,,,,,,,,,,,,,,,,,,,,,,,,,
,,5ea152aca876c6000aa73a2a,27,female,2024-04-16_12h25.11.018,stockport_simplified,2022.2.4,Win32,59.88023952,661e456ee6de07e70aa9ef7b,661e5123a5dead6f48924df7,,,,,,,,,,,,,,,,,,,,,,,,,,,,,,,,,,144.3594,148.0323,"[2,8,7,1,5,6,4,3]","[[0.3,0.2],[-0.3,0.2]]","[[0.125,-0.2],[-0.125,-0.2]]",-0.106481481,-0.198148162,1,0,0,3.1575,o2_image,148.0545,1,148.547,148.547,150.5475,0,0,0,0,1,,,,,,,,,,,,,,,,,,,,,,,,,,,,,,,,,,,,,,,,,,,,,,,,,,
,,5ea152aca876c6000aa73a2a,27,female,2024-04-16_12h25.11.018,stockport_simplified,2022.2.4,Win32,59.88023952,661e456ee6de07e70aa9ef7b,661e5123a5dead6f48924df7,,,,,,,,,,,,,,,,,,,,,,,,,,,,,,,,,,,,,,,,,,,,,,,,,,,,,,,,0,9,9,49,1,B,Y,N,o2_image,stimuli/out2.png,stimuli/out1.png,stimuli/correct_out2.png,,,,,,,,,,,,,,,,,,,,,,,,,,,,,,,,,,,,,,
,,5ea152aca876c6000aa73a2a,27,female,2024-04-16_12h25.11.018,stockport_simplified,2022.2.4,Win32,59.88023952,661e456ee6de07e70aa9ef7b,661e5123a5dead6f48924df7,,,,,,,,,,,,,,,,,,,,,,,,,,,,,,,,,,150.5479,154.5468,"[2,8,7,1,5,6,4,3]","[[-0.3,0.2],[0.3,0.2]]","[[-0.125,-0.2],[0.125,-0.2]]",0.094444487,-0.186111097,1,0,0,3.489299999,o2_image,154.5573,0,155.0461,155.0462,157.0407,0,0,0,0,1,,,,,,,,,,,,,,,,,,,,,,,,,,,,,,,,,,,,,,,,,,,,,,,,,,
,,5ea152aca876c6000aa73a2a,27,female,2024-04-16_12h25.11.018,stockport_simplified,2022.2.4,Win32,59.88023952,661e456ee6de07e70aa9ef7b,661e5123a5dead6f48924df7,,,,,,,,,,,,,,,,,,,,,,,,,,,,,,,,,,,,,,,,,,,,,,,,,,,,,,,,0,10,10,32,1,A,X,N,o1_image,stimuli/out1.png,stimuli/correct_out1.png,stimuli/out2.png,,,,,,,,,,,,,,,,,,,,,,,,,,,,,,,,,,,,,,
,,5ea152aca876c6000aa73a2a,27,female,2024-04-16_12h25.11.018,stockport_simplified,2022.2.4,Win32,59.88023952,661e456ee6de07e70aa9ef7b,661e5123a5dead6f48924df7,,,,,,,,,,,,,,,,,,,,,,,,,,,,,,,,,,157.0415,159.6499,"[2,8,7,1,5,6,4,3]","[[0.3,0.2],[-0.3,0.2]]","[[-0.125,-0.2],[0.125,-0.2]]",-0.128703718,-0.241666653,1,0,0,2.093300001,o1_image,159.6515,1,160.149,160.149,162.1434,0,0,0,0,1,,,,,,,,,,,,,,,,,,,,,,,,,,,,,,,,,,,,,,,,,,,,,,,,,,
,,5ea152aca876c6000aa73a2a,27,female,2024-04-16_12h25.11.018,stockport_simplified,2022.2.4,Win32,59.88023952,661e456ee6de07e70aa9ef7b,661e5123a5dead6f48924df7,,,,,,,,,,,,,,,,,,,,,,,,,,,,,,,,,,,,,,,,,,,,,,,,,,,,,,,,0,11,11,20,1,N,M,C,o1_image,stimuli/out1.png,stimuli/correct_out1.png,stimuli/out2.png,,,,,,,,,,,,,,,,,,,,,,,,,,,,,,,,,,,,,,
,,5ea152aca876c6000aa73a2a,27,female,2024-04-16_12h25.11.018,stockport_simplified,2022.2.4,Win32,59.88023952,661e456ee6de07e70aa9ef7b,661e5123a5dead6f48924df7,,,,,,,,,,,,,,,,,,,,,,,,,,,,,,,,,,162.1441,165.1346,"[2,8,7,1,5,6,4,3]","[[-0.3,0.2],[0.3,0.2]]","[[0.125,-0.2],[-0.125,-0.2]]",-0.124074088,-0.240740741,1,0,0,2.4761,o2_image,165.142,0,165.6337,165.6338,167.6286,0,0,0,0,1,,,,,,,,,,,,,,,,,,,,,,,,,,,,,,,,,,,,,,,,,,,,,,,,,,
,,5ea152aca876c6000aa73a2a,27,female,2024-04-16_12h25.11.018,stockport_simplified,2022.2.4,Win32,59.88023952,661e456ee6de07e70aa9ef7b,661e5123a5dead6f48924df7,,,,,,,,,,,,,,,,,,,,,,,,,,,,,,,,,,,,,,,,,,,,,,,,,,,,,,,,0,12,12,39,1,A,Y,N,o1_image,stimuli/out1.png,stimuli/correct_out1.png,stimuli/out2.png,,,,,,,,,,,,,,,,,,,,,,,,,,,,,,,,,,,,,,
,,5ea152aca876c6000aa73a2a,27,female,2024-04-16_12h25.11.018,stockport_simplified,2022.2.4,Win32,59.88023952,661e456ee6de07e70aa9ef7b,661e5123a5dead6f48924df7,,,,,,,,,,,,,,,,,,,,,,,,,,,,,,,,,,167.6292,172.2822,"[2,8,7,1,5,6,4,3]","[[0.3,0.2],[-0.3,0.2]]","[[-0.125,-0.2],[0.125,-0.2]]",0.103703746,-0.163888931,1,0,0,4.138,o2_image,172.3074,0,172.7976,172.7976,174.7921,0,0,0,0,1,,,,,,,,,,,,,,,,,,,,,,,,,,,,,,,,,,,,,,,,,,,,,,,,,,
,,5ea152aca876c6000aa73a2a,27,female,2024-04-16_12h25.11.018,stockport_simplified,2022.2.4,Win32,59.88023952,661e456ee6de07e70aa9ef7b,661e5123a5dead6f48924df7,,,,,,,,,,,,,,,,,,,,,,,,,,,,,,,,,,,,,,,,,,,,,,,,,,,,,,,,0,13,13,35,1,A,Y,N,o1_image,stimuli/out1.png,stimuli/correct_out1.png,stimuli/out2.png,,,,,,,,,,,,,,,,,,,,,,,,,,,,,,,,,,,,,,
,,5ea152aca876c6000aa73a2a,27,female,2024-04-16_12h25.11.018,stockport_simplified,2022.2.4,Win32,59.88023952,661e456ee6de07e70aa9ef7b,661e5123a5dead6f48924df7,,,,,,,,,,,,,,,,,,,,,,,,,,,,,,,,,,174.7929,177.0201,"[2,8,7,1,5,6,4,3]","[[0.3,0.2],[-0.3,0.2]]","[[0.125,-0.2],[-0.125,-0.2]]",0.139814801,-0.194444444,1,0,0,1.712199999,o1_image,177.0328,1,177.5346,177.5346,179.5291,0,0,0,0,1,,,,,,,,,,,,,,,,,,,,,,,,,,,,,,,,,,,,,,,,,,,,,,,,,,
,,5ea152aca876c6000aa73a2a,27,female,2024-04-16_12h25.11.018,stockport_simplified,2022.2.4,Win32,59.88023952,661e456ee6de07e70aa9ef7b,661e5123a5dead6f48924df7,,,,,,,,,,,,,,,,,,,,,,,,,,,,,,,,,,,,,,,,,,,,,,,,,,,,,,,,0,14,14,37,1,A,Y,N,o1_image,stimuli/out1.png,stimuli/correct_out1.png,stimuli/out2.png,,,,,,,,,,,,,,,,,,,,,,,,,,,,,,,,,,,,,,
,,5ea152aca876c6000aa73a2a,27,female,2024-04-16_12h25.11.018,stockport_simplified,2022.2.4,Win32,59.88023952,661e456ee6de07e70aa9ef7b,661e5123a5dead6f48924df7,,,,,,,,,,,,,,,,,,,,,,,,,,,,,,,,,,179.5296,183.0196,"[2,8,7,1,5,6,4,3]","[[-0.3,0.2],[0.3,0.2]]","[[-0.125,-0.2],[0.125,-0.2]]",0.14444443,-0.188888903,1,0,0,2.9745,o2_image,183.0403,1,183.5351,183.5352,185.5297,0,0,0,0,1,,,,,,,,,,,,,,,,,,,,,,,,,,,,,,,,,,,,,,,,,,,,,,,,,,
,,5ea152aca876c6000aa73a2a,27,female,2024-04-16_12h25.11.018,stockport_simplified,2022.2.4,Win32,59.88023952,661e456ee6de07e70aa9ef7b,661e5123a5dead6f48924df7,,,,,,,,,,,,,,,,,,,,,,,,,,,,,,,,,,,,,,,,,,,,,,,,,,,,,,,,0,15,15,16,1,B,Y,N,o2_image,stimuli/out2.png,stimuli/out1.png,stimuli/correct_out2.png,,,,,,,,,,,,,,,,,,,,,,,,,,,,,,,,,,,,,,
,,5ea152aca876c6000aa73a2a,27,female,2024-04-16_12h25.11.018,stockport_simplified,2022.2.4,Win32,59.88023952,661e456ee6de07e70aa9ef7b,661e5123a5dead6f48924df7,,,,,,,,,,,,,,,,,,,,,,,,,,,,,,,,,,185.5309,188.1223,"[2,8,7,1,5,6,4,3]","[[0.3,0.2],[-0.3,0.2]]","[[-0.125,-0.2],[0.125,-0.2]]",-0.113888847,-0.208333333,1,0,0,2.0765,o1_image,188.1233,1,188.6211,188.6211,190.6155,0,0,0,0,1,,,,,,,,,,,,,,,,,,,,,,,,,,,,,,,,,,,,,,,,,,,,,,,,,,
,,5ea152aca876c6000aa73a2a,27,female,2024-04-16_12h25.11.018,stockport_simplified,2022.2.4,Win32,59.88023952,661e456ee6de07e70aa9ef7b,661e5123a5dead6f48924df7,,,,,,,,,,,,,,,,,,,,,,,,,,,,,,,,,,,,,,,,,,,,,,,,,,,,,,,,0,16,16,22,1,N,M,C,o1_image,stimuli/out1.png,stimuli/correct_out1.png,stimuli/out2.png,,,,,,,,,,,,,,,,,,,,,,,,,,,,,,,,,,,,,,
,,5ea152aca876c6000aa73a2a,27,female,2024-04-16_12h25.11.018,stockport_simplified,2022.2.4,Win32,59.88023952,661e456ee6de07e70aa9ef7b,661e5123a5dead6f48924df7,,,,,,,,,,,,,,,,,,,,,,,,,,,,,,,,,,190.6161,194.2721,"[2,8,7,1,5,6,4,3]","[[0.3,0.2],[-0.3,0.2]]","[[-0.125,-0.2],[0.125,-0.2]]",-0.101851852,-0.192592621,1,0,0,3.140199999,o1_image,194.289,1,194.7879,194.7879,196.782,0,0,0,0,1,,,,,,,,,,,,,,,,,,,,,,,,,,,,,,,,,,,,,,,,,,,,,,,,,,
,,5ea152aca876c6000aa73a2a,27,female,2024-04-16_12h25.11.018,stockport_simplified,2022.2.4,Win32,59.88023952,661e456ee6de07e70aa9ef7b,661e5123a5dead6f48924df7,,,,,,,,,,,,,,,,,,,,,,,,,,,,,,,,,,,,,,,,,,,,,,,,,,,,,,,,0,17,17,4,1,A,X,N,o1_image,stimuli/out1.png,stimuli/correct_out1.png,stimuli/out2.png,,,,,,,,,,,,,,,,,,,,,,,,,,,,,,,,,,,,,,
,,5ea152aca876c6000aa73a2a,27,female,2024-04-16_12h25.11.018,stockport_simplified,2022.2.4,Win32,59.88023952,661e456ee6de07e70aa9ef7b,661e5123a5dead6f48924df7,,,,,,,,,,,,,,,,,,,,,,,,,,,,,,,,,,196.7826,199.3085,"[2,8,7,1,5,6,4,3]","[[-0.3,0.2],[0.3,0.2]]","[[0.125,-0.2],[-0.125,-0.2]]",0.085185228,-0.163888931,1,0,0,2.010699999,o1_image,199.3202,0,199.8239,199.8239,201.8182,0,0,0,0,1,,,,,,,,,,,,,,,,,,,,,,,,,,,,,,,,,,,,,,,,,,,,,,,,,,
,,5ea152aca876c6000aa73a2a,27,female,2024-04-16_12h25.11.018,stockport_simplified,2022.2.4,Win32,59.88023952,661e456ee6de07e70aa9ef7b,661e5123a5dead6f48924df7,,,,,,,,,,,,,,,,,,,,,,,,,,,,,,,,,,,,,,,,,,,,,,,,,,,,,,,,0,18,18,26,1,N,M,D,o2_image,stimuli/out2.png,stimuli/out1.png,stimuli/correct_out2.png,,,,,,,,,,,,,,,,,,,,,,,,,,,,,,,,,,,,,,
,,5ea152aca876c6000aa73a2a,27,female,2024-04-16_12h25.11.018,stockport_simplified,2022.2.4,Win32,59.88023952,661e456ee6de07e70aa9ef7b,661e5123a5dead6f48924df7,,,,,,,,,,,,,,,,,,,,,,,,,,,,,,,,,,201.8189,205.342,"[2,8,7,1,5,6,4,3]","[[-0.3,0.2],[0.3,0.2]]","[[0.125,-0.2],[-0.125,-0.2]]",0.175925926,-0.200925968,1,0,0,3.0074,o1_image,205.3551,1,205.8576,205.8576,207.8519,0,0,0,0,1,,,,,,,,,,,,,,,,,,,,,,,,,,,,,,,,,,,,,,,,,,,,,,,,,,
,,5ea152aca876c6000aa73a2a,27,female,2024-04-16_12h25.11.018,stockport_simplified,2022.2.4,Win32,59.88023952,661e456ee6de07e70aa9ef7b,661e5123a5dead6f48924df7,,,,,,,,,,,,,,,,,,,,,,,,,,,,,,,,,,,,,,,,,,,,,,,,,,,,,,,,0,19,19,38,1,A,Y,N,o1_image,stimuli/out1.png,stimuli/correct_out1.png,stimuli/out2.png,,,,,,,,,,,,,,,,,,,,,,,,,,,,,,,,,,,,,,
,,5ea152aca876c6000aa73a2a,27,female,2024-04-16_12h25.11.018,stockport_simplified,2022.2.4,Win32,59.88023952,661e456ee6de07e70aa9ef7b,661e5123a5dead6f48924df7,,,,,,,,,,,,,,,,,,,,,,,,,,,,,,,,,,207.8528,210.8105,"[2,8,7,1,5,6,4,3]","[[-0.3,0.2],[0.3,0.2]]","[[0.125,-0.2],[-0.125,-0.2]]",-0.15370369,-0.212037051,1,0,0,2.4415,o2_image,210.8126,1,211.309,211.309,213.3037,0,0,0,0,1,,,,,,,,,,,,,,,,,,,,,,,,,,,,,,,,,,,,,,,,,,,,,,,,,,
,,5ea152aca876c6000aa73a2a,27,female,2024-04-16_12h25.11.018,stockport_simplified,2022.2.4,Win32,59.88023952,661e456ee6de07e70aa9ef7b,661e5123a5dead6f48924df7,,,,,,,,,,,,,,,,,,,,,,,,,,,,,,,,,,,,,,,,,,,,,,,,,,,,,,,,0,20,20,55,1,N,M,D,o2_image,stimuli/out2.png,stimuli/out1.png,stimuli/correct_out2.png,,,,,,,,,,,,,,,,,,,,,,,,,,,,,,,,,,,,,,
,,5ea152aca876c6000aa73a2a,27,female,2024-04-16_12h25.11.018,stockport_simplified,2022.2.4,Win32,59.88023952,661e456ee6de07e70aa9ef7b,661e5123a5dead6f48924df7,,,,,,,,,,,,,,,,,,,,,,,,,,,,,,,,,,213.3044,216.8605,"[2,8,7,1,5,6,4,3]","[[0.3,0.2],[-0.3,0.2]]","[[-0.125,-0.2],[0.125,-0.2]]",0.137037065,-0.198148162,1,0,0,3.0405,o2_image,216.8615,1,217.3592,217.3593,219.3542,0,0,0,0,1,,,,,,,,,,,,,,,,,,,,,,,,,,,,,,,,,,,,,,,,,,,,,,,,,,
,,5ea152aca876c6000aa73a2a,27,female,2024-04-16_12h25.11.018,stockport_simplified,2022.2.4,Win32,59.88023952,661e456ee6de07e70aa9ef7b,661e5123a5dead6f48924df7,,,,,,,,,,,,,,,,,,,,,,,,,,,,,,,,,,,,,,,,,,,,,,,,,,,,,,,,0,21,21,11,1,B,X,N,o2_image,stimuli/out2.png,stimuli/out1.png,stimuli/correct_out2.png,,,,,,,,,,,,,,,,,,,,,,,,,,,,,,,,,,,,,,
,,5ea152aca876c6000aa73a2a,27,female,2024-04-16_12h25.11.018,stockport_simplified,2022.2.4,Win32,59.88023952,661e456ee6de07e70aa9ef7b,661e5123a5dead6f48924df7,,,,,,,,,,,,,,,,,,,,,,,,,,,,,,,,,,219.3551,222.512,"[2,8,7,1,5,6,4,3]","[[-0.3,0.2],[0.3,0.2]]","[[0.125,-0.2],[-0.125,-0.2]]",0.140740783,-0.192592621,1,0,0,2.642,o1_image,222.5132,1,223.0107,223.0108,225.0052,0,0,0,0,1,,,,,,,,,,,,,,,,,,,,,,,,,,,,,,,,,,,,,,,,,,,,,,,,,,
,,5ea152aca876c6000aa73a2a,27,female,2024-04-16_12h25.11.018,stockport_simplified,2022.2.4,Win32,59.88023952,661e456ee6de07e70aa9ef7b,661e5123a5dead6f48924df7,,,,,,,,,,,,,,,,,,,,,,,,,,,,,,,,,,,,,,,,,,,,,,,,,,,,,,,,0,22,22,1,1,A,X,N,o1_image,stimuli/out1.png,stimuli/correct_out1.png,stimuli/out2.png,,,,,,,,,,,,,,,,,,,,,,,,,,,,,,,,,,,,,,
,,5ea152aca876c6000aa73a2a,27,female,2024-04-16_12h25.11.018,stockport_simplified,2022.2.4,Win32,59.88023952,661e456ee6de07e70aa9ef7b,661e5123a5dead6f48924df7,,,,,,,,,,,,,,,,,,,,,,,,,,,,,,,,,,225.0058,227.0496,"[2,8,7,1,5,6,4,3]","[[-0.3,0.2],[0.3,0.2]]","[[-0.125,-0.2],[0.125,-0.2]]",0.175000014,-0.176851838,1,0,0,1.5285,o2_image,227.0508,1,227.5487,227.5488,229.5427,0,0,0,0,1,,,,,,,,,,,,,,,,,,,,,,,,,,,,,,,,,,,,,,,,,,,,,,,,,,
,,5ea152aca876c6000aa73a2a,27,female,2024-04-16_12h25.11.018,stockport_simplified,2022.2.4,Win32,59.88023952,661e456ee6de07e70aa9ef7b,661e5123a5dead6f48924df7,,,,,,,,,,,,,,,,,,,,,,,,,,,,,,,,,,,,,,,,,,,,,,,,,,,,,,,,0,23,23,17,1,B,Y,N,o2_image,stimuli/out2.png,stimuli/out1.png,stimuli/correct_out2.png,,,,,,,,,,,,,,,,,,,,,,,,,,,,,,,,,,,,,,
,,5ea152aca876c6000aa73a2a,27,female,2024-04-16_12h25.11.018,stockport_simplified,2022.2.4,Win32,59.88023952,661e456ee6de07e70aa9ef7b,661e5123a5dead6f48924df7,,,,,,,,,,,,,,,,,,,,,,,,,,,,,,,,,,229.5432,232.5238,"[2,8,7,1,5,6,4,3]","[[-0.3,0.2],[0.3,0.2]]","[[0.125,-0.2],[-0.125,-0.2]]",-0.078703704,-0.19722225,1,0,0,2.464800001,o2_image,232.5244,1,233.0229,233.0229,235.0117,0,0,0,0,1,,,,,,,,,,,,,,,,,,,,,,,,,,,,,,,,,,,,,,,,,,,,,,,,,,
,,5ea152aca876c6000aa73a2a,27,female,2024-04-16_12h25.11.018,stockport_simplified,2022.2.4,Win32,59.88023952,661e456ee6de07e70aa9ef7b,661e5123a5dead6f48924df7,,,,,,,,,,,,,,,,,,,,,,,,,,,,,,,,,,,,,,,,,,,,,,,,,,,,,,,,0,24,24,41,1,B,X,N,o2_image,stimuli/out2.png,stimuli/out1.png,stimuli/correct_out2.png,,,,,,,,,,,,,,,,,,,,,,,,,,,,,,,,,,,,,,
,,5ea152aca876c6000aa73a2a,27,female,2024-04-16_12h25.11.018,stockport_simplified,2022.2.4,Win32,59.88023952,661e456ee6de07e70aa9ef7b,661e5123a5dead6f48924df7,,,,,,,,,,,,,,,,,,,,,,,,,,,,,,,,,,235.0127,237.5707,"[2,8,7,1,5,6,4,3]","[[-0.3,0.2],[0.3,0.2]]","[[-0.125,-0.2],[0.125,-0.2]]",0.122222265,-0.195370356,1,0,0,2.044199999,o2_image,237.5723,1,238.0696,238.0697,240.064,0,0,0,0,1,,,,,,,,,,,,,,,,,,,,,,,,,,,,,,,,,,,,,,,,,,,,,,,,,,
,,5ea152aca876c6000aa73a2a,27,female,2024-04-16_12h25.11.018,stockport_simplified,2022.2.4,Win32,59.88023952,661e456ee6de07e70aa9ef7b,661e5123a5dead6f48924df7,,,,,,,,,,,,,,,,,,,,,,,,,,,,,,,,,,,,,,,,,,,,,,,,,,,,,,,,0,25,25,14,1,B,X,N,o2_image,stimuli/out2.png,stimuli/out1.png,stimuli/correct_out2.png,,,,,,,,,,,,,,,,,,,,,,,,,,,,,,,,,,,,,,
,,5ea152aca876c6000aa73a2a,27,female,2024-04-16_12h25.11.018,stockport_simplified,2022.2.4,Win32,59.88023952,661e456ee6de07e70aa9ef7b,661e5123a5dead6f48924df7,,,,,,,,,,,,,,,,,,,,,,,,,,,,,,,,,,240.0647,243.3886,"[2,8,7,1,5,6,4,3]","[[-0.3,0.2],[0.3,0.2]]","[[-0.125,-0.2],[0.125,-0.2]]",-0.125,-0.233333376,1,0,0,2.808699999,o1_image,243.4101,1,243.9037,243.9037,245.8984,0,0,0,0,1,,,,,,,,,,,,,,,,,,,,,,,,,,,,,,,,,,,,,,,,,,,,,,,,,,
,,5ea152aca876c6000aa73a2a,27,female,2024-04-16_12h25.11.018,stockport_simplified,2022.2.4,Win32,59.88023952,661e456ee6de07e70aa9ef7b,661e5123a5dead6f48924df7,,,,,,,,,,,,,,,,,,,,,,,,,,,,,,,,,,,,,,,,,,,,,,,,,,,,,,,,0,26,26,50,1,N,M,C,o1_image,stimuli/out1.png,stimuli/correct_out1.png,stimuli/out2.png,,,,,,,,,,,,,,,,,,,,,,,,,,,,,,,,,,,,,,
,,5ea152aca876c6000aa73a2a,27,female,2024-04-16_12h25.11.018,stockport_simplified,2022.2.4,Win32,59.88023952,661e456ee6de07e70aa9ef7b,661e5123a5dead6f48924df7,,,,,,,,,,,,,,,,,,,,,,,,,,,,,,,,,,245.8991,248.9065,"[2,8,7,1,5,6,4,3]","[[0.3,0.2],[-0.3,0.2]]","[[0.125,-0.2],[-0.125,-0.2]]",0.137962977,-0.154629672,1,0,0,2.4921,o1_image,248.9081,1,249.4051,249.4051,251.3999,0,0,0,0,1,,,,,,,,,,,,,,,,,,,,,,,,,,,,,,,,,,,,,,,,,,,,,,,,,,
,,5ea152aca876c6000aa73a2a,27,female,2024-04-16_12h25.11.018,stockport_simplified,2022.2.4,Win32,59.88023952,661e456ee6de07e70aa9ef7b,661e5123a5dead6f48924df7,,,,,,,,,,,,,,,,,,,,,,,,,,,,,,,,,,,,,,,,,,,,,,,,,,,,,,,,0,27,27,8,1,A,Y,N,o1_image,stimuli/out1.png,stimuli/correct_out1.png,stimuli/out2.png,,,,,,,,,,,,,,,,,,,,,,,,,,,,,,,,,,,,,,
,,5ea152aca876c6000aa73a2a,27,female,2024-04-16_12h25.11.018,stockport_simplified,2022.2.4,Win32,59.88023952,661e456ee6de07e70aa9ef7b,661e5123a5dead6f48924df7,,,,,,,,,,,,,,,,,,,,,,,,,,,,,,,,,,251.4004,254.2749,"[2,8,7,1,5,6,4,3]","[[-0.3,0.2],[0.3,0.2]]","[[-0.125,-0.2],[0.125,-0.2]]",-0.162037037,-0.229629658,1,0,0,2.3591,o1_image,254.2754,1,254.7746,254.7746,256.7687,0,0,0,0,1,,,,,,,,,,,,,,,,,,,,,,,,,,,,,,,,,,,,,,,,,,,,,,,,,,
,,5ea152aca876c6000aa73a2a,27,female,2024-04-16_12h25.11.018,stockport_simplified,2022.2.4,Win32,59.88023952,661e456ee6de07e70aa9ef7b,661e5123a5dead6f48924df7,,,,,,,,,,,,,,,,,,,,,,,,,,,,,,,,,,,,,,,,,,,,,,,,,,,,,,,,0,28,28,3,1,A,X,N,o1_image,stimuli/out1.png,stimuli/correct_out1.png,stimuli/out2.png,,,,,,,,,,,,,,,,,,,,,,,,,,,,,,,,,,,,,,
,,5ea152aca876c6000aa73a2a,27,female,2024-04-16_12h25.11.018,stockport_simplified,2022.2.4,Win32,59.88023952,661e456ee6de07e70aa9ef7b,661e5123a5dead6f48924df7,,,,,,,,,,,,,,,,,,,,,,,,,,,,,,,,,,256.7697,259.4613,"[2,8,7,1,5,6,4,3]","[[-0.3,0.2],[0.3,0.2]]","[[-0.125,-0.2],[0.125,-0.2]]",-0.130555541,-0.226851852,1,0,0,2.176799999,o1_image,259.4826,1,259.9765,259.9765,261.9711,0,0,0,0,1,,,,,,,,,,,,,,,,,,,,,,,,,,,,,,,,,,,,,,,,,,,,,,,,,,
,,5ea152aca876c6000aa73a2a,27,female,2024-04-16_12h25.11.018,stockport_simplified,2022.2.4,Win32,59.88023952,661e456ee6de07e70aa9ef7b,661e5123a5dead6f48924df7,,,,,,,,,,,,,,,,,,,,,,,,,,,,,,,,,,,,,,,,,,,,,,,,,,,,,,,,0,29,29,7,1,A,Y,N,o1_image,stimuli/out1.png,stimuli/correct_out1.png,stimuli/out2.png,,,,,,,,,,,,,,,,,,,,,,,,,,,,,,,,,,,,,,
,,5ea152aca876c6000aa73a2a,27,female,2024-04-16_12h25.11.018,stockport_simplified,2022.2.4,Win32,59.88023952,661e456ee6de07e70aa9ef7b,661e5123a5dead6f48924df7,,,,,,,,,,,,,,,,,,,,,,,,,,,,,,,,,,261.9718,264.6637,"[2,8,7,1,5,6,4,3]","[[0.3,0.2],[-0.3,0.2]]","[[0.125,-0.2],[-0.125,-0.2]]",0.135185171,-0.17777782,1,0,0,2.176299999,o1_image,264.665,1,265.1622,265.1623,267.1567,0,0,0,0,1,,,,,,,,,,,,,,,,,,,,,,,,,,,,,,,,,,,,,,,,,,,,,,,,,,
,,5ea152aca876c6000aa73a2a,27,female,2024-04-16_12h25.11.018,stockport_simplified,2022.2.4,Win32,59.88023952,661e456ee6de07e70aa9ef7b,661e5123a5dead6f48924df7,,,,,,,,,,,,,,,,,,,,,,,,,,,,,,,,,,,,,,,,,,,,,,,,,,,,,,,,0,30,30,51,1,N,M,C,o1_image,stimuli/out1.png,stimuli/correct_out1.png,stimuli/out2.png,,,,,,,,,,,,,,,,,,,,,,,,,,,,,,,,,,,,,,
,,5ea152aca876c6000aa73a2a,27,female,2024-04-16_12h25.11.018,stockport_simplified,2022.2.4,Win32,59.88023952,661e456ee6de07e70aa9ef7b,661e5123a5dead6f48924df7,,,,,,,,,,,,,,,,,,,,,,,,,,,,,,,,,,267.1575,268.9514,"[2,8,7,1,5,6,4,3]","[[-0.3,0.2],[0.3,0.2]]","[[0.125,-0.2],[-0.125,-0.2]]",-0.162962949,-0.234259288,1,0,0,1.278599998,o2_image,268.952,1,269.4501,269.4501,271.4449,0,0,0,0,1,,,,,,,,,,,,,,,,,,,,,,,,,,,,,,,,,,,,,,,,,,,,,,,,,,
,,5ea152aca876c6000aa73a2a,27,female,2024-04-16_12h25.11.018,stockport_simplified,2022.2.4,Win32,59.88023952,661e456ee6de07e70aa9ef7b,661e5123a5dead6f48924df7,,,,,,,,,,,,,,,,,,,,,,,,,,,,,,,,,,,,,,,,,,,,,,,,,,,,,,,,0,31,31,56,1,N,M,D,o2_image,stimuli/out2.png,stimuli/out1.png,stimuli/correct_out2.png,,,,,,,,,,,,,,,,,,,,,,,,,,,,,,,,,,,,,,
,,5ea152aca876c6000aa73a2a,27,female,2024-04-16_12h25.11.018,stockport_simplified,2022.2.4,Win32,59.88023952,661e456ee6de07e70aa9ef7b,661e5123a5dead6f48924df7,,,,,,,,,,,,,,,,,,,,,,,,,,,,,,,,,,271.4455,273.789,"[2,8,7,1,5,6,4,3]","[[0.3,0.2],[-0.3,0.2]]","[[0.125,-0.2],[-0.125,-0.2]]",-0.136111083,-0.229629658,1,0,0,1.8274,o2_image,273.7907,1,274.2872,274.2872,276.2822,0,0,0,0,1,,,,,,,,,,,,,,,,,,,,,,,,,,,,,,,,,,,,,,,,,,,,,,,,,,
,,5ea152aca876c6000aa73a2a,27,female,2024-04-16_12h25.11.018,stockport_simplified,2022.2.4,Win32,59.88023952,661e456ee6de07e70aa9ef7b,661e5123a5dead6f48924df7,,,,,,,,,,,,,,,,,,,,,,,,,,,,,,,,,,,,,,,,,,,,,,,,,,,,,,,,0,32,32,19,1,B,Y,N,o2_image,stimuli/out2.png,stimuli/out1.png,stimuli/correct_out2.png,,,,,,,,,,,,,,,,,,,,,,,,,,,,,,,,,,,,,,
,,5ea152aca876c6000aa73a2a,27,female,2024-04-16_12h25.11.018,stockport_simplified,2022.2.4,Win32,59.88023952,661e456ee6de07e70aa9ef7b,661e5123a5dead6f48924df7,,,,,,,,,,,,,,,,,,,,,,,,,,,,,,,,,,276.2828,278.509,"[2,8,7,1,5,6,4,3]","[[0.3,0.2],[-0.3,0.2]]","[[0.125,-0.2],[-0.125,-0.2]]",0.106481481,-0.212037051,1,0,0,1.711299999,o1_image,278.5098,1,279.0078,279.0078,281.0025,0,0,0,0,1,,,,,,,,,,,,,,,,,,,,,,,,,,,,,,,,,,,,,,,,,,,,,,,,,,
,,5ea152aca876c6000aa73a2a,27,female,2024-04-16_12h25.11.018,stockport_simplified,2022.2.4,Win32,59.88023952,661e456ee6de07e70aa9ef7b,661e5123a5dead6f48924df7,,,,,,,,,,,,,,,,,,,,,,,,,,,,,,,,,,,,,,,,,,,,,,,,,,,,,,,,0,33,33,9,1,A,Y,N,o1_image,stimuli/out1.png,stimuli/correct_out1.png,stimuli/out2.png,,,,,,,,,,,,,,,,,,,,,,,,,,,,,,,,,,,,,,
,,5ea152aca876c6000aa73a2a,27,female,2024-04-16_12h25.11.018,stockport_simplified,2022.2.4,Win32,59.88023952,661e456ee6de07e70aa9ef7b,661e5123a5dead6f48924df7,,,,,,,,,,,,,,,,,,,,,,,,,,,,,,,,,,281.0033,283.6953,"[2,8,7,1,5,6,4,3]","[[-0.3,0.2],[0.3,0.2]]","[[0.125,-0.2],[-0.125,-0.2]]",0.14907406,-0.212962963,1,0,0,2.177200001,o1_image,283.7125,1,284.2103,284.2104,286.2049,0,0,0,0,1,,,,,,,,,,,,,,,,,,,,,,,,,,,,,,,,,,,,,,,,,,,,,,,,,,
,,5ea152aca876c6000aa73a2a,27,female,2024-04-16_12h25.11.018,stockport_simplified,2022.2.4,Win32,59.88023952,661e456ee6de07e70aa9ef7b,661e5123a5dead6f48924df7,,,,,,,,,,,,,,,,,,,,,,,,,,,,,,,,,,,,,,,,,,,,,,,,,,,,,,,,0,34,34,34,1,A,X,N,o1_image,stimuli/out1.png,stimuli/correct_out1.png,stimuli/out2.png,,,,,,,,,,,,,,,,,,,,,,,,,,,,,,,,,,,,,,
,,5ea152aca876c6000aa73a2a,27,female,2024-04-16_12h25.11.018,stockport_simplified,2022.2.4,Win32,59.88023952,661e456ee6de07e70aa9ef7b,661e5123a5dead6f48924df7,,,,,,,,,,,,,,,,,,,,,,,,,,,,,,,,,,286.206,289.5456,"[2,8,7,1,5,6,4,3]","[[0.3,0.2],[-0.3,0.2]]","[[-0.125,-0.2],[0.125,-0.2]]",-0.141666624,-0.212962963,1,0,0,2.8245,o1_image,289.5581,1,290.061,290.061,292.0557,0,0,0,0,1,,,,,,,,,,,,,,,,,,,,,,,,,,,,,,,,,,,,,,,,,,,,,,,,,,
,,5ea152aca876c6000aa73a2a,27,female,2024-04-16_12h25.11.018,stockport_simplified,2022.2.4,Win32,59.88023952,661e456ee6de07e70aa9ef7b,661e5123a5dead6f48924df7,,,,,,,,,,,,,,,,,,,,,,,,,,,,,,,,,,,,,,,,,,,,,,,,,,,,,,,,0,35,35,5,1,A,Y,N,o1_image,stimuli/out1.png,stimuli/correct_out1.png,stimuli/out2.png,,,,,,,,,,,,,,,,,,,,,,,,,,,,,,,,,,,,,,
,,5ea152aca876c6000aa73a2a,27,female,2024-04-16_12h25.11.018,stockport_simplified,2022.2.4,Win32,59.88023952,661e456ee6de07e70aa9ef7b,661e5123a5dead6f48924df7,,,,,,,,,,,,,,,,,,,,,,,,,,,,,,,,,,292.0565,294.3994,"[2,8,7,1,5,6,4,3]","[[0.3,0.2],[-0.3,0.2]]","[[0.125,-0.2],[-0.125,-0.2]]",0.155555584,-0.214814857,1,0,0,1.828199999,o1_image,294.4015,1,294.9041,294.9041,296.9084,0,0,0,0,1,,,,,,,,,,,,,,,,,,,,,,,,,,,,,,,,,,,,,,,,,,,,,,,,,,
,,5ea152aca876c6000aa73a2a,27,female,2024-04-16_12h25.11.018,stockport_simplified,2022.2.4,Win32,59.88023952,661e456ee6de07e70aa9ef7b,661e5123a5dead6f48924df7,,,,,,,,,,,,,,,,,,,,,,,,,,,,,,,,,,,,,,,,,,,,,,,,,,,,,,,,0,36,36,36,1,A,Y,N,o1_image,stimuli/out1.png,stimuli/correct_out1.png,stimuli/out2.png,,,,,,,,,,,,,,,,,,,,,,,,,,,,,,,,,,,,,,
,,5ea152aca876c6000aa73a2a,27,female,2024-04-16_12h25.11.018,stockport_simplified,2022.2.4,Win32,59.88023952,661e456ee6de07e70aa9ef7b,661e5123a5dead6f48924df7,,,,,,,,,,,,,,,,,,,,,,,,,,,,,,,,,,296.9088,299.9834,"[2,8,7,1,5,6,4,3]","[[-0.3,0.2],[0.3,0.2]]","[[-0.125,-0.2],[0.125,-0.2]]",-0.176851838,-0.202777792,1,0,0,2.557800001,o1_image,299.9932,1,300.4883,300.4884,302.4771,0,0,0,0,1,,,,,,,,,,,,,,,,,,,,,,,,,,,,,,,,,,,,,,,,,,,,,,,,,,
,,5ea152aca876c6000aa73a2a,27,female,2024-04-16_12h25.11.018,stockport_simplified,2022.2.4,Win32,59.88023952,661e456ee6de07e70aa9ef7b,661e5123a5dead6f48924df7,,,,,,,,,,,,,,,,,,,,,,,,,,,,,,,,,,,,,,,,,,,,,,,,,,,,,,,,0,37,37,53,1,N,M,C,o1_image,stimuli/out1.png,stimuli/correct_out1.png,stimuli/out2.png,,,,,,,,,,,,,,,,,,,,,,,,,,,,,,,,,,,,,,
,,5ea152aca876c6000aa73a2a,27,female,2024-04-16_12h25.11.018,stockport_simplified,2022.2.4,Win32,59.88023952,661e456ee6de07e70aa9ef7b,661e5123a5dead6f48924df7,,,,,,,,,,,,,,,,,,,,,,,,,,,,,,,,,,302.4778,303.8403,"[2,8,7,1,5,6,4,3]","[[-0.3,0.2],[0.3,0.2]]","[[0.125,-0.2],[-0.125,-0.2]]",-0.176851838,-0.202777792,1,0,0,0.8476,o2_image,303.842,0,304.3448,304.3448,306.3338,0,0,0,0,1,,,,,,,,,,,,,,,,,,,,,,,,,,,,,,,,,,,,,,,,,,,,,,,,,,
,,5ea152aca876c6000aa73a2a,27,female,2024-04-16_12h25.11.018,stockport_simplified,2022.2.4,Win32,59.88023952,661e456ee6de07e70aa9ef7b,661e5123a5dead6f48924df7,,,,,,,,,,,,,,,,,,,,,,,,,,,,,,,,,,,,,,,,,,,,,,,,,,,,,,,,0,38,38,52,1,N,M,C,o1_image,stimuli/out1.png,stimuli/correct_out1.png,stimuli/out2.png,,,,,,,,,,,,,,,,,,,,,,,,,,,,,,,,,,,,,,
,,5ea152aca876c6000aa73a2a,27,female,2024-04-16_12h25.11.018,stockport_simplified,2022.2.4,Win32,59.88023952,661e456ee6de07e70aa9ef7b,661e5123a5dead6f48924df7,,,,,,,,,,,,,,,,,,,,,,,,,,,,,,,,,,306.3346,308.477,"[2,8,7,1,5,6,4,3]","[[0.3,0.2],[-0.3,0.2]]","[[-0.125,-0.2],[0.125,-0.2]]",0.125925912,-0.213888875,1,0,0,1.628400002,o2_image,308.4778,1,308.9755,308.9756,310.9704,0,0,0,0,1,,,,,,,,,,,,,,,,,,,,,,,,,,,,,,,,,,,,,,,,,,,,,,,,,,
,,5ea152aca876c6000aa73a2a,27,female,2024-04-16_12h25.11.018,stockport_simplified,2022.2.4,Win32,59.88023952,661e456ee6de07e70aa9ef7b,661e5123a5dead6f48924df7,,,,,,,,,,,,,,,,,,,,,,,,,,,,,,,,,,,,,,,,,,,,,,,,,,,,,,,,0,39,39,46,1,B,Y,N,o2_image,stimuli/out2.png,stimuli/out1.png,stimuli/correct_out2.png,,,,,,,,,,,,,,,,,,,,,,,,,,,,,,,,,,,,,,
,,5ea152aca876c6000aa73a2a,27,female,2024-04-16_12h25.11.018,stockport_simplified,2022.2.4,Win32,59.88023952,661e456ee6de07e70aa9ef7b,661e5123a5dead6f48924df7,,,,,,,,,,,,,,,,,,,,,,,,,,,,,,,,,,310.971,313.6632,"[2,8,7,1,5,6,4,3]","[[0.3,0.2],[-0.3,0.2]]","[[0.125,-0.2],[-0.125,-0.2]]",0.109259288,-0.217592593,1,0,0,2.176299999,o1_image,313.6741,1,314.178,314.178,316.1732,0,0,0,0,1,,,,,,,,,,,,,,,,,,,,,,,,,,,,,,,,,,,,,,,,,,,,,,,,,,
,,5ea152aca876c6000aa73a2a,27,female,2024-04-16_12h25.11.018,stockport_simplified,2022.2.4,Win32,59.88023952,661e456ee6de07e70aa9ef7b,661e5123a5dead6f48924df7,,,,,,,,,,,,,,,,,,,,,,,,,,,,,,,,,,,,,,,,,,,,,,,,,,,,,,,,0,40,40,30,1,A,X,N,o1_image,stimuli/out1.png,stimuli/correct_out1.png,stimuli/out2.png,,,,,,,,,,,,,,,,,,,,,,,,,,,,,,,,,,,,,,
,,5ea152aca876c6000aa73a2a,27,female,2024-04-16_12h25.11.018,stockport_simplified,2022.2.4,Win32,59.88023952,661e456ee6de07e70aa9ef7b,661e5123a5dead6f48924df7,,,,,,,,,,,,,,,,,,,,,,,,,,,,,,,,,,316.1739,318.6334,"[2,8,7,1,5,6,4,3]","[[0.3,0.2],[-0.3,0.2]]","[[0.125,-0.2],[-0.125,-0.2]]",0.140740783,-0.236111111,1,0,0,1.9449,o1_image,318.6347,1,319.1318,319.1318,321.1264,0,0,0,0,1,,,,,,,,,,,,,,,,,,,,,,,,,,,,,,,,,,,,,,,,,,,,,,,,,,
,,5ea152aca876c6000aa73a2a,27,female,2024-04-16_12h25.11.018,stockport_simplified,2022.2.4,Win32,59.88023952,661e456ee6de07e70aa9ef7b,661e5123a5dead6f48924df7,,,,,,,,,,,,,,,,,,,,,,,,,,,,,,,,,,,,,,,,,,,,,,,,,,,,,,,,0,41,41,31,1,A,X,N,o1_image,stimuli/out1.png,stimuli/correct_out1.png,stimuli/out2.png,,,,,,,,,,,,,,,,,,,,,,,,,,,,,,,,,,,,,,
,,5ea152aca876c6000aa73a2a,27,female,2024-04-16_12h25.11.018,stockport_simplified,2022.2.4,Win32,59.88023952,661e456ee6de07e70aa9ef7b,661e5123a5dead6f48924df7,,,,,,,,,,,,,,,,,,,,,,,,,,,,,,,,,,321.1272,323.9522,"[2,8,7,1,5,6,4,3]","[[-0.3,0.2],[0.3,0.2]]","[[-0.125,-0.2],[0.125,-0.2]]",-0.103703675,-0.211111139,1,0,0,2.3101,o1_image,323.9733,1,324.4672,324.4672,326.4619,0,0,0,0,1,,,,,,,,,,,,,,,,,,,,,,,,,,,,,,,,,,,,,,,,,,,,,,,,,,
,,5ea152aca876c6000aa73a2a,27,female,2024-04-16_12h25.11.018,stockport_simplified,2022.2.4,Win32,59.88023952,661e456ee6de07e70aa9ef7b,661e5123a5dead6f48924df7,,,,,,,,,,,,,,,,,,,,,,,,,,,,,,,,,,,,,,,,,,,,,,,,,,,,,,,,0,42,42,33,1,A,X,N,o1_image,stimuli/out1.png,stimuli/correct_out1.png,stimuli/out2.png,,,,,,,,,,,,,,,,,,,,,,,,,,,,,,,,,,,,,,
,,5ea152aca876c6000aa73a2a,27,female,2024-04-16_12h25.11.018,stockport_simplified,2022.2.4,Win32,59.88023952,661e456ee6de07e70aa9ef7b,661e5123a5dead6f48924df7,,,,,,,,,,,,,,,,,,,,,,,,,,,,,,,,,,326.463,328.5393,"[2,8,7,1,5,6,4,3]","[[0.3,0.2],[-0.3,0.2]]","[[-0.125,-0.2],[0.125,-0.2]]",0.093518504,-0.213888875,1,0,0,1.5614,o2_image,328.5409,1,329.038,329.0381,331.0325,0,0,0,0,1,,,,,,,,,,,,,,,,,,,,,,,,,,,,,,,,,,,,,,,,,,,,,,,,,,
,,5ea152aca876c6000aa73a2a,27,female,2024-04-16_12h25.11.018,stockport_simplified,2022.2.4,Win32,59.88023952,661e456ee6de07e70aa9ef7b,661e5123a5dead6f48924df7,,,,,,,,,,,,,,,,,,,,,,,,,,,,,,,,,,,,,,,,,,,,,,,,,,,,,,,,0,43,43,18,1,B,Y,N,o2_image,stimuli/out2.png,stimuli/out1.png,stimuli/correct_out2.png,,,,,,,,,,,,,,,,,,,,,,,,,,,,,,,,,,,,,,
,,5ea152aca876c6000aa73a2a,27,female,2024-04-16_12h25.11.018,stockport_simplified,2022.2.4,Win32,59.88023952,661e456ee6de07e70aa9ef7b,661e5123a5dead6f48924df7,,,,,,,,,,,,,,,,,,,,,,,,,,,,,,,,,,331.0331,333.1769,"[2,8,7,1,5,6,4,3]","[[-0.3,0.2],[0.3,0.2]]","[[0.125,-0.2],[-0.125,-0.2]]",-0.111111111,-0.218518504,1,0,0,1.628300001,o2_image,333.1781,1,333.6754,333.6755,335.67,0,0,0,0,1,,,,,,,,,,,,,,,,,,,,,,,,,,,,,,,,,,,,,,,,,,,,,,,,,,
,,5ea152aca876c6000aa73a2a,27,female,2024-04-16_12h25.11.018,stockport_simplified,2022.2.4,Win32,59.88023952,661e456ee6de07e70aa9ef7b,661e5123a5dead6f48924df7,,,,,,,,,,,,,,,,,,,,,,,,,,,,,,,,,,,,,,,,,,,,,,,,,,,,,,,,0,44,44,58,1,N,M,D,o2_image,stimuli/out2.png,stimuli/out1.png,stimuli/correct_out2.png,,,,,,,,,,,,,,,,,,,,,,,,,,,,,,,,,,,,,,
,,5ea152aca876c6000aa73a2a,27,female,2024-04-16_12h25.11.018,stockport_simplified,2022.2.4,Win32,59.88023952,661e456ee6de07e70aa9ef7b,661e5123a5dead6f48924df7,,,,,,,,,,,,,,,,,,,,,,,,,,,,,,,,,,335.6708,337.5812,"[2,8,7,1,5,6,4,3]","[[-0.3,0.2],[0.3,0.2]]","[[-0.125,-0.2],[0.125,-0.2]]",0.112037023,-0.216666681,1,0,0,1.394700001,o2_image,337.5819,1,338.08,338.08,340.0749,0,0,0,0,1,,,,,,,,,,,,,,,,,,,,,,,,,,,,,,,,,,,,,,,,,,,,,,,,,,
,,5ea152aca876c6000aa73a2a,27,female,2024-04-16_12h25.11.018,stockport_simplified,2022.2.4,Win32,59.88023952,661e456ee6de07e70aa9ef7b,661e5123a5dead6f48924df7,,,,,,,,,,,,,,,,,,,,,,,,,,,,,,,,,,,,,,,,,,,,,,,,,,,,,,,,0,45,45,12,1,B,X,N,o2_image,stimuli/out2.png,stimuli/out1.png,stimuli/correct_out2.png,,,,,,,,,,,,,,,,,,,,,,,,,,,,,,,,,,,,,,
,,5ea152aca876c6000aa73a2a,27,female,2024-04-16_12h25.11.018,stockport_simplified,2022.2.4,Win32,59.88023952,661e456ee6de07e70aa9ef7b,661e5123a5dead6f48924df7,,,,,,,,,,,,,,,,,,,,,,,,,,,,,,,,,,340.0757,342.8514,"[2,8,7,1,5,6,4,3]","[[0.3,0.2],[-0.3,0.2]]","[[-0.125,-0.2],[0.125,-0.2]]",0.104629658,-0.216666681,1,0,0,2.2606,o2_image,342.8524,1,343.349,343.3491,345.3431,0,0,0,0,1,,,,,,,,,,,,,,,,,,,,,,,,,,,,,,,,,,,,,,,,,,,,,,,,,,
,,5ea152aca876c6000aa73a2a,27,female,2024-04-16_12h25.11.018,stockport_simplified,2022.2.4,Win32,59.88023952,661e456ee6de07e70aa9ef7b,661e5123a5dead6f48924df7,,,,,,,,,,,,,,,,,,,,,,,,,,,,,,,,,,,,,,,,,,,,,,,,,,,,,,,,0,46,46,57,1,N,M,D,o2_image,stimuli/out2.png,stimuli/out1.png,stimuli/correct_out2.png,,,,,,,,,,,,,,,,,,,,,,,,,,,,,,,,,,,,,,
,,5ea152aca876c6000aa73a2a,27,female,2024-04-16_12h25.11.018,stockport_simplified,2022.2.4,Win32,59.88023952,661e456ee6de07e70aa9ef7b,661e5123a5dead6f48924df7,,,,,,,,,,,,,,,,,,,,,,,,,,,,,,,,,,345.3435,347.5371,"[2,8,7,1,5,6,4,3]","[[-0.3,0.2],[0.3,0.2]]","[[0.125,-0.2],[-0.125,-0.2]]",-0.126851824,-0.199074074,1,0,0,1.677299999,o2_image,347.5376,1,348.036,348.036,350.0307,0,0,0,0,1,,,,,,,,,,,,,,,,,,,,,,,,,,,,,,,,,,,,,,,,,,,,,,,,,,
,,5ea152aca876c6000aa73a2a,27,female,2024-04-16_12h25.11.018,stockport_simplified,2022.2.4,Win32,59.88023952,661e456ee6de07e70aa9ef7b,661e5123a5dead6f48924df7,,,,,,,,,,,,,,,,,,,,,,,,,,,,,,,,,,,,,,,,,,,,,,,,,,,,,,,,0,47,47,13,1,B,X,N,o2_image,stimuli/out2.png,stimuli/out1.png,stimuli/correct_out2.png,,,,,,,,,,,,,,,,,,,,,,,,,,,,,,,,,,,,,,
,,5ea152aca876c6000aa73a2a,27,female,2024-04-16_12h25.11.018,stockport_simplified,2022.2.4,Win32,59.88023952,661e456ee6de07e70aa9ef7b,661e5123a5dead6f48924df7,,,,,,,,,,,,,,,,,,,,,,,,,,,,,,,,,,350.0315,351.61,"[2,8,7,1,5,6,4,3]","[[-0.3,0.2],[0.3,0.2]]","[[-0.125,-0.2],[0.125,-0.2]]",0.07222225,-0.213888875,1,0,0,1.063900002,o2_image,351.611,1,352.1081,352.1081,354.1036,0,0,0,0,1,,,,,,,,,,,,,,,,,,,,,,,,,,,,,,,,,,,,,,,,,,,,,,,,,,
,,5ea152aca876c6000aa73a2a,27,female,2024-04-16_12h25.11.018,stockport_simplified,2022.2.4,Win32,59.88023952,661e456ee6de07e70aa9ef7b,661e5123a5dead6f48924df7,,,,,,,,,,,,,,,,,,,,,,,,,,,,,,,,,,,,,,,,,,,,,,,,,,,,,,,,0,48,48,40,1,B,X,N,o2_image,stimuli/out2.png,stimuli/out1.png,stimuli/correct_out2.png,,,,,,,,,,,,,,,,,,,,,,,,,,,,,,,,,,,,,,
,,5ea152aca876c6000aa73a2a,27,female,2024-04-16_12h25.11.018,stockport_simplified,2022.2.4,Win32,59.88023952,661e456ee6de07e70aa9ef7b,661e5123a5dead6f48924df7,,,,,,,,,,,,,,,,,,,,,,,,,,,,,,,,,,354.1044,356.53,"[2,8,7,1,5,6,4,3]","[[-0.3,0.2],[0.3,0.2]]","[[-0.125,-0.2],[0.125,-0.2]]",-0.09629631,-0.208333333,1,0,0,1.910099998,o1_image,356.5313,1,357.0281,357.0282,359.0228,0,0,0,0,1,,,,,,,,,,,,,,,,,,,,,,,,,,,,,,,,,,,,,,,,,,,,,,,,,,
,,5ea152aca876c6000aa73a2a,27,female,2024-04-16_12h25.11.018,stockport_simplified,2022.2.4,Win32,59.88023952,661e456ee6de07e70aa9ef7b,661e5123a5dead6f48924df7,,,,,,,,,,,,,,,,,,,,,,,,,,,,,,,,,,,,,,,,,,,,,,,,,,,,,,,,0,49,49,23,1,N,M,C,o1_image,stimuli/out1.png,stimuli/correct_out1.png,stimuli/out2.png,,,,,,,,,,,,,,,,,,,,,,,,,,,,,,,,,,,,,,
,,5ea152aca876c6000aa73a2a,27,female,2024-04-16_12h25.11.018,stockport_simplified,2022.2.4,Win32,59.88023952,661e456ee6de07e70aa9ef7b,661e5123a5dead6f48924df7,,,,,,,,,,,,,,,,,,,,,,,,,,,,,,,,,,359.0236,360.8344,"[2,8,7,1,5,6,4,3]","[[0.3,0.2],[-0.3,0.2]]","[[-0.125,-0.2],[0.125,-0.2]]",0.136111153,-0.212037051,1,0,0,1.295,o2_image,360.8355,1,361.3332,361.3332,363.3277,0,0,0,0,1,,,,,,,,,,,,,,,,,,,,,,,,,,,,,,,,,,,,,,,,,,,,,,,,,,
,,5ea152aca876c6000aa73a2a,27,female,2024-04-16_12h25.11.018,stockport_simplified,2022.2.4,Win32,59.88023952,661e456ee6de07e70aa9ef7b,661e5123a5dead6f48924df7,,,,,,,,,,,,,,,,,,,,,,,,,,,,,,,,,,,,,,,,,,,,,,,,,,,,,,,,0,50,50,42,1,B,X,N,o2_image,stimuli/out2.png,stimuli/out1.png,stimuli/correct_out2.png,,,,,,,,,,,,,,,,,,,,,,,,,,,,,,,,,,,,,,
,,5ea152aca876c6000aa73a2a,27,female,2024-04-16_12h25.11.018,stockport_simplified,2022.2.4,Win32,59.88023952,661e456ee6de07e70aa9ef7b,661e5123a5dead6f48924df7,,,,,,,,,,,,,,,,,,,,,,,,,,,,,,,,,,363.3284,365.0746,"[2,8,7,1,5,6,4,3]","[[0.3,0.2],[-0.3,0.2]]","[[0.125,-0.2],[-0.125,-0.2]]",-0.094444416,-0.208333333,1,0,0,1.2295,o2_image,365.0756,1,365.5718,365.5718,367.5662,0,0,0,0,1,,,,,,,,,,,,,,,,,,,,,,,,,,,,,,,,,,,,,,,,,,,,,,,,,,
,,5ea152aca876c6000aa73a2a,27,female,2024-04-16_12h25.11.018,stockport_simplified,2022.2.4,Win32,59.88023952,661e456ee6de07e70aa9ef7b,661e5123a5dead6f48924df7,,,,,,,,,,,,,,,,,,,,,,,,,,,,,,,,,,,,,,,,,,,,,,,,,,,,,,,,0,51,51,44,1,B,X,N,o2_image,stimuli/out2.png,stimuli/out1.png,stimuli/correct_out2.png,,,,,,,,,,,,,,,,,,,,,,,,,,,,,,,,,,,,,,
,,5ea152aca876c6000aa73a2a,27,female,2024-04-16_12h25.11.018,stockport_simplified,2022.2.4,Win32,59.88023952,661e456ee6de07e70aa9ef7b,661e5123a5dead6f48924df7,,,,,,,,,,,,,,,,,,,,,,,,,,,,,,,,,,367.5667,369.0785,"[2,8,7,1,5,6,4,3]","[[-0.3,0.2],[0.3,0.2]]","[[0.125,-0.2],[-0.125,-0.2]]",-0.176851838,-0.212962963,1,0,0,0.996699999,o2_image,369.0799,1,369.5774,369.5775,371.5721,0,0,0,0,1,,,,,,,,,,,,,,,,,,,,,,,,,,,,,,,,,,,,,,,,,,,,,,,,,,
,,5ea152aca876c6000aa73a2a,27,female,2024-04-16_12h25.11.018,stockport_simplified,2022.2.4,Win32,59.88023952,661e456ee6de07e70aa9ef7b,661e5123a5dead6f48924df7,,,,,,,,,,,,,,,,,,,,,,,,,,,,,,,,,,,,,,,,,,,,,,,,,,,,,,,,0,52,52,45,1,B,Y,N,o2_image,stimuli/out2.png,stimuli/out1.png,stimuli/correct_out2.png,,,,,,,,,,,,,,,,,,,,,,,,,,,,,,,,,,,,,,
,,5ea152aca876c6000aa73a2a,27,female,2024-04-16_12h25.11.018,stockport_simplified,2022.2.4,Win32,59.88023952,661e456ee6de07e70aa9ef7b,661e5123a5dead6f48924df7,,,,,,,,,,,,,,,,,,,,,,,,,,,,,,,,,,371.5733,373.2576,"[2,8,7,1,5,6,4,3]","[[-0.3,0.2],[0.3,0.2]]","[[-0.125,-0.2],[0.125,-0.2]]",0.087037051,-0.212962963,1,0,0,1.1709,o2_image,373.2582,1,373.757,373.7571,375.76,0,0,0,0,1,,,,,,,,,,,,,,,,,,,,,,,,,,,,,,,,,,,,,,,,,,,,,,,,,,
,,5ea152aca876c6000aa73a2a,27,female,2024-04-16_12h25.11.018,stockport_simplified,2022.2.4,Win32,59.88023952,661e456ee6de07e70aa9ef7b,661e5123a5dead6f48924df7,,,,,,,,,,,,,,,,,,,,,,,,,,,,,,,,,,,,,,,,,,,,,,,,,,,,,,,,0,53,53,48,1,B,Y,N,o2_image,stimuli/out2.png,stimuli/out1.png,stimuli/correct_out2.png,,,,,,,,,,,,,,,,,,,,,,,,,,,,,,,,,,,,,,
,,5ea152aca876c6000aa73a2a,27,female,2024-04-16_12h25.11.018,stockport_simplified,2022.2.4,Win32,59.88023952,661e456ee6de07e70aa9ef7b,661e5123a5dead6f48924df7,,,,,,,,,,,,,,,,,,,,,,,,,,,,,,,,,,375.7605,378.453,"[2,8,7,1,5,6,4,3]","[[-0.3,0.2],[0.3,0.2]]","[[0.125,-0.2],[-0.125,-0.2]]",0.103703746,-0.212037051,1,0,0,2.176700001,o1_image,378.454,1,378.9518,378.9518,380.9464,0,0,0,0,1,,,,,,,,,,,,,,,,,,,,,,,,,,,,,,,,,,,,,,,,,,,,,,,,,,
,,5ea152aca876c6000aa73a2a,27,female,2024-04-16_12h25.11.018,stockport_simplified,2022.2.4,Win32,59.88023952,661e456ee6de07e70aa9ef7b,661e5123a5dead6f48924df7,,,,,,,,,,,,,,,,,,,,,,,,,,,,,,,,,,,,,,,,,,,,,,,,,,,,,,,,0,54,54,6,1,A,Y,N,o1_image,stimuli/out1.png,stimuli/correct_out1.png,stimuli/out2.png,,,,,,,,,,,,,,,,,,,,,,,,,,,,,,,,,,,,,,
,,5ea152aca876c6000aa73a2a,27,female,2024-04-16_12h25.11.018,stockport_simplified,2022.2.4,Win32,59.88023952,661e456ee6de07e70aa9ef7b,661e5123a5dead6f48924df7,,,,,,,,,,,,,,,,,,,,,,,,,,,,,,,,,,380.9472,383.1568,"[2,8,7,1,5,6,4,3]","[[0.3,0.2],[-0.3,0.2]]","[[-0.125,-0.2],[0.125,-0.2]]",-0.10092594,-0.227777764,1,0,0,1.6946,o1_image,383.1578,1,383.6558,383.6558,385.6499,0,0,0,0,1,,,,,,,,,,,,,,,,,,,,,,,,,,,,,,,,,,,,,,,,,,,,,,,,,,
,,5ea152aca876c6000aa73a2a,27,female,2024-04-16_12h25.11.018,stockport_simplified,2022.2.4,Win32,59.88023952,661e456ee6de07e70aa9ef7b,661e5123a5dead6f48924df7,,,,,,,,,,,,,,,,,,,,,,,,,,,,,,,,,,,,,,,,,,,,,,,,,,,,,,,,0,55,55,2,1,A,X,N,o1_image,stimuli/out1.png,stimuli/correct_out1.png,stimuli/out2.png,,,,,,,,,,,,,,,,,,,,,,,,,,,,,,,,,,,,,,
,,5ea152aca876c6000aa73a2a,27,female,2024-04-16_12h25.11.018,stockport_simplified,2022.2.4,Win32,59.88023952,661e456ee6de07e70aa9ef7b,661e5123a5dead6f48924df7,,,,,,,,,,,,,,,,,,,,,,,,,,,,,,,,,,385.6504,388.1101,"[2,8,7,1,5,6,4,3]","[[0.3,0.2],[-0.3,0.2]]","[[0.125,-0.2],[-0.125,-0.2]]",-0.10092594,-0.227777764,1,0,0,1.944599998,o2_image,388.1112,1,388.6085,388.6086,390.6037,0,0,0,0,1,,,,,,,,,,,,,,,,,,,,,,,,,,,,,,,,,,,,,,,,,,,,,,,,,,
,,5ea152aca876c6000aa73a2a,27,female,2024-04-16_12h25.11.018,stockport_simplified,2022.2.4,Win32,59.88023952,661e456ee6de07e70aa9ef7b,661e5123a5dead6f48924df7,,,,,,,,,,,,,,,,,,,,,,,,,,,,,,,,,,,,,,,,,,,,,,,,,,,,,,,,0,56,56,43,1,B,X,N,o2_image,stimuli/out2.png,stimuli/out1.png,stimuli/correct_out2.png,,,,,,,,,,,,,,,,,,,,,,,,,,,,,,,,,,,,,,
,,5ea152aca876c6000aa73a2a,27,female,2024-04-16_12h25.11.018,stockport_simplified,2022.2.4,Win32,59.88023952,661e456ee6de07e70aa9ef7b,661e5123a5dead6f48924df7,,,,,,,,,,,,,,,,,,,,,,,,,,,,,,,,,,390.605,392.3649,"[2,8,7,1,5,6,4,3]","[[0.3,0.2],[-0.3,0.2]]","[[0.125,-0.2],[-0.125,-0.2]]",-0.117592564,-0.223148134,1,0,0,1.246099998,o2_image,392.3654,1,392.8641,392.8641,394.8586,0,0,0,0,1,,,,,,,,,,,,,,,,,,,,,,,,,,,,,,,,,,,,,,,,,,,,,,,,,,
,,5ea152aca876c6000aa73a2a,27,female,2024-04-16_12h25.11.018,stockport_simplified,2022.2.4,Win32,59.88023952,661e456ee6de07e70aa9ef7b,661e5123a5dead6f48924df7,,,,,,,,,,,,,,,,,,,,,,,,,,,,,,,,,,,,,,,,,,,,,,,,,,,,,,,,0,57,57,59,1,N,M,D,o2_image,stimuli/out2.png,stimuli/out1.png,stimuli/correct_out2.png,,,,,,,,,,,,,,,,,,,,,,,,,,,,,,,,,,,,,,
,,5ea152aca876c6000aa73a2a,27,female,2024-04-16_12h25.11.018,stockport_simplified,2022.2.4,Win32,59.88023952,661e456ee6de07e70aa9ef7b,661e5123a5dead6f48924df7,,,,,,,,,,,,,,,,,,,,,,,,,,,,,,,,,,394.8592,396.3373,"[2,8,7,1,5,6,4,3]","[[0.3,0.2],[-0.3,0.2]]","[[0.125,-0.2],[-0.125,-0.2]]",-0.117592564,-0.223148134,1,0,0,0.9636,o2_image,396.3379,1,396.8364,396.8364,398.8311,0,0,0,0,1,,,,,,,,,,,,,,,,,,,,,,,,,,,,,,,,,,,,,,,,,,,,,,,,,,
,,5ea152aca876c6000aa73a2a,27,female,2024-04-16_12h25.11.018,stockport_simplified,2022.2.4,Win32,59.88023952,661e456ee6de07e70aa9ef7b,661e5123a5dead6f48924df7,,,,,,,,,,,,,,,,,,,,,,,,,,,,,,,,,,,,,,,,,,,,,,,,,,,,,,,,0,58,58,28,1,N,M,D,o2_image,stimuli/out2.png,stimuli/out1.png,stimuli/correct_out2.png,,,,,,,,,,,,,,,,,,,,,,,,,,,,,,,,,,,,,,
,,5ea152aca876c6000aa73a2a,27,female,2024-04-16_12h25.11.018,stockport_simplified,2022.2.4,Win32,59.88023952,661e456ee6de07e70aa9ef7b,661e5123a5dead6f48924df7,,,,,,,,,,,,,,,,,,,,,,,,,,,,,,,,,,398.8319,400.6593,"[2,8,7,1,5,6,4,3]","[[-0.3,0.2],[0.3,0.2]]","[[-0.125,-0.2],[0.125,-0.2]]",-0.139814801,-0.223148134,1,0,0,1.3125,o1_image,400.6611,1,401.1582,401.1582,403.1527,0,0,0,0,1,,,,,,,,,,,,,,,,,,,,,,,,,,,,,,,,,,,,,,,,,,,,,,,,,,
,,5ea152aca876c6000aa73a2a,27,female,2024-04-16_12h25.11.018,stockport_simplified,2022.2.4,Win32,59.88023952,661e456ee6de07e70aa9ef7b,661e5123a5dead6f48924df7,,,,,,,,,,,,,,,,,,,,,,,,,,,,,,,,,,,,,,,,,,,,,,,,,,,,,,,,0,59,59,54,1,N,M,C,o1_image,stimuli/out1.png,stimuli/correct_out1.png,stimuli/out2.png,,,,,,,,,,,,,,,,,,,,,,,,,,,,,,,,,,,,,,
,,5ea152aca876c6000aa73a2a,27,female,2024-04-16_12h25.11.018,stockport_simplified,2022.2.4,Win32,59.88023952,661e456ee6de07e70aa9ef7b,661e5123a5dead6f48924df7,,,,,,,,,,,,,,,,,,,,,,,,,,,,,,,,,,403.1534,405.2965,"[2,8,7,1,5,6,4,3]","[[0.3,0.2],[-0.3,0.2]]","[[0.125,-0.2],[-0.125,-0.2]]",0.10092594,-0.205555598,1,0,0,1.627599998,o1_image,405.2976,1,405.7955,405.7955,407.79,0,0,0,0,1,,,,,,,,,,,,,,,,,,,,,,,,,,,,,,,,,,,,,,,,,,,,,,,,,,
,,5ea152aca876c6000aa73a2a,27,female,2024-04-16_12h25.11.018,stockport_simplified,2022.2.4,Win32,59.88023952,661e456ee6de07e70aa9ef7b,661e5123a5dead6f48924df7,,,,,,,,,,,,,,,,,,,,,,,,,,,,,,,,,,,,,,,,,,,,,,,,,,,,,,,,1,0,60,35,1,A,Y,N,o1_image,stimuli/out1.png,stimuli/correct_out1.png,stimuli/out2.png,,,,,,,,,,,,,,,,,,,,,,,,,,,,,,,,,,,,,,
,,5ea152aca876c6000aa73a2a,27,female,2024-04-16_12h25.11.018,stockport_simplified,2022.2.4,Win32,59.88023952,661e456ee6de07e70aa9ef7b,661e5123a5dead6f48924df7,,,,,,,,,,,,,,,,,,,,,,,,,,,,,,,,,,407.7909,409.6682,"[2,8,7,1,5,6,4,3]","[[0.3,0.2],[-0.3,0.2]]","[[-0.125,-0.2],[0.125,-0.2]]",0.098148134,-0.210185228,1,0,0,1.3621,o2_image,409.6702,1,410.167,410.1671,412.1669,0,0,0,0,1,,,,,,,,,,,,,,,,,,,,,,,,,,,,,,,,,,,,,,,,,,,,,,,,,,
,,5ea152aca876c6000aa73a2a,27,female,2024-04-16_12h25.11.018,stockport_simplified,2022.2.4,Win32,59.88023952,661e456ee6de07e70aa9ef7b,661e5123a5dead6f48924df7,,,,,,,,,,,,,,,,,,,,,,,,,,,,,,,,,,,,,,,,,,,,,,,,,,,,,,,,1,1,61,18,1,B,Y,N,o2_image,stimuli/out2.png,stimuli/out1.png,stimuli/correct_out2.png,,,,,,,,,,,,,,,,,,,,,,,,,,,,,,,,,,,,,,
,,5ea152aca876c6000aa73a2a,27,female,2024-04-16_12h25.11.018,stockport_simplified,2022.2.4,Win32,59.88023952,661e456ee6de07e70aa9ef7b,661e5123a5dead6f48924df7,,,,,,,,,,,,,,,,,,,,,,,,,,,,,,,,,,412.1673,413.7735,"[2,8,7,1,5,6,4,3]","[[-0.3,0.2],[0.3,0.2]]","[[0.125,-0.2],[-0.125,-0.2]]",-0.090740698,-0.219444487,1,0,0,1.0909,o2_image,413.7754,1,414.2792,414.2792,416.2831,0,0,0,0,1,,,,,,,,,,,,,,,,,,,,,,,,,,,,,,,,,,,,,,,,,,,,,,,,,,
,,5ea152aca876c6000aa73a2a,27,female,2024-04-16_12h25.11.018,stockport_simplified,2022.2.4,Win32,59.88023952,661e456ee6de07e70aa9ef7b,661e5123a5dead6f48924df7,,,,,,,,,,,,,,,,,,,,,,,,,,,,,,,,,,,,,,,,,,,,,,,,,,,,,,,,1,2,62,15,1,B,Y,N,o2_image,stimuli/out2.png,stimuli/out1.png,stimuli/correct_out2.png,,,,,,,,,,,,,,,,,,,,,,,,,,,,,,,,,,,,,,
,,5ea152aca876c6000aa73a2a,27,female,2024-04-16_12h25.11.018,stockport_simplified,2022.2.4,Win32,59.88023952,661e456ee6de07e70aa9ef7b,661e5123a5dead6f48924df7,,,,,,,,,,,,,,,,,,,,,,,,,,,,,,,,,,416.2844,418.3938,"[2,8,7,1,5,6,4,3]","[[-0.3,0.2],[0.3,0.2]]","[[0.125,-0.2],[-0.125,-0.2]]",0.131481524,-0.211111139,1,0,0,1.5935,o1_image,418.395,1,418.8927,418.8928,420.8877,0,0,0,0,1,,,,,,,,,,,,,,,,,,,,,,,,,,,,,,,,,,,,,,,,,,,,,,,,,,
,,5ea152aca876c6000aa73a2a,27,female,2024-04-16_12h25.11.018,stockport_simplified,2022.2.4,Win32,59.88023952,661e456ee6de07e70aa9ef7b,661e5123a5dead6f48924df7,,,,,,,,,,,,,,,,,,,,,,,,,,,,,,,,,,,,,,,,,,,,,,,,,,,,,,,,1,3,63,22,1,N,M,C,o1_image,stimuli/out1.png,stimuli/correct_out1.png,stimuli/out2.png,,,,,,,,,,,,,,,,,,,,,,,,,,,,,,,,,,,,,,
,,5ea152aca876c6000aa73a2a,27,female,2024-04-16_12h25.11.018,stockport_simplified,2022.2.4,Win32,59.88023952,661e456ee6de07e70aa9ef7b,661e5123a5dead6f48924df7,,,,,,,,,,,,,,,,,,,,,,,,,,,,,,,,,,420.8884,422.8817,"[2,8,7,1,5,6,4,3]","[[-0.3,0.2],[0.3,0.2]]","[[0.125,-0.2],[-0.125,-0.2]]",0.127777806,-0.212037051,1,0,0,1.4776,o1_image,422.8822,1,423.3806,423.3806,425.3752,0,0,0,0,1,,,,,,,,,,,,,,,,,,,,,,,,,,,,,,,,,,,,,,,,,,,,,,,,,,
,,5ea152aca876c6000aa73a2a,27,female,2024-04-16_12h25.11.018,stockport_simplified,2022.2.4,Win32,59.88023952,661e456ee6de07e70aa9ef7b,661e5123a5dead6f48924df7,,,,,,,,,,,,,,,,,,,,,,,,,,,,,,,,,,,,,,,,,,,,,,,,,,,,,,,,1,4,64,36,1,A,Y,N,o1_image,stimuli/out1.png,stimuli/correct_out1.png,stimuli/out2.png,,,,,,,,,,,,,,,,,,,,,,,,,,,,,,,,,,,,,,
,,5ea152aca876c6000aa73a2a,27,female,2024-04-16_12h25.11.018,stockport_simplified,2022.2.4,Win32,59.88023952,661e456ee6de07e70aa9ef7b,661e5123a5dead6f48924df7,,,,,,,,,,,,,,,,,,,,,,,,,,,,,,,,,,425.3759,427.3031,"[2,8,7,1,5,6,4,3]","[[-0.3,0.2],[0.3,0.2]]","[[-0.125,-0.2],[0.125,-0.2]]",-0.086111069,-0.213888875,1,0,0,1.4129,o1_image,427.3043,1,427.802,427.802,429.7967,0,0,0,0,1,,,,,,,,,,,,,,,,,,,,,,,,,,,,,,,,,,,,,,,,,,,,,,,,,,
,,5ea152aca876c6000aa73a2a,27,female,2024-04-16_12h25.11.018,stockport_simplified,2022.2.4,Win32,59.88023952,661e456ee6de07e70aa9ef7b,661e5123a5dead6f48924df7,,,,,,,,,,,,,,,,,,,,,,,,,,,,,,,,,,,,,,,,,,,,,,,,,,,,,,,,1,5,65,9,1,A,Y,N,o1_image,stimuli/out1.png,stimuli/correct_out1.png,stimuli/out2.png,,,,,,,,,,,,,,,,,,,,,,,,,,,,,,,,,,,,,,
,,5ea152aca876c6000aa73a2a,27,female,2024-04-16_12h25.11.018,stockport_simplified,2022.2.4,Win32,59.88023952,661e456ee6de07e70aa9ef7b,661e5123a5dead6f48924df7,,,,,,,,,,,,,,,,,,,,,,,,,,,,,,,,,,429.7975,431.4752,"[2,8,7,1,5,6,4,3]","[[-0.3,0.2],[0.3,0.2]]","[[0.125,-0.2],[-0.125,-0.2]]",0.147222236,-0.190740727,1,0,0,1.1629,o1_image,431.4762,0,431.9812,431.9813,433.9855,0,0,0,0,1,,,,,,,,,,,,,,,,,,,,,,,,,,,,,,,,,,,,,,,,,,,,,,,,,,
,,5ea152aca876c6000aa73a2a,27,female,2024-04-16_12h25.11.018,stockport_simplified,2022.2.4,Win32,59.88023952,661e456ee6de07e70aa9ef7b,661e5123a5dead6f48924df7,,,,,,,,,,,,,,,,,,,,,,,,,,,,,,,,,,,,,,,,,,,,,,,,,,,,,,,,1,6,66,25,1,N,M,D,o2_image,stimuli/out2.png,stimuli/out1.png,stimuli/correct_out2.png,,,,,,,,,,,,,,,,,,,,,,,,,,,,,,,,,,,,,,
,,5ea152aca876c6000aa73a2a,27,female,2024-04-16_12h25.11.018,stockport_simplified,2022.2.4,Win32,59.88023952,661e456ee6de07e70aa9ef7b,661e5123a5dead6f48924df7,,,,,,,,,,,,,,,,,,,,,,,,,,,,,,,,,,433.9862,436.2465,"[2,8,7,1,5,6,4,3]","[[0.3,0.2],[-0.3,0.2]]","[[0.125,-0.2],[-0.125,-0.2]]",-0.074999986,-0.199074074,1,0,0,1.745200001,o2_image,436.2483,1,436.7436,436.7437,438.739,0,0,0,0,1,,,,,,,,,,,,,,,,,,,,,,,,,,,,,,,,,,,,,,,,,,,,,,,,,,
,,5ea152aca876c6000aa73a2a,27,female,2024-04-16_12h25.11.018,stockport_simplified,2022.2.4,Win32,59.88023952,661e456ee6de07e70aa9ef7b,661e5123a5dead6f48924df7,,,,,,,,,,,,,,,,,,,,,,,,,,,,,,,,,,,,,,,,,,,,,,,,,,,,,,,,1,7,67,42,1,B,X,N,o2_image,stimuli/out2.png,stimuli/out1.png,stimuli/correct_out2.png,,,,,,,,,,,,,,,,,,,,,,,,,,,,,,,,,,,,,,
,,5ea152aca876c6000aa73a2a,27,female,2024-04-16_12h25.11.018,stockport_simplified,2022.2.4,Win32,59.88023952,661e456ee6de07e70aa9ef7b,661e5123a5dead6f48924df7,,,,,,,,,,,,,,,,,,,,,,,,,,,,,,,,,,438.7397,441.9214,"[2,8,7,1,5,6,4,3]","[[0.3,0.2],[-0.3,0.2]]","[[0.125,-0.2],[-0.125,-0.2]]",0.125,-0.205555598,1,0,0,2.667200001,o1_image,441.9433,1,442.4456,442.4457,444.44,0,0,0,0,1,,,,,,,,,,,,,,,,,,,,,,,,,,,,,,,,,,,,,,,,,,,,,,,,,,
,,5ea152aca876c6000aa73a2a,27,female,2024-04-16_12h25.11.018,stockport_simplified,2022.2.4,Win32,59.88023952,661e456ee6de07e70aa9ef7b,661e5123a5dead6f48924df7,,,,,,,,,,,,,,,,,,,,,,,,,,,,,,,,,,,,,,,,,,,,,,,,,,,,,,,,1,8,68,0,1,A,X,N,o1_image,stimuli/out1.png,stimuli/correct_out1.png,stimuli/out2.png,,,,,,,,,,,,,,,,,,,,,,,,,,,,,,,,,,,,,,
,,5ea152aca876c6000aa73a2a,27,female,2024-04-16_12h25.11.018,stockport_simplified,2022.2.4,Win32,59.88023952,661e456ee6de07e70aa9ef7b,661e5123a5dead6f48924df7,,,,,,,,,,,,,,,,,,,,,,,,,,,,,,,,,,444.4407,445.9522,"[2,8,7,1,5,6,4,3]","[[-0.3,0.2],[0.3,0.2]]","[[-0.125,-0.2],[0.125,-0.2]]",0.114814829,-0.204629616,1,0,0,0.996,o2_image,445.9532,1,446.4513,446.4513,448.4452,0,0,0,0,1,,,,,,,,,,,,,,,,,,,,,,,,,,,,,,,,,,,,,,,,,,,,,,,,,,
,,5ea152aca876c6000aa73a2a,27,female,2024-04-16_12h25.11.018,stockport_simplified,2022.2.4,Win32,59.88023952,661e456ee6de07e70aa9ef7b,661e5123a5dead6f48924df7,,,,,,,,,,,,,,,,,,,,,,,,,,,,,,,,,,,,,,,,,,,,,,,,,,,,,,,,1,9,69,14,1,B,X,N,o2_image,stimuli/out2.png,stimuli/out1.png,stimuli/correct_out2.png,,,,,,,,,,,,,,,,,,,,,,,,,,,,,,,,,,,,,,
,,5ea152aca876c6000aa73a2a,27,female,2024-04-16_12h25.11.018,stockport_simplified,2022.2.4,Win32,59.88023952,661e456ee6de07e70aa9ef7b,661e5123a5dead6f48924df7,,,,,,,,,,,,,,,,,,,,,,,,,,,,,,,,,,448.4455,450.474,"[2,8,7,1,5,6,4,3]","[[-0.3,0.2],[0.3,0.2]]","[[-0.125,-0.2],[0.125,-0.2]]",0.114814829,-0.20648151,1,0,0,1.512900002,o2_image,450.4749,1,450.9721,450.9722,452.9668,0,0,0,0,1,,,,,,,,,,,,,,,,,,,,,,,,,,,,,,,,,,,,,,,,,,,,,,,,,,
,,5ea152aca876c6000aa73a2a,27,female,2024-04-16_12h25.11.018,stockport_simplified,2022.2.4,Win32,59.88023952,661e456ee6de07e70aa9ef7b,661e5123a5dead6f48924df7,,,,,,,,,,,,,,,,,,,,,,,,,,,,,,,,,,,,,,,,,,,,,,,,,,,,,,,,1,10,70,45,1,B,Y,N,o2_image,stimuli/out2.png,stimuli/out1.png,stimuli/correct_out2.png,,,,,,,,,,,,,,,,,,,,,,,,,,,,,,,,,,,,,,
,,5ea152aca876c6000aa73a2a,27,female,2024-04-16_12h25.11.018,stockport_simplified,2022.2.4,Win32,59.88023952,661e456ee6de07e70aa9ef7b,661e5123a5dead6f48924df7,,,,,,,,,,,,,,,,,,,,,,,,,,,,,,,,,,452.9676,454.7618,"[2,8,7,1,5,6,4,3]","[[0.3,0.2],[-0.3,0.2]]","[[-0.125,-0.2],[0.125,-0.2]]",-0.101851852,-0.211111139,1,0,0,1.2789,o1_image,454.7627,1,455.2605,455.2605,457.2554,0,0,0,0,1,,,,,,,,,,,,,,,,,,,,,,,,,,,,,,,,,,,,,,,,,,,,,,,,,,
,,5ea152aca876c6000aa73a2a,27,female,2024-04-16_12h25.11.018,stockport_simplified,2022.2.4,Win32,59.88023952,661e456ee6de07e70aa9ef7b,661e5123a5dead6f48924df7,,,,,,,,,,,,,,,,,,,,,,,,,,,,,,,,,,,,,,,,,,,,,,,,,,,,,,,,1,11,71,24,1,N,M,C,o1_image,stimuli/out1.png,stimuli/correct_out1.png,stimuli/out2.png,,,,,,,,,,,,,,,,,,,,,,,,,,,,,,,,,,,,,,
,,5ea152aca876c6000aa73a2a,27,female,2024-04-16_12h25.11.018,stockport_simplified,2022.2.4,Win32,59.88023952,661e456ee6de07e70aa9ef7b,661e5123a5dead6f48924df7,,,,,,,,,,,,,,,,,,,,,,,,,,,,,,,,,,457.256,459.449,"[2,8,7,1,5,6,4,3]","[[0.3,0.2],[-0.3,0.2]]","[[0.125,-0.2],[-0.125,-0.2]]",0.146296325,-0.222222222,1,0,0,1.678599998,o1_image,459.4504,1,459.9478,459.9478,461.9421,0,0,0,0,1,,,,,,,,,,,,,,,,,,,,,,,,,,,,,,,,,,,,,,,,,,,,,,,,,,
,,5ea152aca876c6000aa73a2a,27,female,2024-04-16_12h25.11.018,stockport_simplified,2022.2.4,Win32,59.88023952,661e456ee6de07e70aa9ef7b,661e5123a5dead6f48924df7,,,,,,,,,,,,,,,,,,,,,,,,,,,,,,,,,,,,,,,,,,,,,,,,,,,,,,,,1,12,72,52,1,N,M,C,o1_image,stimuli/out1.png,stimuli/correct_out1.png,stimuli/out2.png,,,,,,,,,,,,,,,,,,,,,,,,,,,,,,,,,,,,,,
,,5ea152aca876c6000aa73a2a,27,female,2024-04-16_12h25.11.018,stockport_simplified,2022.2.4,Win32,59.88023952,661e456ee6de07e70aa9ef7b,661e5123a5dead6f48924df7,,,,,,,,,,,,,,,,,,,,,,,,,,,,,,,,,,461.9428,463.837,"[2,8,7,1,5,6,4,3]","[[0.3,0.2],[-0.3,0.2]]","[[-0.125,-0.2],[0.125,-0.2]]",0.183333362,-0.235185199,1,0,0,1.378700001,o2_image,463.838,1,464.3355,464.3356,466.3301,0,0,0,0,1,,,,,,,,,,,,,,,,,,,,,,,,,,,,,,,,,,,,,,,,,,,,,,,,,,
,,5ea152aca876c6000aa73a2a,27,female,2024-04-16_12h25.11.018,stockport_simplified,2022.2.4,Win32,59.88023952,661e456ee6de07e70aa9ef7b,661e5123a5dead6f48924df7,,,,,,,,,,,,,,,,,,,,,,,,,,,,,,,,,,,,,,,,,,,,,,,,,,,,,,,,1,13,73,47,1,B,Y,N,o2_image,stimuli/out2.png,stimuli/out1.png,stimuli/correct_out2.png,,,,,,,,,,,,,,,,,,,,,,,,,,,,,,,,,,,,,,
,,5ea152aca876c6000aa73a2a,27,female,2024-04-16_12h25.11.018,stockport_simplified,2022.2.4,Win32,59.88023952,661e456ee6de07e70aa9ef7b,661e5123a5dead6f48924df7,,,,,,,,,,,,,,,,,,,,,,,,,,,,,,,,,,466.3309,468.6403,"[2,8,7,1,5,6,4,3]","[[-0.3,0.2],[0.3,0.2]]","[[-0.125,-0.2],[0.125,-0.2]]",-0.113888847,-0.219444487,1,0,0,1.794299999,o1_image,468.6411,1,469.1387,469.1387,471.1337,0,0,0,0,1,,,,,,,,,,,,,,,,,,,,,,,,,,,,,,,,,,,,,,,,,,,,,,,,,,
,,5ea152aca876c6000aa73a2a,27,female,2024-04-16_12h25.11.018,stockport_simplified,2022.2.4,Win32,59.88023952,661e456ee6de07e70aa9ef7b,661e5123a5dead6f48924df7,,,,,,,,,,,,,,,,,,,,,,,,,,,,,,,,,,,,,,,,,,,,,,,,,,,,,,,,1,14,74,8,1,A,Y,N,o1_image,stimuli/out1.png,stimuli/correct_out1.png,stimuli/out2.png,,,,,,,,,,,,,,,,,,,,,,,,,,,,,,,,,,,,,,
,,5ea152aca876c6000aa73a2a,27,female,2024-04-16_12h25.11.018,stockport_simplified,2022.2.4,Win32,59.88023952,661e456ee6de07e70aa9ef7b,661e5123a5dead6f48924df7,,,,,,,,,,,,,,,,,,,,,,,,,,,,,,,,,,471.1344,473.311,"[2,8,7,1,5,6,4,3]","[[-0.3,0.2],[0.3,0.2]]","[[0.125,-0.2],[-0.125,-0.2]]",-0.108333305,-0.219444487,1,0,0,1.661199999,o2_image,473.3119,1,473.8099,473.8099,475.8046,0,0,0,0,1,,,,,,,,,,,,,,,,,,,,,,,,,,,,,,,,,,,,,,,,,,,,,,,,,,
,,5ea152aca876c6000aa73a2a,27,female,2024-04-16_12h25.11.018,stockport_simplified,2022.2.4,Win32,59.88023952,661e456ee6de07e70aa9ef7b,661e5123a5dead6f48924df7,,,,,,,,,,,,,,,,,,,,,,,,,,,,,,,,,,,,,,,,,,,,,,,,,,,,,,,,1,15,75,55,1,N,M,D,o2_image,stimuli/out2.png,stimuli/out1.png,stimuli/correct_out2.png,,,,,,,,,,,,,,,,,,,,,,,,,,,,,,,,,,,,,,
,,5ea152aca876c6000aa73a2a,27,female,2024-04-16_12h25.11.018,stockport_simplified,2022.2.4,Win32,59.88023952,661e456ee6de07e70aa9ef7b,661e5123a5dead6f48924df7,,,,,,,,,,,,,,,,,,,,,,,,,,,,,,,,,,475.8052,477.7491,"[2,8,7,1,5,6,4,3]","[[-0.3,0.2],[0.3,0.2]]","[[-0.125,-0.2],[0.125,-0.2]]",0.101851852,-0.223148134,1,0,0,1.4294,o2_image,477.7503,1,478.2478,478.2479,480.2422,0,0,0,0,1,,,,,,,,,,,,,,,,,,,,,,,,,,,,,,,,,,,,,,,,,,,,,,,,,,
,,5ea152aca876c6000aa73a2a,27,female,2024-04-16_12h25.11.018,stockport_simplified,2022.2.4,Win32,59.88023952,661e456ee6de07e70aa9ef7b,661e5123a5dead6f48924df7,,,,,,,,,,,,,,,,,,,,,,,,,,,,,,,,,,,,,,,,,,,,,,,,,,,,,,,,1,16,76,27,1,N,M,D,o2_image,stimuli/out2.png,stimuli/out1.png,stimuli/correct_out2.png,,,,,,,,,,,,,,,,,,,,,,,,,,,,,,,,,,,,,,
,,5ea152aca876c6000aa73a2a,27,female,2024-04-16_12h25.11.018,stockport_simplified,2022.2.4,Win32,59.88023952,661e456ee6de07e70aa9ef7b,661e5123a5dead6f48924df7,,,,,,,,,,,,,,,,,,,,,,,,,,,,,,,,,,480.2432,482.7521,"[2,8,7,1,5,6,4,3]","[[-0.3,0.2],[0.3,0.2]]","[[0.125,-0.2],[-0.125,-0.2]]",0.14444443,-0.222222222,1,0,0,1.994299999,o1_image,482.7534,1,483.2507,483.2507,485.2455,0,0,0,0,1,,,,,,,,,,,,,,,,,,,,,,,,,,,,,,,,,,,,,,,,,,,,,,,,,,
,,5ea152aca876c6000aa73a2a,27,female,2024-04-16_12h25.11.018,stockport_simplified,2022.2.4,Win32,59.88023952,661e456ee6de07e70aa9ef7b,661e5123a5dead6f48924df7,,,,,,,,,,,,,,,,,,,,,,,,,,,,,,,,,,,,,,,,,,,,,,,,,,,,,,,,1,17,77,51,1,N,M,C,o1_image,stimuli/out1.png,stimuli/correct_out1.png,stimuli/out2.png,,,,,,,,,,,,,,,,,,,,,,,,,,,,,,,,,,,,,,
,,5ea152aca876c6000aa73a2a,27,female,2024-04-16_12h25.11.018,stockport_simplified,2022.2.4,Win32,59.88023952,661e456ee6de07e70aa9ef7b,661e5123a5dead6f48924df7,,,,,,,,,,,,,,,,,,,,,,,,,,,,,,,,,,485.2464,487.7909,"[2,8,7,1,5,6,4,3]","[[0.3,0.2],[-0.3,0.2]]","[[-0.125,-0.2],[0.125,-0.2]]",-0.086111069,-0.232407393,1,0,0,2.0265,o1_image,487.8033,1,488.3035,488.3036,490.2983,0,0,0,0,1,,,,,,,,,,,,,,,,,,,,,,,,,,,,,,,,,,,,,,,,,,,,,,,,,,
,,5ea152aca876c6000aa73a2a,27,female,2024-04-16_12h25.11.018,stockport_simplified,2022.2.4,Win32,59.88023952,661e456ee6de07e70aa9ef7b,661e5123a5dead6f48924df7,,,,,,,,,,,,,,,,,,,,,,,,,,,,,,,,,,,,,,,,,,,,,,,,,,,,,,,,1,18,78,33,1,A,X,N,o1_image,stimuli/out1.png,stimuli/correct_out1.png,stimuli/out2.png,,,,,,,,,,,,,,,,,,,,,,,,,,,,,,,,,,,,,,
,,5ea152aca876c6000aa73a2a,27,female,2024-04-16_12h25.11.018,stockport_simplified,2022.2.4,Win32,59.88023952,661e456ee6de07e70aa9ef7b,661e5123a5dead6f48924df7,,,,,,,,,,,,,,,,,,,,,,,,,,,,,,,,,,490.2993,491.9769,"[2,8,7,1,5,6,4,3]","[[0.3,0.2],[-0.3,0.2]]","[[-0.125,-0.2],[0.125,-0.2]]",0.161111125,-0.202777792,1,0,0,1.1626,o2_image,491.978,1,492.4757,492.4757,494.4702,0,0,0,0,1,,,,,,,,,,,,,,,,,,,,,,,,,,,,,,,,,,,,,,,,,,,,,,,,,,
,,5ea152aca876c6000aa73a2a,27,female,2024-04-16_12h25.11.018,stockport_simplified,2022.2.4,Win32,59.88023952,661e456ee6de07e70aa9ef7b,661e5123a5dead6f48924df7,,,,,,,,,,,,,,,,,,,,,,,,,,,,,,,,,,,,,,,,,,,,,,,,,,,,,,,,1,19,79,57,1,N,M,D,o2_image,stimuli/out2.png,stimuli/out1.png,stimuli/correct_out2.png,,,,,,,,,,,,,,,,,,,,,,,,,,,,,,,,,,,,,,
,,5ea152aca876c6000aa73a2a,27,female,2024-04-16_12h25.11.018,stockport_simplified,2022.2.4,Win32,59.88023952,661e456ee6de07e70aa9ef7b,661e5123a5dead6f48924df7,,,,,,,,,,,,,,,,,,,,,,,,,,,,,,,,,,494.4708,496.3815,"[2,8,7,1,5,6,4,3]","[[-0.3,0.2],[0.3,0.2]]","[[0.125,-0.2],[-0.125,-0.2]]",0.157407407,-0.200925968,1,0,0,1.3955,o1_image,496.3832,1,496.8802,496.8803,498.875,0,0,0,0,1,,,,,,,,,,,,,,,,,,,,,,,,,,,,,,,,,,,,,,,,,,,,,,,,,,
,,5ea152aca876c6000aa73a2a,27,female,2024-04-16_12h25.11.018,stockport_simplified,2022.2.4,Win32,59.88023952,661e456ee6de07e70aa9ef7b,661e5123a5dead6f48924df7,,,,,,,,,,,,,,,,,,,,,,,,,,,,,,,,,,,,,,,,,,,,,,,,,,,,,,,,1,20,80,21,1,N,M,C,o1_image,stimuli/out1.png,stimuli/correct_out1.png,stimuli/out2.png,,,,,,,,,,,,,,,,,,,,,,,,,,,,,,,,,,,,,,
,,5ea152aca876c6000aa73a2a,27,female,2024-04-16_12h25.11.018,stockport_simplified,2022.2.4,Win32,59.88023952,661e456ee6de07e70aa9ef7b,661e5123a5dead6f48924df7,,,,,,,,,,,,,,,,,,,,,,,,,,,,,,,,,,498.8756,501.1355,"[2,8,7,1,5,6,4,3]","[[0.3,0.2],[-0.3,0.2]]","[[0.125,-0.2],[-0.125,-0.2]]",0.157407407,-0.200925968,1,0,0,1.744699999,o1_image,501.137,1,501.6339,501.6339,503.6287,0,0,0,0,1,,,,,,,,,,,,,,,,,,,,,,,,,,,,,,,,,,,,,,,,,,,,,,,,,,
,,5ea152aca876c6000aa73a2a,27,female,2024-04-16_12h25.11.018,stockport_simplified,2022.2.4,Win32,59.88023952,661e456ee6de07e70aa9ef7b,661e5123a5dead6f48924df7,,,,,,,,,,,,,,,,,,,,,,,,,,,,,,,,,,,,,,,,,,,,,,,,,,,,,,,,1,21,81,6,1,A,Y,N,o1_image,stimuli/out1.png,stimuli/correct_out1.png,stimuli/out2.png,,,,,,,,,,,,,,,,,,,,,,,,,,,,,,,,,,,,,,
,,5ea152aca876c6000aa73a2a,27,female,2024-04-16_12h25.11.018,stockport_simplified,2022.2.4,Win32,59.88023952,661e456ee6de07e70aa9ef7b,661e5123a5dead6f48924df7,,,,,,,,,,,,,,,,,,,,,,,,,,,,,,,,,,503.6296,505.5892,"[2,8,7,1,5,6,4,3]","[[-0.3,0.2],[0.3,0.2]]","[[-0.125,-0.2],[0.125,-0.2]]",-0.102777764,-0.213888875,1,0,0,1.445299999,o1_image,505.5898,1,506.0882,506.0882,508.0833,0,0,0,0,1,,,,,,,,,,,,,,,,,,,,,,,,,,,,,,,,,,,,,,,,,,,,,,,,,,
,,5ea152aca876c6000aa73a2a,27,female,2024-04-16_12h25.11.018,stockport_simplified,2022.2.4,Win32,59.88023952,661e456ee6de07e70aa9ef7b,661e5123a5dead6f48924df7,,,,,,,,,,,,,,,,,,,,,,,,,,,,,,,,,,,,,,,,,,,,,,,,,,,,,,,,1,22,82,31,1,A,X,N,o1_image,stimuli/out1.png,stimuli/correct_out1.png,stimuli/out2.png,,,,,,,,,,,,,,,,,,,,,,,,,,,,,,,,,,,,,,
,,5ea152aca876c6000aa73a2a,27,female,2024-04-16_12h25.11.018,stockport_simplified,2022.2.4,Win32,59.88023952,661e456ee6de07e70aa9ef7b,661e5123a5dead6f48924df7,,,,,,,,,,,,,,,,,,,,,,,,,,,,,,,,,,508.0839,509.8944,"[2,8,7,1,5,6,4,3]","[[-0.3,0.2],[0.3,0.2]]","[[0.125,-0.2],[-0.125,-0.2]]",-0.135185171,-0.216666681,1,0,0,1.296200001,o2_image,509.8957,1,510.3928,510.3928,512.3948,0,0,0,0,1,,,,,,,,,,,,,,,,,,,,,,,,,,,,,,,,,,,,,,,,,,,,,,,,,,
,,5ea152aca876c6000aa73a2a,27,female,2024-04-16_12h25.11.018,stockport_simplified,2022.2.4,Win32,59.88023952,661e456ee6de07e70aa9ef7b,661e5123a5dead6f48924df7,,,,,,,,,,,,,,,,,,,,,,,,,,,,,,,,,,,,,,,,,,,,,,,,,,,,,,,,1,23,83,48,1,B,Y,N,o2_image,stimuli/out2.png,stimuli/out1.png,stimuli/correct_out2.png,,,,,,,,,,,,,,,,,,,,,,,,,,,,,,,,,,,,,,
,,5ea152aca876c6000aa73a2a,27,female,2024-04-16_12h25.11.018,stockport_simplified,2022.2.4,Win32,59.88023952,661e456ee6de07e70aa9ef7b,661e5123a5dead6f48924df7,,,,,,,,,,,,,,,,,,,,,,,,,,,,,,,,,,512.3954,514.1159,"[2,8,7,1,5,6,4,3]","[[0.3,0.2],[-0.3,0.2]]","[[-0.125,-0.2],[0.125,-0.2]]",-0.134259259,-0.216666681,1,0,0,1.212099998,o1_image,514.1165,1,514.6151,514.6152,516.6099,0,0,0,0,1,,,,,,,,,,,,,,,,,,,,,,,,,,,,,,,,,,,,,,,,,,,,,,,,,,
,,5ea152aca876c6000aa73a2a,27,female,2024-04-16_12h25.11.018,stockport_simplified,2022.2.4,Win32,59.88023952,661e456ee6de07e70aa9ef7b,661e5123a5dead6f48924df7,,,,,,,,,,,,,,,,,,,,,,,,,,,,,,,,,,,,,,,,,,,,,,,,,,,,,,,,1,24,84,4,1,A,X,N,o1_image,stimuli/out1.png,stimuli/correct_out1.png,stimuli/out2.png,,,,,,,,,,,,,,,,,,,,,,,,,,,,,,,,,,,,,,
,,5ea152aca876c6000aa73a2a,27,female,2024-04-16_12h25.11.018,stockport_simplified,2022.2.4,Win32,59.88023952,661e456ee6de07e70aa9ef7b,661e5123a5dead6f48924df7,,,,,,,,,,,,,,,,,,,,,,,,,,,,,,,,,,516.611,519.0867,"[2,8,7,1,5,6,4,3]","[[0.3,0.2],[-0.3,0.2]]","[[-0.125,-0.2],[0.125,-0.2]]",-0.112962935,-0.211111139,1,0,0,1.960700001,o1_image,519.0884,1,519.5849,519.5849,521.5794,0,0,0,0,1,,,,,,,,,,,,,,,,,,,,,,,,,,,,,,,,,,,,,,,,,,,,,,,,,,
,,5ea152aca876c6000aa73a2a,27,female,2024-04-16_12h25.11.018,stockport_simplified,2022.2.4,Win32,59.88023952,661e456ee6de07e70aa9ef7b,661e5123a5dead6f48924df7,,,,,,,,,,,,,,,,,,,,,,,,,,,,,,,,,,,,,,,,,,,,,,,,,,,,,,,,1,25,85,54,1,N,M,C,o1_image,stimuli/out1.png,stimuli/correct_out1.png,stimuli/out2.png,,,,,,,,,,,,,,,,,,,,,,,,,,,,,,,,,,,,,,
,,5ea152aca876c6000aa73a2a,27,female,2024-04-16_12h25.11.018,stockport_simplified,2022.2.4,Win32,59.88023952,661e456ee6de07e70aa9ef7b,661e5123a5dead6f48924df7,,,,,,,,,,,,,,,,,,,,,,,,,,,,,,,,,,521.58,523.8066,"[2,8,7,1,5,6,4,3]","[[-0.3,0.2],[0.3,0.2]]","[[-0.125,-0.2],[0.125,-0.2]]",-0.112962935,-0.210185228,1,0,0,1.7114,o1_image,523.8276,1,524.322,524.322,526.3167,0,0,0,0,1,,,,,,,,,,,,,,,,,,,,,,,,,,,,,,,,,,,,,,,,,,,,,,,,,,
,,5ea152aca876c6000aa73a2a,27,female,2024-04-16_12h25.11.018,stockport_simplified,2022.2.4,Win32,59.88023952,661e456ee6de07e70aa9ef7b,661e5123a5dead6f48924df7,,,,,,,,,,,,,,,,,,,,,,,,,,,,,,,,,,,,,,,,,,,,,,,,,,,,,,,,1,26,86,53,1,N,M,C,o1_image,stimuli/out1.png,stimuli/correct_out1.png,stimuli/out2.png,,,,,,,,,,,,,,,,,,,,,,,,,,,,,,,,,,,,,,
,,5ea152aca876c6000aa73a2a,27,female,2024-04-16_12h25.11.018,stockport_simplified,2022.2.4,Win32,59.88023952,661e456ee6de07e70aa9ef7b,661e5123a5dead6f48924df7,,,,,,,,,,,,,,,,,,,,,,,,,,,,,,,,,,526.3173,528.66,"[2,8,7,1,5,6,4,3]","[[0.3,0.2],[-0.3,0.2]]","[[0.125,-0.2],[-0.125,-0.2]]",0.084259245,-0.213888875,1,0,0,1.837300001,o1_image,528.6613,1,529.1582,529.1582,531.1537,0,0,0,0,1,,,,,,,,,,,,,,,,,,,,,,,,,,,,,,,,,,,,,,,,,,,,,,,,,,
,,5ea152aca876c6000aa73a2a,27,female,2024-04-16_12h25.11.018,stockport_simplified,2022.2.4,Win32,59.88023952,661e456ee6de07e70aa9ef7b,661e5123a5dead6f48924df7,,,,,,,,,,,,,,,,,,,,,,,,,,,,,,,,,,,,,,,,,,,,,,,,,,,,,,,,1,27,87,1,1,A,X,N,o1_image,stimuli/out1.png,stimuli/correct_out1.png,stimuli/out2.png,,,,,,,,,,,,,,,,,,,,,,,,,,,,,,,,,,,,,,
,,5ea152aca876c6000aa73a2a,27,female,2024-04-16_12h25.11.018,stockport_simplified,2022.2.4,Win32,59.88023952,661e456ee6de07e70aa9ef7b,661e5123a5dead6f48924df7,,,,,,,,,,,,,,,,,,,,,,,,,,,,,,,,,,531.1551,533.1977,"[2,8,7,1,5,6,4,3]","[[-0.3,0.2],[0.3,0.2]]","[[0.125,-0.2],[-0.125,-0.2]]",-0.111111111,-0.212962963,1,0,0,1.5284,o2_image,533.1985,1,533.6967,533.6967,535.6911,0,0,0,0,1,,,,,,,,,,,,,,,,,,,,,,,,,,,,,,,,,,,,,,,,,,,,,,,,,,
,,5ea152aca876c6000aa73a2a,27,female,2024-04-16_12h25.11.018,stockport_simplified,2022.2.4,Win32,59.88023952,661e456ee6de07e70aa9ef7b,661e5123a5dead6f48924df7,,,,,,,,,,,,,,,,,,,,,,,,,,,,,,,,,,,,,,,,,,,,,,,,,,,,,,,,1,28,88,19,1,B,Y,N,o2_image,stimuli/out2.png,stimuli/out1.png,stimuli/correct_out2.png,,,,,,,,,,,,,,,,,,,,,,,,,,,,,,,,,,,,,,
,,5ea152aca876c6000aa73a2a,27,female,2024-04-16_12h25.11.018,stockport_simplified,2022.2.4,Win32,59.88023952,661e456ee6de07e70aa9ef7b,661e5123a5dead6f48924df7,,,,,,,,,,,,,,,,,,,,,,,,,,,,,,,,,,535.6919,537.4031,"[2,8,7,1,5,6,4,3]","[[-0.3,0.2],[0.3,0.2]]","[[0.125,-0.2],[-0.125,-0.2]]",-0.111111111,-0.213888875,1,0,0,1.1961,o2_image,537.4051,1,537.9012,537.9012,539.9032,0,0,0,0,1,,,,,,,,,,,,,,,,,,,,,,,,,,,,,,,,,,,,,,,,,,,,,,,,,,
,,5ea152aca876c6000aa73a2a,27,female,2024-04-16_12h25.11.018,stockport_simplified,2022.2.4,Win32,59.88023952,661e456ee6de07e70aa9ef7b,661e5123a5dead6f48924df7,,,,,,,,,,,,,,,,,,,,,,,,,,,,,,,,,,,,,,,,,,,,,,,,,,,,,,,,1,29,89,41,1,B,X,N,o2_image,stimuli/out2.png,stimuli/out1.png,stimuli/correct_out2.png,,,,,,,,,,,,,,,,,,,,,,,,,,,,,,,,,,,,,,
,,5ea152aca876c6000aa73a2a,27,female,2024-04-16_12h25.11.018,stockport_simplified,2022.2.4,Win32,59.88023952,661e456ee6de07e70aa9ef7b,661e5123a5dead6f48924df7,,,,,,,,,,,,,,,,,,,,,,,,,,,,,,,,,,539.9041,542.0905,"[2,8,7,1,5,6,4,3]","[[-0.3,0.2],[0.3,0.2]]","[[-0.125,-0.2],[0.125,-0.2]]",-0.115740741,-0.213888875,1,0,0,1.678400002,o1_image,542.0922,1,542.589,542.589,544.5836,0,0,0,0,1,,,,,,,,,,,,,,,,,,,,,,,,,,,,,,,,,,,,,,,,,,,,,,,,,,
,,5ea152aca876c6000aa73a2a,27,female,2024-04-16_12h25.11.018,stockport_simplified,2022.2.4,Win32,59.88023952,661e456ee6de07e70aa9ef7b,661e5123a5dead6f48924df7,,,,,,,,,,,,,,,,,,,,,,,,,,,,,,,,,,,,,,,,,,,,,,,,,,,,,,,,1,30,90,38,1,A,Y,N,o1_image,stimuli/out1.png,stimuli/correct_out1.png,stimuli/out2.png,,,,,,,,,,,,,,,,,,,,,,,,,,,,,,,,,,,,,,
,,5ea152aca876c6000aa73a2a,27,female,2024-04-16_12h25.11.018,stockport_simplified,2022.2.4,Win32,59.88023952,661e456ee6de07e70aa9ef7b,661e5123a5dead6f48924df7,,,,,,,,,,,,,,,,,,,,,,,,,,,,,,,,,,544.5841,546.7613,"[2,8,7,1,5,6,4,3]","[[0.3,0.2],[-0.3,0.2]]","[[-0.125,-0.2],[0.125,-0.2]]",0.087037051,-0.194444444,1,0,0,1.662200001,o2_image,546.7625,1,547.259,547.259,549.2541,0,0,0,0,1,,,,,,,,,,,,,,,,,,,,,,,,,,,,,,,,,,,,,,,,,,,,,,,,,,
,,5ea152aca876c6000aa73a2a,27,female,2024-04-16_12h25.11.018,stockport_simplified,2022.2.4,Win32,59.88023952,661e456ee6de07e70aa9ef7b,661e5123a5dead6f48924df7,,,,,,,,,,,,,,,,,,,,,,,,,,,,,,,,,,,,,,,,,,,,,,,,,,,,,,,,1,31,91,28,1,N,M,D,o2_image,stimuli/out2.png,stimuli/out1.png,stimuli/correct_out2.png,,,,,,,,,,,,,,,,,,,,,,,,,,,,,,,,,,,,,,
,,5ea152aca876c6000aa73a2a,27,female,2024-04-16_12h25.11.018,stockport_simplified,2022.2.4,Win32,59.88023952,661e456ee6de07e70aa9ef7b,661e5123a5dead6f48924df7,,,,,,,,,,,,,,,,,,,,,,,,,,,,,,,,,,549.2549,550.7003,"[2,8,7,1,5,6,4,3]","[[0.3,0.2],[-0.3,0.2]]","[[-0.125,-0.2],[0.125,-0.2]]",0.083333333,-0.194444444,1,0,0,0.930799999,o2_image,550.702,1,551.1988,551.1989,553.1972,0,0,0,0,1,,,,,,,,,,,,,,,,,,,,,,,,,,,,,,,,,,,,,,,,,,,,,,,,,,
,,5ea152aca876c6000aa73a2a,27,female,2024-04-16_12h25.11.018,stockport_simplified,2022.2.4,Win32,59.88023952,661e456ee6de07e70aa9ef7b,661e5123a5dead6f48924df7,,,,,,,,,,,,,,,,,,,,,,,,,,,,,,,,,,,,,,,,,,,,,,,,,,,,,,,,1,32,92,59,1,N,M,D,o2_image,stimuli/out2.png,stimuli/out1.png,stimuli/correct_out2.png,,,,,,,,,,,,,,,,,,,,,,,,,,,,,,,,,,,,,,
,,5ea152aca876c6000aa73a2a,27,female,2024-04-16_12h25.11.018,stockport_simplified,2022.2.4,Win32,59.88023952,661e456ee6de07e70aa9ef7b,661e5123a5dead6f48924df7,,,,,,,,,,,,,,,,,,,,,,,,,,,,,,,,,,553.1978,555.287,"[2,8,7,1,5,6,4,3]","[[0.3,0.2],[-0.3,0.2]]","[[-0.125,-0.2],[0.125,-0.2]]",-0.093518504,-0.195370356,1,0,0,1.577299999,o1_image,555.2879,1,555.7864,555.7864,557.7807,0,0,0,0,1,,,,,,,,,,,,,,,,,,,,,,,,,,,,,,,,,,,,,,,,,,,,,,,,,,
,,5ea152aca876c6000aa73a2a,27,female,2024-04-16_12h25.11.018,stockport_simplified,2022.2.4,Win32,59.88023952,661e456ee6de07e70aa9ef7b,661e5123a5dead6f48924df7,,,,,,,,,,,,,,,,,,,,,,,,,,,,,,,,,,,,,,,,,,,,,,,,,,,,,,,,1,33,93,32,1,A,X,N,o1_image,stimuli/out1.png,stimuli/correct_out1.png,stimuli/out2.png,,,,,,,,,,,,,,,,,,,,,,,,,,,,,,,,,,,,,,
,,5ea152aca876c6000aa73a2a,27,female,2024-04-16_12h25.11.018,stockport_simplified,2022.2.4,Win32,59.88023952,661e456ee6de07e70aa9ef7b,661e5123a5dead6f48924df7,,,,,,,,,,,,,,,,,,,,,,,,,,,,,,,,,,557.7817,559.576,"[2,8,7,1,5,6,4,3]","[[-0.3,0.2],[0.3,0.2]]","[[0.125,-0.2],[-0.125,-0.2]]",-0.093518504,-0.195370356,1,0,0,1.2759,o2_image,559.5775,1,560.0744,560.0745,562.0689,0,0,0,0,1,,,,,,,,,,,,,,,,,,,,,,,,,,,,,,,,,,,,,,,,,,,,,,,,,,
,,5ea152aca876c6000aa73a2a,27,female,2024-04-16_12h25.11.018,stockport_simplified,2022.2.4,Win32,59.88023952,661e456ee6de07e70aa9ef7b,661e5123a5dead6f48924df7,,,,,,,,,,,,,,,,,,,,,,,,,,,,,,,,,,,,,,,,,,,,,,,,,,,,,,,,1,34,94,29,1,N,M,D,o2_image,stimuli/out2.png,stimuli/out1.png,stimuli/correct_out2.png,,,,,,,,,,,,,,,,,,,,,,,,,,,,,,,,,,,,,,
,,5ea152aca876c6000aa73a2a,27,female,2024-04-16_12h25.11.018,stockport_simplified,2022.2.4,Win32,59.88023952,661e456ee6de07e70aa9ef7b,661e5123a5dead6f48924df7,,,,,,,,,,,,,,,,,,,,,,,,,,,,,,,,,,562.0695,564.1965,"[2,8,7,1,5,6,4,3]","[[-0.3,0.2],[0.3,0.2]]","[[0.125,-0.2],[-0.125,-0.2]]",0.131481524,-0.204629616,1,0,0,1.611599998,o1_image,564.1975,1,564.6953,564.6953,566.6899,0,0,0,0,1,,,,,,,,,,,,,,,,,,,,,,,,,,,,,,,,,,,,,,,,,,,,,,,,,,
,,5ea152aca876c6000aa73a2a,27,female,2024-04-16_12h25.11.018,stockport_simplified,2022.2.4,Win32,59.88023952,661e456ee6de07e70aa9ef7b,661e5123a5dead6f48924df7,,,,,,,,,,,,,,,,,,,,,,,,,,,,,,,,,,,,,,,,,,,,,,,,,,,,,,,,1,35,95,30,1,A,X,N,o1_image,stimuli/out1.png,stimuli/correct_out1.png,stimuli/out2.png,,,,,,,,,,,,,,,,,,,,,,,,,,,,,,,,,,,,,,
,,5ea152aca876c6000aa73a2a,27,female,2024-04-16_12h25.11.018,stockport_simplified,2022.2.4,Win32,59.88023952,661e456ee6de07e70aa9ef7b,661e5123a5dead6f48924df7,,,,,,,,,,,,,,,,,,,,,,,,,,,,,,,,,,566.6908,569.7149,"[2,8,7,1,5,6,4,3]","[[-0.3,0.2],[0.3,0.2]]","[[-0.125,-0.2],[0.125,-0.2]]",0.121296282,-0.20648151,1,0,0,2.5091,o2_image,569.7164,1,570.2133,570.2133,572.2081,0,0,0,0,1,,,,,,,,,,,,,,,,,,,,,,,,,,,,,,,,,,,,,,,,,,,,,,,,,,
,,5ea152aca876c6000aa73a2a,27,female,2024-04-16_12h25.11.018,stockport_simplified,2022.2.4,Win32,59.88023952,661e456ee6de07e70aa9ef7b,661e5123a5dead6f48924df7,,,,,,,,,,,,,,,,,,,,,,,,,,,,,,,,,,,,,,,,,,,,,,,,,,,,,,,,1,36,96,17,1,B,Y,N,o2_image,stimuli/out2.png,stimuli/out1.png,stimuli/correct_out2.png,,,,,,,,,,,,,,,,,,,,,,,,,,,,,,,,,,,,,,
,,5ea152aca876c6000aa73a2a,27,female,2024-04-16_12h25.11.018,stockport_simplified,2022.2.4,Win32,59.88023952,661e456ee6de07e70aa9ef7b,661e5123a5dead6f48924df7,,,,,,,,,,,,,,,,,,,,,,,,,,,,,,,,,,572.2092,574.9671,"[2,8,7,1,5,6,4,3]","[[0.3,0.2],[-0.3,0.2]]","[[0.125,-0.2],[-0.125,-0.2]]",0.117592635,-0.207407422,1,0,0,2.243,o1_image,574.9686,1,575.4659,575.466,577.4604,0,0,0,0,1,,,,,,,,,,,,,,,,,,,,,,,,,,,,,,,,,,,,,,,,,,,,,,,,,,
,,5ea152aca876c6000aa73a2a,27,female,2024-04-16_12h25.11.018,stockport_simplified,2022.2.4,Win32,59.88023952,661e456ee6de07e70aa9ef7b,661e5123a5dead6f48924df7,,,,,,,,,,,,,,,,,,,,,,,,,,,,,,,,,,,,,,,,,,,,,,,,,,,,,,,,1,37,97,50,1,N,M,C,o1_image,stimuli/out1.png,stimuli/correct_out1.png,stimuli/out2.png,,,,,,,,,,,,,,,,,,,,,,,,,,,,,,,,,,,,,,
,,5ea152aca876c6000aa73a2a,27,female,2024-04-16_12h25.11.018,stockport_simplified,2022.2.4,Win32,59.88023952,661e456ee6de07e70aa9ef7b,661e5123a5dead6f48924df7,,,,,,,,,,,,,,,,,,,,,,,,,,,,,,,,,,577.4613,579.6283,"[2,8,7,1,5,6,4,3]","[[0.3,0.2],[-0.3,0.2]]","[[0.125,-0.2],[-0.125,-0.2]]",-0.085185157,-0.218518504,1,0,0,1.663699999,o2_image,579.6293,1,580.12,580.12,582.1144,0,0,0,0,1,,,,,,,,,,,,,,,,,,,,,,,,,,,,,,,,,,,,,,,,,,,,,,,,,,
,,5ea152aca876c6000aa73a2a,27,female,2024-04-16_12h25.11.018,stockport_simplified,2022.2.4,Win32,59.88023952,661e456ee6de07e70aa9ef7b,661e5123a5dead6f48924df7,,,,,,,,,,,,,,,,,,,,,,,,,,,,,,,,,,,,,,,,,,,,,,,,,,,,,,,,1,38,98,58,1,N,M,D,o2_image,stimuli/out2.png,stimuli/out1.png,stimuli/correct_out2.png,,,,,,,,,,,,,,,,,,,,,,,,,,,,,,,,,,,,,,
,,5ea152aca876c6000aa73a2a,27,female,2024-04-16_12h25.11.018,stockport_simplified,2022.2.4,Win32,59.88023952,661e456ee6de07e70aa9ef7b,661e5123a5dead6f48924df7,,,,,,,,,,,,,,,,,,,,,,,,,,,,,,,,,,582.1151,584.1332,"[2,8,7,1,5,6,4,3]","[[-0.3,0.2],[0.3,0.2]]","[[0.125,-0.2],[-0.125,-0.2]]",-0.098148134,-0.217592593,1,0,0,1.503200001,o2_image,584.134,1,584.6242,584.6243,586.619,0,0,0,0,1,,,,,,,,,,,,,,,,,,,,,,,,,,,,,,,,,,,,,,,,,,,,,,,,,,
,,5ea152aca876c6000aa73a2a,27,female,2024-04-16_12h25.11.018,stockport_simplified,2022.2.4,Win32,59.88023952,661e456ee6de07e70aa9ef7b,661e5123a5dead6f48924df7,,,,,,,,,,,,,,,,,,,,,,,,,,,,,,,,,,,,,,,,,,,,,,,,,,,,,,,,1,39,99,11,1,B,X,N,o2_image,stimuli/out2.png,stimuli/out1.png,stimuli/correct_out2.png,,,,,,,,,,,,,,,,,,,,,,,,,,,,,,,,,,,,,,
,,5ea152aca876c6000aa73a2a,27,female,2024-04-16_12h25.11.018,stockport_simplified,2022.2.4,Win32,59.88023952,661e456ee6de07e70aa9ef7b,661e5123a5dead6f48924df7,,,,,,,,,,,,,,,,,,,,,,,,,,,,,,,,,,586.6197,589.6938,"[2,8,7,1,5,6,4,3]","[[0.3,0.2],[-0.3,0.2]]","[[0.125,-0.2],[-0.125,-0.2]]",-0.098148134,-0.217592593,1,0,0,2.5595,o2_image,589.6948,1,590.1922,590.1922,592.187,0,0,0,0,1,,,,,,,,,,,,,,,,,,,,,,,,,,,,,,,,,,,,,,,,,,,,,,,,,,
,,5ea152aca876c6000aa73a2a,27,female,2024-04-16_12h25.11.018,stockport_simplified,2022.2.4,Win32,59.88023952,661e456ee6de07e70aa9ef7b,661e5123a5dead6f48924df7,,,,,,,,,,,,,,,,,,,,,,,,,,,,,,,,,,,,,,,,,,,,,,,,,,,,,,,,1,40,100,12,1,B,X,N,o2_image,stimuli/out2.png,stimuli/out1.png,stimuli/correct_out2.png,,,,,,,,,,,,,,,,,,,,,,,,,,,,,,,,,,,,,,
,,5ea152aca876c6000aa73a2a,27,female,2024-04-16_12h25.11.018,stockport_simplified,2022.2.4,Win32,59.88023952,661e456ee6de07e70aa9ef7b,661e5123a5dead6f48924df7,,,,,,,,,,,,,,,,,,,,,,,,,,,,,,,,,,592.1877,593.5497,"[2,8,7,1,5,6,4,3]","[[0.3,0.2],[-0.3,0.2]]","[[-0.125,-0.2],[0.125,-0.2]]",-0.098148134,-0.217592593,1,0,0,0.847300001,o1_image,593.5511,0,594.048,594.0481,596.0424,0,0,0,0,1,,,,,,,,,,,,,,,,,,,,,,,,,,,,,,,,,,,,,,,,,,,,,,,,,,
,,5ea152aca876c6000aa73a2a,27,female,2024-04-16_12h25.11.018,stockport_simplified,2022.2.4,Win32,59.88023952,661e456ee6de07e70aa9ef7b,661e5123a5dead6f48924df7,,,,,,,,,,,,,,,,,,,,,,,,,,,,,,,,,,,,,,,,,,,,,,,,,,,,,,,,1,41,101,10,1,B,X,N,o2_image,stimuli/out2.png,stimuli/out1.png,stimuli/correct_out2.png,,,,,,,,,,,,,,,,,,,,,,,,,,,,,,,,,,,,,,
,,5ea152aca876c6000aa73a2a,27,female,2024-04-16_12h25.11.018,stockport_simplified,2022.2.4,Win32,59.88023952,661e456ee6de07e70aa9ef7b,661e5123a5dead6f48924df7,,,,,,,,,,,,,,,,,,,,,,,,,,,,,,,,,,596.0427,598.1874,"[2,8,7,1,5,6,4,3]","[[-0.3,0.2],[0.3,0.2]]","[[-0.125,-0.2],[0.125,-0.2]]",-0.087037051,-0.205555598,1,0,0,1.6286,o1_image,598.1889,1,598.6859,598.686,600.6804,0,0,0,0,1,,,,,,,,,,,,,,,,,,,,,,,,,,,,,,,,,,,,,,,,,,,,,,,,,,
,,5ea152aca876c6000aa73a2a,27,female,2024-04-16_12h25.11.018,stockport_simplified,2022.2.4,Win32,59.88023952,661e456ee6de07e70aa9ef7b,661e5123a5dead6f48924df7,,,,,,,,,,,,,,,,,,,,,,,,,,,,,,,,,,,,,,,,,,,,,,,,,,,,,,,,1,42,102,37,1,A,Y,N,o1_image,stimuli/out1.png,stimuli/correct_out1.png,stimuli/out2.png,,,,,,,,,,,,,,,,,,,,,,,,,,,,,,,,,,,,,,
,,5ea152aca876c6000aa73a2a,27,female,2024-04-16_12h25.11.018,stockport_simplified,2022.2.4,Win32,59.88023952,661e456ee6de07e70aa9ef7b,661e5123a5dead6f48924df7,,,,,,,,,,,,,,,,,,,,,,,,,,,,,,,,,,600.6809,602.4922,"[2,8,7,1,5,6,4,3]","[[0.3,0.2],[-0.3,0.2]]","[[0.125,-0.2],[-0.125,-0.2]]",-0.087037051,-0.205555598,1,0,0,1.295799999,o2_image,602.4933,1,602.9908,602.9908,604.9854,0,0,0,0,1,,,,,,,,,,,,,,,,,,,,,,,,,,,,,,,,,,,,,,,,,,,,,,,,,,
,,5ea152aca876c6000aa73a2a,27,female,2024-04-16_12h25.11.018,stockport_simplified,2022.2.4,Win32,59.88023952,661e456ee6de07e70aa9ef7b,661e5123a5dead6f48924df7,,,,,,,,,,,,,,,,,,,,,,,,,,,,,,,,,,,,,,,,,,,,,,,,,,,,,,,,1,43,103,40,1,B,X,N,o2_image,stimuli/out2.png,stimuli/out1.png,stimuli/correct_out2.png,,,,,,,,,,,,,,,,,,,,,,,,,,,,,,,,,,,,,,
,,5ea152aca876c6000aa73a2a,27,female,2024-04-16_12h25.11.018,stockport_simplified,2022.2.4,Win32,59.88023952,661e456ee6de07e70aa9ef7b,661e5123a5dead6f48924df7,,,,,,,,,,,,,,,,,,,,,,,,,,,,,,,,,,604.986,607.213,"[2,8,7,1,5,6,4,3]","[[0.3,0.2],[-0.3,0.2]]","[[-0.125,-0.2],[0.125,-0.2]]",-0.110185199,-0.211111139,1,0,0,1.711800001,o1_image,607.214,1,607.7107,607.7107,609.7056,0,0,0,0,1,,,,,,,,,,,,,,,,,,,,,,,,,,,,,,,,,,,,,,,,,,,,,,,,,,
,,5ea152aca876c6000aa73a2a,27,female,2024-04-16_12h25.11.018,stockport_simplified,2022.2.4,Win32,59.88023952,661e456ee6de07e70aa9ef7b,661e5123a5dead6f48924df7,,,,,,,,,,,,,,,,,,,,,,,,,,,,,,,,,,,,,,,,,,,,,,,,,,,,,,,,1,44,104,5,1,A,Y,N,o1_image,stimuli/out1.png,stimuli/correct_out1.png,stimuli/out2.png,,,,,,,,,,,,,,,,,,,,,,,,,,,,,,,,,,,,,,
,,5ea152aca876c6000aa73a2a,27,female,2024-04-16_12h25.11.018,stockport_simplified,2022.2.4,Win32,59.88023952,661e456ee6de07e70aa9ef7b,661e5123a5dead6f48924df7,,,,,,,,,,,,,,,,,,,,,,,,,,,,,,,,,,609.7061,611.4838,"[2,8,7,1,5,6,4,3]","[[0.3,0.2],[-0.3,0.2]]","[[-0.125,-0.2],[0.125,-0.2]]",-0.110185199,-0.211111139,1,0,0,1.2629,o1_image,611.4844,1,611.9824,611.9825,613.977,0,0,0,0,1,,,,,,,,,,,,,,,,,,,,,,,,,,,,,,,,,,,,,,,,,,,,,,,,,,
,,5ea152aca876c6000aa73a2a,27,female,2024-04-16_12h25.11.018,stockport_simplified,2022.2.4,Win32,59.88023952,661e456ee6de07e70aa9ef7b,661e5123a5dead6f48924df7,,,,,,,,,,,,,,,,,,,,,,,,,,,,,,,,,,,,,,,,,,,,,,,,,,,,,,,,1,45,105,3,1,A,X,N,o1_image,stimuli/out1.png,stimuli/correct_out1.png,stimuli/out2.png,,,,,,,,,,,,,,,,,,,,,,,,,,,,,,,,,,,,,,
,,5ea152aca876c6000aa73a2a,27,female,2024-04-16_12h25.11.018,stockport_simplified,2022.2.4,Win32,59.88023952,661e456ee6de07e70aa9ef7b,661e5123a5dead6f48924df7,,,,,,,,,,,,,,,,,,,,,,,,,,,,,,,,,,613.9773,615.8559,"[2,8,7,1,5,6,4,3]","[[0.3,0.2],[-0.3,0.2]]","[[-0.125,-0.2],[0.125,-0.2]]",0.101851852,-0.203703704,1,0,0,1.362700001,o2_image,615.8573,1,616.3545,616.3546,618.3491,0,0,0,0,1,,,,,,,,,,,,,,,,,,,,,,,,,,,,,,,,,,,,,,,,,,,,,,,,,,
,,5ea152aca876c6000aa73a2a,27,female,2024-04-16_12h25.11.018,stockport_simplified,2022.2.4,Win32,59.88023952,661e456ee6de07e70aa9ef7b,661e5123a5dead6f48924df7,,,,,,,,,,,,,,,,,,,,,,,,,,,,,,,,,,,,,,,,,,,,,,,,,,,,,,,,1,46,106,43,1,B,X,N,o2_image,stimuli/out2.png,stimuli/out1.png,stimuli/correct_out2.png,,,,,,,,,,,,,,,,,,,,,,,,,,,,,,,,,,,,,,
,,5ea152aca876c6000aa73a2a,27,female,2024-04-16_12h25.11.018,stockport_simplified,2022.2.4,Win32,59.88023952,661e456ee6de07e70aa9ef7b,661e5123a5dead6f48924df7,,,,,,,,,,,,,,,,,,,,,,,,,,,,,,,,,,618.35,620.1103,"[2,8,7,1,5,6,4,3]","[[-0.3,0.2],[0.3,0.2]]","[[0.125,-0.2],[-0.125,-0.2]]",-0.137036995,-0.218518504,1,0,0,1.2456,o2_image,620.1108,1,620.6161,620.6162,622.6043,0,0,0,0,1,,,,,,,,,,,,,,,,,,,,,,,,,,,,,,,,,,,,,,,,,,,,,,,,,,
,,5ea152aca876c6000aa73a2a,27,female,2024-04-16_12h25.11.018,stockport_simplified,2022.2.4,Win32,59.88023952,661e456ee6de07e70aa9ef7b,661e5123a5dead6f48924df7,,,,,,,,,,,,,,,,,,,,,,,,,,,,,,,,,,,,,,,,,,,,,,,,,,,,,,,,1,47,107,49,1,B,Y,N,o2_image,stimuli/out2.png,stimuli/out1.png,stimuli/correct_out2.png,,,,,,,,,,,,,,,,,,,,,,,,,,,,,,,,,,,,,,
,,5ea152aca876c6000aa73a2a,27,female,2024-04-16_12h25.11.018,stockport_simplified,2022.2.4,Win32,59.88023952,661e456ee6de07e70aa9ef7b,661e5123a5dead6f48924df7,,,,,,,,,,,,,,,,,,,,,,,,,,,,,,,,,,622.6049,624.3994,"[2,8,7,1,5,6,4,3]","[[0.3,0.2],[-0.3,0.2]]","[[-0.125,-0.2],[0.125,-0.2]]",-0.137036995,-0.218518504,1,0,0,1.2799,o1_image,624.4005,1,624.9047,624.9048,626.9083,0,0,0,0,1,,,,,,,,,,,,,,,,,,,,,,,,,,,,,,,,,,,,,,,,,,,,,,,,,,
,,5ea152aca876c6000aa73a2a,27,female,2024-04-16_12h25.11.018,stockport_simplified,2022.2.4,Win32,59.88023952,661e456ee6de07e70aa9ef7b,661e5123a5dead6f48924df7,,,,,,,,,,,,,,,,,,,,,,,,,,,,,,,,,,,,,,,,,,,,,,,,,,,,,,,,1,48,108,39,1,A,Y,N,o1_image,stimuli/out1.png,stimuli/correct_out1.png,stimuli/out2.png,,,,,,,,,,,,,,,,,,,,,,,,,,,,,,,,,,,,,,
,,5ea152aca876c6000aa73a2a,27,female,2024-04-16_12h25.11.018,stockport_simplified,2022.2.4,Win32,59.88023952,661e456ee6de07e70aa9ef7b,661e5123a5dead6f48924df7,,,,,,,,,,,,,,,,,,,,,,,,,,,,,,,,,,626.9089,629.0028,"[2,8,7,1,5,6,4,3]","[[0.3,0.2],[-0.3,0.2]]","[[0.125,-0.2],[-0.125,-0.2]]",0.110185199,-0.216666681,1,0,0,1.578200001,o1_image,629.0035,1,629.5016,629.5017,631.4966,0,0,0,0,1,,,,,,,,,,,,,,,,,,,,,,,,,,,,,,,,,,,,,,,,,,,,,,,,,,
,,5ea152aca876c6000aa73a2a,27,female,2024-04-16_12h25.11.018,stockport_simplified,2022.2.4,Win32,59.88023952,661e456ee6de07e70aa9ef7b,661e5123a5dead6f48924df7,,,,,,,,,,,,,,,,,,,,,,,,,,,,,,,,,,,,,,,,,,,,,,,,,,,,,,,,1,49,109,2,1,A,X,N,o1_image,stimuli/out1.png,stimuli/correct_out1.png,stimuli/out2.png,,,,,,,,,,,,,,,,,,,,,,,,,,,,,,,,,,,,,,
,,5ea152aca876c6000aa73a2a,27,female,2024-04-16_12h25.11.018,stockport_simplified,2022.2.4,Win32,59.88023952,661e456ee6de07e70aa9ef7b,661e5123a5dead6f48924df7,,,,,,,,,,,,,,,,,,,,,,,,,,,,,,,,,,631.4973,633.7071,"[2,8,7,1,5,6,4,3]","[[-0.3,0.2],[0.3,0.2]]","[[0.125,-0.2],[-0.125,-0.2]]",-0.097222222,-0.222222222,1,0,0,1.694799999,o2_image,633.7085,1,634.2058,634.2059,636.2001,0,0,0,0,1,,,,,,,,,,,,,,,,,,,,,,,,,,,,,,,,,,,,,,,,,,,,,,,,,,
,,5ea152aca876c6000aa73a2a,27,female,2024-04-16_12h25.11.018,stockport_simplified,2022.2.4,Win32,59.88023952,661e456ee6de07e70aa9ef7b,661e5123a5dead6f48924df7,,,,,,,,,,,,,,,,,,,,,,,,,,,,,,,,,,,,,,,,,,,,,,,,,,,,,,,,1,50,110,46,1,B,Y,N,o2_image,stimuli/out2.png,stimuli/out1.png,stimuli/correct_out2.png,,,,,,,,,,,,,,,,,,,,,,,,,,,,,,,,,,,,,,
,,5ea152aca876c6000aa73a2a,27,female,2024-04-16_12h25.11.018,stockport_simplified,2022.2.4,Win32,59.88023952,661e456ee6de07e70aa9ef7b,661e5123a5dead6f48924df7,,,,,,,,,,,,,,,,,,,,,,,,,,,,,,,,,,636.2008,637.7466,"[2,8,7,1,5,6,4,3]","[[0.3,0.2],[-0.3,0.2]]","[[0.125,-0.2],[-0.125,-0.2]]",-0.097222222,-0.222222222,1,0,0,1.030699999,o2_image,637.7481,1,638.2449,638.245,640.239,0,0,0,0,1,,,,,,,,,,,,,,,,,,,,,,,,,,,,,,,,,,,,,,,,,,,,,,,,,,
,,5ea152aca876c6000aa73a2a,27,female,2024-04-16_12h25.11.018,stockport_simplified,2022.2.4,Win32,59.88023952,661e456ee6de07e70aa9ef7b,661e5123a5dead6f48924df7,,,,,,,,,,,,,,,,,,,,,,,,,,,,,,,,,,,,,,,,,,,,,,,,,,,,,,,,1,51,111,13,1,B,X,N,o2_image,stimuli/out2.png,stimuli/out1.png,stimuli/correct_out2.png,,,,,,,,,,,,,,,,,,,,,,,,,,,,,,,,,,,,,,
,,5ea152aca876c6000aa73a2a,27,female,2024-04-16_12h25.11.018,stockport_simplified,2022.2.4,Win32,59.88023952,661e456ee6de07e70aa9ef7b,661e5123a5dead6f48924df7,,,,,,,,,,,,,,,,,,,,,,,,,,,,,,,,,,640.2402,642.1006,"[2,8,7,1,5,6,4,3]","[[0.3,0.2],[-0.3,0.2]]","[[0.125,-0.2],[-0.125,-0.2]]",0.095370399,-0.211111139,1,0,0,1.3456,o1_image,642.1018,1,642.5994,642.5995,644.5943,0,0,0,0,1,,,,,,,,,,,,,,,,,,,,,,,,,,,,,,,,,,,,,,,,,,,,,,,,,,
,,5ea152aca876c6000aa73a2a,27,female,2024-04-16_12h25.11.018,stockport_simplified,2022.2.4,Win32,59.88023952,661e456ee6de07e70aa9ef7b,661e5123a5dead6f48924df7,,,,,,,,,,,,,,,,,,,,,,,,,,,,,,,,,,,,,,,,,,,,,,,,,,,,,,,,1,52,112,7,1,A,Y,N,o1_image,stimuli/out1.png,stimuli/correct_out1.png,stimuli/out2.png,,,,,,,,,,,,,,,,,,,,,,,,,,,,,,,,,,,,,,
,,5ea152aca876c6000aa73a2a,27,female,2024-04-16_12h25.11.018,stockport_simplified,2022.2.4,Win32,59.88023952,661e456ee6de07e70aa9ef7b,661e5123a5dead6f48924df7,,,,,,,,,,,,,,,,,,,,,,,,,,,,,,,,,,644.595,646.7218,"[2,8,7,1,5,6,4,3]","[[0.3,0.2],[-0.3,0.2]]","[[0.125,-0.2],[-0.125,-0.2]]",0.092592593,-0.212962963,1,0,0,1.623799999,o1_image,646.7228,1,647.2201,647.2201,649.2142,0,0,0,0,1,,,,,,,,,,,,,,,,,,,,,,,,,,,,,,,,,,,,,,,,,,,,,,,,,,
,,5ea152aca876c6000aa73a2a,27,female,2024-04-16_12h25.11.018,stockport_simplified,2022.2.4,Win32,59.88023952,661e456ee6de07e70aa9ef7b,661e5123a5dead6f48924df7,,,,,,,,,,,,,,,,,,,,,,,,,,,,,,,,,,,,,,,,,,,,,,,,,,,,,,,,1,53,113,23,1,N,M,C,o1_image,stimuli/out1.png,stimuli/correct_out1.png,stimuli/out2.png,,,,,,,,,,,,,,,,,,,,,,,,,,,,,,,,,,,,,,
,,5ea152aca876c6000aa73a2a,27,female,2024-04-16_12h25.11.018,stockport_simplified,2022.2.4,Win32,59.88023952,661e456ee6de07e70aa9ef7b,661e5123a5dead6f48924df7,,,,,,,,,,,,,,,,,,,,,,,,,,,,,,,,,,649.2145,651.4248,"[2,8,7,1,5,6,4,3]","[[-0.3,0.2],[0.3,0.2]]","[[-0.125,-0.2],[0.125,-0.2]]",-0.058333291,-0.219444487,1,0,0,1.695300001,o1_image,651.4253,1,651.9237,651.9237,653.9267,0,0,0,0,1,,,,,,,,,,,,,,,,,,,,,,,,,,,,,,,,,,,,,,,,,,,,,,,,,,
,,5ea152aca876c6000aa73a2a,27,female,2024-04-16_12h25.11.018,stockport_simplified,2022.2.4,Win32,59.88023952,661e456ee6de07e70aa9ef7b,661e5123a5dead6f48924df7,,,,,,,,,,,,,,,,,,,,,,,,,,,,,,,,,,,,,,,,,,,,,,,,,,,,,,,,1,54,114,20,1,N,M,C,o1_image,stimuli/out1.png,stimuli/correct_out1.png,stimuli/out2.png,,,,,,,,,,,,,,,,,,,,,,,,,,,,,,,,,,,,,,
,,5ea152aca876c6000aa73a2a,27,female,2024-04-16_12h25.11.018,stockport_simplified,2022.2.4,Win32,59.88023952,661e456ee6de07e70aa9ef7b,661e5123a5dead6f48924df7,,,,,,,,,,,,,,,,,,,,,,,,,,,,,,,,,,653.9271,655.6973,"[2,8,7,1,5,6,4,3]","[[0.3,0.2],[-0.3,0.2]]","[[-0.125,-0.2],[0.125,-0.2]]",0.143518519,-0.225000028,1,0,0,1.2629,o2_image,655.6988,1,656.1998,656.1998,658.1902,0,0,0,0,1,,,,,,,,,,,,,,,,,,,,,,,,,,,,,,,,,,,,,,,,,,,,,,,,,,
,,5ea152aca876c6000aa73a2a,27,female,2024-04-16_12h25.11.018,stockport_simplified,2022.2.4,Win32,59.88023952,661e456ee6de07e70aa9ef7b,661e5123a5dead6f48924df7,,,,,,,,,,,,,,,,,,,,,,,,,,,,,,,,,,,,,,,,,,,,,,,,,,,,,,,,1,55,115,16,1,B,Y,N,o2_image,stimuli/out2.png,stimuli/out1.png,stimuli/correct_out2.png,,,,,,,,,,,,,,,,,,,,,,,,,,,,,,,,,,,,,,
,,5ea152aca876c6000aa73a2a,27,female,2024-04-16_12h25.11.018,stockport_simplified,2022.2.4,Win32,59.88023952,661e456ee6de07e70aa9ef7b,661e5123a5dead6f48924df7,,,,,,,,,,,,,,,,,,,,,,,,,,,,,,,,,,658.1909,659.6696,"[2,8,7,1,5,6,4,3]","[[-0.3,0.2],[0.3,0.2]]","[[-0.125,-0.2],[0.125,-0.2]]",0.142592607,-0.225000028,1,0,0,0.9635,o2_image,659.6708,1,660.1589,660.1589,662.1627,0,0,0,0,1,,,,,,,,,,,,,,,,,,,,,,,,,,,,,,,,,,,,,,,,,,,,,,,,,,
,,5ea152aca876c6000aa73a2a,27,female,2024-04-16_12h25.11.018,stockport_simplified,2022.2.4,Win32,59.88023952,661e456ee6de07e70aa9ef7b,661e5123a5dead6f48924df7,,,,,,,,,,,,,,,,,,,,,,,,,,,,,,,,,,,,,,,,,,,,,,,,,,,,,,,,1,56,116,56,1,N,M,D,o2_image,stimuli/out2.png,stimuli/out1.png,stimuli/correct_out2.png,,,,,,,,,,,,,,,,,,,,,,,,,,,,,,,,,,,,,,
,,5ea152aca876c6000aa73a2a,27,female,2024-04-16_12h25.11.018,stockport_simplified,2022.2.4,Win32,59.88023952,661e456ee6de07e70aa9ef7b,661e5123a5dead6f48924df7,,,,,,,,,,,,,,,,,,,,,,,,,,,,,,,,,,662.1633,664.3063,"[2,8,7,1,5,6,4,3]","[[-0.3,0.2],[0.3,0.2]]","[[0.125,-0.2],[-0.125,-0.2]]",0.178703732,-0.233333376,1,0,0,1.6215,o1_image,664.3071,1,664.8056,664.8057,666.8001,0,0,0,0,1,,,,,,,,,,,,,,,,,,,,,,,,,,,,,,,,,,,,,,,,,,,,,,,,,,
,,5ea152aca876c6000aa73a2a,27,female,2024-04-16_12h25.11.018,stockport_simplified,2022.2.4,Win32,59.88023952,661e456ee6de07e70aa9ef7b,661e5123a5dead6f48924df7,,,,,,,,,,,,,,,,,,,,,,,,,,,,,,,,,,,,,,,,,,,,,,,,,,,,,,,,1,57,117,34,1,A,X,N,o1_image,stimuli/out1.png,stimuli/correct_out1.png,stimuli/out2.png,,,,,,,,,,,,,,,,,,,,,,,,,,,,,,,,,,,,,,
,,5ea152aca876c6000aa73a2a,27,female,2024-04-16_12h25.11.018,stockport_simplified,2022.2.4,Win32,59.88023952,661e456ee6de07e70aa9ef7b,661e5123a5dead6f48924df7,,,,,,,,,,,,,,,,,,,,,,,,,,,,,,,,,,666.8006,668.297,"[2,8,7,1,5,6,4,3]","[[-0.3,0.2],[0.3,0.2]]","[[-0.125,-0.2],[0.125,-0.2]]",0.158333319,-0.234259288,1,0,0,0.9805,o2_image,668.2986,1,668.7946,668.7947,670.7959,0,0,0,0,1,,,,,,,,,,,,,,,,,,,,,,,,,,,,,,,,,,,,,,,,,,,,,,,,,,
,,5ea152aca876c6000aa73a2a,27,female,2024-04-16_12h25.11.018,stockport_simplified,2022.2.4,Win32,59.88023952,661e456ee6de07e70aa9ef7b,661e5123a5dead6f48924df7,,,,,,,,,,,,,,,,,,,,,,,,,,,,,,,,,,,,,,,,,,,,,,,,,,,,,,,,1,58,118,26,1,N,M,D,o2_image,stimuli/out2.png,stimuli/out1.png,stimuli/correct_out2.png,,,,,,,,,,,,,,,,,,,,,,,,,,,,,,,,,,,,,,
,,5ea152aca876c6000aa73a2a,27,female,2024-04-16_12h25.11.018,stockport_simplified,2022.2.4,Win32,59.88023952,661e456ee6de07e70aa9ef7b,661e5123a5dead6f48924df7,,,,,,,,,,,,,,,,,,,,,,,,,,,,,,,,,,670.7966,672.6505,"[2,8,7,1,5,6,4,3]","[[-0.3,0.2],[0.3,0.2]]","[[0.125,-0.2],[-0.125,-0.2]]",-0.069444444,-0.213888875,1,0,0,1.345299999,o2_image,672.6516,1,673.1493,673.1494,675.144,0,0,0,0,1,,,,,,,,,,,,,,,,,,,,,,,,,,,,,,,,,,,,,,,,,,,,,,,,,,
,,5ea152aca876c6000aa73a2a,27,female,2024-04-16_12h25.11.018,stockport_simplified,2022.2.4,Win32,59.88023952,661e456ee6de07e70aa9ef7b,661e5123a5dead6f48924df7,,,,,,,,,,,,,,,,,,,,,,,,,,,,,,,,,,,,,,,,,,,,,,,,,,,,,,,,1,59,119,44,1,B,X,N,o2_image,stimuli/out2.png,stimuli/out1.png,stimuli/correct_out2.png,,,,,,,,,,,,,,,,,,,,,,,,,,,,,,,,,,,,,,
,,5ea152aca876c6000aa73a2a,27,female,2024-04-16_12h25.11.018,stockport_simplified,2022.2.4,Win32,59.88023952,661e456ee6de07e70aa9ef7b,661e5123a5dead6f48924df7,,,,,,,,,,,,,,,,,,,,,,,,,,,,,,,,,,675.1727,677.0387,"[2,8,7,1,5,6,4,3]","[[0.3,0.2],[-0.3,0.2]]","[[-0.125,-0.2],[0.125,-0.2]]",0.12037037,-0.214814857,1,0,0,1.362200001,o2_image,677.04,1,677.5374,677.5375,679.5322,,,,,,,,,,,,,,,,,,0,0,0,0,1,,,,,,,,,,,,,,,,,,,,,,,,,,,,,,,,,
,,5ea152aca876c6000aa73a2a,27,female,2024-04-16_12h25.11.018,stockport_simplified,2022.2.4,Win32,59.88023952,661e456ee6de07e70aa9ef7b,661e5123a5dead6f48924df7,,,,,,,,,,,,,,,,,,,,,,,,,,,,,,,,,,,,,,,,,,,,,,,,,,,,,,,,,,,,,N,M,D,o2_image,stimuli/out2.png,stimuli/out1.png,stimuli/correct_out2.png,,,,,,0,0,0,53,1,,,,,,,,,,,,,,,,,,,,,,,,,,,,
,,5ea152aca876c6000aa73a2a,27,female,2024-04-16_12h25.11.018,stockport_simplified,2022.2.4,Win32,59.88023952,661e456ee6de07e70aa9ef7b,661e5123a5dead6f48924df7,,,,,,,,,,,,,,,,,,,,,,,,,,,,,,,,,,679.5336,681.2932,"[2,8,7,1,5,6,4,3]","[[-0.3,0.2],[0.3,0.2]]","[[0.125,-0.2],[-0.125,-0.2]]",-0.056481467,-0.216666681,1,0,0,1.256200001,o2_image,681.2937,0,681.7924,681.7925,683.7867,,,,,,,,,,,,,,,,,,0,0,0,0,1,,,,,,,,,,,,,,,,,,,,,,,,,,,,,,,,,
,,5ea152aca876c6000aa73a2a,27,female,2024-04-16_12h25.11.018,stockport_simplified,2022.2.4,Win32,59.88023952,661e456ee6de07e70aa9ef7b,661e5123a5dead6f48924df7,,,,,,,,,,,,,,,,,,,,,,,,,,,,,,,,,,,,,,,,,,,,,,,,,,,,,,,,,,,,,B,X,N,o1_image,stimuli/out1.png,stimuli/correct_out1.png,stimuli/out2.png,,,,,,0,1,1,27,1,,,,,,,,,,,,,,,,,,,,,,,,,,,,
,,5ea152aca876c6000aa73a2a,27,female,2024-04-16_12h25.11.018,stockport_simplified,2022.2.4,Win32,59.88023952,661e456ee6de07e70aa9ef7b,661e5123a5dead6f48924df7,,,,,,,,,,,,,,,,,,,,,,,,,,,,,,,,,,683.787,685.4822,"[2,8,7,1,5,6,4,3]","[[0.3,0.2],[-0.3,0.2]]","[[-0.125,-0.2],[0.125,-0.2]]",-0.114814829,-0.179629644,1,0,0,1.179,o1_image,685.4833,1,685.9812,685.9813,687.9757,,,,,,,,,,,,,,,,,,0,0,0,0,1,,,,,,,,,,,,,,,,,,,,,,,,,,,,,,,,,
,,5ea152aca876c6000aa73a2a,27,female,2024-04-16_12h25.11.018,stockport_simplified,2022.2.4,Win32,59.88023952,661e456ee6de07e70aa9ef7b,661e5123a5dead6f48924df7,,,,,,,,,,,,,,,,,,,,,,,,,,,,,,,,,,,,,,,,,,,,,,,,,,,,,,,,,,,,,N,M,C,o1_image,stimuli/out1.png,stimuli/correct_out1.png,stimuli/out2.png,,,,,,0,2,2,42,1,,,,,,,,,,,,,,,,,,,,,,,,,,,,
