counterbalance_2.started,counterbalance_2.stopped,participant,age,gender,date,expName,psychopyVersion,OS,frameRate,STUDY_ID,SESSION_ID,information_2.started,information_2.stopped,information_loop.thisRepN,information_loop.thisTrialN,information_loop.thisN,information_loop.thisIndex,information_loop.ran,information,consent_2.started,consent_2.stopped,slider_1.response,slider_2.response,slider_3.response,slider_4.response,slider_5.response,slider_6.response,instructions.started,instructions.stopped,task1_instr.thisRepN,task1_instr.thisTrialN,task1_instr.thisN,task1_instr.thisIndex,task1_instr.ran,task1,comprehension1_2.started,comprehension1_2.stopped,comp1_mouse.x,comp1_mouse.y,comp1_mouse.leftButton,comp1_mouse.midButton,comp1_mouse.rightButton,comp1_mouse.time,comp1_mouse.clicked_name,cue_o__trial_2.started,cue_o__trial_2.stopped,order,cue_order,out_order,cue_o_mouse.x,cue_o_mouse.y,cue_o_mouse.leftButton,cue_o_mouse.midButton,cue_o_mouse.rightButton,cue_o_mouse.time,cue_o_mouse.clicked_name,cue_selection_2.started,correct_answer,cue_selection_2.stopped,feedback_2.started,feedback_2.stopped,feedback_loop.thisRepN,feedback_loop.thisTrialN,feedback_loop.thisN,feedback_loop.thisIndex,feedback_loop.ran,stage1_trials.thisRepN,stage1_trials.thisTrialN,stage1_trials.thisN,stage1_trials.thisIndex,stage1_trials.ran,cue1,cue2,cue3,outcome,correct_out,o1_feedback,o2_feedback,stage2_feedback_loop.thisRepN,stage2_feedback_loop.thisTrialN,stage2_feedback_loop.thisN,stage2_feedback_loop.thisIndex,stage2_feedback_loop.ran,stage2_trials.thisRepN,stage2_trials.thisTrialN,stage2_trials.thisN,stage2_trials.thisIndex,stage2_trials.ran,stage3_feedback_loop.thisRepN,stage3_feedback_loop.thisTrialN,stage3_feedback_loop.thisN,stage3_feedback_loop.thisIndex,stage3_feedback_loop.ran,stage3_trials.thisRepN,stage3_trials.thisTrialN,stage3_trials.thisN,stage3_trials.thisIndex,stage3_trials.ran,debrief_2.started,debrief_2.stopped,debrief_loop.thisRepN,debrief_loop.thisTrialN,debrief_loop.thisN,debrief_loop.thisIndex,debrief_loop.ran,debrief_img,compr1_completed.thisRepN,compr1_completed.thisTrialN,compr1_completed.thisN,compr1_completed.thisIndex,compr1_completed.ran,consent_loop.thisRepN,consent_loop.thisTrialN,consent_loop.thisN,consent_loop.thisIndex,consent_loop.ran
0.0001,0.0003,5ead89a08a4c3741712fb05b,42,male,2024-04-19_18h40.58.953,stockport_simplified,2022.2.4,Win32,75.18796992,661e456ee6de07e70aa9ef7b,66229d97fbe898816def3226,,,,,,,,,,,,,,,,,,,,,,,,,,,,,,,,,,,,,,,,,,,,,,,,,,,,,,,,,,,,,,,,,,,,,,,,,,,,,,,,,,,,,,,,,,,,,,,,,,,,,,,,,
,,5ead89a08a4c3741712fb05b,42,male,2024-04-19_18h40.58.953,stockport_simplified,2022.2.4,Win32,75.18796992,661e456ee6de07e70aa9ef7b,66229d97fbe898816def3226,0.0125,22.0528,0,0,0,0,1,instructions/info1.png,,,,,,,,,,,,,,,,,,,,,,,,,,,,,,,,,,,,,,,,,,,,,,,,,,,,,,,,,,,,,,,,,,,,,,,,,,,,,,,,,,,,,,,,,,,,,,,,,
,,5ead89a08a4c3741712fb05b,42,male,2024-04-19_18h40.58.953,stockport_simplified,2022.2.4,Win32,75.18796992,661e456ee6de07e70aa9ef7b,66229d97fbe898816def3226,22.0531,28.8687,0,1,1,1,1,instructions/info2.png,,,,,,,,,,,,,,,,,,,,,,,,,,,,,,,,,,,,,,,,,,,,,,,,,,,,,,,,,,,,,,,,,,,,,,,,,,,,,,,,,,,,,,,,,,,,,,,,,
,,5ead89a08a4c3741712fb05b,42,male,2024-04-19_18h40.58.953,stockport_simplified,2022.2.4,Win32,75.18796992,661e456ee6de07e70aa9ef7b,66229d97fbe898816def3226,28.8736,33.857,0,2,2,2,1,instructions/info3.png,,,,,,,,,,,,,,,,,,,,,,,,,,,,,,,,,,,,,,,,,,,,,,,,,,,,,,,,,,,,,,,,,,,,,,,,,,,,,,,,,,,,,,,,,,,,,,,,,
,,5ead89a08a4c3741712fb05b,42,male,2024-04-19_18h40.58.953,stockport_simplified,2022.2.4,Win32,75.18796992,661e456ee6de07e70aa9ef7b,66229d97fbe898816def3226,,,,,,,,,33.862,51.451,1,1,1,1,1,1,,,,,,,,,,,,,,,,,,,,,,,,,,,,,,,,,,,,,,,,,,,,,,,,,,,,,,,,,,,,,,,,,,,,,,,,,,,,,,,,,,,,,,,,,
,,5ead89a08a4c3741712fb05b,42,male,2024-04-19_18h40.58.953,stockport_simplified,2022.2.4,Win32,75.18796992,661e456ee6de07e70aa9ef7b,66229d97fbe898816def3226,,,,,,,,,,,,,,,,,51.4548,71.5922,0,0,0,0,1,instructions/task1_1.png,,,,,,,,,,,,,,,,,,,,,,,,,,,,,,,,,,,,,,,,,,,,,,,,,,,,,,,,,,,,,,,,,,,,,,,,,,,,,,,,,
,,5ead89a08a4c3741712fb05b,42,male,2024-04-19_18h40.58.953,stockport_simplified,2022.2.4,Win32,75.18796992,661e456ee6de07e70aa9ef7b,66229d97fbe898816def3226,,,,,,,,,,,,,,,,,71.5974,84.3837,0,1,1,1,1,instructions/task1_2.png,,,,,,,,,,,,,,,,,,,,,,,,,,,,,,,,,,,,,,,,,,,,,,,,,,,,,,,,,,,,,,,,,,,,,,,,,,,,,,,,,
,,5ead89a08a4c3741712fb05b,42,male,2024-04-19_18h40.58.953,stockport_simplified,2022.2.4,Win32,75.18796992,661e456ee6de07e70aa9ef7b,66229d97fbe898816def3226,,,,,,,,,,,,,,,,,84.3888,102.9109,0,2,2,2,1,instructions/task1_3.png,,,,,,,,,,,,,,,,,,,,,,,,,,,,,,,,,,,,,,,,,,,,,,,,,,,,,,,,,,,,,,,,,,,,,,,,,,,,,,,,,
,,5ead89a08a4c3741712fb05b,42,male,2024-04-19_18h40.58.953,stockport_simplified,2022.2.4,Win32,75.18796992,661e456ee6de07e70aa9ef7b,66229d97fbe898816def3226,,,,,,,,,,,,,,,,,,,,,,,,,102.9114,120.8519,0.096296296,-0.322222222,1,0,0,17.9401,comp1_resp1,120.8633,125.7605,"[3,8,6,1,4,2,7,5]","[[-0.3,0.2],[0.3,0.2]]","[[-0.125,-0.2],[0.125,-0.2]]",-0.12962963,-0.200925926,1,0,0,4.3882,o1_image,125.7656,1,126.2671,126.2672,128.2581,0,0,0,0,1,,,,,,,,,,,,,,,,,,,,,,,,,,,,,,,,,,,,,,,,,,,,,,,,,,
,,5ead89a08a4c3741712fb05b,42,male,2024-04-19_18h40.58.953,stockport_simplified,2022.2.4,Win32,75.18796992,661e456ee6de07e70aa9ef7b,66229d97fbe898816def3226,,,,,,,,,,,,,,,,,,,,,,,,,,,,,,,,,,,,,,,,,,,,,,,,,,,,,,,,0,0,0,30,1,A,X,N,o1_image,stimuli/out1.png,stimuli/correct_out1.png,stimuli/out2.png,,,,,,,,,,,,,,,,,,,,,,,,,,,,,,,,,,,,,,
,,5ead89a08a4c3741712fb05b,42,male,2024-04-19_18h40.58.953,stockport_simplified,2022.2.4,Win32,75.18796992,661e456ee6de07e70aa9ef7b,66229d97fbe898816def3226,,,,,,,,,,,,,,,,,,,,,,,,,,,,,,,,,,128.2584,135.9143,"[3,8,6,1,4,2,7,5]","[[-0.3,0.2],[0.3,0.2]]","[[0.125,-0.2],[-0.125,-0.2]]",0.137037037,-0.216666667,1,0,0,7.1529,o1_image,135.9197,1,136.4174,136.4174,138.408,0,0,0,0,1,,,,,,,,,,,,,,,,,,,,,,,,,,,,,,,,,,,,,,,,,,,,,,,,,,
,,5ead89a08a4c3741712fb05b,42,male,2024-04-19_18h40.58.953,stockport_simplified,2022.2.4,Win32,75.18796992,661e456ee6de07e70aa9ef7b,66229d97fbe898816def3226,,,,,,,,,,,,,,,,,,,,,,,,,,,,,,,,,,,,,,,,,,,,,,,,,,,,,,,,0,1,1,34,1,A,X,N,o1_image,stimuli/out1.png,stimuli/correct_out1.png,stimuli/out2.png,,,,,,,,,,,,,,,,,,,,,,,,,,,,,,,,,,,,,,
,,5ead89a08a4c3741712fb05b,42,male,2024-04-19_18h40.58.953,stockport_simplified,2022.2.4,Win32,75.18796992,661e456ee6de07e70aa9ef7b,66229d97fbe898816def3226,,,,,,,,,,,,,,,,,,,,,,,,,,,,,,,,,,138.4082,140.1422,"[3,8,6,1,4,2,7,5]","[[0.3,0.2],[-0.3,0.2]]","[[0.125,-0.2],[-0.125,-0.2]]",0.135185185,-0.216666667,1,0,0,1.2299,o1_image,140.1425,0,140.6358,140.6358,142.6333,0,0,0,0,1,,,,,,,,,,,,,,,,,,,,,,,,,,,,,,,,,,,,,,,,,,,,,,,,,,
,,5ead89a08a4c3741712fb05b,42,male,2024-04-19_18h40.58.953,stockport_simplified,2022.2.4,Win32,75.18796992,661e456ee6de07e70aa9ef7b,66229d97fbe898816def3226,,,,,,,,,,,,,,,,,,,,,,,,,,,,,,,,,,,,,,,,,,,,,,,,,,,,,,,,0,2,2,26,1,N,M,D,o2_image,stimuli/out2.png,stimuli/out1.png,stimuli/correct_out2.png,,,,,,,,,,,,,,,,,,,,,,,,,,,,,,,,,,,,,,
,,5ead89a08a4c3741712fb05b,42,male,2024-04-19_18h40.58.953,stockport_simplified,2022.2.4,Win32,75.18796992,661e456ee6de07e70aa9ef7b,66229d97fbe898816def3226,,,,,,,,,,,,,,,,,,,,,,,,,,,,,,,,,,142.6334,147.2249,"[3,8,6,1,4,2,7,5]","[[0.3,0.2],[-0.3,0.2]]","[[0.125,-0.2],[-0.125,-0.2]]",0.139814815,-0.202777778,1,0,0,4.0846,o1_image,147.2299,1,147.7321,147.7321,149.7294,0,0,0,0,1,,,,,,,,,,,,,,,,,,,,,,,,,,,,,,,,,,,,,,,,,,,,,,,,,,
,,5ead89a08a4c3741712fb05b,42,male,2024-04-19_18h40.58.953,stockport_simplified,2022.2.4,Win32,75.18796992,661e456ee6de07e70aa9ef7b,66229d97fbe898816def3226,,,,,,,,,,,,,,,,,,,,,,,,,,,,,,,,,,,,,,,,,,,,,,,,,,,,,,,,0,3,3,4,1,A,X,N,o1_image,stimuli/out1.png,stimuli/correct_out1.png,stimuli/out2.png,,,,,,,,,,,,,,,,,,,,,,,,,,,,,,,,,,,,,,
,,5ead89a08a4c3741712fb05b,42,male,2024-04-19_18h40.58.953,stockport_simplified,2022.2.4,Win32,75.18796992,661e456ee6de07e70aa9ef7b,66229d97fbe898816def3226,,,,,,,,,,,,,,,,,,,,,,,,,,,,,,,,,,149.7296,157.199,"[3,8,6,1,4,2,7,5]","[[-0.3,0.2],[0.3,0.2]]","[[-0.125,-0.2],[0.125,-0.2]]",-0.10462963,-0.212962963,1,0,0,6.9595,o1_image,157.2044,1,157.7061,157.7061,159.7067,0,0,0,0,1,,,,,,,,,,,,,,,,,,,,,,,,,,,,,,,,,,,,,,,,,,,,,,,,,,
,,5ead89a08a4c3741712fb05b,42,male,2024-04-19_18h40.58.953,stockport_simplified,2022.2.4,Win32,75.18796992,661e456ee6de07e70aa9ef7b,66229d97fbe898816def3226,,,,,,,,,,,,,,,,,,,,,,,,,,,,,,,,,,,,,,,,,,,,,,,,,,,,,,,,0,4,4,36,1,A,Y,N,o1_image,stimuli/out1.png,stimuli/correct_out1.png,stimuli/out2.png,,,,,,,,,,,,,,,,,,,,,,,,,,,,,,,,,,,,,,
,,5ead89a08a4c3741712fb05b,42,male,2024-04-19_18h40.58.953,stockport_simplified,2022.2.4,Win32,75.18796992,661e456ee6de07e70aa9ef7b,66229d97fbe898816def3226,,,,,,,,,,,,,,,,,,,,,,,,,,,,,,,,,,159.707,162.3378,"[3,8,6,1,4,2,7,5]","[[-0.3,0.2],[0.3,0.2]]","[[0.125,-0.2],[-0.125,-0.2]]",0.155555556,-0.186111111,1,0,0,2.1215,o1_image,162.3382,1,162.8316,162.8316,164.8305,0,0,0,0,1,,,,,,,,,,,,,,,,,,,,,,,,,,,,,,,,,,,,,,,,,,,,,,,,,,
,,5ead89a08a4c3741712fb05b,42,male,2024-04-19_18h40.58.953,stockport_simplified,2022.2.4,Win32,75.18796992,661e456ee6de07e70aa9ef7b,66229d97fbe898816def3226,,,,,,,,,,,,,,,,,,,,,,,,,,,,,,,,,,,,,,,,,,,,,,,,,,,,,,,,0,5,5,1,1,A,X,N,o1_image,stimuli/out1.png,stimuli/correct_out1.png,stimuli/out2.png,,,,,,,,,,,,,,,,,,,,,,,,,,,,,,,,,,,,,,
,,5ead89a08a4c3741712fb05b,42,male,2024-04-19_18h40.58.953,stockport_simplified,2022.2.4,Win32,75.18796992,661e456ee6de07e70aa9ef7b,66229d97fbe898816def3226,,,,,,,,,,,,,,,,,,,,,,,,,,,,,,,,,,164.8307,166.8195,"[3,8,6,1,4,2,7,5]","[[0.3,0.2],[-0.3,0.2]]","[[-0.125,-0.2],[0.125,-0.2]]",0.136111111,-0.218518519,1,0,0,1.4806,o2_image,166.8198,1,167.3129,167.313,169.3138,0,0,0,0,1,,,,,,,,,,,,,,,,,,,,,,,,,,,,,,,,,,,,,,,,,,,,,,,,,,
,,5ead89a08a4c3741712fb05b,42,male,2024-04-19_18h40.58.953,stockport_simplified,2022.2.4,Win32,75.18796992,661e456ee6de07e70aa9ef7b,66229d97fbe898816def3226,,,,,,,,,,,,,,,,,,,,,,,,,,,,,,,,,,,,,,,,,,,,,,,,,,,,,,,,0,6,6,27,1,N,M,D,o2_image,stimuli/out2.png,stimuli/out1.png,stimuli/correct_out2.png,,,,,,,,,,,,,,,,,,,,,,,,,,,,,,,,,,,,,,
,,5ead89a08a4c3741712fb05b,42,male,2024-04-19_18h40.58.953,stockport_simplified,2022.2.4,Win32,75.18796992,661e456ee6de07e70aa9ef7b,66229d97fbe898816def3226,,,,,,,,,,,,,,,,,,,,,,,,,,,,,,,,,,169.314,171.3647,"[3,8,6,1,4,2,7,5]","[[0.3,0.2],[-0.3,0.2]]","[[0.125,-0.2],[-0.125,-0.2]]",-0.110185185,-0.190740741,1,0,0,1.5439,o2_image,171.365,1,171.8613,171.8613,173.8591,0,0,0,0,1,,,,,,,,,,,,,,,,,,,,,,,,,,,,,,,,,,,,,,,,,,,,,,,,,,
,,5ead89a08a4c3741712fb05b,42,male,2024-04-19_18h40.58.953,stockport_simplified,2022.2.4,Win32,75.18796992,661e456ee6de07e70aa9ef7b,66229d97fbe898816def3226,,,,,,,,,,,,,,,,,,,,,,,,,,,,,,,,,,,,,,,,,,,,,,,,,,,,,,,,0,7,7,55,1,N,M,D,o2_image,stimuli/out2.png,stimuli/out1.png,stimuli/correct_out2.png,,,,,,,,,,,,,,,,,,,,,,,,,,,,,,,,,,,,,,
,,5ead89a08a4c3741712fb05b,42,male,2024-04-19_18h40.58.953,stockport_simplified,2022.2.4,Win32,75.18796992,661e456ee6de07e70aa9ef7b,66229d97fbe898816def3226,,,,,,,,,,,,,,,,,,,,,,,,,,,,,,,,,,173.8592,177.7813,"[3,8,6,1,4,2,7,5]","[[-0.3,0.2],[0.3,0.2]]","[[0.125,-0.2],[-0.125,-0.2]]",0.147222222,-0.205555556,1,0,0,3.4151,o1_image,177.7867,0,178.2878,178.2878,180.2885,0,0,0,0,1,,,,,,,,,,,,,,,,,,,,,,,,,,,,,,,,,,,,,,,,,,,,,,,,,,
,,5ead89a08a4c3741712fb05b,42,male,2024-04-19_18h40.58.953,stockport_simplified,2022.2.4,Win32,75.18796992,661e456ee6de07e70aa9ef7b,66229d97fbe898816def3226,,,,,,,,,,,,,,,,,,,,,,,,,,,,,,,,,,,,,,,,,,,,,,,,,,,,,,,,0,8,8,46,1,B,Y,N,o2_image,stimuli/out2.png,stimuli/out1.png,stimuli/correct_out2.png,,,,,,,,,,,,,,,,,,,,,,,,,,,,,,,,,,,,,,
,,5ead89a08a4c3741712fb05b,42,male,2024-04-19_18h40.58.953,stockport_simplified,2022.2.4,Win32,75.18796992,661e456ee6de07e70aa9ef7b,66229d97fbe898816def3226,,,,,,,,,,,,,,,,,,,,,,,,,,,,,,,,,,180.2886,186.4374,"[3,8,6,1,4,2,7,5]","[[0.3,0.2],[-0.3,0.2]]","[[-0.125,-0.2],[0.125,-0.2]]",0.146296296,-0.206481481,1,0,0,5.6412,o2_image,186.4424,1,186.9441,186.9441,188.9449,0,0,0,0,1,,,,,,,,,,,,,,,,,,,,,,,,,,,,,,,,,,,,,,,,,,,,,,,,,,
,,5ead89a08a4c3741712fb05b,42,male,2024-04-19_18h40.58.953,stockport_simplified,2022.2.4,Win32,75.18796992,661e456ee6de07e70aa9ef7b,66229d97fbe898816def3226,,,,,,,,,,,,,,,,,,,,,,,,,,,,,,,,,,,,,,,,,,,,,,,,,,,,,,,,0,9,9,15,1,B,Y,N,o2_image,stimuli/out2.png,stimuli/out1.png,stimuli/correct_out2.png,,,,,,,,,,,,,,,,,,,,,,,,,,,,,,,,,,,,,,
,,5ead89a08a4c3741712fb05b,42,male,2024-04-19_18h40.58.953,stockport_simplified,2022.2.4,Win32,75.18796992,661e456ee6de07e70aa9ef7b,66229d97fbe898816def3226,,,,,,,,,,,,,,,,,,,,,,,,,,,,,,,,,,188.9453,193.787,"[3,8,6,1,4,2,7,5]","[[0.3,0.2],[-0.3,0.2]]","[[0.125,-0.2],[-0.125,-0.2]]",-0.203703704,-0.158333333,1,0,0,4.3345,o2_image,193.7873,1,194.2805,194.2805,196.2813,0,0,0,0,1,,,,,,,,,,,,,,,,,,,,,,,,,,,,,,,,,,,,,,,,,,,,,,,,,,
,,5ead89a08a4c3741712fb05b,42,male,2024-04-19_18h40.58.953,stockport_simplified,2022.2.4,Win32,75.18796992,661e456ee6de07e70aa9ef7b,66229d97fbe898816def3226,,,,,,,,,,,,,,,,,,,,,,,,,,,,,,,,,,,,,,,,,,,,,,,,,,,,,,,,0,10,10,57,1,N,M,D,o2_image,stimuli/out2.png,stimuli/out1.png,stimuli/correct_out2.png,,,,,,,,,,,,,,,,,,,,,,,,,,,,,,,,,,,,,,
,,5ead89a08a4c3741712fb05b,42,male,2024-04-19_18h40.58.953,stockport_simplified,2022.2.4,Win32,75.18796992,661e456ee6de07e70aa9ef7b,66229d97fbe898816def3226,,,,,,,,,,,,,,,,,,,,,,,,,,,,,,,,,,196.2815,200.9395,"[3,8,6,1,4,2,7,5]","[[0.3,0.2],[-0.3,0.2]]","[[0.125,-0.2],[-0.125,-0.2]]",0.115740741,-0.205555556,1,0,0,4.1513,o1_image,200.9448,0,201.4433,201.4433,203.4442,0,0,0,0,1,,,,,,,,,,,,,,,,,,,,,,,,,,,,,,,,,,,,,,,,,,,,,,,,,,
,,5ead89a08a4c3741712fb05b,42,male,2024-04-19_18h40.58.953,stockport_simplified,2022.2.4,Win32,75.18796992,661e456ee6de07e70aa9ef7b,66229d97fbe898816def3226,,,,,,,,,,,,,,,,,,,,,,,,,,,,,,,,,,,,,,,,,,,,,,,,,,,,,,,,0,11,11,49,1,B,Y,N,o2_image,stimuli/out2.png,stimuli/out1.png,stimuli/correct_out2.png,,,,,,,,,,,,,,,,,,,,,,,,,,,,,,,,,,,,,,
,,5ead89a08a4c3741712fb05b,42,male,2024-04-19_18h40.58.953,stockport_simplified,2022.2.4,Win32,75.18796992,661e456ee6de07e70aa9ef7b,66229d97fbe898816def3226,,,,,,,,,,,,,,,,,,,,,,,,,,,,,,,,,,203.4444,205.7521,"[3,8,6,1,4,2,7,5]","[[-0.3,0.2],[0.3,0.2]]","[[0.125,-0.2],[-0.125,-0.2]]",0.125,-0.214814815,1,0,0,1.8008,o1_image,205.7524,1,206.2456,206.2456,208.246,0,0,0,0,1,,,,,,,,,,,,,,,,,,,,,,,,,,,,,,,,,,,,,,,,,,,,,,,,,,
,,5ead89a08a4c3741712fb05b,42,male,2024-04-19_18h40.58.953,stockport_simplified,2022.2.4,Win32,75.18796992,661e456ee6de07e70aa9ef7b,66229d97fbe898816def3226,,,,,,,,,,,,,,,,,,,,,,,,,,,,,,,,,,,,,,,,,,,,,,,,,,,,,,,,0,12,12,32,1,A,X,N,o1_image,stimuli/out1.png,stimuli/correct_out1.png,stimuli/out2.png,,,,,,,,,,,,,,,,,,,,,,,,,,,,,,,,,,,,,,
,,5ead89a08a4c3741712fb05b,42,male,2024-04-19_18h40.58.953,stockport_simplified,2022.2.4,Win32,75.18796992,661e456ee6de07e70aa9ef7b,66229d97fbe898816def3226,,,,,,,,,,,,,,,,,,,,,,,,,,,,,,,,,,208.2463,215.5956,"[3,8,6,1,4,2,7,5]","[[-0.3,0.2],[0.3,0.2]]","[[-0.125,-0.2],[0.125,-0.2]]",0.15,-0.214814815,1,0,0,6.8427,o2_image,215.6011,1,216.1028,216.1028,218.1037,0,0,0,0,1,,,,,,,,,,,,,,,,,,,,,,,,,,,,,,,,,,,,,,,,,,,,,,,,,,
,,5ead89a08a4c3741712fb05b,42,male,2024-04-19_18h40.58.953,stockport_simplified,2022.2.4,Win32,75.18796992,661e456ee6de07e70aa9ef7b,66229d97fbe898816def3226,,,,,,,,,,,,,,,,,,,,,,,,,,,,,,,,,,,,,,,,,,,,,,,,,,,,,,,,0,13,13,41,1,B,X,N,o2_image,stimuli/out2.png,stimuli/out1.png,stimuli/correct_out2.png,,,,,,,,,,,,,,,,,,,,,,,,,,,,,,,,,,,,,,
,,5ead89a08a4c3741712fb05b,42,male,2024-04-19_18h40.58.953,stockport_simplified,2022.2.4,Win32,75.18796992,661e456ee6de07e70aa9ef7b,66229d97fbe898816def3226,,,,,,,,,,,,,,,,,,,,,,,,,,,,,,,,,,218.1038,220.2375,"[3,8,6,1,4,2,7,5]","[[-0.3,0.2],[0.3,0.2]]","[[0.125,-0.2],[-0.125,-0.2]]",-0.093518519,-0.198148148,1,0,0,1.6269,o2_image,220.2377,1,220.731,220.731,222.7323,0,0,0,0,1,,,,,,,,,,,,,,,,,,,,,,,,,,,,,,,,,,,,,,,,,,,,,,,,,,
,,5ead89a08a4c3741712fb05b,42,male,2024-04-19_18h40.58.953,stockport_simplified,2022.2.4,Win32,75.18796992,661e456ee6de07e70aa9ef7b,66229d97fbe898816def3226,,,,,,,,,,,,,,,,,,,,,,,,,,,,,,,,,,,,,,,,,,,,,,,,,,,,,,,,0,14,14,29,1,N,M,D,o2_image,stimuli/out2.png,stimuli/out1.png,stimuli/correct_out2.png,,,,,,,,,,,,,,,,,,,,,,,,,,,,,,,,,,,,,,
,,5ead89a08a4c3741712fb05b,42,male,2024-04-19_18h40.58.953,stockport_simplified,2022.2.4,Win32,75.18796992,661e456ee6de07e70aa9ef7b,66229d97fbe898816def3226,,,,,,,,,,,,,,,,,,,,,,,,,,,,,,,,,,222.7324,226.5733,"[3,8,6,1,4,2,7,5]","[[-0.3,0.2],[0.3,0.2]]","[[-0.125,-0.2],[0.125,-0.2]]",-0.112962963,-0.202777778,1,0,0,3.3344,o1_image,226.5783,1,227.0805,227.0805,229.0811,0,0,0,0,1,,,,,,,,,,,,,,,,,,,,,,,,,,,,,,,,,,,,,,,,,,,,,,,,,,
,,5ead89a08a4c3741712fb05b,42,male,2024-04-19_18h40.58.953,stockport_simplified,2022.2.4,Win32,75.18796992,661e456ee6de07e70aa9ef7b,66229d97fbe898816def3226,,,,,,,,,,,,,,,,,,,,,,,,,,,,,,,,,,,,,,,,,,,,,,,,,,,,,,,,0,15,15,31,1,A,X,N,o1_image,stimuli/out1.png,stimuli/correct_out1.png,stimuli/out2.png,,,,,,,,,,,,,,,,,,,,,,,,,,,,,,,,,,,,,,
,,5ead89a08a4c3741712fb05b,42,male,2024-04-19_18h40.58.953,stockport_simplified,2022.2.4,Win32,75.18796992,661e456ee6de07e70aa9ef7b,66229d97fbe898816def3226,,,,,,,,,,,,,,,,,,,,,,,,,,,,,,,,,,229.0813,231.7356,"[3,8,6,1,4,2,7,5]","[[-0.3,0.2],[0.3,0.2]]","[[-0.125,-0.2],[0.125,-0.2]]",0.125925926,-0.196296296,1,0,0,2.1468,o2_image,231.7406,1,232.2422,232.2422,234.2436,0,0,0,0,1,,,,,,,,,,,,,,,,,,,,,,,,,,,,,,,,,,,,,,,,,,,,,,,,,,
,,5ead89a08a4c3741712fb05b,42,male,2024-04-19_18h40.58.953,stockport_simplified,2022.2.4,Win32,75.18796992,661e456ee6de07e70aa9ef7b,66229d97fbe898816def3226,,,,,,,,,,,,,,,,,,,,,,,,,,,,,,,,,,,,,,,,,,,,,,,,,,,,,,,,0,16,16,28,1,N,M,D,o2_image,stimuli/out2.png,stimuli/out1.png,stimuli/correct_out2.png,,,,,,,,,,,,,,,,,,,,,,,,,,,,,,,,,,,,,,
,,5ead89a08a4c3741712fb05b,42,male,2024-04-19_18h40.58.953,stockport_simplified,2022.2.4,Win32,75.18796992,661e456ee6de07e70aa9ef7b,66229d97fbe898816def3226,,,,,,,,,,,,,,,,,,,,,,,,,,,,,,,,,,234.2439,239.2981,"[3,8,6,1,4,2,7,5]","[[-0.3,0.2],[0.3,0.2]]","[[-0.125,-0.2],[0.125,-0.2]]",-0.103703704,-0.173148148,1,0,0,4.5481,o1_image,239.3031,1,239.8051,239.8051,241.8058,0,0,0,0,1,,,,,,,,,,,,,,,,,,,,,,,,,,,,,,,,,,,,,,,,,,,,,,,,,,
,,5ead89a08a4c3741712fb05b,42,male,2024-04-19_18h40.58.953,stockport_simplified,2022.2.4,Win32,75.18796992,661e456ee6de07e70aa9ef7b,66229d97fbe898816def3226,,,,,,,,,,,,,,,,,,,,,,,,,,,,,,,,,,,,,,,,,,,,,,,,,,,,,,,,0,17,17,39,1,A,Y,N,o1_image,stimuli/out1.png,stimuli/correct_out1.png,stimuli/out2.png,,,,,,,,,,,,,,,,,,,,,,,,,,,,,,,,,,,,,,
,,5ead89a08a4c3741712fb05b,42,male,2024-04-19_18h40.58.953,stockport_simplified,2022.2.4,Win32,75.18796992,661e456ee6de07e70aa9ef7b,66229d97fbe898816def3226,,,,,,,,,,,,,,,,,,,,,,,,,,,,,,,,,,241.806,246.6612,"[3,8,6,1,4,2,7,5]","[[-0.3,0.2],[0.3,0.2]]","[[-0.125,-0.2],[0.125,-0.2]]",-0.135185185,-0.175,1,0,0,4.3483,o1_image,246.6662,1,247.168,247.168,249.1689,0,0,0,0,1,,,,,,,,,,,,,,,,,,,,,,,,,,,,,,,,,,,,,,,,,,,,,,,,,,
,,5ead89a08a4c3741712fb05b,42,male,2024-04-19_18h40.58.953,stockport_simplified,2022.2.4,Win32,75.18796992,661e456ee6de07e70aa9ef7b,66229d97fbe898816def3226,,,,,,,,,,,,,,,,,,,,,,,,,,,,,,,,,,,,,,,,,,,,,,,,,,,,,,,,0,18,18,38,1,A,Y,N,o1_image,stimuli/out1.png,stimuli/correct_out1.png,stimuli/out2.png,,,,,,,,,,,,,,,,,,,,,,,,,,,,,,,,,,,,,,
,,5ead89a08a4c3741712fb05b,42,male,2024-04-19_18h40.58.953,stockport_simplified,2022.2.4,Win32,75.18796992,661e456ee6de07e70aa9ef7b,66229d97fbe898816def3226,,,,,,,,,,,,,,,,,,,,,,,,,,,,,,,,,,249.1691,254.0906,"[3,8,6,1,4,2,7,5]","[[0.3,0.2],[-0.3,0.2]]","[[-0.125,-0.2],[0.125,-0.2]]",0.112962963,-0.197222222,1,0,0,4.4145,o2_image,254.0956,0,254.6007,254.6007,256.6014,0,0,0,0,1,,,,,,,,,,,,,,,,,,,,,,,,,,,,,,,,,,,,,,,,,,,,,,,,,,
,,5ead89a08a4c3741712fb05b,42,male,2024-04-19_18h40.58.953,stockport_simplified,2022.2.4,Win32,75.18796992,661e456ee6de07e70aa9ef7b,66229d97fbe898816def3226,,,,,,,,,,,,,,,,,,,,,,,,,,,,,,,,,,,,,,,,,,,,,,,,,,,,,,,,0,19,19,50,1,N,M,C,o1_image,stimuli/out1.png,stimuli/correct_out1.png,stimuli/out2.png,,,,,,,,,,,,,,,,,,,,,,,,,,,,,,,,,,,,,,
,,5ead89a08a4c3741712fb05b,42,male,2024-04-19_18h40.58.953,stockport_simplified,2022.2.4,Win32,75.18796992,661e456ee6de07e70aa9ef7b,66229d97fbe898816def3226,,,,,,,,,,,,,,,,,,,,,,,,,,,,,,,,,,256.6016,261.9509,"[3,8,6,1,4,2,7,5]","[[-0.3,0.2],[0.3,0.2]]","[[0.125,-0.2],[-0.125,-0.2]]",0.111111111,-0.184259259,1,0,0,4.8425,o1_image,261.9559,1,262.4541,262.4541,264.4551,0,0,0,0,1,,,,,,,,,,,,,,,,,,,,,,,,,,,,,,,,,,,,,,,,,,,,,,,,,,
,,5ead89a08a4c3741712fb05b,42,male,2024-04-19_18h40.58.953,stockport_simplified,2022.2.4,Win32,75.18796992,661e456ee6de07e70aa9ef7b,66229d97fbe898816def3226,,,,,,,,,,,,,,,,,,,,,,,,,,,,,,,,,,,,,,,,,,,,,,,,,,,,,,,,0,20,20,3,1,A,X,N,o1_image,stimuli/out1.png,stimuli/correct_out1.png,stimuli/out2.png,,,,,,,,,,,,,,,,,,,,,,,,,,,,,,,,,,,,,,
,,5ead89a08a4c3741712fb05b,42,male,2024-04-19_18h40.58.953,stockport_simplified,2022.2.4,Win32,75.18796992,661e456ee6de07e70aa9ef7b,66229d97fbe898816def3226,,,,,,,,,,,,,,,,,,,,,,,,,,,,,,,,,,264.4553,268.7899,"[3,8,6,1,4,2,7,5]","[[0.3,0.2],[-0.3,0.2]]","[[-0.125,-0.2],[0.125,-0.2]]",-0.092592593,-0.177777778,1,0,0,3.8278,o1_image,268.795,1,269.2977,269.2977,271.2981,0,0,0,0,1,,,,,,,,,,,,,,,,,,,,,,,,,,,,,,,,,,,,,,,,,,,,,,,,,,
,,5ead89a08a4c3741712fb05b,42,male,2024-04-19_18h40.58.953,stockport_simplified,2022.2.4,Win32,75.18796992,661e456ee6de07e70aa9ef7b,66229d97fbe898816def3226,,,,,,,,,,,,,,,,,,,,,,,,,,,,,,,,,,,,,,,,,,,,,,,,,,,,,,,,0,21,21,8,1,A,Y,N,o1_image,stimuli/out1.png,stimuli/correct_out1.png,stimuli/out2.png,,,,,,,,,,,,,,,,,,,,,,,,,,,,,,,,,,,,,,
,,5ead89a08a4c3741712fb05b,42,male,2024-04-19_18h40.58.953,stockport_simplified,2022.2.4,Win32,75.18796992,661e456ee6de07e70aa9ef7b,66229d97fbe898816def3226,,,,,,,,,,,,,,,,,,,,,,,,,,,,,,,,,,271.2984,273.0182,"[3,8,6,1,4,2,7,5]","[[-0.3,0.2],[0.3,0.2]]","[[-0.125,-0.2],[0.125,-0.2]]",-0.092592593,-0.177777778,1,0,0,1.2133,o1_image,273.0185,1,273.512,273.512,275.5127,0,0,0,0,1,,,,,,,,,,,,,,,,,,,,,,,,,,,,,,,,,,,,,,,,,,,,,,,,,,
,,5ead89a08a4c3741712fb05b,42,male,2024-04-19_18h40.58.953,stockport_simplified,2022.2.4,Win32,75.18796992,661e456ee6de07e70aa9ef7b,66229d97fbe898816def3226,,,,,,,,,,,,,,,,,,,,,,,,,,,,,,,,,,,,,,,,,,,,,,,,,,,,,,,,0,22,22,24,1,N,M,C,o1_image,stimuli/out1.png,stimuli/correct_out1.png,stimuli/out2.png,,,,,,,,,,,,,,,,,,,,,,,,,,,,,,,,,,,,,,
,,5ead89a08a4c3741712fb05b,42,male,2024-04-19_18h40.58.953,stockport_simplified,2022.2.4,Win32,75.18796992,661e456ee6de07e70aa9ef7b,66229d97fbe898816def3226,,,,,,,,,,,,,,,,,,,,,,,,,,,,,,,,,,275.513,277.7137,"[3,8,6,1,4,2,7,5]","[[0.3,0.2],[-0.3,0.2]]","[[-0.125,-0.2],[0.125,-0.2]]",-0.107407407,-0.182407407,1,0,0,1.6944,o1_image,277.7187,1,278.2205,278.2205,280.2214,0,0,0,0,1,,,,,,,,,,,,,,,,,,,,,,,,,,,,,,,,,,,,,,,,,,,,,,,,,,
,,5ead89a08a4c3741712fb05b,42,male,2024-04-19_18h40.58.953,stockport_simplified,2022.2.4,Win32,75.18796992,661e456ee6de07e70aa9ef7b,66229d97fbe898816def3226,,,,,,,,,,,,,,,,,,,,,,,,,,,,,,,,,,,,,,,,,,,,,,,,,,,,,,,,0,23,23,53,1,N,M,C,o1_image,stimuli/out1.png,stimuli/correct_out1.png,stimuli/out2.png,,,,,,,,,,,,,,,,,,,,,,,,,,,,,,,,,,,,,,
,,5ead89a08a4c3741712fb05b,42,male,2024-04-19_18h40.58.953,stockport_simplified,2022.2.4,Win32,75.18796992,661e456ee6de07e70aa9ef7b,66229d97fbe898816def3226,,,,,,,,,,,,,,,,,,,,,,,,,,,,,,,,,,280.2215,291.7189,"[3,8,6,1,4,2,7,5]","[[0.3,0.2],[-0.3,0.2]]","[[0.125,-0.2],[-0.125,-0.2]]",,,,,,,,,,,,,,,,,,0,24,24,43,1,B,X,N,o2_image,stimuli/out2.png,stimuli/out1.png,stimuli/correct_out2.png,,,,,,,,,,,,,,,,,,,,,,,,,,,,,,,,,,,,,,
,,5ead89a08a4c3741712fb05b,42,male,2024-04-19_18h40.58.953,stockport_simplified,2022.2.4,Win32,75.18796992,661e456ee6de07e70aa9ef7b,66229d97fbe898816def3226,,,,,,,,,,,,,,,,,,,,,,,,,,,,,,,,,,291.7245,293.9366,"[3,8,6,1,4,2,7,5]","[[-0.3,0.2],[0.3,0.2]]","[[-0.125,-0.2],[0.125,-0.2]]",0.127777778,-0.185185185,1,0,0,1.707,o2_image,293.9369,1,294.4434,294.4435,296.4444,0,0,0,0,1,,,,,,,,,,,,,,,,,,,,,,,,,,,,,,,,,,,,,,,,,,,,,,,,,,
,,5ead89a08a4c3741712fb05b,42,male,2024-04-19_18h40.58.953,stockport_simplified,2022.2.4,Win32,75.18796992,661e456ee6de07e70aa9ef7b,66229d97fbe898816def3226,,,,,,,,,,,,,,,,,,,,,,,,,,,,,,,,,,,,,,,,,,,,,,,,,,,,,,,,0,25,25,58,1,N,M,D,o2_image,stimuli/out2.png,stimuli/out1.png,stimuli/correct_out2.png,,,,,,,,,,,,,,,,,,,,,,,,,,,,,,,,,,,,,,
,,5ead89a08a4c3741712fb05b,42,male,2024-04-19_18h40.58.953,stockport_simplified,2022.2.4,Win32,75.18796992,661e456ee6de07e70aa9ef7b,66229d97fbe898816def3226,,,,,,,,,,,,,,,,,,,,,,,,,,,,,,,,,,296.4447,298.8953,"[3,8,6,1,4,2,7,5]","[[-0.3,0.2],[0.3,0.2]]","[[0.125,-0.2],[-0.125,-0.2]]",-0.14537037,-0.208333333,1,0,0,1.9452,o2_image,298.8956,0,299.3888,299.3888,301.3796,0,0,0,0,1,,,,,,,,,,,,,,,,,,,,,,,,,,,,,,,,,,,,,,,,,,,,,,,,,,
,,5ead89a08a4c3741712fb05b,42,male,2024-04-19_18h40.58.953,stockport_simplified,2022.2.4,Win32,75.18796992,661e456ee6de07e70aa9ef7b,66229d97fbe898816def3226,,,,,,,,,,,,,,,,,,,,,,,,,,,,,,,,,,,,,,,,,,,,,,,,,,,,,,,,0,26,26,20,1,N,M,C,o1_image,stimuli/out1.png,stimuli/correct_out1.png,stimuli/out2.png,,,,,,,,,,,,,,,,,,,,,,,,,,,,,,,,,,,,,,
,,5ead89a08a4c3741712fb05b,42,male,2024-04-19_18h40.58.953,stockport_simplified,2022.2.4,Win32,75.18796992,661e456ee6de07e70aa9ef7b,66229d97fbe898816def3226,,,,,,,,,,,,,,,,,,,,,,,,,,,,,,,,,,301.3798,304.1106,"[3,8,6,1,4,2,7,5]","[[0.3,0.2],[-0.3,0.2]]","[[-0.125,-0.2],[0.125,-0.2]]",-0.087962963,-0.188888889,1,0,0,2.224,o1_image,304.1155,0,304.6071,304.6071,306.605,0,0,0,0,1,,,,,,,,,,,,,,,,,,,,,,,,,,,,,,,,,,,,,,,,,,,,,,,,,,
,,5ead89a08a4c3741712fb05b,42,male,2024-04-19_18h40.58.953,stockport_simplified,2022.2.4,Win32,75.18796992,661e456ee6de07e70aa9ef7b,66229d97fbe898816def3226,,,,,,,,,,,,,,,,,,,,,,,,,,,,,,,,,,,,,,,,,,,,,,,,,,,,,,,,0,27,27,18,1,B,Y,N,o2_image,stimuli/out2.png,stimuli/out1.png,stimuli/correct_out2.png,,,,,,,,,,,,,,,,,,,,,,,,,,,,,,,,,,,,,,
,,5ead89a08a4c3741712fb05b,42,male,2024-04-19_18h40.58.953,stockport_simplified,2022.2.4,Win32,75.18796992,661e456ee6de07e70aa9ef7b,66229d97fbe898816def3226,,,,,,,,,,,,,,,,,,,,,,,,,,,,,,,,,,306.6053,309.1924,"[3,8,6,1,4,2,7,5]","[[0.3,0.2],[-0.3,0.2]]","[[-0.125,-0.2],[0.125,-0.2]]",0.089814815,-0.212037037,1,0,0,2.0775,o2_image,309.1929,0,309.6895,309.6896,311.6899,0,0,0,0,1,,,,,,,,,,,,,,,,,,,,,,,,,,,,,,,,,,,,,,,,,,,,,,,,,,
,,5ead89a08a4c3741712fb05b,42,male,2024-04-19_18h40.58.953,stockport_simplified,2022.2.4,Win32,75.18796992,661e456ee6de07e70aa9ef7b,66229d97fbe898816def3226,,,,,,,,,,,,,,,,,,,,,,,,,,,,,,,,,,,,,,,,,,,,,,,,,,,,,,,,0,28,28,9,1,A,Y,N,o1_image,stimuli/out1.png,stimuli/correct_out1.png,stimuli/out2.png,,,,,,,,,,,,,,,,,,,,,,,,,,,,,,,,,,,,,,
,,5ead89a08a4c3741712fb05b,42,male,2024-04-19_18h40.58.953,stockport_simplified,2022.2.4,Win32,75.18796992,661e456ee6de07e70aa9ef7b,66229d97fbe898816def3226,,,,,,,,,,,,,,,,,,,,,,,,,,,,,,,,,,311.6901,316.5053,"[3,8,6,1,4,2,7,5]","[[-0.3,0.2],[0.3,0.2]]","[[-0.125,-0.2],[0.125,-0.2]]",-0.153703704,-0.210185185,1,0,0,4.3113,o1_image,316.5102,0,317.009,317.009,318.9998,0,0,0,0,1,,,,,,,,,,,,,,,,,,,,,,,,,,,,,,,,,,,,,,,,,,,,,,,,,,
,,5ead89a08a4c3741712fb05b,42,male,2024-04-19_18h40.58.953,stockport_simplified,2022.2.4,Win32,75.18796992,661e456ee6de07e70aa9ef7b,66229d97fbe898816def3226,,,,,,,,,,,,,,,,,,,,,,,,,,,,,,,,,,,,,,,,,,,,,,,,,,,,,,,,0,29,29,17,1,B,Y,N,o2_image,stimuli/out2.png,stimuli/out1.png,stimuli/correct_out2.png,,,,,,,,,,,,,,,,,,,,,,,,,,,,,,,,,,,,,,
,,5ead89a08a4c3741712fb05b,42,male,2024-04-19_18h40.58.953,stockport_simplified,2022.2.4,Win32,75.18796992,661e456ee6de07e70aa9ef7b,66229d97fbe898816def3226,,,,,,,,,,,,,,,,,,,,,,,,,,,,,,,,,,319,322.3342,"[3,8,6,1,4,2,7,5]","[[0.3,0.2],[-0.3,0.2]]","[[0.125,-0.2],[-0.125,-0.2]]",-0.080555556,-0.209259259,1,0,0,2.8274,o2_image,322.3391,1,322.838,322.838,324.8286,0,0,0,0,1,,,,,,,,,,,,,,,,,,,,,,,,,,,,,,,,,,,,,,,,,,,,,,,,,,
,,5ead89a08a4c3741712fb05b,42,male,2024-04-19_18h40.58.953,stockport_simplified,2022.2.4,Win32,75.18796992,661e456ee6de07e70aa9ef7b,66229d97fbe898816def3226,,,,,,,,,,,,,,,,,,,,,,,,,,,,,,,,,,,,,,,,,,,,,,,,,,,,,,,,0,30,30,56,1,N,M,D,o2_image,stimuli/out2.png,stimuli/out1.png,stimuli/correct_out2.png,,,,,,,,,,,,,,,,,,,,,,,,,,,,,,,,,,,,,,
,,5ead89a08a4c3741712fb05b,42,male,2024-04-19_18h40.58.953,stockport_simplified,2022.2.4,Win32,75.18796992,661e456ee6de07e70aa9ef7b,66229d97fbe898816def3226,,,,,,,,,,,,,,,,,,,,,,,,,,,,,,,,,,324.8288,326.7862,"[3,8,6,1,4,2,7,5]","[[-0.3,0.2],[0.3,0.2]]","[[-0.125,-0.2],[0.125,-0.2]]",0.144444444,-0.186111111,1,0,0,1.4538,o2_image,326.7865,1,327.2827,327.2827,329.2804,0,0,0,0,1,,,,,,,,,,,,,,,,,,,,,,,,,,,,,,,,,,,,,,,,,,,,,,,,,,
,,5ead89a08a4c3741712fb05b,42,male,2024-04-19_18h40.58.953,stockport_simplified,2022.2.4,Win32,75.18796992,661e456ee6de07e70aa9ef7b,66229d97fbe898816def3226,,,,,,,,,,,,,,,,,,,,,,,,,,,,,,,,,,,,,,,,,,,,,,,,,,,,,,,,0,31,31,59,1,N,M,D,o2_image,stimuli/out2.png,stimuli/out1.png,stimuli/correct_out2.png,,,,,,,,,,,,,,,,,,,,,,,,,,,,,,,,,,,,,,
,,5ead89a08a4c3741712fb05b,42,male,2024-04-19_18h40.58.953,stockport_simplified,2022.2.4,Win32,75.18796992,661e456ee6de07e70aa9ef7b,66229d97fbe898816def3226,,,,,,,,,,,,,,,,,,,,,,,,,,,,,,,,,,329.2807,333.8189,"[3,8,6,1,4,2,7,5]","[[-0.3,0.2],[0.3,0.2]]","[[-0.125,-0.2],[0.125,-0.2]]",-0.131481481,-0.174074074,1,0,0,4.0312,o1_image,333.8238,0,334.323,334.323,336.3233,0,0,0,0,1,,,,,,,,,,,,,,,,,,,,,,,,,,,,,,,,,,,,,,,,,,,,,,,,,,
,,5ead89a08a4c3741712fb05b,42,male,2024-04-19_18h40.58.953,stockport_simplified,2022.2.4,Win32,75.18796992,661e456ee6de07e70aa9ef7b,66229d97fbe898816def3226,,,,,,,,,,,,,,,,,,,,,,,,,,,,,,,,,,,,,,,,,,,,,,,,,,,,,,,,0,32,32,45,1,B,Y,N,o2_image,stimuli/out2.png,stimuli/out1.png,stimuli/correct_out2.png,,,,,,,,,,,,,,,,,,,,,,,,,,,,,,,,,,,,,,
,,5ead89a08a4c3741712fb05b,42,male,2024-04-19_18h40.58.953,stockport_simplified,2022.2.4,Win32,75.18796992,661e456ee6de07e70aa9ef7b,66229d97fbe898816def3226,,,,,,,,,,,,,,,,,,,,,,,,,,,,,,,,,,336.3234,340.7948,"[3,8,6,1,4,2,7,5]","[[-0.3,0.2],[0.3,0.2]]","[[-0.125,-0.2],[0.125,-0.2]]",0.092592593,-0.244444444,1,0,0,3.9645,o2_image,340.7997,1,341.3021,341.3021,343.3025,0,0,0,0,1,,,,,,,,,,,,,,,,,,,,,,,,,,,,,,,,,,,,,,,,,,,,,,,,,,
,,5ead89a08a4c3741712fb05b,42,male,2024-04-19_18h40.58.953,stockport_simplified,2022.2.4,Win32,75.18796992,661e456ee6de07e70aa9ef7b,66229d97fbe898816def3226,,,,,,,,,,,,,,,,,,,,,,,,,,,,,,,,,,,,,,,,,,,,,,,,,,,,,,,,0,33,33,10,1,B,X,N,o2_image,stimuli/out2.png,stimuli/out1.png,stimuli/correct_out2.png,,,,,,,,,,,,,,,,,,,,,,,,,,,,,,,,,,,,,,
,,5ead89a08a4c3741712fb05b,42,male,2024-04-19_18h40.58.953,stockport_simplified,2022.2.4,Win32,75.18796992,661e456ee6de07e70aa9ef7b,66229d97fbe898816def3226,,,,,,,,,,,,,,,,,,,,,,,,,,,,,,,,,,343.3028,345.4605,"[3,8,6,1,4,2,7,5]","[[-0.3,0.2],[0.3,0.2]]","[[0.125,-0.2],[-0.125,-0.2]]",0.167592593,-0.190740741,1,0,0,1.651,o1_image,345.4607,1,345.9566,345.9566,347.9573,0,0,0,0,1,,,,,,,,,,,,,,,,,,,,,,,,,,,,,,,,,,,,,,,,,,,,,,,,,,
,,5ead89a08a4c3741712fb05b,42,male,2024-04-19_18h40.58.953,stockport_simplified,2022.2.4,Win32,75.18796992,661e456ee6de07e70aa9ef7b,66229d97fbe898816def3226,,,,,,,,,,,,,,,,,,,,,,,,,,,,,,,,,,,,,,,,,,,,,,,,,,,,,,,,0,34,34,52,1,N,M,C,o1_image,stimuli/out1.png,stimuli/correct_out1.png,stimuli/out2.png,,,,,,,,,,,,,,,,,,,,,,,,,,,,,,,,,,,,,,
,,5ead89a08a4c3741712fb05b,42,male,2024-04-19_18h40.58.953,stockport_simplified,2022.2.4,Win32,75.18796992,661e456ee6de07e70aa9ef7b,66229d97fbe898816def3226,,,,,,,,,,,,,,,,,,,,,,,,,,,,,,,,,,347.9575,351.3863,"[3,8,6,1,4,2,7,5]","[[-0.3,0.2],[0.3,0.2]]","[[0.125,-0.2],[-0.125,-0.2]]",-0.190740741,-0.184259259,1,0,0,2.9224,o2_image,351.3865,1,351.8794,351.8794,353.8797,0,0,0,0,1,,,,,,,,,,,,,,,,,,,,,,,,,,,,,,,,,,,,,,,,,,,,,,,,,,
,,5ead89a08a4c3741712fb05b,42,male,2024-04-19_18h40.58.953,stockport_simplified,2022.2.4,Win32,75.18796992,661e456ee6de07e70aa9ef7b,66229d97fbe898816def3226,,,,,,,,,,,,,,,,,,,,,,,,,,,,,,,,,,,,,,,,,,,,,,,,,,,,,,,,0,35,35,25,1,N,M,D,o2_image,stimuli/out2.png,stimuli/out1.png,stimuli/correct_out2.png,,,,,,,,,,,,,,,,,,,,,,,,,,,,,,,,,,,,,,
,,5ead89a08a4c3741712fb05b,42,male,2024-04-19_18h40.58.953,stockport_simplified,2022.2.4,Win32,75.18796992,661e456ee6de07e70aa9ef7b,66229d97fbe898816def3226,,,,,,,,,,,,,,,,,,,,,,,,,,,,,,,,,,353.8799,358.8154,"[3,8,6,1,4,2,7,5]","[[0.3,0.2],[-0.3,0.2]]","[[0.125,-0.2],[-0.125,-0.2]]",0.103703704,-0.187037037,1,0,0,4.4284,o1_image,358.8202,1,359.3226,359.3226,361.3203,0,0,0,0,1,,,,,,,,,,,,,,,,,,,,,,,,,,,,,,,,,,,,,,,,,,,,,,,,,,
,,5ead89a08a4c3741712fb05b,42,male,2024-04-19_18h40.58.953,stockport_simplified,2022.2.4,Win32,75.18796992,661e456ee6de07e70aa9ef7b,66229d97fbe898816def3226,,,,,,,,,,,,,,,,,,,,,,,,,,,,,,,,,,,,,,,,,,,,,,,,,,,,,,,,0,36,36,35,1,A,Y,N,o1_image,stimuli/out1.png,stimuli/correct_out1.png,stimuli/out2.png,,,,,,,,,,,,,,,,,,,,,,,,,,,,,,,,,,,,,,
,,5ead89a08a4c3741712fb05b,42,male,2024-04-19_18h40.58.953,stockport_simplified,2022.2.4,Win32,75.18796992,661e456ee6de07e70aa9ef7b,66229d97fbe898816def3226,,,,,,,,,,,,,,,,,,,,,,,,,,,,,,,,,,361.3205,366.4285,"[3,8,6,1,4,2,7,5]","[[-0.3,0.2],[0.3,0.2]]","[[0.125,-0.2],[-0.125,-0.2]]",-0.089814815,-0.188888889,1,0,0,4.6016,o2_image,366.4335,1,366.9357,366.9357,368.9363,0,0,0,0,1,,,,,,,,,,,,,,,,,,,,,,,,,,,,,,,,,,,,,,,,,,,,,,,,,,
,,5ead89a08a4c3741712fb05b,42,male,2024-04-19_18h40.58.953,stockport_simplified,2022.2.4,Win32,75.18796992,661e456ee6de07e70aa9ef7b,66229d97fbe898816def3226,,,,,,,,,,,,,,,,,,,,,,,,,,,,,,,,,,,,,,,,,,,,,,,,,,,,,,,,0,37,37,14,1,B,X,N,o2_image,stimuli/out2.png,stimuli/out1.png,stimuli/correct_out2.png,,,,,,,,,,,,,,,,,,,,,,,,,,,,,,,,,,,,,,
,,5ead89a08a4c3741712fb05b,42,male,2024-04-19_18h40.58.953,stockport_simplified,2022.2.4,Win32,75.18796992,661e456ee6de07e70aa9ef7b,66229d97fbe898816def3226,,,,,,,,,,,,,,,,,,,,,,,,,,,,,,,,,,368.9365,371.2041,"[3,8,6,1,4,2,7,5]","[[-0.3,0.2],[0.3,0.2]]","[[-0.125,-0.2],[0.125,-0.2]]",0.110185185,-0.197222222,1,0,0,1.7607,o2_image,371.2044,1,371.6977,371.6977,373.6985,0,0,0,0,1,,,,,,,,,,,,,,,,,,,,,,,,,,,,,,,,,,,,,,,,,,,,,,,,,,
,,5ead89a08a4c3741712fb05b,42,male,2024-04-19_18h40.58.953,stockport_simplified,2022.2.4,Win32,75.18796992,661e456ee6de07e70aa9ef7b,66229d97fbe898816def3226,,,,,,,,,,,,,,,,,,,,,,,,,,,,,,,,,,,,,,,,,,,,,,,,,,,,,,,,0,38,38,48,1,B,Y,N,o2_image,stimuli/out2.png,stimuli/out1.png,stimuli/correct_out2.png,,,,,,,,,,,,,,,,,,,,,,,,,,,,,,,,,,,,,,
,,5ead89a08a4c3741712fb05b,42,male,2024-04-19_18h40.58.953,stockport_simplified,2022.2.4,Win32,75.18796992,661e456ee6de07e70aa9ef7b,66229d97fbe898816def3226,,,,,,,,,,,,,,,,,,,,,,,,,,,,,,,,,,373.6987,375.0988,"[3,8,6,1,4,2,7,5]","[[-0.3,0.2],[0.3,0.2]]","[[-0.125,-0.2],[0.125,-0.2]]",0.1,-0.178703704,1,0,0,0.8936,o2_image,375.0991,1,375.5921,375.5922,377.593,0,0,0,0,1,,,,,,,,,,,,,,,,,,,,,,,,,,,,,,,,,,,,,,,,,,,,,,,,,,
,,5ead89a08a4c3741712fb05b,42,male,2024-04-19_18h40.58.953,stockport_simplified,2022.2.4,Win32,75.18796992,661e456ee6de07e70aa9ef7b,66229d97fbe898816def3226,,,,,,,,,,,,,,,,,,,,,,,,,,,,,,,,,,,,,,,,,,,,,,,,,,,,,,,,0,39,39,11,1,B,X,N,o2_image,stimuli/out2.png,stimuli/out1.png,stimuli/correct_out2.png,,,,,,,,,,,,,,,,,,,,,,,,,,,,,,,,,,,,,,
,,5ead89a08a4c3741712fb05b,42,male,2024-04-19_18h40.58.953,stockport_simplified,2022.2.4,Win32,75.18796992,661e456ee6de07e70aa9ef7b,66229d97fbe898816def3226,,,,,,,,,,,,,,,,,,,,,,,,,,,,,,,,,,377.5933,379.3004,"[3,8,6,1,4,2,7,5]","[[0.3,0.2],[-0.3,0.2]]","[[0.125,-0.2],[-0.125,-0.2]]",-0.110185185,-0.184259259,1,0,0,1.2004,o2_image,379.3007,1,379.7938,379.7938,381.7944,0,0,0,0,1,,,,,,,,,,,,,,,,,,,,,,,,,,,,,,,,,,,,,,,,,,,,,,,,,,
,,5ead89a08a4c3741712fb05b,42,male,2024-04-19_18h40.58.953,stockport_simplified,2022.2.4,Win32,75.18796992,661e456ee6de07e70aa9ef7b,66229d97fbe898816def3226,,,,,,,,,,,,,,,,,,,,,,,,,,,,,,,,,,,,,,,,,,,,,,,,,,,,,,,,0,40,40,16,1,B,Y,N,o2_image,stimuli/out2.png,stimuli/out1.png,stimuli/correct_out2.png,,,,,,,,,,,,,,,,,,,,,,,,,,,,,,,,,,,,,,
,,5ead89a08a4c3741712fb05b,42,male,2024-04-19_18h40.58.953,stockport_simplified,2022.2.4,Win32,75.18796992,661e456ee6de07e70aa9ef7b,66229d97fbe898816def3226,,,,,,,,,,,,,,,,,,,,,,,,,,,,,,,,,,381.7946,386.6365,"[3,8,6,1,4,2,7,5]","[[-0.3,0.2],[0.3,0.2]]","[[-0.125,-0.2],[0.125,-0.2]]",0.178703704,-0.228703704,1,0,0,4.3347,o2_image,386.6415,1,387.1436,387.1436,389.1441,0,0,0,0,1,,,,,,,,,,,,,,,,,,,,,,,,,,,,,,,,,,,,,,,,,,,,,,,,,,
,,5ead89a08a4c3741712fb05b,42,male,2024-04-19_18h40.58.953,stockport_simplified,2022.2.4,Win32,75.18796992,661e456ee6de07e70aa9ef7b,66229d97fbe898816def3226,,,,,,,,,,,,,,,,,,,,,,,,,,,,,,,,,,,,,,,,,,,,,,,,,,,,,,,,0,41,41,44,1,B,X,N,o2_image,stimuli/out2.png,stimuli/out1.png,stimuli/correct_out2.png,,,,,,,,,,,,,,,,,,,,,,,,,,,,,,,,,,,,,,
,,5ead89a08a4c3741712fb05b,42,male,2024-04-19_18h40.58.953,stockport_simplified,2022.2.4,Win32,75.18796992,661e456ee6de07e70aa9ef7b,66229d97fbe898816def3226,,,,,,,,,,,,,,,,,,,,,,,,,,,,,,,,,,389.1444,392.0786,"[3,8,6,1,4,2,7,5]","[[-0.3,0.2],[0.3,0.2]]","[[-0.125,-0.2],[0.125,-0.2]]",-0.167592593,-0.203703704,1,0,0,2.4274,o1_image,392.0836,1,392.5856,392.5856,394.5866,0,0,0,0,1,,,,,,,,,,,,,,,,,,,,,,,,,,,,,,,,,,,,,,,,,,,,,,,,,,
,,5ead89a08a4c3741712fb05b,42,male,2024-04-19_18h40.58.953,stockport_simplified,2022.2.4,Win32,75.18796992,661e456ee6de07e70aa9ef7b,66229d97fbe898816def3226,,,,,,,,,,,,,,,,,,,,,,,,,,,,,,,,,,,,,,,,,,,,,,,,,,,,,,,,0,42,42,23,1,N,M,C,o1_image,stimuli/out1.png,stimuli/correct_out1.png,stimuli/out2.png,,,,,,,,,,,,,,,,,,,,,,,,,,,,,,,,,,,,,,
,,5ead89a08a4c3741712fb05b,42,male,2024-04-19_18h40.58.953,stockport_simplified,2022.2.4,Win32,75.18796992,661e456ee6de07e70aa9ef7b,66229d97fbe898816def3226,,,,,,,,,,,,,,,,,,,,,,,,,,,,,,,,,,394.5868,396.4271,"[3,8,6,1,4,2,7,5]","[[0.3,0.2],[-0.3,0.2]]","[[0.125,-0.2],[-0.125,-0.2]]",-0.109259259,-0.187037037,1,0,0,1.3337,o2_image,396.4275,1,396.9207,396.9207,398.9225,0,0,0,0,1,,,,,,,,,,,,,,,,,,,,,,,,,,,,,,,,,,,,,,,,,,,,,,,,,,
,,5ead89a08a4c3741712fb05b,42,male,2024-04-19_18h40.58.953,stockport_simplified,2022.2.4,Win32,75.18796992,661e456ee6de07e70aa9ef7b,66229d97fbe898816def3226,,,,,,,,,,,,,,,,,,,,,,,,,,,,,,,,,,,,,,,,,,,,,,,,,,,,,,,,0,43,43,19,1,B,Y,N,o2_image,stimuli/out2.png,stimuli/out1.png,stimuli/correct_out2.png,,,,,,,,,,,,,,,,,,,,,,,,,,,,,,,,,,,,,,
,,5ead89a08a4c3741712fb05b,42,male,2024-04-19_18h40.58.953,stockport_simplified,2022.2.4,Win32,75.18796992,661e456ee6de07e70aa9ef7b,66229d97fbe898816def3226,,,,,,,,,,,,,,,,,,,,,,,,,,,,,,,,,,398.9226,403.4165,"[3,8,6,1,4,2,7,5]","[[0.3,0.2],[-0.3,0.2]]","[[-0.125,-0.2],[0.125,-0.2]]",-0.09537037,-0.190740741,1,0,0,3.9881,o1_image,403.4214,1,403.9239,403.9239,405.9243,0,0,0,0,1,,,,,,,,,,,,,,,,,,,,,,,,,,,,,,,,,,,,,,,,,,,,,,,,,,
,,5ead89a08a4c3741712fb05b,42,male,2024-04-19_18h40.58.953,stockport_simplified,2022.2.4,Win32,75.18796992,661e456ee6de07e70aa9ef7b,66229d97fbe898816def3226,,,,,,,,,,,,,,,,,,,,,,,,,,,,,,,,,,,,,,,,,,,,,,,,,,,,,,,,0,44,44,7,1,A,Y,N,o1_image,stimuli/out1.png,stimuli/correct_out1.png,stimuli/out2.png,,,,,,,,,,,,,,,,,,,,,,,,,,,,,,,,,,,,,,
,,5ead89a08a4c3741712fb05b,42,male,2024-04-19_18h40.58.953,stockport_simplified,2022.2.4,Win32,75.18796992,661e456ee6de07e70aa9ef7b,66229d97fbe898816def3226,,,,,,,,,,,,,,,,,,,,,,,,,,,,,,,,,,405.9244,408.5918,"[3,8,6,1,4,2,7,5]","[[-0.3,0.2],[0.3,0.2]]","[[-0.125,-0.2],[0.125,-0.2]]",0.111111111,-0.209259259,1,0,0,2.1604,o2_image,408.5968,1,409.0987,409.0987,411.0997,0,0,0,0,1,,,,,,,,,,,,,,,,,,,,,,,,,,,,,,,,,,,,,,,,,,,,,,,,,,
,,5ead89a08a4c3741712fb05b,42,male,2024-04-19_18h40.58.953,stockport_simplified,2022.2.4,Win32,75.18796992,661e456ee6de07e70aa9ef7b,66229d97fbe898816def3226,,,,,,,,,,,,,,,,,,,,,,,,,,,,,,,,,,,,,,,,,,,,,,,,,,,,,,,,0,45,45,13,1,B,X,N,o2_image,stimuli/out2.png,stimuli/out1.png,stimuli/correct_out2.png,,,,,,,,,,,,,,,,,,,,,,,,,,,,,,,,,,,,,,
,,5ead89a08a4c3741712fb05b,42,male,2024-04-19_18h40.58.953,stockport_simplified,2022.2.4,Win32,75.18796992,661e456ee6de07e70aa9ef7b,66229d97fbe898816def3226,,,,,,,,,,,,,,,,,,,,,,,,,,,,,,,,,,411.0999,413.6872,"[3,8,6,1,4,2,7,5]","[[-0.3,0.2],[0.3,0.2]]","[[-0.125,-0.2],[0.125,-0.2]]",-0.102777778,-0.232407407,1,0,0,2.0806,o1_image,413.6875,1,414.1807,414.1808,416.1818,0,0,0,0,1,,,,,,,,,,,,,,,,,,,,,,,,,,,,,,,,,,,,,,,,,,,,,,,,,,
,,5ead89a08a4c3741712fb05b,42,male,2024-04-19_18h40.58.953,stockport_simplified,2022.2.4,Win32,75.18796992,661e456ee6de07e70aa9ef7b,66229d97fbe898816def3226,,,,,,,,,,,,,,,,,,,,,,,,,,,,,,,,,,,,,,,,,,,,,,,,,,,,,,,,0,46,46,37,1,A,Y,N,o1_image,stimuli/out1.png,stimuli/correct_out1.png,stimuli/out2.png,,,,,,,,,,,,,,,,,,,,,,,,,,,,,,,,,,,,,,
,,5ead89a08a4c3741712fb05b,42,male,2024-04-19_18h40.58.953,stockport_simplified,2022.2.4,Win32,75.18796992,661e456ee6de07e70aa9ef7b,66229d97fbe898816def3226,,,,,,,,,,,,,,,,,,,,,,,,,,,,,,,,,,416.182,418.6627,"[3,8,6,1,4,2,7,5]","[[0.3,0.2],[-0.3,0.2]]","[[-0.125,-0.2],[0.125,-0.2]]",-0.115740741,-0.206481481,1,0,0,1.9742,o1_image,418.6631,1,419.1561,419.1562,421.1571,0,0,0,0,1,,,,,,,,,,,,,,,,,,,,,,,,,,,,,,,,,,,,,,,,,,,,,,,,,,
,,5ead89a08a4c3741712fb05b,42,male,2024-04-19_18h40.58.953,stockport_simplified,2022.2.4,Win32,75.18796992,661e456ee6de07e70aa9ef7b,66229d97fbe898816def3226,,,,,,,,,,,,,,,,,,,,,,,,,,,,,,,,,,,,,,,,,,,,,,,,,,,,,,,,0,47,47,54,1,N,M,C,o1_image,stimuli/out1.png,stimuli/correct_out1.png,stimuli/out2.png,,,,,,,,,,,,,,,,,,,,,,,,,,,,,,,,,,,,,,
,,5ead89a08a4c3741712fb05b,42,male,2024-04-19_18h40.58.953,stockport_simplified,2022.2.4,Win32,75.18796992,661e456ee6de07e70aa9ef7b,66229d97fbe898816def3226,,,,,,,,,,,,,,,,,,,,,,,,,,,,,,,,,,421.1573,423.8253,"[3,8,6,1,4,2,7,5]","[[0.3,0.2],[-0.3,0.2]]","[[-0.125,-0.2],[0.125,-0.2]]",-0.1,-0.206481481,1,0,0,2.1612,o1_image,423.8257,1,424.318,424.3181,426.319,0,0,0,0,1,,,,,,,,,,,,,,,,,,,,,,,,,,,,,,,,,,,,,,,,,,,,,,,,,,
,,5ead89a08a4c3741712fb05b,42,male,2024-04-19_18h40.58.953,stockport_simplified,2022.2.4,Win32,75.18796992,661e456ee6de07e70aa9ef7b,66229d97fbe898816def3226,,,,,,,,,,,,,,,,,,,,,,,,,,,,,,,,,,,,,,,,,,,,,,,,,,,,,,,,0,48,48,6,1,A,Y,N,o1_image,stimuli/out1.png,stimuli/correct_out1.png,stimuli/out2.png,,,,,,,,,,,,,,,,,,,,,,,,,,,,,,,,,,,,,,
,,5ead89a08a4c3741712fb05b,42,male,2024-04-19_18h40.58.953,stockport_simplified,2022.2.4,Win32,75.18796992,661e456ee6de07e70aa9ef7b,66229d97fbe898816def3226,,,,,,,,,,,,,,,,,,,,,,,,,,,,,,,,,,426.3191,428.293,"[3,8,6,1,4,2,7,5]","[[0.3,0.2],[-0.3,0.2]]","[[0.125,-0.2],[-0.125,-0.2]]",-0.124074074,-0.172222222,1,0,0,1.467,o2_image,428.2933,1,428.7865,428.7866,430.7874,0,0,0,0,1,,,,,,,,,,,,,,,,,,,,,,,,,,,,,,,,,,,,,,,,,,,,,,,,,,
,,5ead89a08a4c3741712fb05b,42,male,2024-04-19_18h40.58.953,stockport_simplified,2022.2.4,Win32,75.18796992,661e456ee6de07e70aa9ef7b,66229d97fbe898816def3226,,,,,,,,,,,,,,,,,,,,,,,,,,,,,,,,,,,,,,,,,,,,,,,,,,,,,,,,0,49,49,40,1,B,X,N,o2_image,stimuli/out2.png,stimuli/out1.png,stimuli/correct_out2.png,,,,,,,,,,,,,,,,,,,,,,,,,,,,,,,,,,,,,,
,,5ead89a08a4c3741712fb05b,42,male,2024-04-19_18h40.58.953,stockport_simplified,2022.2.4,Win32,75.18796992,661e456ee6de07e70aa9ef7b,66229d97fbe898816def3226,,,,,,,,,,,,,,,,,,,,,,,,,,,,,,,,,,430.7875,433.8419,"[3,8,6,1,4,2,7,5]","[[-0.3,0.2],[0.3,0.2]]","[[0.125,-0.2],[-0.125,-0.2]]",0.12962963,-0.194444444,1,0,0,2.5475,o1_image,433.8422,1,434.3352,434.3353,436.336,0,0,0,0,1,,,,,,,,,,,,,,,,,,,,,,,,,,,,,,,,,,,,,,,,,,,,,,,,,,
,,5ead89a08a4c3741712fb05b,42,male,2024-04-19_18h40.58.953,stockport_simplified,2022.2.4,Win32,75.18796992,661e456ee6de07e70aa9ef7b,66229d97fbe898816def3226,,,,,,,,,,,,,,,,,,,,,,,,,,,,,,,,,,,,,,,,,,,,,,,,,,,,,,,,0,50,50,51,1,N,M,C,o1_image,stimuli/out1.png,stimuli/correct_out1.png,stimuli/out2.png,,,,,,,,,,,,,,,,,,,,,,,,,,,,,,,,,,,,,,
,,5ead89a08a4c3741712fb05b,42,male,2024-04-19_18h40.58.953,stockport_simplified,2022.2.4,Win32,75.18796992,661e456ee6de07e70aa9ef7b,66229d97fbe898816def3226,,,,,,,,,,,,,,,,,,,,,,,,,,,,,,,,,,436.3363,440.1777,"[3,8,6,1,4,2,7,5]","[[-0.3,0.2],[0.3,0.2]]","[[-0.125,-0.2],[0.125,-0.2]]",-0.07962963,-0.200925926,1,0,0,3.3343,o1_image,440.1827,1,440.6851,440.6851,442.6856,0,0,0,0,1,,,,,,,,,,,,,,,,,,,,,,,,,,,,,,,,,,,,,,,,,,,,,,,,,,
,,5ead89a08a4c3741712fb05b,42,male,2024-04-19_18h40.58.953,stockport_simplified,2022.2.4,Win32,75.18796992,661e456ee6de07e70aa9ef7b,66229d97fbe898816def3226,,,,,,,,,,,,,,,,,,,,,,,,,,,,,,,,,,,,,,,,,,,,,,,,,,,,,,,,0,51,51,5,1,A,Y,N,o1_image,stimuli/out1.png,stimuli/correct_out1.png,stimuli/out2.png,,,,,,,,,,,,,,,,,,,,,,,,,,,,,,,,,,,,,,
,,5ead89a08a4c3741712fb05b,42,male,2024-04-19_18h40.58.953,stockport_simplified,2022.2.4,Win32,75.18796992,661e456ee6de07e70aa9ef7b,66229d97fbe898816def3226,,,,,,,,,,,,,,,,,,,,,,,,,,,,,,,,,,442.6858,445.3933,"[3,8,6,1,4,2,7,5]","[[0.3,0.2],[-0.3,0.2]]","[[0.125,-0.2],[-0.125,-0.2]]",0.163888889,-0.189814815,1,0,0,2.2009,o1_image,445.3937,1,445.8866,445.8867,447.888,0,0,0,0,1,,,,,,,,,,,,,,,,,,,,,,,,,,,,,,,,,,,,,,,,,,,,,,,,,,
,,5ead89a08a4c3741712fb05b,42,male,2024-04-19_18h40.58.953,stockport_simplified,2022.2.4,Win32,75.18796992,661e456ee6de07e70aa9ef7b,66229d97fbe898816def3226,,,,,,,,,,,,,,,,,,,,,,,,,,,,,,,,,,,,,,,,,,,,,,,,,,,,,,,,0,52,52,21,1,N,M,C,o1_image,stimuli/out1.png,stimuli/correct_out1.png,stimuli/out2.png,,,,,,,,,,,,,,,,,,,,,,,,,,,,,,,,,,,,,,
,,5ead89a08a4c3741712fb05b,42,male,2024-04-19_18h40.58.953,stockport_simplified,2022.2.4,Win32,75.18796992,661e456ee6de07e70aa9ef7b,66229d97fbe898816def3226,,,,,,,,,,,,,,,,,,,,,,,,,,,,,,,,,,447.8881,450.0084,"[3,8,6,1,4,2,7,5]","[[-0.3,0.2],[0.3,0.2]]","[[-0.125,-0.2],[0.125,-0.2]]",-0.111111111,-0.184259259,1,0,0,1.6135,o1_image,450.0087,1,450.5018,450.5019,452.5024,0,0,0,0,1,,,,,,,,,,,,,,,,,,,,,,,,,,,,,,,,,,,,,,,,,,,,,,,,,,
,,5ead89a08a4c3741712fb05b,42,male,2024-04-19_18h40.58.953,stockport_simplified,2022.2.4,Win32,75.18796992,661e456ee6de07e70aa9ef7b,66229d97fbe898816def3226,,,,,,,,,,,,,,,,,,,,,,,,,,,,,,,,,,,,,,,,,,,,,,,,,,,,,,,,0,53,53,22,1,N,M,C,o1_image,stimuli/out1.png,stimuli/correct_out1.png,stimuli/out2.png,,,,,,,,,,,,,,,,,,,,,,,,,,,,,,,,,,,,,,
,,5ead89a08a4c3741712fb05b,42,male,2024-04-19_18h40.58.953,stockport_simplified,2022.2.4,Win32,75.18796992,661e456ee6de07e70aa9ef7b,66229d97fbe898816def3226,,,,,,,,,,,,,,,,,,,,,,,,,,,,,,,,,,452.5026,457.2512,"[3,8,6,1,4,2,7,5]","[[0.3,0.2],[-0.3,0.2]]","[[-0.125,-0.2],[0.125,-0.2]]",0.158333333,-0.177777778,1,0,0,4.2416,o2_image,457.2563,0,457.7586,457.7586,459.7595,0,0,0,0,1,,,,,,,,,,,,,,,,,,,,,,,,,,,,,,,,,,,,,,,,,,,,,,,,,,
,,5ead89a08a4c3741712fb05b,42,male,2024-04-19_18h40.58.953,stockport_simplified,2022.2.4,Win32,75.18796992,661e456ee6de07e70aa9ef7b,66229d97fbe898816def3226,,,,,,,,,,,,,,,,,,,,,,,,,,,,,,,,,,,,,,,,,,,,,,,,,,,,,,,,0,54,54,0,1,A,X,N,o1_image,stimuli/out1.png,stimuli/correct_out1.png,stimuli/out2.png,,,,,,,,,,,,,,,,,,,,,,,,,,,,,,,,,,,,,,
,,5ead89a08a4c3741712fb05b,42,male,2024-04-19_18h40.58.953,stockport_simplified,2022.2.4,Win32,75.18796992,661e456ee6de07e70aa9ef7b,66229d97fbe898816def3226,,,,,,,,,,,,,,,,,,,,,,,,,,,,,,,,,,459.7597,463.8803,"[3,8,6,1,4,2,7,5]","[[-0.3,0.2],[0.3,0.2]]","[[0.125,-0.2],[-0.125,-0.2]]",0.134259259,-0.197222222,1,0,0,3.6146,o1_image,463.8853,1,464.3872,464.3873,466.388,0,0,0,0,1,,,,,,,,,,,,,,,,,,,,,,,,,,,,,,,,,,,,,,,,,,,,,,,,,,
,,5ead89a08a4c3741712fb05b,42,male,2024-04-19_18h40.58.953,stockport_simplified,2022.2.4,Win32,75.18796992,661e456ee6de07e70aa9ef7b,66229d97fbe898816def3226,,,,,,,,,,,,,,,,,,,,,,,,,,,,,,,,,,,,,,,,,,,,,,,,,,,,,,,,0,55,55,33,1,A,X,N,o1_image,stimuli/out1.png,stimuli/correct_out1.png,stimuli/out2.png,,,,,,,,,,,,,,,,,,,,,,,,,,,,,,,,,,,,,,
,,5ead89a08a4c3741712fb05b,42,male,2024-04-19_18h40.58.953,stockport_simplified,2022.2.4,Win32,75.18796992,661e456ee6de07e70aa9ef7b,66229d97fbe898816def3226,,,,,,,,,,,,,,,,,,,,,,,,,,,,,,,,,,466.3883,471.9103,"[3,8,6,1,4,2,7,5]","[[-0.3,0.2],[0.3,0.2]]","[[-0.125,-0.2],[0.125,-0.2]]",0.15462963,-0.180555556,1,0,0,5.0154,o2_image,471.9153,1,472.4171,472.4171,474.4183,0,0,0,0,1,,,,,,,,,,,,,,,,,,,,,,,,,,,,,,,,,,,,,,,,,,,,,,,,,,
,,5ead89a08a4c3741712fb05b,42,male,2024-04-19_18h40.58.953,stockport_simplified,2022.2.4,Win32,75.18796992,661e456ee6de07e70aa9ef7b,66229d97fbe898816def3226,,,,,,,,,,,,,,,,,,,,,,,,,,,,,,,,,,,,,,,,,,,,,,,,,,,,,,,,0,56,56,42,1,B,X,N,o2_image,stimuli/out2.png,stimuli/out1.png,stimuli/correct_out2.png,,,,,,,,,,,,,,,,,,,,,,,,,,,,,,,,,,,,,,
,,5ead89a08a4c3741712fb05b,42,male,2024-04-19_18h40.58.953,stockport_simplified,2022.2.4,Win32,75.18796992,661e456ee6de07e70aa9ef7b,66229d97fbe898816def3226,,,,,,,,,,,,,,,,,,,,,,,,,,,,,,,,,,474.4184,475.8055,"[3,8,6,1,4,2,7,5]","[[0.3,0.2],[-0.3,0.2]]","[[-0.125,-0.2],[0.125,-0.2]]",0.162962963,-0.218518519,1,0,0,0.8806,o2_image,475.8059,1,476.2986,476.2986,478.2994,0,0,0,0,1,,,,,,,,,,,,,,,,,,,,,,,,,,,,,,,,,,,,,,,,,,,,,,,,,,
,,5ead89a08a4c3741712fb05b,42,male,2024-04-19_18h40.58.953,stockport_simplified,2022.2.4,Win32,75.18796992,661e456ee6de07e70aa9ef7b,66229d97fbe898816def3226,,,,,,,,,,,,,,,,,,,,,,,,,,,,,,,,,,,,,,,,,,,,,,,,,,,,,,,,0,57,57,47,1,B,Y,N,o2_image,stimuli/out2.png,stimuli/out1.png,stimuli/correct_out2.png,,,,,,,,,,,,,,,,,,,,,,,,,,,,,,,,,,,,,,
,,5ead89a08a4c3741712fb05b,42,male,2024-04-19_18h40.58.953,stockport_simplified,2022.2.4,Win32,75.18796992,661e456ee6de07e70aa9ef7b,66229d97fbe898816def3226,,,,,,,,,,,,,,,,,,,,,,,,,,,,,,,,,,478.2996,479.7801,"[3,8,6,1,4,2,7,5]","[[0.3,0.2],[-0.3,0.2]]","[[-0.125,-0.2],[0.125,-0.2]]",0.102777778,-0.20462963,1,0,0,0.9737,o2_image,479.7805,1,480.2736,480.2736,482.2742,0,0,0,0,1,,,,,,,,,,,,,,,,,,,,,,,,,,,,,,,,,,,,,,,,,,,,,,,,,,
,,5ead89a08a4c3741712fb05b,42,male,2024-04-19_18h40.58.953,stockport_simplified,2022.2.4,Win32,75.18796992,661e456ee6de07e70aa9ef7b,66229d97fbe898816def3226,,,,,,,,,,,,,,,,,,,,,,,,,,,,,,,,,,,,,,,,,,,,,,,,,,,,,,,,0,58,58,12,1,B,X,N,o2_image,stimuli/out2.png,stimuli/out1.png,stimuli/correct_out2.png,,,,,,,,,,,,,,,,,,,,,,,,,,,,,,,,,,,,,,
,,5ead89a08a4c3741712fb05b,42,male,2024-04-19_18h40.58.953,stockport_simplified,2022.2.4,Win32,75.18796992,661e456ee6de07e70aa9ef7b,66229d97fbe898816def3226,,,,,,,,,,,,,,,,,,,,,,,,,,,,,,,,,,482.2744,484.6355,"[3,8,6,1,4,2,7,5]","[[-0.3,0.2],[0.3,0.2]]","[[-0.125,-0.2],[0.125,-0.2]]",-0.110185185,-0.180555556,1,0,0,1.8541,o1_image,484.6358,1,485.1288,485.1288,487.1305,0,0,0,0,1,,,,,,,,,,,,,,,,,,,,,,,,,,,,,,,,,,,,,,,,,,,,,,,,,,
,,5ead89a08a4c3741712fb05b,42,male,2024-04-19_18h40.58.953,stockport_simplified,2022.2.4,Win32,75.18796992,661e456ee6de07e70aa9ef7b,66229d97fbe898816def3226,,,,,,,,,,,,,,,,,,,,,,,,,,,,,,,,,,,,,,,,,,,,,,,,,,,,,,,,0,59,59,2,1,A,X,N,o1_image,stimuli/out1.png,stimuli/correct_out1.png,stimuli/out2.png,,,,,,,,,,,,,,,,,,,,,,,,,,,,,,,,,,,,,,
,,5ead89a08a4c3741712fb05b,42,male,2024-04-19_18h40.58.953,stockport_simplified,2022.2.4,Win32,75.18796992,661e456ee6de07e70aa9ef7b,66229d97fbe898816def3226,,,,,,,,,,,,,,,,,,,,,,,,,,,,,,,,,,487.1307,489.7176,"[3,8,6,1,4,2,7,5]","[[-0.3,0.2],[0.3,0.2]]","[[0.125,-0.2],[-0.125,-0.2]]",-0.1,-0.187962963,1,0,0,2.0808,o2_image,489.7179,1,490.2107,490.2108,492.2116,0,0,0,0,1,,,,,,,,,,,,,,,,,,,,,,,,,,,,,,,,,,,,,,,,,,,,,,,,,,
,,5ead89a08a4c3741712fb05b,42,male,2024-04-19_18h40.58.953,stockport_simplified,2022.2.4,Win32,75.18796992,661e456ee6de07e70aa9ef7b,66229d97fbe898816def3226,,,,,,,,,,,,,,,,,,,,,,,,,,,,,,,,,,,,,,,,,,,,,,,,,,,,,,,,1,0,60,25,1,N,M,D,o2_image,stimuli/out2.png,stimuli/out1.png,stimuli/correct_out2.png,,,,,,,,,,,,,,,,,,,,,,,,,,,,,,,,,,,,,,
,,5ead89a08a4c3741712fb05b,42,male,2024-04-19_18h40.58.953,stockport_simplified,2022.2.4,Win32,75.18796992,661e456ee6de07e70aa9ef7b,66229d97fbe898816def3226,,,,,,,,,,,,,,,,,,,,,,,,,,,,,,,,,,492.2118,494.4393,"[3,8,6,1,4,2,7,5]","[[0.3,0.2],[-0.3,0.2]]","[[0.125,-0.2],[-0.125,-0.2]]",0.123148148,-0.162037037,1,0,0,1.7205,o1_image,494.4396,1,494.9326,494.9326,496.9338,0,0,0,0,1,,,,,,,,,,,,,,,,,,,,,,,,,,,,,,,,,,,,,,,,,,,,,,,,,,
,,5ead89a08a4c3741712fb05b,42,male,2024-04-19_18h40.58.953,stockport_simplified,2022.2.4,Win32,75.18796992,661e456ee6de07e70aa9ef7b,66229d97fbe898816def3226,,,,,,,,,,,,,,,,,,,,,,,,,,,,,,,,,,,,,,,,,,,,,,,,,,,,,,,,1,1,61,23,1,N,M,C,o1_image,stimuli/out1.png,stimuli/correct_out1.png,stimuli/out2.png,,,,,,,,,,,,,,,,,,,,,,,,,,,,,,,,,,,,,,
,,5ead89a08a4c3741712fb05b,42,male,2024-04-19_18h40.58.953,stockport_simplified,2022.2.4,Win32,75.18796992,661e456ee6de07e70aa9ef7b,66229d97fbe898816def3226,,,,,,,,,,,,,,,,,,,,,,,,,,,,,,,,,,496.9339,501.3753,"[3,8,6,1,4,2,7,5]","[[-0.3,0.2],[0.3,0.2]]","[[-0.125,-0.2],[0.125,-0.2]]",-0.135185185,-0.17962963,1,0,0,3.9346,o1_image,501.3804,1,501.8823,501.8823,503.8831,0,0,0,0,1,,,,,,,,,,,,,,,,,,,,,,,,,,,,,,,,,,,,,,,,,,,,,,,,,,
,,5ead89a08a4c3741712fb05b,42,male,2024-04-19_18h40.58.953,stockport_simplified,2022.2.4,Win32,75.18796992,661e456ee6de07e70aa9ef7b,66229d97fbe898816def3226,,,,,,,,,,,,,,,,,,,,,,,,,,,,,,,,,,,,,,,,,,,,,,,,,,,,,,,,1,2,62,30,1,A,X,N,o1_image,stimuli/out1.png,stimuli/correct_out1.png,stimuli/out2.png,,,,,,,,,,,,,,,,,,,,,,,,,,,,,,,,,,,,,,
,,5ead89a08a4c3741712fb05b,42,male,2024-04-19_18h40.58.953,stockport_simplified,2022.2.4,Win32,75.18796992,661e456ee6de07e70aa9ef7b,66229d97fbe898816def3226,,,,,,,,,,,,,,,,,,,,,,,,,,,,,,,,,,503.8834,507.9247,"[3,8,6,1,4,2,7,5]","[[0.3,0.2],[-0.3,0.2]]","[[-0.125,-0.2],[0.125,-0.2]]",0.173148148,-0.181481481,1,0,0,3.5345,o2_image,507.9297,0,508.4312,508.4312,510.4321,0,0,0,0,1,,,,,,,,,,,,,,,,,,,,,,,,,,,,,,,,,,,,,,,,,,,,,,,,,,
,,5ead89a08a4c3741712fb05b,42,male,2024-04-19_18h40.58.953,stockport_simplified,2022.2.4,Win32,75.18796992,661e456ee6de07e70aa9ef7b,66229d97fbe898816def3226,,,,,,,,,,,,,,,,,,,,,,,,,,,,,,,,,,,,,,,,,,,,,,,,,,,,,,,,1,3,63,0,1,A,X,N,o1_image,stimuli/out1.png,stimuli/correct_out1.png,stimuli/out2.png,,,,,,,,,,,,,,,,,,,,,,,,,,,,,,,,,,,,,,
,,5ead89a08a4c3741712fb05b,42,male,2024-04-19_18h40.58.953,stockport_simplified,2022.2.4,Win32,75.18796992,661e456ee6de07e70aa9ef7b,66229d97fbe898816def3226,,,,,,,,,,,,,,,,,,,,,,,,,,,,,,,,,,510.4324,512.4461,"[3,8,6,1,4,2,7,5]","[[-0.3,0.2],[0.3,0.2]]","[[-0.125,-0.2],[0.125,-0.2]]",0.143518519,-0.188888889,1,0,0,1.5068,o2_image,512.4465,1,512.9399,512.9399,514.9406,0,0,0,0,1,,,,,,,,,,,,,,,,,,,,,,,,,,,,,,,,,,,,,,,,,,,,,,,,,,
,,5ead89a08a4c3741712fb05b,42,male,2024-04-19_18h40.58.953,stockport_simplified,2022.2.4,Win32,75.18796992,661e456ee6de07e70aa9ef7b,66229d97fbe898816def3226,,,,,,,,,,,,,,,,,,,,,,,,,,,,,,,,,,,,,,,,,,,,,,,,,,,,,,,,1,4,64,49,1,B,Y,N,o2_image,stimuli/out2.png,stimuli/out1.png,stimuli/correct_out2.png,,,,,,,,,,,,,,,,,,,,,,,,,,,,,,,,,,,,,,
,,5ead89a08a4c3741712fb05b,42,male,2024-04-19_18h40.58.953,stockport_simplified,2022.2.4,Win32,75.18796992,661e456ee6de07e70aa9ef7b,66229d97fbe898816def3226,,,,,,,,,,,,,,,,,,,,,,,,,,,,,,,,,,514.9408,517.0347,"[3,8,6,1,4,2,7,5]","[[-0.3,0.2],[0.3,0.2]]","[[-0.125,-0.2],[0.125,-0.2]]",-0.092592593,-0.142592593,1,0,0,1.5867,o1_image,517.035,1,517.5283,517.5283,519.5289,0,0,0,0,1,,,,,,,,,,,,,,,,,,,,,,,,,,,,,,,,,,,,,,,,,,,,,,,,,,
,,5ead89a08a4c3741712fb05b,42,male,2024-04-19_18h40.58.953,stockport_simplified,2022.2.4,Win32,75.18796992,661e456ee6de07e70aa9ef7b,66229d97fbe898816def3226,,,,,,,,,,,,,,,,,,,,,,,,,,,,,,,,,,,,,,,,,,,,,,,,,,,,,,,,1,5,65,24,1,N,M,C,o1_image,stimuli/out1.png,stimuli/correct_out1.png,stimuli/out2.png,,,,,,,,,,,,,,,,,,,,,,,,,,,,,,,,,,,,,,
,,5ead89a08a4c3741712fb05b,42,male,2024-04-19_18h40.58.953,stockport_simplified,2022.2.4,Win32,75.18796992,661e456ee6de07e70aa9ef7b,66229d97fbe898816def3226,,,,,,,,,,,,,,,,,,,,,,,,,,,,,,,,,,519.5291,521.2764,"[3,8,6,1,4,2,7,5]","[[-0.3,0.2],[0.3,0.2]]","[[0.125,-0.2],[-0.125,-0.2]]",-0.117592593,-0.182407407,1,0,0,1.2401,o2_image,521.2767,1,521.7702,521.7702,523.7712,0,0,0,0,1,,,,,,,,,,,,,,,,,,,,,,,,,,,,,,,,,,,,,,,,,,,,,,,,,,
,,5ead89a08a4c3741712fb05b,42,male,2024-04-19_18h40.58.953,stockport_simplified,2022.2.4,Win32,75.18796992,661e456ee6de07e70aa9ef7b,66229d97fbe898816def3226,,,,,,,,,,,,,,,,,,,,,,,,,,,,,,,,,,,,,,,,,,,,,,,,,,,,,,,,1,6,66,15,1,B,Y,N,o2_image,stimuli/out2.png,stimuli/out1.png,stimuli/correct_out2.png,,,,,,,,,,,,,,,,,,,,,,,,,,,,,,,,,,,,,,
,,5ead89a08a4c3741712fb05b,42,male,2024-04-19_18h40.58.953,stockport_simplified,2022.2.4,Win32,75.18796992,661e456ee6de07e70aa9ef7b,66229d97fbe898816def3226,,,,,,,,,,,,,,,,,,,,,,,,,,,,,,,,,,523.7714,527.2654,"[3,8,6,1,4,2,7,5]","[[0.3,0.2],[-0.3,0.2]]","[[0.125,-0.2],[-0.125,-0.2]]",0.159259259,-0.200925926,1,0,0,2.9874,o1_image,527.2704,1,527.7724,527.7724,529.7732,0,0,0,0,1,,,,,,,,,,,,,,,,,,,,,,,,,,,,,,,,,,,,,,,,,,,,,,,,,,
,,5ead89a08a4c3741712fb05b,42,male,2024-04-19_18h40.58.953,stockport_simplified,2022.2.4,Win32,75.18796992,661e456ee6de07e70aa9ef7b,66229d97fbe898816def3226,,,,,,,,,,,,,,,,,,,,,,,,,,,,,,,,,,,,,,,,,,,,,,,,,,,,,,,,1,7,67,35,1,A,Y,N,o1_image,stimuli/out1.png,stimuli/correct_out1.png,stimuli/out2.png,,,,,,,,,,,,,,,,,,,,,,,,,,,,,,,,,,,,,,
,,5ead89a08a4c3741712fb05b,42,male,2024-04-19_18h40.58.953,stockport_simplified,2022.2.4,Win32,75.18796992,661e456ee6de07e70aa9ef7b,66229d97fbe898816def3226,,,,,,,,,,,,,,,,,,,,,,,,,,,,,,,,,,529.7734,532.4943,"[3,8,6,1,4,2,7,5]","[[-0.3,0.2],[0.3,0.2]]","[[-0.125,-0.2],[0.125,-0.2]]",0.160185185,-0.160185185,1,0,0,2.2136,o2_image,532.4993,1,533.0013,533.0014,535.0018,0,0,0,0,1,,,,,,,,,,,,,,,,,,,,,,,,,,,,,,,,,,,,,,,,,,,,,,,,,,
,,5ead89a08a4c3741712fb05b,42,male,2024-04-19_18h40.58.953,stockport_simplified,2022.2.4,Win32,75.18796992,661e456ee6de07e70aa9ef7b,66229d97fbe898816def3226,,,,,,,,,,,,,,,,,,,,,,,,,,,,,,,,,,,,,,,,,,,,,,,,,,,,,,,,1,8,68,58,1,N,M,D,o2_image,stimuli/out2.png,stimuli/out1.png,stimuli/correct_out2.png,,,,,,,,,,,,,,,,,,,,,,,,,,,,,,,,,,,,,,
,,5ead89a08a4c3741712fb05b,42,male,2024-04-19_18h40.58.953,stockport_simplified,2022.2.4,Win32,75.18796992,661e456ee6de07e70aa9ef7b,66229d97fbe898816def3226,,,,,,,,,,,,,,,,,,,,,,,,,,,,,,,,,,535.0021,538.0832,"[3,8,6,1,4,2,7,5]","[[0.3,0.2],[-0.3,0.2]]","[[-0.125,-0.2],[0.125,-0.2]]",0.140740741,-0.188888889,1,0,0,2.5741,o2_image,538.0835,1,538.5768,538.5768,540.578,0,0,0,0,1,,,,,,,,,,,,,,,,,,,,,,,,,,,,,,,,,,,,,,,,,,,,,,,,,,
,,5ead89a08a4c3741712fb05b,42,male,2024-04-19_18h40.58.953,stockport_simplified,2022.2.4,Win32,75.18796992,661e456ee6de07e70aa9ef7b,66229d97fbe898816def3226,,,,,,,,,,,,,,,,,,,,,,,,,,,,,,,,,,,,,,,,,,,,,,,,,,,,,,,,1,9,69,19,1,B,Y,N,o2_image,stimuli/out2.png,stimuli/out1.png,stimuli/correct_out2.png,,,,,,,,,,,,,,,,,,,,,,,,,,,,,,,,,,,,,,
,,5ead89a08a4c3741712fb05b,42,male,2024-04-19_18h40.58.953,stockport_simplified,2022.2.4,Win32,75.18796992,661e456ee6de07e70aa9ef7b,66229d97fbe898816def3226,,,,,,,,,,,,,,,,,,,,,,,,,,,,,,,,,,540.5782,544.8995,"[3,8,6,1,4,2,7,5]","[[0.3,0.2],[-0.3,0.2]]","[[0.125,-0.2],[-0.125,-0.2]]",0.136111111,-0.183333333,1,0,0,3.8152,o1_image,544.9045,1,545.4061,545.4061,547.407,0,0,0,0,1,,,,,,,,,,,,,,,,,,,,,,,,,,,,,,,,,,,,,,,,,,,,,,,,,,
,,5ead89a08a4c3741712fb05b,42,male,2024-04-19_18h40.58.953,stockport_simplified,2022.2.4,Win32,75.18796992,661e456ee6de07e70aa9ef7b,66229d97fbe898816def3226,,,,,,,,,,,,,,,,,,,,,,,,,,,,,,,,,,,,,,,,,,,,,,,,,,,,,,,,1,10,70,33,1,A,X,N,o1_image,stimuli/out1.png,stimuli/correct_out1.png,stimuli/out2.png,,,,,,,,,,,,,,,,,,,,,,,,,,,,,,,,,,,,,,
,,5ead89a08a4c3741712fb05b,42,male,2024-04-19_18h40.58.953,stockport_simplified,2022.2.4,Win32,75.18796992,661e456ee6de07e70aa9ef7b,66229d97fbe898816def3226,,,,,,,,,,,,,,,,,,,,,,,,,,,,,,,,,,547.4072,549.1141,"[3,8,6,1,4,2,7,5]","[[0.3,0.2],[-0.3,0.2]]","[[0.125,-0.2],[-0.125,-0.2]]",-0.088888889,-0.211111111,1,0,0,1.2004,o2_image,549.1145,1,549.6077,549.6077,551.6084,0,0,0,0,1,,,,,,,,,,,,,,,,,,,,,,,,,,,,,,,,,,,,,,,,,,,,,,,,,,
,,5ead89a08a4c3741712fb05b,42,male,2024-04-19_18h40.58.953,stockport_simplified,2022.2.4,Win32,75.18796992,661e456ee6de07e70aa9ef7b,66229d97fbe898816def3226,,,,,,,,,,,,,,,,,,,,,,,,,,,,,,,,,,,,,,,,,,,,,,,,,,,,,,,,1,11,71,12,1,B,X,N,o2_image,stimuli/out2.png,stimuli/out1.png,stimuli/correct_out2.png,,,,,,,,,,,,,,,,,,,,,,,,,,,,,,,,,,,,,,
,,5ead89a08a4c3741712fb05b,42,male,2024-04-19_18h40.58.953,stockport_simplified,2022.2.4,Win32,75.18796992,661e456ee6de07e70aa9ef7b,66229d97fbe898816def3226,,,,,,,,,,,,,,,,,,,,,,,,,,,,,,,,,,551.6086,554.5162,"[3,8,6,1,4,2,7,5]","[[-0.3,0.2],[0.3,0.2]]","[[0.125,-0.2],[-0.125,-0.2]]",-0.113888889,-0.19537037,1,0,0,2.4002,o2_image,554.5212,1,555.0236,555.0236,557.0242,0,0,0,0,1,,,,,,,,,,,,,,,,,,,,,,,,,,,,,,,,,,,,,,,,,,,,,,,,,,
,,5ead89a08a4c3741712fb05b,42,male,2024-04-19_18h40.58.953,stockport_simplified,2022.2.4,Win32,75.18796992,661e456ee6de07e70aa9ef7b,66229d97fbe898816def3226,,,,,,,,,,,,,,,,,,,,,,,,,,,,,,,,,,,,,,,,,,,,,,,,,,,,,,,,1,12,72,55,1,N,M,D,o2_image,stimuli/out2.png,stimuli/out1.png,stimuli/correct_out2.png,,,,,,,,,,,,,,,,,,,,,,,,,,,,,,,,,,,,,,
,,5ead89a08a4c3741712fb05b,42,male,2024-04-19_18h40.58.953,stockport_simplified,2022.2.4,Win32,75.18796992,661e456ee6de07e70aa9ef7b,66229d97fbe898816def3226,,,,,,,,,,,,,,,,,,,,,,,,,,,,,,,,,,557.0244,559.0249,"[3,8,6,1,4,2,7,5]","[[0.3,0.2],[-0.3,0.2]]","[[0.125,-0.2],[-0.125,-0.2]]",-0.123148148,-0.218518519,1,0,0,1.4937,o2_image,559.0253,1,559.5182,559.5183,561.5195,0,0,0,0,1,,,,,,,,,,,,,,,,,,,,,,,,,,,,,,,,,,,,,,,,,,,,,,,,,,
,,5ead89a08a4c3741712fb05b,42,male,2024-04-19_18h40.58.953,stockport_simplified,2022.2.4,Win32,75.18796992,661e456ee6de07e70aa9ef7b,66229d97fbe898816def3226,,,,,,,,,,,,,,,,,,,,,,,,,,,,,,,,,,,,,,,,,,,,,,,,,,,,,,,,1,13,73,27,1,N,M,D,o2_image,stimuli/out2.png,stimuli/out1.png,stimuli/correct_out2.png,,,,,,,,,,,,,,,,,,,,,,,,,,,,,,,,,,,,,,
,,5ead89a08a4c3741712fb05b,42,male,2024-04-19_18h40.58.953,stockport_simplified,2022.2.4,Win32,75.18796992,661e456ee6de07e70aa9ef7b,66229d97fbe898816def3226,,,,,,,,,,,,,,,,,,,,,,,,,,,,,,,,,,561.5197,563.5197,"[3,8,6,1,4,2,7,5]","[[-0.3,0.2],[0.3,0.2]]","[[0.125,-0.2],[-0.125,-0.2]]",0.112037037,-0.173148148,1,0,0,1.4935,o1_image,563.5201,1,564.0134,564.0134,566.0141,0,0,0,0,1,,,,,,,,,,,,,,,,,,,,,,,,,,,,,,,,,,,,,,,,,,,,,,,,,,
,,5ead89a08a4c3741712fb05b,42,male,2024-04-19_18h40.58.953,stockport_simplified,2022.2.4,Win32,75.18796992,661e456ee6de07e70aa9ef7b,66229d97fbe898816def3226,,,,,,,,,,,,,,,,,,,,,,,,,,,,,,,,,,,,,,,,,,,,,,,,,,,,,,,,1,14,74,22,1,N,M,C,o1_image,stimuli/out1.png,stimuli/correct_out1.png,stimuli/out2.png,,,,,,,,,,,,,,,,,,,,,,,,,,,,,,,,,,,,,,
,,5ead89a08a4c3741712fb05b,42,male,2024-04-19_18h40.58.953,stockport_simplified,2022.2.4,Win32,75.18796992,661e456ee6de07e70aa9ef7b,66229d97fbe898816def3226,,,,,,,,,,,,,,,,,,,,,,,,,,,,,,,,,,566.0143,569.0155,"[3,8,6,1,4,2,7,5]","[[0.3,0.2],[-0.3,0.2]]","[[0.125,-0.2],[-0.125,-0.2]]",0.109259259,-0.177777778,1,0,0,2.4936,o1_image,569.0205,1,569.5223,569.5224,571.523,0,0,0,0,1,,,,,,,,,,,,,,,,,,,,,,,,,,,,,,,,,,,,,,,,,,,,,,,,,,
,,5ead89a08a4c3741712fb05b,42,male,2024-04-19_18h40.58.953,stockport_simplified,2022.2.4,Win32,75.18796992,661e456ee6de07e70aa9ef7b,66229d97fbe898816def3226,,,,,,,,,,,,,,,,,,,,,,,,,,,,,,,,,,,,,,,,,,,,,,,,,,,,,,,,1,15,75,6,1,A,Y,N,o1_image,stimuli/out1.png,stimuli/correct_out1.png,stimuli/out2.png,,,,,,,,,,,,,,,,,,,,,,,,,,,,,,,,,,,,,,
,,5ead89a08a4c3741712fb05b,42,male,2024-04-19_18h40.58.953,stockport_simplified,2022.2.4,Win32,75.18796992,661e456ee6de07e70aa9ef7b,66229d97fbe898816def3226,,,,,,,,,,,,,,,,,,,,,,,,,,,,,,,,,,571.5233,573.0568,"[3,8,6,1,4,2,7,5]","[[0.3,0.2],[-0.3,0.2]]","[[0.125,-0.2],[-0.125,-0.2]]",0.142592593,-0.249074074,1,0,0,1.0269,o1_image,573.0572,1,573.5506,573.5506,575.5516,0,0,0,0,1,,,,,,,,,,,,,,,,,,,,,,,,,,,,,,,,,,,,,,,,,,,,,,,,,,
,,5ead89a08a4c3741712fb05b,42,male,2024-04-19_18h40.58.953,stockport_simplified,2022.2.4,Win32,75.18796992,661e456ee6de07e70aa9ef7b,66229d97fbe898816def3226,,,,,,,,,,,,,,,,,,,,,,,,,,,,,,,,,,,,,,,,,,,,,,,,,,,,,,,,1,16,76,2,1,A,X,N,o1_image,stimuli/out1.png,stimuli/correct_out1.png,stimuli/out2.png,,,,,,,,,,,,,,,,,,,,,,,,,,,,,,,,,,,,,,
,,5ead89a08a4c3741712fb05b,42,male,2024-04-19_18h40.58.953,stockport_simplified,2022.2.4,Win32,75.18796992,661e456ee6de07e70aa9ef7b,66229d97fbe898816def3226,,,,,,,,,,,,,,,,,,,,,,,,,,,,,,,,,,575.5518,577.5522,"[3,8,6,1,4,2,7,5]","[[0.3,0.2],[-0.3,0.2]]","[[0.125,-0.2],[-0.125,-0.2]]",-0.149074074,-0.193518519,1,0,0,1.4936,o2_image,577.5526,1,578.0457,578.0457,580.0471,0,0,0,0,1,,,,,,,,,,,,,,,,,,,,,,,,,,,,,,,,,,,,,,,,,,,,,,,,,,
,,5ead89a08a4c3741712fb05b,42,male,2024-04-19_18h40.58.953,stockport_simplified,2022.2.4,Win32,75.18796992,661e456ee6de07e70aa9ef7b,66229d97fbe898816def3226,,,,,,,,,,,,,,,,,,,,,,,,,,,,,,,,,,,,,,,,,,,,,,,,,,,,,,,,1,17,77,41,1,B,X,N,o2_image,stimuli/out2.png,stimuli/out1.png,stimuli/correct_out2.png,,,,,,,,,,,,,,,,,,,,,,,,,,,,,,,,,,,,,,
,,5ead89a08a4c3741712fb05b,42,male,2024-04-19_18h40.58.953,stockport_simplified,2022.2.4,Win32,75.18796992,661e456ee6de07e70aa9ef7b,66229d97fbe898816def3226,,,,,,,,,,,,,,,,,,,,,,,,,,,,,,,,,,580.0473,583.5145,"[3,8,6,1,4,2,7,5]","[[-0.3,0.2],[0.3,0.2]]","[[-0.125,-0.2],[0.125,-0.2]]",-0.091666667,-0.176851852,1,0,0,2.961,o1_image,583.5195,1,584.0214,584.0214,586.022,0,0,0,0,1,,,,,,,,,,,,,,,,,,,,,,,,,,,,,,,,,,,,,,,,,,,,,,,,,,
,,5ead89a08a4c3741712fb05b,42,male,2024-04-19_18h40.58.953,stockport_simplified,2022.2.4,Win32,75.18796992,661e456ee6de07e70aa9ef7b,66229d97fbe898816def3226,,,,,,,,,,,,,,,,,,,,,,,,,,,,,,,,,,,,,,,,,,,,,,,,,,,,,,,,1,18,78,32,1,A,X,N,o1_image,stimuli/out1.png,stimuli/correct_out1.png,stimuli/out2.png,,,,,,,,,,,,,,,,,,,,,,,,,,,,,,,,,,,,,,
,,5ead89a08a4c3741712fb05b,42,male,2024-04-19_18h40.58.953,stockport_simplified,2022.2.4,Win32,75.18796992,661e456ee6de07e70aa9ef7b,66229d97fbe898816def3226,,,,,,,,,,,,,,,,,,,,,,,,,,,,,,,,,,586.0222,587.6494,"[3,8,6,1,4,2,7,5]","[[-0.3,0.2],[0.3,0.2]]","[[-0.125,-0.2],[0.125,-0.2]]",0.138888889,-0.165740741,1,0,0,1.1201,o2_image,587.6497,1,588.1428,588.1428,590.1436,0,0,0,0,1,,,,,,,,,,,,,,,,,,,,,,,,,,,,,,,,,,,,,,,,,,,,,,,,,,
,,5ead89a08a4c3741712fb05b,42,male,2024-04-19_18h40.58.953,stockport_simplified,2022.2.4,Win32,75.18796992,661e456ee6de07e70aa9ef7b,66229d97fbe898816def3226,,,,,,,,,,,,,,,,,,,,,,,,,,,,,,,,,,,,,,,,,,,,,,,,,,,,,,,,1,19,79,44,1,B,X,N,o2_image,stimuli/out2.png,stimuli/out1.png,stimuli/correct_out2.png,,,,,,,,,,,,,,,,,,,,,,,,,,,,,,,,,,,,,,
,,5ead89a08a4c3741712fb05b,42,male,2024-04-19_18h40.58.953,stockport_simplified,2022.2.4,Win32,75.18796992,661e456ee6de07e70aa9ef7b,66229d97fbe898816def3226,,,,,,,,,,,,,,,,,,,,,,,,,,,,,,,,,,590.1437,592.4115,"[3,8,6,1,4,2,7,5]","[[0.3,0.2],[-0.3,0.2]]","[[0.125,-0.2],[-0.125,-0.2]]",-0.117592593,-0.181481481,1,0,0,1.7609,o2_image,592.4165,1,592.9182,592.9182,594.9189,0,0,0,0,1,,,,,,,,,,,,,,,,,,,,,,,,,,,,,,,,,,,,,,,,,,,,,,,,,,
,,5ead89a08a4c3741712fb05b,42,male,2024-04-19_18h40.58.953,stockport_simplified,2022.2.4,Win32,75.18796992,661e456ee6de07e70aa9ef7b,66229d97fbe898816def3226,,,,,,,,,,,,,,,,,,,,,,,,,,,,,,,,,,,,,,,,,,,,,,,,,,,,,,,,1,20,80,48,1,B,Y,N,o2_image,stimuli/out2.png,stimuli/out1.png,stimuli/correct_out2.png,,,,,,,,,,,,,,,,,,,,,,,,,,,,,,,,,,,,,,
,,5ead89a08a4c3741712fb05b,42,male,2024-04-19_18h40.58.953,stockport_simplified,2022.2.4,Win32,75.18796992,661e456ee6de07e70aa9ef7b,66229d97fbe898816def3226,,,,,,,,,,,,,,,,,,,,,,,,,,,,,,,,,,594.9191,596.6796,"[3,8,6,1,4,2,7,5]","[[0.3,0.2],[-0.3,0.2]]","[[0.125,-0.2],[-0.125,-0.2]]",-0.080555556,-0.187037037,1,0,0,1.2538,o2_image,596.6799,1,597.1733,597.1733,599.174,0,0,0,0,1,,,,,,,,,,,,,,,,,,,,,,,,,,,,,,,,,,,,,,,,,,,,,,,,,,
,,5ead89a08a4c3741712fb05b,42,male,2024-04-19_18h40.58.953,stockport_simplified,2022.2.4,Win32,75.18796992,661e456ee6de07e70aa9ef7b,66229d97fbe898816def3226,,,,,,,,,,,,,,,,,,,,,,,,,,,,,,,,,,,,,,,,,,,,,,,,,,,,,,,,1,21,81,17,1,B,Y,N,o2_image,stimuli/out2.png,stimuli/out1.png,stimuli/correct_out2.png,,,,,,,,,,,,,,,,,,,,,,,,,,,,,,,,,,,,,,
,,5ead89a08a4c3741712fb05b,42,male,2024-04-19_18h40.58.953,stockport_simplified,2022.2.4,Win32,75.18796992,661e456ee6de07e70aa9ef7b,66229d97fbe898816def3226,,,,,,,,,,,,,,,,,,,,,,,,,,,,,,,,,,599.1742,600.9879,"[3,8,6,1,4,2,7,5]","[[-0.3,0.2],[0.3,0.2]]","[[0.125,-0.2],[-0.125,-0.2]]",0.125,-0.187037037,1,0,0,1.3069,o1_image,600.9883,1,601.4816,601.4816,603.4825,0,0,0,0,1,,,,,,,,,,,,,,,,,,,,,,,,,,,,,,,,,,,,,,,,,,,,,,,,,,
,,5ead89a08a4c3741712fb05b,42,male,2024-04-19_18h40.58.953,stockport_simplified,2022.2.4,Win32,75.18796992,661e456ee6de07e70aa9ef7b,66229d97fbe898816def3226,,,,,,,,,,,,,,,,,,,,,,,,,,,,,,,,,,,,,,,,,,,,,,,,,,,,,,,,1,22,82,34,1,A,X,N,o1_image,stimuli/out1.png,stimuli/correct_out1.png,stimuli/out2.png,,,,,,,,,,,,,,,,,,,,,,,,,,,,,,,,,,,,,,
,,5ead89a08a4c3741712fb05b,42,male,2024-04-19_18h40.58.953,stockport_simplified,2022.2.4,Win32,75.18796992,661e456ee6de07e70aa9ef7b,66229d97fbe898816def3226,,,,,,,,,,,,,,,,,,,,,,,,,,,,,,,,,,603.4827,605.4834,"[3,8,6,1,4,2,7,5]","[[-0.3,0.2],[0.3,0.2]]","[[0.125,-0.2],[-0.125,-0.2]]",-0.135185185,-0.160185185,1,0,0,1.4937,o2_image,605.4838,1,605.9767,605.9767,607.9775,0,0,0,0,1,,,,,,,,,,,,,,,,,,,,,,,,,,,,,,,,,,,,,,,,,,,,,,,,,,
,,5ead89a08a4c3741712fb05b,42,male,2024-04-19_18h40.58.953,stockport_simplified,2022.2.4,Win32,75.18796992,661e456ee6de07e70aa9ef7b,66229d97fbe898816def3226,,,,,,,,,,,,,,,,,,,,,,,,,,,,,,,,,,,,,,,,,,,,,,,,,,,,,,,,1,23,83,18,1,B,Y,N,o2_image,stimuli/out2.png,stimuli/out1.png,stimuli/correct_out2.png,,,,,,,,,,,,,,,,,,,,,,,,,,,,,,,,,,,,,,
,,5ead89a08a4c3741712fb05b,42,male,2024-04-19_18h40.58.953,stockport_simplified,2022.2.4,Win32,75.18796992,661e456ee6de07e70aa9ef7b,66229d97fbe898816def3226,,,,,,,,,,,,,,,,,,,,,,,,,,,,,,,,,,607.9777,609.5247,"[3,8,6,1,4,2,7,5]","[[-0.3,0.2],[0.3,0.2]]","[[-0.125,-0.2],[0.125,-0.2]]",0.125,-0.177777778,1,0,0,1.0404,o2_image,609.525,1,610.0184,610.0184,612.0193,0,0,0,0,1,,,,,,,,,,,,,,,,,,,,,,,,,,,,,,,,,,,,,,,,,,,,,,,,,,
,,5ead89a08a4c3741712fb05b,42,male,2024-04-19_18h40.58.953,stockport_simplified,2022.2.4,Win32,75.18796992,661e456ee6de07e70aa9ef7b,66229d97fbe898816def3226,,,,,,,,,,,,,,,,,,,,,,,,,,,,,,,,,,,,,,,,,,,,,,,,,,,,,,,,1,24,84,47,1,B,Y,N,o2_image,stimuli/out2.png,stimuli/out1.png,stimuli/correct_out2.png,,,,,,,,,,,,,,,,,,,,,,,,,,,,,,,,,,,,,,
,,5ead89a08a4c3741712fb05b,42,male,2024-04-19_18h40.58.953,stockport_simplified,2022.2.4,Win32,75.18796992,661e456ee6de07e70aa9ef7b,66229d97fbe898816def3226,,,,,,,,,,,,,,,,,,,,,,,,,,,,,,,,,,612.0195,613.8597,"[3,8,6,1,4,2,7,5]","[[-0.3,0.2],[0.3,0.2]]","[[0.125,-0.2],[-0.125,-0.2]]",0.093518519,-0.160185185,1,0,0,1.3335,o1_image,613.8601,1,614.3533,614.3533,616.3542,0,0,0,0,1,,,,,,,,,,,,,,,,,,,,,,,,,,,,,,,,,,,,,,,,,,,,,,,,,,
,,5ead89a08a4c3741712fb05b,42,male,2024-04-19_18h40.58.953,stockport_simplified,2022.2.4,Win32,75.18796992,661e456ee6de07e70aa9ef7b,66229d97fbe898816def3226,,,,,,,,,,,,,,,,,,,,,,,,,,,,,,,,,,,,,,,,,,,,,,,,,,,,,,,,1,25,85,38,1,A,Y,N,o1_image,stimuli/out1.png,stimuli/correct_out1.png,stimuli/out2.png,,,,,,,,,,,,,,,,,,,,,,,,,,,,,,,,,,,,,,
,,5ead89a08a4c3741712fb05b,42,male,2024-04-19_18h40.58.953,stockport_simplified,2022.2.4,Win32,75.18796992,661e456ee6de07e70aa9ef7b,66229d97fbe898816def3226,,,,,,,,,,,,,,,,,,,,,,,,,,,,,,,,,,616.3545,619.0617,"[3,8,6,1,4,2,7,5]","[[-0.3,0.2],[0.3,0.2]]","[[-0.125,-0.2],[0.125,-0.2]]",-0.108333333,-0.199074074,1,0,0,2.2002,o1_image,619.0621,1,619.5553,619.5554,621.556,0,0,0,0,1,,,,,,,,,,,,,,,,,,,,,,,,,,,,,,,,,,,,,,,,,,,,,,,,,,
,,5ead89a08a4c3741712fb05b,42,male,2024-04-19_18h40.58.953,stockport_simplified,2022.2.4,Win32,75.18796992,661e456ee6de07e70aa9ef7b,66229d97fbe898816def3226,,,,,,,,,,,,,,,,,,,,,,,,,,,,,,,,,,,,,,,,,,,,,,,,,,,,,,,,1,26,86,54,1,N,M,C,o1_image,stimuli/out1.png,stimuli/correct_out1.png,stimuli/out2.png,,,,,,,,,,,,,,,,,,,,,,,,,,,,,,,,,,,,,,
,,5ead89a08a4c3741712fb05b,42,male,2024-04-19_18h40.58.953,stockport_simplified,2022.2.4,Win32,75.18796992,661e456ee6de07e70aa9ef7b,66229d97fbe898816def3226,,,,,,,,,,,,,,,,,,,,,,,,,,,,,,,,,,621.5562,623.4774,"[3,8,6,1,4,2,7,5]","[[0.3,0.2],[-0.3,0.2]]","[[-0.125,-0.2],[0.125,-0.2]]",0.141666667,-0.180555556,1,0,0,1.414,o2_image,623.4778,1,623.9708,623.9708,625.9713,0,0,0,0,1,,,,,,,,,,,,,,,,,,,,,,,,,,,,,,,,,,,,,,,,,,,,,,,,,,
,,5ead89a08a4c3741712fb05b,42,male,2024-04-19_18h40.58.953,stockport_simplified,2022.2.4,Win32,75.18796992,661e456ee6de07e70aa9ef7b,66229d97fbe898816def3226,,,,,,,,,,,,,,,,,,,,,,,,,,,,,,,,,,,,,,,,,,,,,,,,,,,,,,,,1,27,87,40,1,B,X,N,o2_image,stimuli/out2.png,stimuli/out1.png,stimuli/correct_out2.png,,,,,,,,,,,,,,,,,,,,,,,,,,,,,,,,,,,,,,
,,5ead89a08a4c3741712fb05b,42,male,2024-04-19_18h40.58.953,stockport_simplified,2022.2.4,Win32,75.18796992,661e456ee6de07e70aa9ef7b,66229d97fbe898816def3226,,,,,,,,,,,,,,,,,,,,,,,,,,,,,,,,,,625.9714,627.3452,"[3,8,6,1,4,2,7,5]","[[-0.3,0.2],[0.3,0.2]]","[[-0.125,-0.2],[0.125,-0.2]]",0.125,-0.187962963,1,0,0,0.8668,o2_image,627.3456,1,627.8388,627.8388,629.8394,0,0,0,0,1,,,,,,,,,,,,,,,,,,,,,,,,,,,,,,,,,,,,,,,,,,,,,,,,,,
,,5ead89a08a4c3741712fb05b,42,male,2024-04-19_18h40.58.953,stockport_simplified,2022.2.4,Win32,75.18796992,661e456ee6de07e70aa9ef7b,66229d97fbe898816def3226,,,,,,,,,,,,,,,,,,,,,,,,,,,,,,,,,,,,,,,,,,,,,,,,,,,,,,,,1,28,88,59,1,N,M,D,o2_image,stimuli/out2.png,stimuli/out1.png,stimuli/correct_out2.png,,,,,,,,,,,,,,,,,,,,,,,,,,,,,,,,,,,,,,
,,5ead89a08a4c3741712fb05b,42,male,2024-04-19_18h40.58.953,stockport_simplified,2022.2.4,Win32,75.18796992,661e456ee6de07e70aa9ef7b,66229d97fbe898816def3226,,,,,,,,,,,,,,,,,,,,,,,,,,,,,,,,,,629.8396,632.3336,"[3,8,6,1,4,2,7,5]","[[-0.3,0.2],[0.3,0.2]]","[[-0.125,-0.2],[0.125,-0.2]]",-0.144444444,-0.171296296,1,0,0,1.9872,o1_image,632.3386,1,632.8405,632.8406,634.8413,0,0,0,0,1,,,,,,,,,,,,,,,,,,,,,,,,,,,,,,,,,,,,,,,,,,,,,,,,,,
,,5ead89a08a4c3741712fb05b,42,male,2024-04-19_18h40.58.953,stockport_simplified,2022.2.4,Win32,75.18796992,661e456ee6de07e70aa9ef7b,66229d97fbe898816def3226,,,,,,,,,,,,,,,,,,,,,,,,,,,,,,,,,,,,,,,,,,,,,,,,,,,,,,,,1,29,89,36,1,A,Y,N,o1_image,stimuli/out1.png,stimuli/correct_out1.png,stimuli/out2.png,,,,,,,,,,,,,,,,,,,,,,,,,,,,,,,,,,,,,,
,,5ead89a08a4c3741712fb05b,42,male,2024-04-19_18h40.58.953,stockport_simplified,2022.2.4,Win32,75.18796992,661e456ee6de07e70aa9ef7b,66229d97fbe898816def3226,,,,,,,,,,,,,,,,,,,,,,,,,,,,,,,,,,634.8415,636.4686,"[3,8,6,1,4,2,7,5]","[[-0.3,0.2],[0.3,0.2]]","[[0.125,-0.2],[-0.125,-0.2]]",-0.077777778,-0.15462963,1,0,0,1.1201,o2_image,636.4689,0,636.9622,636.9622,638.9631,0,0,0,0,1,,,,,,,,,,,,,,,,,,,,,,,,,,,,,,,,,,,,,,,,,,,,,,,,,,
,,5ead89a08a4c3741712fb05b,42,male,2024-04-19_18h40.58.953,stockport_simplified,2022.2.4,Win32,75.18796992,661e456ee6de07e70aa9ef7b,66229d97fbe898816def3226,,,,,,,,,,,,,,,,,,,,,,,,,,,,,,,,,,,,,,,,,,,,,,,,,,,,,,,,1,30,90,4,1,A,X,N,o1_image,stimuli/out1.png,stimuli/correct_out1.png,stimuli/out2.png,,,,,,,,,,,,,,,,,,,,,,,,,,,,,,,,,,,,,,
,,5ead89a08a4c3741712fb05b,42,male,2024-04-19_18h40.58.953,stockport_simplified,2022.2.4,Win32,75.18796992,661e456ee6de07e70aa9ef7b,66229d97fbe898816def3226,,,,,,,,,,,,,,,,,,,,,,,,,,,,,,,,,,638.9632,641.9112,"[3,8,6,1,4,2,7,5]","[[-0.3,0.2],[0.3,0.2]]","[[-0.125,-0.2],[0.125,-0.2]]",-0.10462963,-0.192592593,1,0,0,2.441,o1_image,641.9115,1,642.4046,642.4046,644.4053,0,0,0,0,1,,,,,,,,,,,,,,,,,,,,,,,,,,,,,,,,,,,,,,,,,,,,,,,,,,
,,5ead89a08a4c3741712fb05b,42,male,2024-04-19_18h40.58.953,stockport_simplified,2022.2.4,Win32,75.18796992,661e456ee6de07e70aa9ef7b,66229d97fbe898816def3226,,,,,,,,,,,,,,,,,,,,,,,,,,,,,,,,,,,,,,,,,,,,,,,,,,,,,,,,1,31,91,9,1,A,Y,N,o1_image,stimuli/out1.png,stimuli/correct_out1.png,stimuli/out2.png,,,,,,,,,,,,,,,,,,,,,,,,,,,,,,,,,,,,,,
,,5ead89a08a4c3741712fb05b,42,male,2024-04-19_18h40.58.953,stockport_simplified,2022.2.4,Win32,75.18796992,661e456ee6de07e70aa9ef7b,66229d97fbe898816def3226,,,,,,,,,,,,,,,,,,,,,,,,,,,,,,,,,,644.4055,646.7795,"[3,8,6,1,4,2,7,5]","[[-0.3,0.2],[0.3,0.2]]","[[0.125,-0.2],[-0.125,-0.2]]",-0.135185185,-0.173148148,1,0,0,1.8672,o2_image,646.7798,1,647.2732,647.2732,649.2737,0,0,0,0,1,,,,,,,,,,,,,,,,,,,,,,,,,,,,,,,,,,,,,,,,,,,,,,,,,,
,,5ead89a08a4c3741712fb05b,42,male,2024-04-19_18h40.58.953,stockport_simplified,2022.2.4,Win32,75.18796992,661e456ee6de07e70aa9ef7b,66229d97fbe898816def3226,,,,,,,,,,,,,,,,,,,,,,,,,,,,,,,,,,,,,,,,,,,,,,,,,,,,,,,,1,32,92,13,1,B,X,N,o2_image,stimuli/out2.png,stimuli/out1.png,stimuli/correct_out2.png,,,,,,,,,,,,,,,,,,,,,,,,,,,,,,,,,,,,,,
,,5ead89a08a4c3741712fb05b,42,male,2024-04-19_18h40.58.953,stockport_simplified,2022.2.4,Win32,75.18796992,661e456ee6de07e70aa9ef7b,66229d97fbe898816def3226,,,,,,,,,,,,,,,,,,,,,,,,,,,,,,,,,,649.274,651.3011,"[3,8,6,1,4,2,7,5]","[[-0.3,0.2],[0.3,0.2]]","[[0.125,-0.2],[-0.125,-0.2]]",0.123148148,-0.166666667,1,0,0,1.5205,o1_image,651.3015,1,651.7948,651.7948,653.7955,0,0,0,0,1,,,,,,,,,,,,,,,,,,,,,,,,,,,,,,,,,,,,,,,,,,,,,,,,,,
,,5ead89a08a4c3741712fb05b,42,male,2024-04-19_18h40.58.953,stockport_simplified,2022.2.4,Win32,75.18796992,661e456ee6de07e70aa9ef7b,66229d97fbe898816def3226,,,,,,,,,,,,,,,,,,,,,,,,,,,,,,,,,,,,,,,,,,,,,,,,,,,,,,,,1,33,93,8,1,A,Y,N,o1_image,stimuli/out1.png,stimuli/correct_out1.png,stimuli/out2.png,,,,,,,,,,,,,,,,,,,,,,,,,,,,,,,,,,,,,,
,,5ead89a08a4c3741712fb05b,42,male,2024-04-19_18h40.58.953,stockport_simplified,2022.2.4,Win32,75.18796992,661e456ee6de07e70aa9ef7b,66229d97fbe898816def3226,,,,,,,,,,,,,,,,,,,,,,,,,,,,,,,,,,653.7958,656.4365,"[3,8,6,1,4,2,7,5]","[[0.3,0.2],[-0.3,0.2]]","[[0.125,-0.2],[-0.125,-0.2]]",0.123148148,-0.166666667,1,0,0,2.1341,o1_image,656.4415,1,656.9437,656.9437,658.9447,0,0,0,0,1,,,,,,,,,,,,,,,,,,,,,,,,,,,,,,,,,,,,,,,,,,,,,,,,,,
,,5ead89a08a4c3741712fb05b,42,male,2024-04-19_18h40.58.953,stockport_simplified,2022.2.4,Win32,75.18796992,661e456ee6de07e70aa9ef7b,66229d97fbe898816def3226,,,,,,,,,,,,,,,,,,,,,,,,,,,,,,,,,,,,,,,,,,,,,,,,,,,,,,,,1,34,94,5,1,A,Y,N,o1_image,stimuli/out1.png,stimuli/correct_out1.png,stimuli/out2.png,,,,,,,,,,,,,,,,,,,,,,,,,,,,,,,,,,,,,,
,,5ead89a08a4c3741712fb05b,42,male,2024-04-19_18h40.58.953,stockport_simplified,2022.2.4,Win32,75.18796992,661e456ee6de07e70aa9ef7b,66229d97fbe898816def3226,,,,,,,,,,,,,,,,,,,,,,,,,,,,,,,,,,658.9449,660.6916,"[3,8,6,1,4,2,7,5]","[[0.3,0.2],[-0.3,0.2]]","[[0.125,-0.2],[-0.125,-0.2]]",0.10462963,-0.211111111,1,0,0,1.2404,o1_image,660.6919,1,661.1851,661.1851,663.186,0,0,0,0,1,,,,,,,,,,,,,,,,,,,,,,,,,,,,,,,,,,,,,,,,,,,,,,,,,,
,,5ead89a08a4c3741712fb05b,42,male,2024-04-19_18h40.58.953,stockport_simplified,2022.2.4,Win32,75.18796992,661e456ee6de07e70aa9ef7b,66229d97fbe898816def3226,,,,,,,,,,,,,,,,,,,,,,,,,,,,,,,,,,,,,,,,,,,,,,,,,,,,,,,,1,35,95,7,1,A,Y,N,o1_image,stimuli/out1.png,stimuli/correct_out1.png,stimuli/out2.png,,,,,,,,,,,,,,,,,,,,,,,,,,,,,,,,,,,,,,
,,5ead89a08a4c3741712fb05b,42,male,2024-04-19_18h40.58.953,stockport_simplified,2022.2.4,Win32,75.18796992,661e456ee6de07e70aa9ef7b,66229d97fbe898816def3226,,,,,,,,,,,,,,,,,,,,,,,,,,,,,,,,,,663.1861,666.1205,"[3,8,6,1,4,2,7,5]","[[0.3,0.2],[-0.3,0.2]]","[[0.125,-0.2],[-0.125,-0.2]]",-0.135185185,-0.209259259,1,0,0,2.4273,o2_image,666.1207,1,666.6138,666.6139,668.6146,0,0,0,0,1,,,,,,,,,,,,,,,,,,,,,,,,,,,,,,,,,,,,,,,,,,,,,,,,,,
,,5ead89a08a4c3741712fb05b,42,male,2024-04-19_18h40.58.953,stockport_simplified,2022.2.4,Win32,75.18796992,661e456ee6de07e70aa9ef7b,66229d97fbe898816def3226,,,,,,,,,,,,,,,,,,,,,,,,,,,,,,,,,,,,,,,,,,,,,,,,,,,,,,,,1,36,96,56,1,N,M,D,o2_image,stimuli/out2.png,stimuli/out1.png,stimuli/correct_out2.png,,,,,,,,,,,,,,,,,,,,,,,,,,,,,,,,,,,,,,
,,5ead89a08a4c3741712fb05b,42,male,2024-04-19_18h40.58.953,stockport_simplified,2022.2.4,Win32,75.18796992,661e456ee6de07e70aa9ef7b,66229d97fbe898816def3226,,,,,,,,,,,,,,,,,,,,,,,,,,,,,,,,,,668.6149,670.949,"[3,8,6,1,4,2,7,5]","[[0.3,0.2],[-0.3,0.2]]","[[-0.125,-0.2],[0.125,-0.2]]",0.136111111,-0.184259259,1,0,0,1.8266,o2_image,670.9493,1,671.4424,671.4424,673.4433,0,0,0,0,1,,,,,,,,,,,,,,,,,,,,,,,,,,,,,,,,,,,,,,,,,,,,,,,,,,
,,5ead89a08a4c3741712fb05b,42,male,2024-04-19_18h40.58.953,stockport_simplified,2022.2.4,Win32,75.18796992,661e456ee6de07e70aa9ef7b,66229d97fbe898816def3226,,,,,,,,,,,,,,,,,,,,,,,,,,,,,,,,,,,,,,,,,,,,,,,,,,,,,,,,1,37,97,43,1,B,X,N,o2_image,stimuli/out2.png,stimuli/out1.png,stimuli/correct_out2.png,,,,,,,,,,,,,,,,,,,,,,,,,,,,,,,,,,,,,,
,,5ead89a08a4c3741712fb05b,42,male,2024-04-19_18h40.58.953,stockport_simplified,2022.2.4,Win32,75.18796992,661e456ee6de07e70aa9ef7b,66229d97fbe898816def3226,,,,,,,,,,,,,,,,,,,,,,,,,,,,,,,,,,673.4435,677.8322,"[3,8,6,1,4,2,7,5]","[[0.3,0.2],[-0.3,0.2]]","[[0.125,-0.2],[-0.125,-0.2]]",0.084259259,-0.215740741,1,0,0,3.8818,o1_image,677.8376,1,678.3386,678.3386,680.3394,0,0,0,0,1,,,,,,,,,,,,,,,,,,,,,,,,,,,,,,,,,,,,,,,,,,,,,,,,,,
,,5ead89a08a4c3741712fb05b,42,male,2024-04-19_18h40.58.953,stockport_simplified,2022.2.4,Win32,75.18796992,661e456ee6de07e70aa9ef7b,66229d97fbe898816def3226,,,,,,,,,,,,,,,,,,,,,,,,,,,,,,,,,,,,,,,,,,,,,,,,,,,,,,,,1,38,98,1,1,A,X,N,o1_image,stimuli/out1.png,stimuli/correct_out1.png,stimuli/out2.png,,,,,,,,,,,,,,,,,,,,,,,,,,,,,,,,,,,,,,
,,5ead89a08a4c3741712fb05b,42,male,2024-04-19_18h40.58.953,stockport_simplified,2022.2.4,Win32,75.18796992,661e456ee6de07e70aa9ef7b,66229d97fbe898816def3226,,,,,,,,,,,,,,,,,,,,,,,,,,,,,,,,,,680.3396,684.1678,"[3,8,6,1,4,2,7,5]","[[0.3,0.2],[-0.3,0.2]]","[[0.125,-0.2],[-0.125,-0.2]]",0.126851852,-0.177777778,1,0,0,3.3213,o1_image,684.168,1,684.6613,684.6613,686.6623,0,0,0,0,1,,,,,,,,,,,,,,,,,,,,,,,,,,,,,,,,,,,,,,,,,,,,,,,,,,
,,5ead89a08a4c3741712fb05b,42,male,2024-04-19_18h40.58.953,stockport_simplified,2022.2.4,Win32,75.18796992,661e456ee6de07e70aa9ef7b,66229d97fbe898816def3226,,,,,,,,,,,,,,,,,,,,,,,,,,,,,,,,,,,,,,,,,,,,,,,,,,,,,,,,1,39,99,20,1,N,M,C,o1_image,stimuli/out1.png,stimuli/correct_out1.png,stimuli/out2.png,,,,,,,,,,,,,,,,,,,,,,,,,,,,,,,,,,,,,,
,,5ead89a08a4c3741712fb05b,42,male,2024-04-19_18h40.58.953,stockport_simplified,2022.2.4,Win32,75.18796992,661e456ee6de07e70aa9ef7b,66229d97fbe898816def3226,,,,,,,,,,,,,,,,,,,,,,,,,,,,,,,,,,686.6625,688.943,"[3,8,6,1,4,2,7,5]","[[0.3,0.2],[-0.3,0.2]]","[[-0.125,-0.2],[0.125,-0.2]]",0.142592593,-0.183333333,1,0,0,1.7742,o2_image,688.9433,1,689.4364,689.4364,691.4376,0,0,0,0,1,,,,,,,,,,,,,,,,,,,,,,,,,,,,,,,,,,,,,,,,,,,,,,,,,,
,,5ead89a08a4c3741712fb05b,42,male,2024-04-19_18h40.58.953,stockport_simplified,2022.2.4,Win32,75.18796992,661e456ee6de07e70aa9ef7b,66229d97fbe898816def3226,,,,,,,,,,,,,,,,,,,,,,,,,,,,,,,,,,,,,,,,,,,,,,,,,,,,,,,,1,40,100,29,1,N,M,D,o2_image,stimuli/out2.png,stimuli/out1.png,stimuli/correct_out2.png,,,,,,,,,,,,,,,,,,,,,,,,,,,,,,,,,,,,,,
,,5ead89a08a4c3741712fb05b,42,male,2024-04-19_18h40.58.953,stockport_simplified,2022.2.4,Win32,75.18796992,661e456ee6de07e70aa9ef7b,66229d97fbe898816def3226,,,,,,,,,,,,,,,,,,,,,,,,,,,,,,,,,,691.4378,697.1996,"[3,8,6,1,4,2,7,5]","[[-0.3,0.2],[0.3,0.2]]","[[-0.125,-0.2],[0.125,-0.2]]",0.112037037,-0.173148148,1,0,0,5.2552,o2_image,697.2045,1,697.7065,697.7065,699.707,0,0,0,0,1,,,,,,,,,,,,,,,,,,,,,,,,,,,,,,,,,,,,,,,,,,,,,,,,,,
,,5ead89a08a4c3741712fb05b,42,male,2024-04-19_18h40.58.953,stockport_simplified,2022.2.4,Win32,75.18796992,661e456ee6de07e70aa9ef7b,66229d97fbe898816def3226,,,,,,,,,,,,,,,,,,,,,,,,,,,,,,,,,,,,,,,,,,,,,,,,,,,,,,,,1,41,101,14,1,B,X,N,o2_image,stimuli/out2.png,stimuli/out1.png,stimuli/correct_out2.png,,,,,,,,,,,,,,,,,,,,,,,,,,,,,,,,,,,,,,
,,5ead89a08a4c3741712fb05b,42,male,2024-04-19_18h40.58.953,stockport_simplified,2022.2.4,Win32,75.18796992,661e456ee6de07e70aa9ef7b,66229d97fbe898816def3226,,,,,,,,,,,,,,,,,,,,,,,,,,,,,,,,,,699.7072,701.4812,"[3,8,6,1,4,2,7,5]","[[-0.3,0.2],[0.3,0.2]]","[[-0.125,-0.2],[0.125,-0.2]]",-0.124074074,-0.238888889,1,0,0,1.267,o1_image,701.4815,1,701.975,701.975,703.9755,0,0,0,0,1,,,,,,,,,,,,,,,,,,,,,,,,,,,,,,,,,,,,,,,,,,,,,,,,,,
,,5ead89a08a4c3741712fb05b,42,male,2024-04-19_18h40.58.953,stockport_simplified,2022.2.4,Win32,75.18796992,661e456ee6de07e70aa9ef7b,66229d97fbe898816def3226,,,,,,,,,,,,,,,,,,,,,,,,,,,,,,,,,,,,,,,,,,,,,,,,,,,,,,,,1,42,102,31,1,A,X,N,o1_image,stimuli/out1.png,stimuli/correct_out1.png,stimuli/out2.png,,,,,,,,,,,,,,,,,,,,,,,,,,,,,,,,,,,,,,
,,5ead89a08a4c3741712fb05b,42,male,2024-04-19_18h40.58.953,stockport_simplified,2022.2.4,Win32,75.18796992,661e456ee6de07e70aa9ef7b,66229d97fbe898816def3226,,,,,,,,,,,,,,,,,,,,,,,,,,,,,,,,,,703.9757,706.4297,"[3,8,6,1,4,2,7,5]","[[-0.3,0.2],[0.3,0.2]]","[[0.125,-0.2],[-0.125,-0.2]]",0.111111111,-0.17037037,1,0,0,1.9472,o1_image,706.4346,1,706.9366,706.9366,708.9379,0,0,0,0,1,,,,,,,,,,,,,,,,,,,,,,,,,,,,,,,,,,,,,,,,,,,,,,,,,,
,,5ead89a08a4c3741712fb05b,42,male,2024-04-19_18h40.58.953,stockport_simplified,2022.2.4,Win32,75.18796992,661e456ee6de07e70aa9ef7b,66229d97fbe898816def3226,,,,,,,,,,,,,,,,,,,,,,,,,,,,,,,,,,,,,,,,,,,,,,,,,,,,,,,,1,43,103,21,1,N,M,C,o1_image,stimuli/out1.png,stimuli/correct_out1.png,stimuli/out2.png,,,,,,,,,,,,,,,,,,,,,,,,,,,,,,,,,,,,,,
,,5ead89a08a4c3741712fb05b,42,male,2024-04-19_18h40.58.953,stockport_simplified,2022.2.4,Win32,75.18796992,661e456ee6de07e70aa9ef7b,66229d97fbe898816def3226,,,,,,,,,,,,,,,,,,,,,,,,,,,,,,,,,,708.9381,712.4989,"[3,8,6,1,4,2,7,5]","[[-0.3,0.2],[0.3,0.2]]","[[-0.125,-0.2],[0.125,-0.2]]",0.126851852,-0.194444444,1,0,0,3.0544,o2_image,712.5038,1,713.0058,713.0058,715.0065,0,0,0,0,1,,,,,,,,,,,,,,,,,,,,,,,,,,,,,,,,,,,,,,,,,,,,,,,,,,
,,5ead89a08a4c3741712fb05b,42,male,2024-04-19_18h40.58.953,stockport_simplified,2022.2.4,Win32,75.18796992,661e456ee6de07e70aa9ef7b,66229d97fbe898816def3226,,,,,,,,,,,,,,,,,,,,,,,,,,,,,,,,,,,,,,,,,,,,,,,,,,,,,,,,1,44,104,16,1,B,Y,N,o2_image,stimuli/out2.png,stimuli/out1.png,stimuli/correct_out2.png,,,,,,,,,,,,,,,,,,,,,,,,,,,,,,,,,,,,,,
,,5ead89a08a4c3741712fb05b,42,male,2024-04-19_18h40.58.953,stockport_simplified,2022.2.4,Win32,75.18796992,661e456ee6de07e70aa9ef7b,66229d97fbe898816def3226,,,,,,,,,,,,,,,,,,,,,,,,,,,,,,,,,,715.0067,717.6076,"[3,8,6,1,4,2,7,5]","[[-0.3,0.2],[0.3,0.2]]","[[-0.125,-0.2],[0.125,-0.2]]",0.112037037,-0.194444444,1,0,0,2.0941,o2_image,717.6079,1,718.1012,718.1012,720.1018,0,0,0,0,1,,,,,,,,,,,,,,,,,,,,,,,,,,,,,,,,,,,,,,,,,,,,,,,,,,
,,5ead89a08a4c3741712fb05b,42,male,2024-04-19_18h40.58.953,stockport_simplified,2022.2.4,Win32,75.18796992,661e456ee6de07e70aa9ef7b,66229d97fbe898816def3226,,,,,,,,,,,,,,,,,,,,,,,,,,,,,,,,,,,,,,,,,,,,,,,,,,,,,,,,1,45,105,57,1,N,M,D,o2_image,stimuli/out2.png,stimuli/out1.png,stimuli/correct_out2.png,,,,,,,,,,,,,,,,,,,,,,,,,,,,,,,,,,,,,,
,,5ead89a08a4c3741712fb05b,42,male,2024-04-19_18h40.58.953,stockport_simplified,2022.2.4,Win32,75.18796992,661e456ee6de07e70aa9ef7b,66229d97fbe898816def3226,,,,,,,,,,,,,,,,,,,,,,,,,,,,,,,,,,720.1019,722.9298,"[3,8,6,1,4,2,7,5]","[[0.3,0.2],[-0.3,0.2]]","[[-0.125,-0.2],[0.125,-0.2]]",0.168518519,-0.197222222,1,0,0,2.3208,o2_image,722.9347,1,723.4365,723.4365,725.4383,0,0,0,0,1,,,,,,,,,,,,,,,,,,,,,,,,,,,,,,,,,,,,,,,,,,,,,,,,,,
,,5ead89a08a4c3741712fb05b,42,male,2024-04-19_18h40.58.953,stockport_simplified,2022.2.4,Win32,75.18796992,661e456ee6de07e70aa9ef7b,66229d97fbe898816def3226,,,,,,,,,,,,,,,,,,,,,,,,,,,,,,,,,,,,,,,,,,,,,,,,,,,,,,,,1,46,106,42,1,B,X,N,o2_image,stimuli/out2.png,stimuli/out1.png,stimuli/correct_out2.png,,,,,,,,,,,,,,,,,,,,,,,,,,,,,,,,,,,,,,
,,5ead89a08a4c3741712fb05b,42,male,2024-04-19_18h40.58.953,stockport_simplified,2022.2.4,Win32,75.18796992,661e456ee6de07e70aa9ef7b,66229d97fbe898816def3226,,,,,,,,,,,,,,,,,,,,,,,,,,,,,,,,,,725.4385,727.4116,"[3,8,6,1,4,2,7,5]","[[-0.3,0.2],[0.3,0.2]]","[[0.125,-0.2],[-0.125,-0.2]]",-0.084259259,-0.187037037,1,0,0,1.4675,o2_image,727.412,1,727.9049,727.9049,729.9055,0,0,0,0,1,,,,,,,,,,,,,,,,,,,,,,,,,,,,,,,,,,,,,,,,,,,,,,,,,,
,,5ead89a08a4c3741712fb05b,42,male,2024-04-19_18h40.58.953,stockport_simplified,2022.2.4,Win32,75.18796992,661e456ee6de07e70aa9ef7b,66229d97fbe898816def3226,,,,,,,,,,,,,,,,,,,,,,,,,,,,,,,,,,,,,,,,,,,,,,,,,,,,,,,,1,47,107,11,1,B,X,N,o2_image,stimuli/out2.png,stimuli/out1.png,stimuli/correct_out2.png,,,,,,,,,,,,,,,,,,,,,,,,,,,,,,,,,,,,,,
,,5ead89a08a4c3741712fb05b,42,male,2024-04-19_18h40.58.953,stockport_simplified,2022.2.4,Win32,75.18796992,661e456ee6de07e70aa9ef7b,66229d97fbe898816def3226,,,,,,,,,,,,,,,,,,,,,,,,,,,,,,,,,,729.9057,731.4662,"[3,8,6,1,4,2,7,5]","[[0.3,0.2],[-0.3,0.2]]","[[0.125,-0.2],[-0.125,-0.2]]",-0.083333333,-0.20462963,1,0,0,1.0535,o2_image,731.4665,1,731.9598,731.9598,733.9608,0,0,0,0,1,,,,,,,,,,,,,,,,,,,,,,,,,,,,,,,,,,,,,,,,,,,,,,,,,,
,,5ead89a08a4c3741712fb05b,42,male,2024-04-19_18h40.58.953,stockport_simplified,2022.2.4,Win32,75.18796992,661e456ee6de07e70aa9ef7b,66229d97fbe898816def3226,,,,,,,,,,,,,,,,,,,,,,,,,,,,,,,,,,,,,,,,,,,,,,,,,,,,,,,,1,48,108,46,1,B,Y,N,o2_image,stimuli/out2.png,stimuli/out1.png,stimuli/correct_out2.png,,,,,,,,,,,,,,,,,,,,,,,,,,,,,,,,,,,,,,
,,5ead89a08a4c3741712fb05b,42,male,2024-04-19_18h40.58.953,stockport_simplified,2022.2.4,Win32,75.18796992,661e456ee6de07e70aa9ef7b,66229d97fbe898816def3226,,,,,,,,,,,,,,,,,,,,,,,,,,,,,,,,,,733.961,736.1215,"[3,8,6,1,4,2,7,5]","[[0.3,0.2],[-0.3,0.2]]","[[0.125,-0.2],[-0.125,-0.2]]",0.187037037,-0.224074074,1,0,0,1.6538,o1_image,736.1218,1,736.6154,736.6154,738.6157,0,0,0,0,1,,,,,,,,,,,,,,,,,,,,,,,,,,,,,,,,,,,,,,,,,,,,,,,,,,
,,5ead89a08a4c3741712fb05b,42,male,2024-04-19_18h40.58.953,stockport_simplified,2022.2.4,Win32,75.18796992,661e456ee6de07e70aa9ef7b,66229d97fbe898816def3226,,,,,,,,,,,,,,,,,,,,,,,,,,,,,,,,,,,,,,,,,,,,,,,,,,,,,,,,1,49,109,53,1,N,M,C,o1_image,stimuli/out1.png,stimuli/correct_out1.png,stimuli/out2.png,,,,,,,,,,,,,,,,,,,,,,,,,,,,,,,,,,,,,,
,,5ead89a08a4c3741712fb05b,42,male,2024-04-19_18h40.58.953,stockport_simplified,2022.2.4,Win32,75.18796992,661e456ee6de07e70aa9ef7b,66229d97fbe898816def3226,,,,,,,,,,,,,,,,,,,,,,,,,,,,,,,,,,738.6159,741.0836,"[3,8,6,1,4,2,7,5]","[[-0.3,0.2],[0.3,0.2]]","[[-0.125,-0.2],[0.125,-0.2]]",-0.149074074,-0.185185185,1,0,0,1.9606,o1_image,741.0839,1,741.5771,741.5771,743.5777,0,0,0,0,1,,,,,,,,,,,,,,,,,,,,,,,,,,,,,,,,,,,,,,,,,,,,,,,,,,
,,5ead89a08a4c3741712fb05b,42,male,2024-04-19_18h40.58.953,stockport_simplified,2022.2.4,Win32,75.18796992,661e456ee6de07e70aa9ef7b,66229d97fbe898816def3226,,,,,,,,,,,,,,,,,,,,,,,,,,,,,,,,,,,,,,,,,,,,,,,,,,,,,,,,1,50,110,37,1,A,Y,N,o1_image,stimuli/out1.png,stimuli/correct_out1.png,stimuli/out2.png,,,,,,,,,,,,,,,,,,,,,,,,,,,,,,,,,,,,,,
,,5ead89a08a4c3741712fb05b,42,male,2024-04-19_18h40.58.953,stockport_simplified,2022.2.4,Win32,75.18796992,661e456ee6de07e70aa9ef7b,66229d97fbe898816def3226,,,,,,,,,,,,,,,,,,,,,,,,,,,,,,,,,,743.5779,745.1783,"[3,8,6,1,4,2,7,5]","[[-0.3,0.2],[0.3,0.2]]","[[0.125,-0.2],[-0.125,-0.2]]",0.09537037,-0.196296296,1,0,0,1.093,o1_image,745.1787,1,745.6721,745.6721,747.6726,0,0,0,0,1,,,,,,,,,,,,,,,,,,,,,,,,,,,,,,,,,,,,,,,,,,,,,,,,,,
,,5ead89a08a4c3741712fb05b,42,male,2024-04-19_18h40.58.953,stockport_simplified,2022.2.4,Win32,75.18796992,661e456ee6de07e70aa9ef7b,66229d97fbe898816def3226,,,,,,,,,,,,,,,,,,,,,,,,,,,,,,,,,,,,,,,,,,,,,,,,,,,,,,,,1,51,111,3,1,A,X,N,o1_image,stimuli/out1.png,stimuli/correct_out1.png,stimuli/out2.png,,,,,,,,,,,,,,,,,,,,,,,,,,,,,,,,,,,,,,
,,5ead89a08a4c3741712fb05b,42,male,2024-04-19_18h40.58.953,stockport_simplified,2022.2.4,Win32,75.18796992,661e456ee6de07e70aa9ef7b,66229d97fbe898816def3226,,,,,,,,,,,,,,,,,,,,,,,,,,,,,,,,,,747.6727,750.1671,"[3,8,6,1,4,2,7,5]","[[-0.3,0.2],[0.3,0.2]]","[[-0.125,-0.2],[0.125,-0.2]]",0.105555556,-0.192592593,1,0,0,1.987,o2_image,750.1675,1,750.6604,750.6605,752.6613,0,0,0,0,1,,,,,,,,,,,,,,,,,,,,,,,,,,,,,,,,,,,,,,,,,,,,,,,,,,
,,5ead89a08a4c3741712fb05b,42,male,2024-04-19_18h40.58.953,stockport_simplified,2022.2.4,Win32,75.18796992,661e456ee6de07e70aa9ef7b,66229d97fbe898816def3226,,,,,,,,,,,,,,,,,,,,,,,,,,,,,,,,,,,,,,,,,,,,,,,,,,,,,,,,1,52,112,45,1,B,Y,N,o2_image,stimuli/out2.png,stimuli/out1.png,stimuli/correct_out2.png,,,,,,,,,,,,,,,,,,,,,,,,,,,,,,,,,,,,,,
,,5ead89a08a4c3741712fb05b,42,male,2024-04-19_18h40.58.953,stockport_simplified,2022.2.4,Win32,75.18796992,661e456ee6de07e70aa9ef7b,66229d97fbe898816def3226,,,,,,,,,,,,,,,,,,,,,,,,,,,,,,,,,,752.6616,755.4759,"[3,8,6,1,4,2,7,5]","[[-0.3,0.2],[0.3,0.2]]","[[-0.125,-0.2],[0.125,-0.2]]",-0.121296296,-0.176851852,1,0,0,2.3072,o1_image,755.4762,1,755.9693,755.9693,757.9701,0,0,0,0,1,,,,,,,,,,,,,,,,,,,,,,,,,,,,,,,,,,,,,,,,,,,,,,,,,,
,,5ead89a08a4c3741712fb05b,42,male,2024-04-19_18h40.58.953,stockport_simplified,2022.2.4,Win32,75.18796992,661e456ee6de07e70aa9ef7b,66229d97fbe898816def3226,,,,,,,,,,,,,,,,,,,,,,,,,,,,,,,,,,,,,,,,,,,,,,,,,,,,,,,,1,53,113,52,1,N,M,C,o1_image,stimuli/out1.png,stimuli/correct_out1.png,stimuli/out2.png,,,,,,,,,,,,,,,,,,,,,,,,,,,,,,,,,,,,,,
,,5ead89a08a4c3741712fb05b,42,male,2024-04-19_18h40.58.953,stockport_simplified,2022.2.4,Win32,75.18796992,661e456ee6de07e70aa9ef7b,66229d97fbe898816def3226,,,,,,,,,,,,,,,,,,,,,,,,,,,,,,,,,,757.9703,760.7716,"[3,8,6,1,4,2,7,5]","[[-0.3,0.2],[0.3,0.2]]","[[-0.125,-0.2],[0.125,-0.2]]",0.210185185,-0.178703704,1,0,0,1.8799,o2_image,760.7765,1,761.2784,761.2784,763.2791,0,0,0,0,1,,,,,,,,,,,,,,,,,,,,,,,,,,,,,,,,,,,,,,,,,,,,,,,,,,
,,5ead89a08a4c3741712fb05b,42,male,2024-04-19_18h40.58.953,stockport_simplified,2022.2.4,Win32,75.18796992,661e456ee6de07e70aa9ef7b,66229d97fbe898816def3226,,,,,,,,,,,,,,,,,,,,,,,,,,,,,,,,,,,,,,,,,,,,,,,,,,,,,,,,1,54,114,28,1,N,M,D,o2_image,stimuli/out2.png,stimuli/out1.png,stimuli/correct_out2.png,,,,,,,,,,,,,,,,,,,,,,,,,,,,,,,,,,,,,,
,,5ead89a08a4c3741712fb05b,42,male,2024-04-19_18h40.58.953,stockport_simplified,2022.2.4,Win32,75.18796992,661e456ee6de07e70aa9ef7b,66229d97fbe898816def3226,,,,,,,,,,,,,,,,,,,,,,,,,,,,,,,,,,763.2793,764.9596,"[3,8,6,1,4,2,7,5]","[[-0.3,0.2],[0.3,0.2]]","[[0.125,-0.2],[-0.125,-0.2]]",-0.108333333,-0.205555556,1,0,0,1.174,o2_image,764.9599,1,765.4531,765.4532,767.4542,0,0,0,0,1,,,,,,,,,,,,,,,,,,,,,,,,,,,,,,,,,,,,,,,,,,,,,,,,,,
,,5ead89a08a4c3741712fb05b,42,male,2024-04-19_18h40.58.953,stockport_simplified,2022.2.4,Win32,75.18796992,661e456ee6de07e70aa9ef7b,66229d97fbe898816def3226,,,,,,,,,,,,,,,,,,,,,,,,,,,,,,,,,,,,,,,,,,,,,,,,,,,,,,,,1,55,115,26,1,N,M,D,o2_image,stimuli/out2.png,stimuli/out1.png,stimuli/correct_out2.png,,,,,,,,,,,,,,,,,,,,,,,,,,,,,,,,,,,,,,
,,5ead89a08a4c3741712fb05b,42,male,2024-04-19_18h40.58.953,stockport_simplified,2022.2.4,Win32,75.18796992,661e456ee6de07e70aa9ef7b,66229d97fbe898816def3226,,,,,,,,,,,,,,,,,,,,,,,,,,,,,,,,,,767.4544,769.628,"[3,8,6,1,4,2,7,5]","[[-0.3,0.2],[0.3,0.2]]","[[0.125,-0.2],[-0.125,-0.2]]",0.160185185,-0.197222222,1,0,0,1.667,o1_image,769.6284,1,770.1215,770.1216,772.1223,0,0,0,0,1,,,,,,,,,,,,,,,,,,,,,,,,,,,,,,,,,,,,,,,,,,,,,,,,,,
,,5ead89a08a4c3741712fb05b,42,male,2024-04-19_18h40.58.953,stockport_simplified,2022.2.4,Win32,75.18796992,661e456ee6de07e70aa9ef7b,66229d97fbe898816def3226,,,,,,,,,,,,,,,,,,,,,,,,,,,,,,,,,,,,,,,,,,,,,,,,,,,,,,,,1,56,116,51,1,N,M,C,o1_image,stimuli/out1.png,stimuli/correct_out1.png,stimuli/out2.png,,,,,,,,,,,,,,,,,,,,,,,,,,,,,,,,,,,,,,
,,5ead89a08a4c3741712fb05b,42,male,2024-04-19_18h40.58.953,stockport_simplified,2022.2.4,Win32,75.18796992,661e456ee6de07e70aa9ef7b,66229d97fbe898816def3226,,,,,,,,,,,,,,,,,,,,,,,,,,,,,,,,,,772.1225,776.8446,"[3,8,6,1,4,2,7,5]","[[-0.3,0.2],[0.3,0.2]]","[[0.125,-0.2],[-0.125,-0.2]]",0.125,-0.223148148,1,0,0,4.2148,o1_image,776.8496,1,777.3511,777.3511,779.3517,0,0,0,0,1,,,,,,,,,,,,,,,,,,,,,,,,,,,,,,,,,,,,,,,,,,,,,,,,,,
,,5ead89a08a4c3741712fb05b,42,male,2024-04-19_18h40.58.953,stockport_simplified,2022.2.4,Win32,75.18796992,661e456ee6de07e70aa9ef7b,66229d97fbe898816def3226,,,,,,,,,,,,,,,,,,,,,,,,,,,,,,,,,,,,,,,,,,,,,,,,,,,,,,,,1,57,117,39,1,A,Y,N,o1_image,stimuli/out1.png,stimuli/correct_out1.png,stimuli/out2.png,,,,,,,,,,,,,,,,,,,,,,,,,,,,,,,,,,,,,,
,,5ead89a08a4c3741712fb05b,42,male,2024-04-19_18h40.58.953,stockport_simplified,2022.2.4,Win32,75.18796992,661e456ee6de07e70aa9ef7b,66229d97fbe898816def3226,,,,,,,,,,,,,,,,,,,,,,,,,,,,,,,,,,779.3519,781.2328,"[3,8,6,1,4,2,7,5]","[[-0.3,0.2],[0.3,0.2]]","[[-0.125,-0.2],[0.125,-0.2]]",0.130555556,-0.178703704,1,0,0,1.3739,o2_image,781.2332,1,781.7262,781.7262,783.7274,0,0,0,0,1,,,,,,,,,,,,,,,,,,,,,,,,,,,,,,,,,,,,,,,,,,,,,,,,,,
,,5ead89a08a4c3741712fb05b,42,male,2024-04-19_18h40.58.953,stockport_simplified,2022.2.4,Win32,75.18796992,661e456ee6de07e70aa9ef7b,66229d97fbe898816def3226,,,,,,,,,,,,,,,,,,,,,,,,,,,,,,,,,,,,,,,,,,,,,,,,,,,,,,,,1,58,118,10,1,B,X,N,o2_image,stimuli/out2.png,stimuli/out1.png,stimuli/correct_out2.png,,,,,,,,,,,,,,,,,,,,,,,,,,,,,,,,,,,,,,
,,5ead89a08a4c3741712fb05b,42,male,2024-04-19_18h40.58.953,stockport_simplified,2022.2.4,Win32,75.18796992,661e456ee6de07e70aa9ef7b,66229d97fbe898816def3226,,,,,,,,,,,,,,,,,,,,,,,,,,,,,,,,,,783.7276,785.6076,"[3,8,6,1,4,2,7,5]","[[-0.3,0.2],[0.3,0.2]]","[[-0.125,-0.2],[0.125,-0.2]]",-0.073148148,-0.230555556,1,0,0,1.3737,o1_image,785.608,1,786.1015,786.1015,788.1024,0,0,0,0,1,,,,,,,,,,,,,,,,,,,,,,,,,,,,,,,,,,,,,,,,,,,,,,,,,,
,,5ead89a08a4c3741712fb05b,42,male,2024-04-19_18h40.58.953,stockport_simplified,2022.2.4,Win32,75.18796992,661e456ee6de07e70aa9ef7b,66229d97fbe898816def3226,,,,,,,,,,,,,,,,,,,,,,,,,,,,,,,,,,,,,,,,,,,,,,,,,,,,,,,,1,59,119,50,1,N,M,C,o1_image,stimuli/out1.png,stimuli/correct_out1.png,stimuli/out2.png,,,,,,,,,,,,,,,,,,,,,,,,,,,,,,,,,,,,,,
,,5ead89a08a4c3741712fb05b,42,male,2024-04-19_18h40.58.953,stockport_simplified,2022.2.4,Win32,75.18796992,661e456ee6de07e70aa9ef7b,66229d97fbe898816def3226,,,,,,,,,,,,,,,,,,,,,,,,,,,,,,,,,,788.1098,790.7034,"[3,8,6,1,4,2,7,5]","[[-0.3,0.2],[0.3,0.2]]","[[0.125,-0.2],[-0.125,-0.2]]",0.137037037,-0.182407407,1,0,0,2.0811,o1_image,790.7086,0,791.2099,791.2099,793.2106,,,,,,,,,,,,,,,,,,0,0,0,0,1,,,,,,,,,,,,,,,,,,,,,,,,,,,,,,,,,
,,5ead89a08a4c3741712fb05b,42,male,2024-04-19_18h40.58.953,stockport_simplified,2022.2.4,Win32,75.18796992,661e456ee6de07e70aa9ef7b,66229d97fbe898816def3226,,,,,,,,,,,,,,,,,,,,,,,,,,,,,,,,,,,,,,,,,,,,,,,,,,,,,,,,,,,,,A,X,N,o2_image,stimuli/out2.png,stimuli/out1.png,stimuli/correct_out2.png,,,,,,0,0,0,7,1,,,,,,,,,,,,,,,,,,,,,,,,,,,,
,,5ead89a08a4c3741712fb05b,42,male,2024-04-19_18h40.58.953,stockport_simplified,2022.2.4,Win32,75.18796992,661e456ee6de07e70aa9ef7b,66229d97fbe898816def3226,,,,,,,,,,,,,,,,,,,,,,,,,,,,,,,,,,793.2109,796.3053,"[3,8,6,1,4,2,7,5]","[[-0.3,0.2],[0.3,0.2]]","[[0.125,-0.2],[-0.125,-0.2]]",0.091666667,-0.226851852,1,0,0,2.5875,o1_image,796.3103,1,796.8122,796.8122,798.8134,,,,,,,,,,,,,,,,,,0,0,0,0,1,,,,,,,,,,,,,,,,,,,,,,,,,,,,,,,,,
,,5ead89a08a4c3741712fb05b,42,male,2024-04-19_18h40.58.953,stockport_simplified,2022.2.4,Win32,75.18796992,661e456ee6de07e70aa9ef7b,66229d97fbe898816def3226,,,,,,,,,,,,,,,,,,,,,,,,,,,,,,,,,,,,,,,,,,,,,,,,,,,,,,,,,,,,,N,M,C,o1_image,stimuli/out1.png,stimuli/correct_out1.png,stimuli/out2.png,,,,,,0,1,1,43,1,,,,,,,,,,,,,,,,,,,,,,,,,,,,
,,5ead89a08a4c3741712fb05b,42,male,2024-04-19_18h40.58.953,stockport_simplified,2022.2.4,Win32,75.18796992,661e456ee6de07e70aa9ef7b,66229d97fbe898816def3226,,,,,,,,,,,,,,,,,,,,,,,,,,,,,,,,,,798.8135,800.8939,"[3,8,6,1,4,2,7,5]","[[-0.3,0.2],[0.3,0.2]]","[[0.125,-0.2],[-0.125,-0.2]]",-0.186111111,-0.19537037,1,0,0,1.574,o2_image,800.8942,0,801.3873,801.3873,803.3881,,,,,,,,,,,,,,,,,,0,0,0,0,1,,,,,,,,,,,,,,,,,,,,,,,,,,,,,,,,,
,,5ead89a08a4c3741712fb05b,42,male,2024-04-19_18h40.58.953,stockport_simplified,2022.2.4,Win32,75.18796992,661e456ee6de07e70aa9ef7b,66229d97fbe898816def3226,,,,,,,,,,,,,,,,,,,,,,,,,,,,,,,,,,,,,,,,,,,,,,,,,,,,,,,,,,,,,B,X,N,o1_image,stimuli/out1.png,stimuli/correct_out1.png,stimuli/out2.png,,,,,,0,2,2,29,1,,,,,,,,,,,,,,,,,,,,,,,,,,,,
,,5ead89a08a4c3741712fb05b,42,male,2024-04-19_18h40.58.953,stockport_simplified,2022.2.4,Win32,75.18796992,661e456ee6de07e70aa9ef7b,66229d97fbe898816def3226,,,,,,,,,,,,,,,,,,,,,,,,,,,,,,,,,,803.3883,810.6577,"[3,8,6,1,4,2,7,5]","[[-0.3,0.2],[0.3,0.2]]","[[0.125,-0.2],[-0.125,-0.2]]",-0.093518519,-0.230555556,1,0,0,6.7622,o2_image,810.663,0,811.1646,811.1646,813.1656,,,,,,,,,,,,,,,,,,0,0,0,0,1,,,,,,,,,,,,,,,,,,,,,,,,,,,,,,,,,
,,5ead89a08a4c3741712fb05b,42,male,2024-04-19_18h40.58.953,stockport_simplified,2022.2.4,Win32,75.18796992,661e456ee6de07e70aa9ef7b,66229d97fbe898816def3226,,,,,,,,,,,,,,,,,,,,,,,,,,,,,,,,,,,,,,,,,,,,,,,,,,,,,,,,,,,,,A,Y,N,o1_image,stimuli/out1.png,stimuli/correct_out1.png,stimuli/out2.png,,,,,,0,3,3,17,1,,,,,,,,,,,,,,,,,,,,,,,,,,,,
,,5ead89a08a4c3741712fb05b,42,male,2024-04-19_18h40.58.953,stockport_simplified,2022.2.4,Win32,75.18796992,661e456ee6de07e70aa9ef7b,66229d97fbe898816def3226,,,,,,,,,,,,,,,,,,,,,,,,,,,,,,,,,,813.1658,815.6064,"[3,8,6,1,4,2,7,5]","[[-0.3,0.2],[0.3,0.2]]","[[-0.125,-0.2],[0.125,-0.2]]",-0.12037037,-0.212962963,1,0,0,1.9341,o1_image,815.6068,1,816.0999,816.0999,818.1005,,,,,,,,,,,,,,,,,,0,0,0,0,1,,,,,,,,,,,,,,,,,,,,,,,,,,,,,,,,,
,,5ead89a08a4c3741712fb05b,42,male,2024-04-19_18h40.58.953,stockport_simplified,2022.2.4,Win32,75.18796992,661e456ee6de07e70aa9ef7b,66229d97fbe898816def3226,,,,,,,,,,,,,,,,,,,,,,,,,,,,,,,,,,,,,,,,,,,,,,,,,,,,,,,,,,,,,A,Y,N,o1_image,stimuli/out1.png,stimuli/correct_out1.png,stimuli/out2.png,,,,,,0,4,4,18,1,,,,,,,,,,,,,,,,,,,,,,,,,,,,
