counterbalance_2.started,counterbalance_2.stopped,participant,age,gender,date,expName,psychopyVersion,OS,frameRate,STUDY_ID,SESSION_ID,information_2.started,information_2.stopped,information_loop.thisRepN,information_loop.thisTrialN,information_loop.thisN,information_loop.thisIndex,information_loop.ran,information,consent_2.started,consent_2.stopped,slider_1.response,slider_2.response,slider_3.response,slider_4.response,slider_5.response,slider_6.response,instructions.started,instructions.stopped,task1_instr.thisRepN,task1_instr.thisTrialN,task1_instr.thisN,task1_instr.thisIndex,task1_instr.ran,task1,comprehension1_2.started,comprehension1_2.stopped,comp1_mouse.x,comp1_mouse.y,comp1_mouse.leftButton,comp1_mouse.midButton,comp1_mouse.rightButton,comp1_mouse.time,comp1_mouse.clicked_name,cue_o__trial_2.started,cue_o__trial_2.stopped,order,cue_order,out_order,cue_o_mouse.x,cue_o_mouse.y,cue_o_mouse.leftButton,cue_o_mouse.midButton,cue_o_mouse.rightButton,cue_o_mouse.time,cue_o_mouse.clicked_name,cue_selection_2.started,correct_answer,cue_selection_2.stopped,feedback_2.started,feedback_2.stopped,feedback_loop.thisRepN,feedback_loop.thisTrialN,feedback_loop.thisN,feedback_loop.thisIndex,feedback_loop.ran,stage1_trials.thisRepN,stage1_trials.thisTrialN,stage1_trials.thisN,stage1_trials.thisIndex,stage1_trials.ran,cue1,cue2,cue3,outcome,correct_out,o1_feedback,o2_feedback,stage2_feedback_loop.thisRepN,stage2_feedback_loop.thisTrialN,stage2_feedback_loop.thisN,stage2_feedback_loop.thisIndex,stage2_feedback_loop.ran,stage2_trials.thisRepN,stage2_trials.thisTrialN,stage2_trials.thisN,stage2_trials.thisIndex,stage2_trials.ran,stage3_feedback_loop.thisRepN,stage3_feedback_loop.thisTrialN,stage3_feedback_loop.thisN,stage3_feedback_loop.thisIndex,stage3_feedback_loop.ran,stage3_trials.thisRepN,stage3_trials.thisTrialN,stage3_trials.thisN,stage3_trials.thisIndex,stage3_trials.ran,debrief_2.started,debrief_2.stopped,debrief_loop.thisRepN,debrief_loop.thisTrialN,debrief_loop.thisN,debrief_loop.thisIndex,debrief_loop.ran,debrief_img,compr1_completed.thisRepN,compr1_completed.thisTrialN,compr1_completed.thisN,compr1_completed.thisIndex,compr1_completed.ran,consent_loop.thisRepN,consent_loop.thisTrialN,consent_loop.thisN,consent_loop.thisIndex,consent_loop.ran
0,0,60f99ec4c0f33da48795b916,30,male,2024-04-24_20h32.05.775,stockport_simplified,2022.2.4,Win32,74.96251874,661e456ee6de07e70aa9ef7b,6628df8b9a0c38ba6dbe697b,,,,,,,,,,,,,,,,,,,,,,,,,,,,,,,,,,,,,,,,,,,,,,,,,,,,,,,,,,,,,,,,,,,,,,,,,,,,,,,,,,,,,,,,,,,,,,,,,,,,,,,,,
,,60f99ec4c0f33da48795b916,30,male,2024-04-24_20h32.05.775,stockport_simplified,2022.2.4,Win32,74.96251874,661e456ee6de07e70aa9ef7b,6628df8b9a0c38ba6dbe697b,0.008,6.657,0,0,0,0,1,instructions/info1.png,,,,,,,,,,,,,,,,,,,,,,,,,,,,,,,,,,,,,,,,,,,,,,,,,,,,,,,,,,,,,,,,,,,,,,,,,,,,,,,,,,,,,,,,,,,,,,,,,
,,60f99ec4c0f33da48795b916,30,male,2024-04-24_20h32.05.775,stockport_simplified,2022.2.4,Win32,74.96251874,661e456ee6de07e70aa9ef7b,6628df8b9a0c38ba6dbe697b,6.657,11.512,0,1,1,1,1,instructions/info2.png,,,,,,,,,,,,,,,,,,,,,,,,,,,,,,,,,,,,,,,,,,,,,,,,,,,,,,,,,,,,,,,,,,,,,,,,,,,,,,,,,,,,,,,,,,,,,,,,,
,,60f99ec4c0f33da48795b916,30,male,2024-04-24_20h32.05.775,stockport_simplified,2022.2.4,Win32,74.96251874,661e456ee6de07e70aa9ef7b,6628df8b9a0c38ba6dbe697b,11.512,18.581,0,2,2,2,1,instructions/info3.png,,,,,,,,,,,,,,,,,,,,,,,,,,,,,,,,,,,,,,,,,,,,,,,,,,,,,,,,,,,,,,,,,,,,,,,,,,,,,,,,,,,,,,,,,,,,,,,,,
,,60f99ec4c0f33da48795b916,30,male,2024-04-24_20h32.05.775,stockport_simplified,2022.2.4,Win32,74.96251874,661e456ee6de07e70aa9ef7b,6628df8b9a0c38ba6dbe697b,,,,,,,,,18.581,35.308,1,1,1,1,1,1,,,,,,,,,,,,,,,,,,,,,,,,,,,,,,,,,,,,,,,,,,,,,,,,,,,,,,,,,,,,,,,,,,,,,,,,,,,,,,,,,,,,,,,,,
,,60f99ec4c0f33da48795b916,30,male,2024-04-24_20h32.05.775,stockport_simplified,2022.2.4,Win32,74.96251874,661e456ee6de07e70aa9ef7b,6628df8b9a0c38ba6dbe697b,,,,,,,,,,,,,,,,,35.313,49.219,0,0,0,0,1,instructions/task1_1.png,,,,,,,,,,,,,,,,,,,,,,,,,,,,,,,,,,,,,,,,,,,,,,,,,,,,,,,,,,,,,,,,,,,,,,,,,,,,,,,,,
,,60f99ec4c0f33da48795b916,30,male,2024-04-24_20h32.05.775,stockport_simplified,2022.2.4,Win32,74.96251874,661e456ee6de07e70aa9ef7b,6628df8b9a0c38ba6dbe697b,,,,,,,,,,,,,,,,,49.219,54.354,0,1,1,1,1,instructions/task1_2.png,,,,,,,,,,,,,,,,,,,,,,,,,,,,,,,,,,,,,,,,,,,,,,,,,,,,,,,,,,,,,,,,,,,,,,,,,,,,,,,,,
,,60f99ec4c0f33da48795b916,30,male,2024-04-24_20h32.05.775,stockport_simplified,2022.2.4,Win32,74.96251874,661e456ee6de07e70aa9ef7b,6628df8b9a0c38ba6dbe697b,,,,,,,,,,,,,,,,,54.355,62.597,0,2,2,2,1,instructions/task1_3.png,,,,,,,,,,,,,,,,,,,,,,,,,,,,,,,,,,,,,,,,,,,,,,,,,,,,,,,,,,,,,,,,,,,,,,,,,,,,,,,,,
,,60f99ec4c0f33da48795b916,30,male,2024-04-24_20h32.05.775,stockport_simplified,2022.2.4,Win32,74.96251874,661e456ee6de07e70aa9ef7b,6628df8b9a0c38ba6dbe697b,,,,,,,,,,,,,,,,,,,,,,,,,62.597,69.387,-0.005555556,-0.331481481,1,0,0,6.79,comp1_resp1,69.396,71.667,"[6,3,8,7,2,5,1,4]","[[-0.3,0.2],[0.3,0.2]]","[[0.125,-0.2],[-0.125,-0.2]]",-0.119444444,-0.19537037,1,0,0,1.759,o2_image,71.668,1,72.16,72.16,74.162,0,0,0,0,1,,,,,,,,,,,,,,,,,,,,,,,,,,,,,,,,,,,,,,,,,,,,,,,,,,
,,60f99ec4c0f33da48795b916,30,male,2024-04-24_20h32.05.775,stockport_simplified,2022.2.4,Win32,74.96251874,661e456ee6de07e70aa9ef7b,6628df8b9a0c38ba6dbe697b,,,,,,,,,,,,,,,,,,,,,,,,,,,,,,,,,,,,,,,,,,,,,,,,,,,,,,,,0,0,0,14,1,B,X,N,o2_image,stimuli/out2.png,stimuli/out1.png,stimuli/correct_out2.png,,,,,,,,,,,,,,,,,,,,,,,,,,,,,,,,,,,,,,
,,60f99ec4c0f33da48795b916,30,male,2024-04-24_20h32.05.775,stockport_simplified,2022.2.4,Win32,74.96251874,661e456ee6de07e70aa9ef7b,6628df8b9a0c38ba6dbe697b,,,,,,,,,,,,,,,,,,,,,,,,,,,,,,,,,,74.162,76.068,"[6,3,8,7,2,5,1,4]","[[0.3,0.2],[-0.3,0.2]]","[[-0.125,-0.2],[0.125,-0.2]]",0.101851852,-0.187037037,1,0,0,1.399,o2_image,76.069,0,76.562,76.562,78.562,0,0,0,0,1,,,,,,,,,,,,,,,,,,,,,,,,,,,,,,,,,,,,,,,,,,,,,,,,,,
,,60f99ec4c0f33da48795b916,30,male,2024-04-24_20h32.05.775,stockport_simplified,2022.2.4,Win32,74.96251874,661e456ee6de07e70aa9ef7b,6628df8b9a0c38ba6dbe697b,,,,,,,,,,,,,,,,,,,,,,,,,,,,,,,,,,,,,,,,,,,,,,,,,,,,,,,,0,1,1,6,1,A,Y,N,o1_image,stimuli/out1.png,stimuli/correct_out1.png,stimuli/out2.png,,,,,,,,,,,,,,,,,,,,,,,,,,,,,,,,,,,,,,
,,60f99ec4c0f33da48795b916,30,male,2024-04-24_20h32.05.775,stockport_simplified,2022.2.4,Win32,74.96251874,661e456ee6de07e70aa9ef7b,6628df8b9a0c38ba6dbe697b,,,,,,,,,,,,,,,,,,,,,,,,,,,,,,,,,,78.563,81.617,"[6,3,8,7,2,5,1,4]","[[-0.3,0.2],[0.3,0.2]]","[[0.125,-0.2],[-0.125,-0.2]]",0.101851852,-0.189814815,1,0,0,2.547,o1_image,81.618,0,82.111,82.111,84.112,0,0,0,0,1,,,,,,,,,,,,,,,,,,,,,,,,,,,,,,,,,,,,,,,,,,,,,,,,,,
,,60f99ec4c0f33da48795b916,30,male,2024-04-24_20h32.05.775,stockport_simplified,2022.2.4,Win32,74.96251874,661e456ee6de07e70aa9ef7b,6628df8b9a0c38ba6dbe697b,,,,,,,,,,,,,,,,,,,,,,,,,,,,,,,,,,,,,,,,,,,,,,,,,,,,,,,,0,2,2,59,1,N,M,D,o2_image,stimuli/out2.png,stimuli/out1.png,stimuli/correct_out2.png,,,,,,,,,,,,,,,,,,,,,,,,,,,,,,,,,,,,,,
,,60f99ec4c0f33da48795b916,30,male,2024-04-24_20h32.05.775,stockport_simplified,2022.2.4,Win32,74.96251874,661e456ee6de07e70aa9ef7b,6628df8b9a0c38ba6dbe697b,,,,,,,,,,,,,,,,,,,,,,,,,,,,,,,,,,84.112,86.806,"[6,3,8,7,2,5,1,4]","[[-0.3,0.2],[0.3,0.2]]","[[-0.125,-0.2],[0.125,-0.2]]",-0.115740741,-0.214814815,1,0,0,2.187,o1_image,86.806,1,87.299,87.299,89.3,0,0,0,0,1,,,,,,,,,,,,,,,,,,,,,,,,,,,,,,,,,,,,,,,,,,,,,,,,,,
,,60f99ec4c0f33da48795b916,30,male,2024-04-24_20h32.05.775,stockport_simplified,2022.2.4,Win32,74.96251874,661e456ee6de07e70aa9ef7b,6628df8b9a0c38ba6dbe697b,,,,,,,,,,,,,,,,,,,,,,,,,,,,,,,,,,,,,,,,,,,,,,,,,,,,,,,,0,3,3,4,1,A,X,N,o1_image,stimuli/out1.png,stimuli/correct_out1.png,stimuli/out2.png,,,,,,,,,,,,,,,,,,,,,,,,,,,,,,,,,,,,,,
,,60f99ec4c0f33da48795b916,30,male,2024-04-24_20h32.05.775,stockport_simplified,2022.2.4,Win32,74.96251874,661e456ee6de07e70aa9ef7b,6628df8b9a0c38ba6dbe697b,,,,,,,,,,,,,,,,,,,,,,,,,,,,,,,,,,89.301,91.968,"[6,3,8,7,2,5,1,4]","[[-0.3,0.2],[0.3,0.2]]","[[-0.125,-0.2],[0.125,-0.2]]",-0.112962963,-0.212962963,1,0,0,2.161,o1_image,91.968,1,92.461,92.461,94.462,0,0,0,0,1,,,,,,,,,,,,,,,,,,,,,,,,,,,,,,,,,,,,,,,,,,,,,,,,,,
,,60f99ec4c0f33da48795b916,30,male,2024-04-24_20h32.05.775,stockport_simplified,2022.2.4,Win32,74.96251874,661e456ee6de07e70aa9ef7b,6628df8b9a0c38ba6dbe697b,,,,,,,,,,,,,,,,,,,,,,,,,,,,,,,,,,,,,,,,,,,,,,,,,,,,,,,,0,4,4,1,1,A,X,N,o1_image,stimuli/out1.png,stimuli/correct_out1.png,stimuli/out2.png,,,,,,,,,,,,,,,,,,,,,,,,,,,,,,,,,,,,,,
,,60f99ec4c0f33da48795b916,30,male,2024-04-24_20h32.05.775,stockport_simplified,2022.2.4,Win32,74.96251874,661e456ee6de07e70aa9ef7b,6628df8b9a0c38ba6dbe697b,,,,,,,,,,,,,,,,,,,,,,,,,,,,,,,,,,94.462,97.09,"[6,3,8,7,2,5,1,4]","[[-0.3,0.2],[0.3,0.2]]","[[-0.125,-0.2],[0.125,-0.2]]",0.175,-0.164814815,1,0,0,2.12,o2_image,97.09,1,97.583,97.583,99.583,0,0,0,0,1,,,,,,,,,,,,,,,,,,,,,,,,,,,,,,,,,,,,,,,,,,,,,,,,,,
,,60f99ec4c0f33da48795b916,30,male,2024-04-24_20h32.05.775,stockport_simplified,2022.2.4,Win32,74.96251874,661e456ee6de07e70aa9ef7b,6628df8b9a0c38ba6dbe697b,,,,,,,,,,,,,,,,,,,,,,,,,,,,,,,,,,,,,,,,,,,,,,,,,,,,,,,,0,5,5,27,1,N,M,D,o2_image,stimuli/out2.png,stimuli/out1.png,stimuli/correct_out2.png,,,,,,,,,,,,,,,,,,,,,,,,,,,,,,,,,,,,,,
,,60f99ec4c0f33da48795b916,30,male,2024-04-24_20h32.05.775,stockport_simplified,2022.2.4,Win32,74.96251874,661e456ee6de07e70aa9ef7b,6628df8b9a0c38ba6dbe697b,,,,,,,,,,,,,,,,,,,,,,,,,,,,,,,,,,99.584,101.678,"[6,3,8,7,2,5,1,4]","[[-0.3,0.2],[0.3,0.2]]","[[-0.125,-0.2],[0.125,-0.2]]",0.112962963,-0.198148148,1,0,0,1.588,o2_image,101.679,1,102.172,102.172,104.172,0,0,0,0,1,,,,,,,,,,,,,,,,,,,,,,,,,,,,,,,,,,,,,,,,,,,,,,,,,,
,,60f99ec4c0f33da48795b916,30,male,2024-04-24_20h32.05.775,stockport_simplified,2022.2.4,Win32,74.96251874,661e456ee6de07e70aa9ef7b,6628df8b9a0c38ba6dbe697b,,,,,,,,,,,,,,,,,,,,,,,,,,,,,,,,,,,,,,,,,,,,,,,,,,,,,,,,0,6,6,29,1,N,M,D,o2_image,stimuli/out2.png,stimuli/out1.png,stimuli/correct_out2.png,,,,,,,,,,,,,,,,,,,,,,,,,,,,,,,,,,,,,,
,,60f99ec4c0f33da48795b916,30,male,2024-04-24_20h32.05.775,stockport_simplified,2022.2.4,Win32,74.96251874,661e456ee6de07e70aa9ef7b,6628df8b9a0c38ba6dbe697b,,,,,,,,,,,,,,,,,,,,,,,,,,,,,,,,,,104.172,106.573,"[6,3,8,7,2,5,1,4]","[[0.3,0.2],[-0.3,0.2]]","[[0.125,-0.2],[-0.125,-0.2]]",-0.115740741,-0.2,1,0,0,1.893,o2_image,106.574,1,107.067,107.067,109.067,0,0,0,0,1,,,,,,,,,,,,,,,,,,,,,,,,,,,,,,,,,,,,,,,,,,,,,,,,,,
,,60f99ec4c0f33da48795b916,30,male,2024-04-24_20h32.05.775,stockport_simplified,2022.2.4,Win32,74.96251874,661e456ee6de07e70aa9ef7b,6628df8b9a0c38ba6dbe697b,,,,,,,,,,,,,,,,,,,,,,,,,,,,,,,,,,,,,,,,,,,,,,,,,,,,,,,,0,7,7,15,1,B,Y,N,o2_image,stimuli/out2.png,stimuli/out1.png,stimuli/correct_out2.png,,,,,,,,,,,,,,,,,,,,,,,,,,,,,,,,,,,,,,
,,60f99ec4c0f33da48795b916,30,male,2024-04-24_20h32.05.775,stockport_simplified,2022.2.4,Win32,74.96251874,661e456ee6de07e70aa9ef7b,6628df8b9a0c38ba6dbe697b,,,,,,,,,,,,,,,,,,,,,,,,,,,,,,,,,,109.068,111.175,"[6,3,8,7,2,5,1,4]","[[-0.3,0.2],[0.3,0.2]]","[[0.125,-0.2],[-0.125,-0.2]]",-0.108333333,-0.199074074,1,0,0,1.6,o2_image,111.175,0,111.668,111.668,113.669,0,0,0,0,1,,,,,,,,,,,,,,,,,,,,,,,,,,,,,,,,,,,,,,,,,,,,,,,,,,
,,60f99ec4c0f33da48795b916,30,male,2024-04-24_20h32.05.775,stockport_simplified,2022.2.4,Win32,74.96251874,661e456ee6de07e70aa9ef7b,6628df8b9a0c38ba6dbe697b,,,,,,,,,,,,,,,,,,,,,,,,,,,,,,,,,,,,,,,,,,,,,,,,,,,,,,,,0,8,8,8,1,A,Y,N,o1_image,stimuli/out1.png,stimuli/correct_out1.png,stimuli/out2.png,,,,,,,,,,,,,,,,,,,,,,,,,,,,,,,,,,,,,,
,,60f99ec4c0f33da48795b916,30,male,2024-04-24_20h32.05.775,stockport_simplified,2022.2.4,Win32,74.96251874,661e456ee6de07e70aa9ef7b,6628df8b9a0c38ba6dbe697b,,,,,,,,,,,,,,,,,,,,,,,,,,,,,,,,,,113.67,115.549,"[6,3,8,7,2,5,1,4]","[[-0.3,0.2],[0.3,0.2]]","[[-0.125,-0.2],[0.125,-0.2]]",0.099074074,-0.192592593,1,0,0,1.373,o2_image,115.55,1,116.043,116.043,118.044,0,0,0,0,1,,,,,,,,,,,,,,,,,,,,,,,,,,,,,,,,,,,,,,,,,,,,,,,,,,
,,60f99ec4c0f33da48795b916,30,male,2024-04-24_20h32.05.775,stockport_simplified,2022.2.4,Win32,74.96251874,661e456ee6de07e70aa9ef7b,6628df8b9a0c38ba6dbe697b,,,,,,,,,,,,,,,,,,,,,,,,,,,,,,,,,,,,,,,,,,,,,,,,,,,,,,,,0,9,9,26,1,N,M,D,o2_image,stimuli/out2.png,stimuli/out1.png,stimuli/correct_out2.png,,,,,,,,,,,,,,,,,,,,,,,,,,,,,,,,,,,,,,
,,60f99ec4c0f33da48795b916,30,male,2024-04-24_20h32.05.775,stockport_simplified,2022.2.4,Win32,74.96251874,661e456ee6de07e70aa9ef7b,6628df8b9a0c38ba6dbe697b,,,,,,,,,,,,,,,,,,,,,,,,,,,,,,,,,,118.045,120.071,"[6,3,8,7,2,5,1,4]","[[-0.3,0.2],[0.3,0.2]]","[[-0.125,-0.2],[0.125,-0.2]]",-0.097222222,-0.20462963,1,0,0,1.52,o1_image,120.072,1,120.565,120.565,122.565,0,0,0,0,1,,,,,,,,,,,,,,,,,,,,,,,,,,,,,,,,,,,,,,,,,,,,,,,,,,
,,60f99ec4c0f33da48795b916,30,male,2024-04-24_20h32.05.775,stockport_simplified,2022.2.4,Win32,74.96251874,661e456ee6de07e70aa9ef7b,6628df8b9a0c38ba6dbe697b,,,,,,,,,,,,,,,,,,,,,,,,,,,,,,,,,,,,,,,,,,,,,,,,,,,,,,,,0,10,10,50,1,N,M,C,o1_image,stimuli/out1.png,stimuli/correct_out1.png,stimuli/out2.png,,,,,,,,,,,,,,,,,,,,,,,,,,,,,,,,,,,,,,
,,60f99ec4c0f33da48795b916,30,male,2024-04-24_20h32.05.775,stockport_simplified,2022.2.4,Win32,74.96251874,661e456ee6de07e70aa9ef7b,6628df8b9a0c38ba6dbe697b,,,,,,,,,,,,,,,,,,,,,,,,,,,,,,,,,,122.566,124.313,"[6,3,8,7,2,5,1,4]","[[0.3,0.2],[-0.3,0.2]]","[[-0.125,-0.2],[0.125,-0.2]]",0.139814815,-0.197222222,1,0,0,1.24,o2_image,124.314,1,124.806,124.806,126.808,0,0,0,0,1,,,,,,,,,,,,,,,,,,,,,,,,,,,,,,,,,,,,,,,,,,,,,,,,,,
,,60f99ec4c0f33da48795b916,30,male,2024-04-24_20h32.05.775,stockport_simplified,2022.2.4,Win32,74.96251874,661e456ee6de07e70aa9ef7b,6628df8b9a0c38ba6dbe697b,,,,,,,,,,,,,,,,,,,,,,,,,,,,,,,,,,,,,,,,,,,,,,,,,,,,,,,,0,11,11,57,1,N,M,D,o2_image,stimuli/out2.png,stimuli/out1.png,stimuli/correct_out2.png,,,,,,,,,,,,,,,,,,,,,,,,,,,,,,,,,,,,,,
,,60f99ec4c0f33da48795b916,30,male,2024-04-24_20h32.05.775,stockport_simplified,2022.2.4,Win32,74.96251874,661e456ee6de07e70aa9ef7b,6628df8b9a0c38ba6dbe697b,,,,,,,,,,,,,,,,,,,,,,,,,,,,,,,,,,126.809,130.542,"[6,3,8,7,2,5,1,4]","[[-0.3,0.2],[0.3,0.2]]","[[0.125,-0.2],[-0.125,-0.2]]",0.090740741,-0.2,1,0,0,3.227,o1_image,130.543,0,131.035,131.035,133.036,0,0,0,0,1,,,,,,,,,,,,,,,,,,,,,,,,,,,,,,,,,,,,,,,,,,,,,,,,,,
,,60f99ec4c0f33da48795b916,30,male,2024-04-24_20h32.05.775,stockport_simplified,2022.2.4,Win32,74.96251874,661e456ee6de07e70aa9ef7b,6628df8b9a0c38ba6dbe697b,,,,,,,,,,,,,,,,,,,,,,,,,,,,,,,,,,,,,,,,,,,,,,,,,,,,,,,,0,12,12,17,1,B,Y,N,o2_image,stimuli/out2.png,stimuli/out1.png,stimuli/correct_out2.png,,,,,,,,,,,,,,,,,,,,,,,,,,,,,,,,,,,,,,
,,60f99ec4c0f33da48795b916,30,male,2024-04-24_20h32.05.775,stockport_simplified,2022.2.4,Win32,74.96251874,661e456ee6de07e70aa9ef7b,6628df8b9a0c38ba6dbe697b,,,,,,,,,,,,,,,,,,,,,,,,,,,,,,,,,,133.036,135.33,"[6,3,8,7,2,5,1,4]","[[-0.3,0.2],[0.3,0.2]]","[[0.125,-0.2],[-0.125,-0.2]]",-0.086111111,-0.209259259,1,0,0,1.788,o2_image,135.331,1,135.824,135.824,137.824,0,0,0,0,1,,,,,,,,,,,,,,,,,,,,,,,,,,,,,,,,,,,,,,,,,,,,,,,,,,
,,60f99ec4c0f33da48795b916,30,male,2024-04-24_20h32.05.775,stockport_simplified,2022.2.4,Win32,74.96251874,661e456ee6de07e70aa9ef7b,6628df8b9a0c38ba6dbe697b,,,,,,,,,,,,,,,,,,,,,,,,,,,,,,,,,,,,,,,,,,,,,,,,,,,,,,,,0,13,13,48,1,B,Y,N,o2_image,stimuli/out2.png,stimuli/out1.png,stimuli/correct_out2.png,,,,,,,,,,,,,,,,,,,,,,,,,,,,,,,,,,,,,,
,,60f99ec4c0f33da48795b916,30,male,2024-04-24_20h32.05.775,stockport_simplified,2022.2.4,Win32,74.96251874,661e456ee6de07e70aa9ef7b,6628df8b9a0c38ba6dbe697b,,,,,,,,,,,,,,,,,,,,,,,,,,,,,,,,,,137.825,139.211,"[6,3,8,7,2,5,1,4]","[[-0.3,0.2],[0.3,0.2]]","[[0.125,-0.2],[-0.125,-0.2]]",-0.106481481,-0.202777778,1,0,0,0.88,o2_image,139.212,1,139.705,139.705,141.705,0,0,0,0,1,,,,,,,,,,,,,,,,,,,,,,,,,,,,,,,,,,,,,,,,,,,,,,,,,,
,,60f99ec4c0f33da48795b916,30,male,2024-04-24_20h32.05.775,stockport_simplified,2022.2.4,Win32,74.96251874,661e456ee6de07e70aa9ef7b,6628df8b9a0c38ba6dbe697b,,,,,,,,,,,,,,,,,,,,,,,,,,,,,,,,,,,,,,,,,,,,,,,,,,,,,,,,0,14,14,55,1,N,M,D,o2_image,stimuli/out2.png,stimuli/out1.png,stimuli/correct_out2.png,,,,,,,,,,,,,,,,,,,,,,,,,,,,,,,,,,,,,,
,,60f99ec4c0f33da48795b916,30,male,2024-04-24_20h32.05.775,stockport_simplified,2022.2.4,Win32,74.96251874,661e456ee6de07e70aa9ef7b,6628df8b9a0c38ba6dbe697b,,,,,,,,,,,,,,,,,,,,,,,,,,,,,,,,,,141.706,143.88,"[6,3,8,7,2,5,1,4]","[[-0.3,0.2],[0.3,0.2]]","[[0.125,-0.2],[-0.125,-0.2]]",0.116666667,-0.198148148,1,0,0,1.666,o1_image,143.881,1,144.373,144.373,146.374,0,0,0,0,1,,,,,,,,,,,,,,,,,,,,,,,,,,,,,,,,,,,,,,,,,,,,,,,,,,
,,60f99ec4c0f33da48795b916,30,male,2024-04-24_20h32.05.775,stockport_simplified,2022.2.4,Win32,74.96251874,661e456ee6de07e70aa9ef7b,6628df8b9a0c38ba6dbe697b,,,,,,,,,,,,,,,,,,,,,,,,,,,,,,,,,,,,,,,,,,,,,,,,,,,,,,,,0,15,15,31,1,A,X,N,o1_image,stimuli/out1.png,stimuli/correct_out1.png,stimuli/out2.png,,,,,,,,,,,,,,,,,,,,,,,,,,,,,,,,,,,,,,
,,60f99ec4c0f33da48795b916,30,male,2024-04-24_20h32.05.775,stockport_simplified,2022.2.4,Win32,74.96251874,661e456ee6de07e70aa9ef7b,6628df8b9a0c38ba6dbe697b,,,,,,,,,,,,,,,,,,,,,,,,,,,,,,,,,,146.374,149.588,"[6,3,8,7,2,5,1,4]","[[0.3,0.2],[-0.3,0.2]]","[[-0.125,-0.2],[0.125,-0.2]]",-0.10462963,-0.205555556,1,0,0,2.707,o1_image,149.589,1,150.082,150.082,152.083,0,0,0,0,1,,,,,,,,,,,,,,,,,,,,,,,,,,,,,,,,,,,,,,,,,,,,,,,,,,
,,60f99ec4c0f33da48795b916,30,male,2024-04-24_20h32.05.775,stockport_simplified,2022.2.4,Win32,74.96251874,661e456ee6de07e70aa9ef7b,6628df8b9a0c38ba6dbe697b,,,,,,,,,,,,,,,,,,,,,,,,,,,,,,,,,,,,,,,,,,,,,,,,,,,,,,,,0,16,16,33,1,A,X,N,o1_image,stimuli/out1.png,stimuli/correct_out1.png,stimuli/out2.png,,,,,,,,,,,,,,,,,,,,,,,,,,,,,,,,,,,,,,
,,60f99ec4c0f33da48795b916,30,male,2024-04-24_20h32.05.775,stockport_simplified,2022.2.4,Win32,74.96251874,661e456ee6de07e70aa9ef7b,6628df8b9a0c38ba6dbe697b,,,,,,,,,,,,,,,,,,,,,,,,,,,,,,,,,,152.083,154.27,"[6,3,8,7,2,5,1,4]","[[-0.3,0.2],[0.3,0.2]]","[[0.125,-0.2],[-0.125,-0.2]]",0.112037037,-0.202777778,1,0,0,1.68,o1_image,154.272,0,154.763,154.763,156.765,0,0,0,0,1,,,,,,,,,,,,,,,,,,,,,,,,,,,,,,,,,,,,,,,,,,,,,,,,,,
,,60f99ec4c0f33da48795b916,30,male,2024-04-24_20h32.05.775,stockport_simplified,2022.2.4,Win32,74.96251874,661e456ee6de07e70aa9ef7b,6628df8b9a0c38ba6dbe697b,,,,,,,,,,,,,,,,,,,,,,,,,,,,,,,,,,,,,,,,,,,,,,,,,,,,,,,,0,17,17,13,1,B,X,N,o2_image,stimuli/out2.png,stimuli/out1.png,stimuli/correct_out2.png,,,,,,,,,,,,,,,,,,,,,,,,,,,,,,,,,,,,,,
,,60f99ec4c0f33da48795b916,30,male,2024-04-24_20h32.05.775,stockport_simplified,2022.2.4,Win32,74.96251874,661e456ee6de07e70aa9ef7b,6628df8b9a0c38ba6dbe697b,,,,,,,,,,,,,,,,,,,,,,,,,,,,,,,,,,156.765,159.419,"[6,3,8,7,2,5,1,4]","[[-0.3,0.2],[0.3,0.2]]","[[-0.125,-0.2],[0.125,-0.2]]",0.099074074,-0.194444444,1,0,0,2.148,o2_image,159.421,0,159.913,159.913,161.913,0,0,0,0,1,,,,,,,,,,,,,,,,,,,,,,,,,,,,,,,,,,,,,,,,,,,,,,,,,,
,,60f99ec4c0f33da48795b916,30,male,2024-04-24_20h32.05.775,stockport_simplified,2022.2.4,Win32,74.96251874,661e456ee6de07e70aa9ef7b,6628df8b9a0c38ba6dbe697b,,,,,,,,,,,,,,,,,,,,,,,,,,,,,,,,,,,,,,,,,,,,,,,,,,,,,,,,0,18,18,7,1,A,Y,N,o1_image,stimuli/out1.png,stimuli/correct_out1.png,stimuli/out2.png,,,,,,,,,,,,,,,,,,,,,,,,,,,,,,,,,,,,,,
,,60f99ec4c0f33da48795b916,30,male,2024-04-24_20h32.05.775,stockport_simplified,2022.2.4,Win32,74.96251874,661e456ee6de07e70aa9ef7b,6628df8b9a0c38ba6dbe697b,,,,,,,,,,,,,,,,,,,,,,,,,,,,,,,,,,161.914,163.741,"[6,3,8,7,2,5,1,4]","[[-0.3,0.2],[0.3,0.2]]","[[0.125,-0.2],[-0.125,-0.2]]",-0.057407407,-0.207407407,1,0,0,1.32,o2_image,163.742,1,164.234,164.234,166.235,0,0,0,0,1,,,,,,,,,,,,,,,,,,,,,,,,,,,,,,,,,,,,,,,,,,,,,,,,,,
,,60f99ec4c0f33da48795b916,30,male,2024-04-24_20h32.05.775,stockport_simplified,2022.2.4,Win32,74.96251874,661e456ee6de07e70aa9ef7b,6628df8b9a0c38ba6dbe697b,,,,,,,,,,,,,,,,,,,,,,,,,,,,,,,,,,,,,,,,,,,,,,,,,,,,,,,,0,19,19,58,1,N,M,D,o2_image,stimuli/out2.png,stimuli/out1.png,stimuli/correct_out2.png,,,,,,,,,,,,,,,,,,,,,,,,,,,,,,,,,,,,,,
,,60f99ec4c0f33da48795b916,30,male,2024-04-24_20h32.05.775,stockport_simplified,2022.2.4,Win32,74.96251874,661e456ee6de07e70aa9ef7b,6628df8b9a0c38ba6dbe697b,,,,,,,,,,,,,,,,,,,,,,,,,,,,,,,,,,166.235,168.209,"[6,3,8,7,2,5,1,4]","[[-0.3,0.2],[0.3,0.2]]","[[-0.125,-0.2],[0.125,-0.2]]",-0.118518519,-0.212962963,1,0,0,1.468,o1_image,168.21,0,168.702,168.702,170.703,0,0,0,0,1,,,,,,,,,,,,,,,,,,,,,,,,,,,,,,,,,,,,,,,,,,,,,,,,,,
,,60f99ec4c0f33da48795b916,30,male,2024-04-24_20h32.05.775,stockport_simplified,2022.2.4,Win32,74.96251874,661e456ee6de07e70aa9ef7b,6628df8b9a0c38ba6dbe697b,,,,,,,,,,,,,,,,,,,,,,,,,,,,,,,,,,,,,,,,,,,,,,,,,,,,,,,,0,20,20,42,1,B,X,N,o2_image,stimuli/out2.png,stimuli/out1.png,stimuli/correct_out2.png,,,,,,,,,,,,,,,,,,,,,,,,,,,,,,,,,,,,,,
,,60f99ec4c0f33da48795b916,30,male,2024-04-24_20h32.05.775,stockport_simplified,2022.2.4,Win32,74.96251874,661e456ee6de07e70aa9ef7b,6628df8b9a0c38ba6dbe697b,,,,,,,,,,,,,,,,,,,,,,,,,,,,,,,,,,170.703,172.637,"[6,3,8,7,2,5,1,4]","[[0.3,0.2],[-0.3,0.2]]","[[0.125,-0.2],[-0.125,-0.2]]",-0.091666667,-0.209259259,1,0,0,1.427,o2_image,172.638,0,173.131,173.131,175.131,0,0,0,0,1,,,,,,,,,,,,,,,,,,,,,,,,,,,,,,,,,,,,,,,,,,,,,,,,,,
,,60f99ec4c0f33da48795b916,30,male,2024-04-24_20h32.05.775,stockport_simplified,2022.2.4,Win32,74.96251874,661e456ee6de07e70aa9ef7b,6628df8b9a0c38ba6dbe697b,,,,,,,,,,,,,,,,,,,,,,,,,,,,,,,,,,,,,,,,,,,,,,,,,,,,,,,,0,21,21,9,1,A,Y,N,o1_image,stimuli/out1.png,stimuli/correct_out1.png,stimuli/out2.png,,,,,,,,,,,,,,,,,,,,,,,,,,,,,,,,,,,,,,
,,60f99ec4c0f33da48795b916,30,male,2024-04-24_20h32.05.775,stockport_simplified,2022.2.4,Win32,74.96251874,661e456ee6de07e70aa9ef7b,6628df8b9a0c38ba6dbe697b,,,,,,,,,,,,,,,,,,,,,,,,,,,,,,,,,,175.132,177.599,"[6,3,8,7,2,5,1,4]","[[0.3,0.2],[-0.3,0.2]]","[[-0.125,-0.2],[0.125,-0.2]]",0.172222222,-0.263888889,1,0,0,1.961,o2_image,177.599,0,178.092,178.092,180.093,0,0,0,0,1,,,,,,,,,,,,,,,,,,,,,,,,,,,,,,,,,,,,,,,,,,,,,,,,,,
,,60f99ec4c0f33da48795b916,30,male,2024-04-24_20h32.05.775,stockport_simplified,2022.2.4,Win32,74.96251874,661e456ee6de07e70aa9ef7b,6628df8b9a0c38ba6dbe697b,,,,,,,,,,,,,,,,,,,,,,,,,,,,,,,,,,,,,,,,,,,,,,,,,,,,,,,,0,22,22,37,1,A,Y,N,o1_image,stimuli/out1.png,stimuli/correct_out1.png,stimuli/out2.png,,,,,,,,,,,,,,,,,,,,,,,,,,,,,,,,,,,,,,
,,60f99ec4c0f33da48795b916,30,male,2024-04-24_20h32.05.775,stockport_simplified,2022.2.4,Win32,74.96251874,661e456ee6de07e70aa9ef7b,6628df8b9a0c38ba6dbe697b,,,,,,,,,,,,,,,,,,,,,,,,,,,,,,,,,,180.094,182.094,"[6,3,8,7,2,5,1,4]","[[0.3,0.2],[-0.3,0.2]]","[[0.125,-0.2],[-0.125,-0.2]]",-0.059259259,-0.217592593,1,0,0,1.493,o2_image,182.095,1,182.588,182.588,184.588,0,0,0,0,1,,,,,,,,,,,,,,,,,,,,,,,,,,,,,,,,,,,,,,,,,,,,,,,,,,
,,60f99ec4c0f33da48795b916,30,male,2024-04-24_20h32.05.775,stockport_simplified,2022.2.4,Win32,74.96251874,661e456ee6de07e70aa9ef7b,6628df8b9a0c38ba6dbe697b,,,,,,,,,,,,,,,,,,,,,,,,,,,,,,,,,,,,,,,,,,,,,,,,,,,,,,,,0,23,23,28,1,N,M,D,o2_image,stimuli/out2.png,stimuli/out1.png,stimuli/correct_out2.png,,,,,,,,,,,,,,,,,,,,,,,,,,,,,,,,,,,,,,
,,60f99ec4c0f33da48795b916,30,male,2024-04-24_20h32.05.775,stockport_simplified,2022.2.4,Win32,74.96251874,661e456ee6de07e70aa9ef7b,6628df8b9a0c38ba6dbe697b,,,,,,,,,,,,,,,,,,,,,,,,,,,,,,,,,,184.588,187.415,"[6,3,8,7,2,5,1,4]","[[-0.3,0.2],[0.3,0.2]]","[[0.125,-0.2],[-0.125,-0.2]]",0.124074074,-0.222222222,1,0,0,2.32,o1_image,187.416,0,187.909,187.909,189.91,0,0,0,0,1,,,,,,,,,,,,,,,,,,,,,,,,,,,,,,,,,,,,,,,,,,,,,,,,,,
,,60f99ec4c0f33da48795b916,30,male,2024-04-24_20h32.05.775,stockport_simplified,2022.2.4,Win32,74.96251874,661e456ee6de07e70aa9ef7b,6628df8b9a0c38ba6dbe697b,,,,,,,,,,,,,,,,,,,,,,,,,,,,,,,,,,,,,,,,,,,,,,,,,,,,,,,,0,24,24,40,1,B,X,N,o2_image,stimuli/out2.png,stimuli/out1.png,stimuli/correct_out2.png,,,,,,,,,,,,,,,,,,,,,,,,,,,,,,,,,,,,,,
,,60f99ec4c0f33da48795b916,30,male,2024-04-24_20h32.05.775,stockport_simplified,2022.2.4,Win32,74.96251874,661e456ee6de07e70aa9ef7b,6628df8b9a0c38ba6dbe697b,,,,,,,,,,,,,,,,,,,,,,,,,,,,,,,,,,189.91,192.752,"[6,3,8,7,2,5,1,4]","[[0.3,0.2],[-0.3,0.2]]","[[0.125,-0.2],[-0.125,-0.2]]",0.115740741,-0.205555556,1,0,0,2.334,o1_image,192.753,1,193.244,193.244,195.245,0,0,0,0,1,,,,,,,,,,,,,,,,,,,,,,,,,,,,,,,,,,,,,,,,,,,,,,,,,,
,,60f99ec4c0f33da48795b916,30,male,2024-04-24_20h32.05.775,stockport_simplified,2022.2.4,Win32,74.96251874,661e456ee6de07e70aa9ef7b,6628df8b9a0c38ba6dbe697b,,,,,,,,,,,,,,,,,,,,,,,,,,,,,,,,,,,,,,,,,,,,,,,,,,,,,,,,0,25,25,21,1,N,M,C,o1_image,stimuli/out1.png,stimuli/correct_out1.png,stimuli/out2.png,,,,,,,,,,,,,,,,,,,,,,,,,,,,,,,,,,,,,,
,,60f99ec4c0f33da48795b916,30,male,2024-04-24_20h32.05.775,stockport_simplified,2022.2.4,Win32,74.96251874,661e456ee6de07e70aa9ef7b,6628df8b9a0c38ba6dbe697b,,,,,,,,,,,,,,,,,,,,,,,,,,,,,,,,,,195.246,198.033,"[6,3,8,7,2,5,1,4]","[[0.3,0.2],[-0.3,0.2]]","[[-0.125,-0.2],[0.125,-0.2]]",0.119444444,-0.219444444,1,0,0,2.28,o2_image,198.034,0,198.526,198.526,200.527,0,0,0,0,1,,,,,,,,,,,,,,,,,,,,,,,,,,,,,,,,,,,,,,,,,,,,,,,,,,
,,60f99ec4c0f33da48795b916,30,male,2024-04-24_20h32.05.775,stockport_simplified,2022.2.4,Win32,74.96251874,661e456ee6de07e70aa9ef7b,6628df8b9a0c38ba6dbe697b,,,,,,,,,,,,,,,,,,,,,,,,,,,,,,,,,,,,,,,,,,,,,,,,,,,,,,,,0,26,26,39,1,A,Y,N,o1_image,stimuli/out1.png,stimuli/correct_out1.png,stimuli/out2.png,,,,,,,,,,,,,,,,,,,,,,,,,,,,,,,,,,,,,,
,,60f99ec4c0f33da48795b916,30,male,2024-04-24_20h32.05.775,stockport_simplified,2022.2.4,Win32,74.96251874,661e456ee6de07e70aa9ef7b,6628df8b9a0c38ba6dbe697b,,,,,,,,,,,,,,,,,,,,,,,,,,,,,,,,,,200.527,203.315,"[6,3,8,7,2,5,1,4]","[[-0.3,0.2],[0.3,0.2]]","[[0.125,-0.2],[-0.125,-0.2]]",-0.081481481,-0.227777778,1,0,0,2.281,o2_image,203.316,1,203.809,203.809,205.809,0,0,0,0,1,,,,,,,,,,,,,,,,,,,,,,,,,,,,,,,,,,,,,,,,,,,,,,,,,,
,,60f99ec4c0f33da48795b916,30,male,2024-04-24_20h32.05.775,stockport_simplified,2022.2.4,Win32,74.96251874,661e456ee6de07e70aa9ef7b,6628df8b9a0c38ba6dbe697b,,,,,,,,,,,,,,,,,,,,,,,,,,,,,,,,,,,,,,,,,,,,,,,,,,,,,,,,0,27,27,10,1,B,X,N,o2_image,stimuli/out2.png,stimuli/out1.png,stimuli/correct_out2.png,,,,,,,,,,,,,,,,,,,,,,,,,,,,,,,,,,,,,,
,,60f99ec4c0f33da48795b916,30,male,2024-04-24_20h32.05.775,stockport_simplified,2022.2.4,Win32,74.96251874,661e456ee6de07e70aa9ef7b,6628df8b9a0c38ba6dbe697b,,,,,,,,,,,,,,,,,,,,,,,,,,,,,,,,,,205.81,207.796,"[6,3,8,7,2,5,1,4]","[[0.3,0.2],[-0.3,0.2]]","[[0.125,-0.2],[-0.125,-0.2]]",-0.087037037,-0.22962963,1,0,0,1.48,o2_image,207.797,0,208.289,208.289,210.29,0,0,0,0,1,,,,,,,,,,,,,,,,,,,,,,,,,,,,,,,,,,,,,,,,,,,,,,,,,,
,,60f99ec4c0f33da48795b916,30,male,2024-04-24_20h32.05.775,stockport_simplified,2022.2.4,Win32,74.96251874,661e456ee6de07e70aa9ef7b,6628df8b9a0c38ba6dbe697b,,,,,,,,,,,,,,,,,,,,,,,,,,,,,,,,,,,,,,,,,,,,,,,,,,,,,,,,0,28,28,5,1,A,Y,N,o1_image,stimuli/out1.png,stimuli/correct_out1.png,stimuli/out2.png,,,,,,,,,,,,,,,,,,,,,,,,,,,,,,,,,,,,,,
,,60f99ec4c0f33da48795b916,30,male,2024-04-24_20h32.05.775,stockport_simplified,2022.2.4,Win32,74.96251874,661e456ee6de07e70aa9ef7b,6628df8b9a0c38ba6dbe697b,,,,,,,,,,,,,,,,,,,,,,,,,,,,,,,,,,210.291,212.385,"[6,3,8,7,2,5,1,4]","[[0.3,0.2],[-0.3,0.2]]","[[-0.125,-0.2],[0.125,-0.2]]",-0.099074074,-0.234259259,1,0,0,1.588,o1_image,212.385,0,212.878,212.878,214.879,0,0,0,0,1,,,,,,,,,,,,,,,,,,,,,,,,,,,,,,,,,,,,,,,,,,,,,,,,,,
,,60f99ec4c0f33da48795b916,30,male,2024-04-24_20h32.05.775,stockport_simplified,2022.2.4,Win32,74.96251874,661e456ee6de07e70aa9ef7b,6628df8b9a0c38ba6dbe697b,,,,,,,,,,,,,,,,,,,,,,,,,,,,,,,,,,,,,,,,,,,,,,,,,,,,,,,,0,29,29,46,1,B,Y,N,o2_image,stimuli/out2.png,stimuli/out1.png,stimuli/correct_out2.png,,,,,,,,,,,,,,,,,,,,,,,,,,,,,,,,,,,,,,
,,60f99ec4c0f33da48795b916,30,male,2024-04-24_20h32.05.775,stockport_simplified,2022.2.4,Win32,74.96251874,661e456ee6de07e70aa9ef7b,6628df8b9a0c38ba6dbe697b,,,,,,,,,,,,,,,,,,,,,,,,,,,,,,,,,,214.879,217.093,"[6,3,8,7,2,5,1,4]","[[0.3,0.2],[-0.3,0.2]]","[[0.125,-0.2],[-0.125,-0.2]]",0.074074074,-0.237962963,1,0,0,1.706,o1_image,217.094,1,217.587,217.587,219.587,0,0,0,0,1,,,,,,,,,,,,,,,,,,,,,,,,,,,,,,,,,,,,,,,,,,,,,,,,,,
,,60f99ec4c0f33da48795b916,30,male,2024-04-24_20h32.05.775,stockport_simplified,2022.2.4,Win32,74.96251874,661e456ee6de07e70aa9ef7b,6628df8b9a0c38ba6dbe697b,,,,,,,,,,,,,,,,,,,,,,,,,,,,,,,,,,,,,,,,,,,,,,,,,,,,,,,,0,30,30,24,1,N,M,C,o1_image,stimuli/out1.png,stimuli/correct_out1.png,stimuli/out2.png,,,,,,,,,,,,,,,,,,,,,,,,,,,,,,,,,,,,,,
,,60f99ec4c0f33da48795b916,30,male,2024-04-24_20h32.05.775,stockport_simplified,2022.2.4,Win32,74.96251874,661e456ee6de07e70aa9ef7b,6628df8b9a0c38ba6dbe697b,,,,,,,,,,,,,,,,,,,,,,,,,,,,,,,,,,219.588,222.108,"[6,3,8,7,2,5,1,4]","[[-0.3,0.2],[0.3,0.2]]","[[-0.125,-0.2],[0.125,-0.2]]",-0.091666667,-0.237037037,1,0,0,2.014,o1_image,222.109,1,222.602,222.602,224.602,0,0,0,0,1,,,,,,,,,,,,,,,,,,,,,,,,,,,,,,,,,,,,,,,,,,,,,,,,,,
,,60f99ec4c0f33da48795b916,30,male,2024-04-24_20h32.05.775,stockport_simplified,2022.2.4,Win32,74.96251874,661e456ee6de07e70aa9ef7b,6628df8b9a0c38ba6dbe697b,,,,,,,,,,,,,,,,,,,,,,,,,,,,,,,,,,,,,,,,,,,,,,,,,,,,,,,,0,31,31,51,1,N,M,C,o1_image,stimuli/out1.png,stimuli/correct_out1.png,stimuli/out2.png,,,,,,,,,,,,,,,,,,,,,,,,,,,,,,,,,,,,,,
,,60f99ec4c0f33da48795b916,30,male,2024-04-24_20h32.05.775,stockport_simplified,2022.2.4,Win32,74.96251874,661e456ee6de07e70aa9ef7b,6628df8b9a0c38ba6dbe697b,,,,,,,,,,,,,,,,,,,,,,,,,,,,,,,,,,224.603,227.204,"[6,3,8,7,2,5,1,4]","[[0.3,0.2],[-0.3,0.2]]","[[-0.125,-0.2],[0.125,-0.2]]",0.122222222,-0.214814815,1,0,0,2.094,o2_image,227.206,1,227.697,227.697,229.697,0,0,0,0,1,,,,,,,,,,,,,,,,,,,,,,,,,,,,,,,,,,,,,,,,,,,,,,,,,,
,,60f99ec4c0f33da48795b916,30,male,2024-04-24_20h32.05.775,stockport_simplified,2022.2.4,Win32,74.96251874,661e456ee6de07e70aa9ef7b,6628df8b9a0c38ba6dbe697b,,,,,,,,,,,,,,,,,,,,,,,,,,,,,,,,,,,,,,,,,,,,,,,,,,,,,,,,0,32,32,41,1,B,X,N,o2_image,stimuli/out2.png,stimuli/out1.png,stimuli/correct_out2.png,,,,,,,,,,,,,,,,,,,,,,,,,,,,,,,,,,,,,,
,,60f99ec4c0f33da48795b916,30,male,2024-04-24_20h32.05.775,stockport_simplified,2022.2.4,Win32,74.96251874,661e456ee6de07e70aa9ef7b,6628df8b9a0c38ba6dbe697b,,,,,,,,,,,,,,,,,,,,,,,,,,,,,,,,,,229.698,232.312,"[6,3,8,7,2,5,1,4]","[[-0.3,0.2],[0.3,0.2]]","[[-0.125,-0.2],[0.125,-0.2]]",-0.115740741,-0.214814815,1,0,0,2.108,o1_image,232.313,1,232.806,232.806,234.806,0,0,0,0,1,,,,,,,,,,,,,,,,,,,,,,,,,,,,,,,,,,,,,,,,,,,,,,,,,,
,,60f99ec4c0f33da48795b916,30,male,2024-04-24_20h32.05.775,stockport_simplified,2022.2.4,Win32,74.96251874,661e456ee6de07e70aa9ef7b,6628df8b9a0c38ba6dbe697b,,,,,,,,,,,,,,,,,,,,,,,,,,,,,,,,,,,,,,,,,,,,,,,,,,,,,,,,0,33,33,54,1,N,M,C,o1_image,stimuli/out1.png,stimuli/correct_out1.png,stimuli/out2.png,,,,,,,,,,,,,,,,,,,,,,,,,,,,,,,,,,,,,,
,,60f99ec4c0f33da48795b916,30,male,2024-04-24_20h32.05.775,stockport_simplified,2022.2.4,Win32,74.96251874,661e456ee6de07e70aa9ef7b,6628df8b9a0c38ba6dbe697b,,,,,,,,,,,,,,,,,,,,,,,,,,,,,,,,,,234.807,238.501,"[6,3,8,7,2,5,1,4]","[[0.3,0.2],[-0.3,0.2]]","[[-0.125,-0.2],[0.125,-0.2]]",0.081481481,-0.224074074,1,0,0,3.187,o2_image,238.502,1,238.994,238.994,240.995,0,0,0,0,1,,,,,,,,,,,,,,,,,,,,,,,,,,,,,,,,,,,,,,,,,,,,,,,,,,
,,60f99ec4c0f33da48795b916,30,male,2024-04-24_20h32.05.775,stockport_simplified,2022.2.4,Win32,74.96251874,661e456ee6de07e70aa9ef7b,6628df8b9a0c38ba6dbe697b,,,,,,,,,,,,,,,,,,,,,,,,,,,,,,,,,,,,,,,,,,,,,,,,,,,,,,,,0,34,34,49,1,B,Y,N,o2_image,stimuli/out2.png,stimuli/out1.png,stimuli/correct_out2.png,,,,,,,,,,,,,,,,,,,,,,,,,,,,,,,,,,,,,,
,,60f99ec4c0f33da48795b916,30,male,2024-04-24_20h32.05.775,stockport_simplified,2022.2.4,Win32,74.96251874,661e456ee6de07e70aa9ef7b,6628df8b9a0c38ba6dbe697b,,,,,,,,,,,,,,,,,,,,,,,,,,,,,,,,,,240.995,243.249,"[6,3,8,7,2,5,1,4]","[[0.3,0.2],[-0.3,0.2]]","[[0.125,-0.2],[-0.125,-0.2]]",-0.087962963,-0.224074074,1,0,0,1.747,o2_image,243.25,1,243.742,243.742,245.743,0,0,0,0,1,,,,,,,,,,,,,,,,,,,,,,,,,,,,,,,,,,,,,,,,,,,,,,,,,,
,,60f99ec4c0f33da48795b916,30,male,2024-04-24_20h32.05.775,stockport_simplified,2022.2.4,Win32,74.96251874,661e456ee6de07e70aa9ef7b,6628df8b9a0c38ba6dbe697b,,,,,,,,,,,,,,,,,,,,,,,,,,,,,,,,,,,,,,,,,,,,,,,,,,,,,,,,0,35,35,12,1,B,X,N,o2_image,stimuli/out2.png,stimuli/out1.png,stimuli/correct_out2.png,,,,,,,,,,,,,,,,,,,,,,,,,,,,,,,,,,,,,,
,,60f99ec4c0f33da48795b916,30,male,2024-04-24_20h32.05.775,stockport_simplified,2022.2.4,Win32,74.96251874,661e456ee6de07e70aa9ef7b,6628df8b9a0c38ba6dbe697b,,,,,,,,,,,,,,,,,,,,,,,,,,,,,,,,,,245.743,249.425,"[6,3,8,7,2,5,1,4]","[[-0.3,0.2],[0.3,0.2]]","[[0.125,-0.2],[-0.125,-0.2]]",0.056481481,-0.224074074,1,0,0,3.174,o1_image,249.426,0,249.918,249.918,251.919,0,0,0,0,1,,,,,,,,,,,,,,,,,,,,,,,,,,,,,,,,,,,,,,,,,,,,,,,,,,
,,60f99ec4c0f33da48795b916,30,male,2024-04-24_20h32.05.775,stockport_simplified,2022.2.4,Win32,74.96251874,661e456ee6de07e70aa9ef7b,6628df8b9a0c38ba6dbe697b,,,,,,,,,,,,,,,,,,,,,,,,,,,,,,,,,,,,,,,,,,,,,,,,,,,,,,,,0,36,36,43,1,B,X,N,o2_image,stimuli/out2.png,stimuli/out1.png,stimuli/correct_out2.png,,,,,,,,,,,,,,,,,,,,,,,,,,,,,,,,,,,,,,
,,60f99ec4c0f33da48795b916,30,male,2024-04-24_20h32.05.775,stockport_simplified,2022.2.4,Win32,74.96251874,661e456ee6de07e70aa9ef7b,6628df8b9a0c38ba6dbe697b,,,,,,,,,,,,,,,,,,,,,,,,,,,,,,,,,,251.92,254.039,"[6,3,8,7,2,5,1,4]","[[0.3,0.2],[-0.3,0.2]]","[[-0.125,-0.2],[0.125,-0.2]]",0.112962963,-0.212962963,1,0,0,1.613,o2_image,254.04,1,254.534,254.534,256.534,0,0,0,0,1,,,,,,,,,,,,,,,,,,,,,,,,,,,,,,,,,,,,,,,,,,,,,,,,,,
,,60f99ec4c0f33da48795b916,30,male,2024-04-24_20h32.05.775,stockport_simplified,2022.2.4,Win32,74.96251874,661e456ee6de07e70aa9ef7b,6628df8b9a0c38ba6dbe697b,,,,,,,,,,,,,,,,,,,,,,,,,,,,,,,,,,,,,,,,,,,,,,,,,,,,,,,,0,37,37,56,1,N,M,D,o2_image,stimuli/out2.png,stimuli/out1.png,stimuli/correct_out2.png,,,,,,,,,,,,,,,,,,,,,,,,,,,,,,,,,,,,,,
,,60f99ec4c0f33da48795b916,30,male,2024-04-24_20h32.05.775,stockport_simplified,2022.2.4,Win32,74.96251874,661e456ee6de07e70aa9ef7b,6628df8b9a0c38ba6dbe697b,,,,,,,,,,,,,,,,,,,,,,,,,,,,,,,,,,256.534,258.496,"[6,3,8,7,2,5,1,4]","[[0.3,0.2],[-0.3,0.2]]","[[0.125,-0.2],[-0.125,-0.2]]",0.076851852,-0.212037037,1,0,0,1.453,o1_image,258.497,1,258.989,258.989,260.989,0,0,0,0,1,,,,,,,,,,,,,,,,,,,,,,,,,,,,,,,,,,,,,,,,,,,,,,,,,,
,,60f99ec4c0f33da48795b916,30,male,2024-04-24_20h32.05.775,stockport_simplified,2022.2.4,Win32,74.96251874,661e456ee6de07e70aa9ef7b,6628df8b9a0c38ba6dbe697b,,,,,,,,,,,,,,,,,,,,,,,,,,,,,,,,,,,,,,,,,,,,,,,,,,,,,,,,0,38,38,53,1,N,M,C,o1_image,stimuli/out1.png,stimuli/correct_out1.png,stimuli/out2.png,,,,,,,,,,,,,,,,,,,,,,,,,,,,,,,,,,,,,,
,,60f99ec4c0f33da48795b916,30,male,2024-04-24_20h32.05.775,stockport_simplified,2022.2.4,Win32,74.96251874,661e456ee6de07e70aa9ef7b,6628df8b9a0c38ba6dbe697b,,,,,,,,,,,,,,,,,,,,,,,,,,,,,,,,,,260.989,263.43,"[6,3,8,7,2,5,1,4]","[[-0.3,0.2],[0.3,0.2]]","[[-0.125,-0.2],[0.125,-0.2]]",0.097222222,-0.207407407,1,0,0,1.933,o2_image,263.431,0,263.924,263.924,265.924,0,0,0,0,1,,,,,,,,,,,,,,,,,,,,,,,,,,,,,,,,,,,,,,,,,,,,,,,,,,
,,60f99ec4c0f33da48795b916,30,male,2024-04-24_20h32.05.775,stockport_simplified,2022.2.4,Win32,74.96251874,661e456ee6de07e70aa9ef7b,6628df8b9a0c38ba6dbe697b,,,,,,,,,,,,,,,,,,,,,,,,,,,,,,,,,,,,,,,,,,,,,,,,,,,,,,,,0,39,39,0,1,A,X,N,o1_image,stimuli/out1.png,stimuli/correct_out1.png,stimuli/out2.png,,,,,,,,,,,,,,,,,,,,,,,,,,,,,,,,,,,,,,
,,60f99ec4c0f33da48795b916,30,male,2024-04-24_20h32.05.775,stockport_simplified,2022.2.4,Win32,74.96251874,661e456ee6de07e70aa9ef7b,6628df8b9a0c38ba6dbe697b,,,,,,,,,,,,,,,,,,,,,,,,,,,,,,,,,,265.925,270.232,"[6,3,8,7,2,5,1,4]","[[-0.3,0.2],[0.3,0.2]]","[[0.125,-0.2],[-0.125,-0.2]]",-0.059259259,-0.210185185,1,0,0,3.801,o2_image,270.233,1,270.726,270.726,272.727,0,0,0,0,1,,,,,,,,,,,,,,,,,,,,,,,,,,,,,,,,,,,,,,,,,,,,,,,,,,
,,60f99ec4c0f33da48795b916,30,male,2024-04-24_20h32.05.775,stockport_simplified,2022.2.4,Win32,74.96251874,661e456ee6de07e70aa9ef7b,6628df8b9a0c38ba6dbe697b,,,,,,,,,,,,,,,,,,,,,,,,,,,,,,,,,,,,,,,,,,,,,,,,,,,,,,,,0,40,40,19,1,B,Y,N,o2_image,stimuli/out2.png,stimuli/out1.png,stimuli/correct_out2.png,,,,,,,,,,,,,,,,,,,,,,,,,,,,,,,,,,,,,,
,,60f99ec4c0f33da48795b916,30,male,2024-04-24_20h32.05.775,stockport_simplified,2022.2.4,Win32,74.96251874,661e456ee6de07e70aa9ef7b,6628df8b9a0c38ba6dbe697b,,,,,,,,,,,,,,,,,,,,,,,,,,,,,,,,,,272.727,276.075,"[6,3,8,7,2,5,1,4]","[[0.3,0.2],[-0.3,0.2]]","[[0.125,-0.2],[-0.125,-0.2]]",-0.086111111,-0.213888889,1,0,0,2.841,o2_image,276.075,1,276.568,276.568,278.569,0,0,0,0,1,,,,,,,,,,,,,,,,,,,,,,,,,,,,,,,,,,,,,,,,,,,,,,,,,,
,,60f99ec4c0f33da48795b916,30,male,2024-04-24_20h32.05.775,stockport_simplified,2022.2.4,Win32,74.96251874,661e456ee6de07e70aa9ef7b,6628df8b9a0c38ba6dbe697b,,,,,,,,,,,,,,,,,,,,,,,,,,,,,,,,,,,,,,,,,,,,,,,,,,,,,,,,0,41,41,11,1,B,X,N,o2_image,stimuli/out2.png,stimuli/out1.png,stimuli/correct_out2.png,,,,,,,,,,,,,,,,,,,,,,,,,,,,,,,,,,,,,,
,,60f99ec4c0f33da48795b916,30,male,2024-04-24_20h32.05.775,stockport_simplified,2022.2.4,Win32,74.96251874,661e456ee6de07e70aa9ef7b,6628df8b9a0c38ba6dbe697b,,,,,,,,,,,,,,,,,,,,,,,,,,,,,,,,,,278.569,280.53,"[6,3,8,7,2,5,1,4]","[[0.3,0.2],[-0.3,0.2]]","[[0.125,-0.2],[-0.125,-0.2]]",0.098148148,-0.233333333,1,0,0,1.453,o1_image,280.53,1,281.023,281.023,283.024,0,0,0,0,1,,,,,,,,,,,,,,,,,,,,,,,,,,,,,,,,,,,,,,,,,,,,,,,,,,
,,60f99ec4c0f33da48795b916,30,male,2024-04-24_20h32.05.775,stockport_simplified,2022.2.4,Win32,74.96251874,661e456ee6de07e70aa9ef7b,6628df8b9a0c38ba6dbe697b,,,,,,,,,,,,,,,,,,,,,,,,,,,,,,,,,,,,,,,,,,,,,,,,,,,,,,,,0,42,42,23,1,N,M,C,o1_image,stimuli/out1.png,stimuli/correct_out1.png,stimuli/out2.png,,,,,,,,,,,,,,,,,,,,,,,,,,,,,,,,,,,,,,
,,60f99ec4c0f33da48795b916,30,male,2024-04-24_20h32.05.775,stockport_simplified,2022.2.4,Win32,74.96251874,661e456ee6de07e70aa9ef7b,6628df8b9a0c38ba6dbe697b,,,,,,,,,,,,,,,,,,,,,,,,,,,,,,,,,,283.024,285.358,"[6,3,8,7,2,5,1,4]","[[0.3,0.2],[-0.3,0.2]]","[[0.125,-0.2],[-0.125,-0.2]]",-0.119444444,-0.227777778,1,0,0,1.827,o2_image,285.359,0,285.851,285.852,287.852,0,0,0,0,1,,,,,,,,,,,,,,,,,,,,,,,,,,,,,,,,,,,,,,,,,,,,,,,,,,
,,60f99ec4c0f33da48795b916,30,male,2024-04-24_20h32.05.775,stockport_simplified,2022.2.4,Win32,74.96251874,661e456ee6de07e70aa9ef7b,6628df8b9a0c38ba6dbe697b,,,,,,,,,,,,,,,,,,,,,,,,,,,,,,,,,,,,,,,,,,,,,,,,,,,,,,,,0,43,43,34,1,A,X,N,o1_image,stimuli/out1.png,stimuli/correct_out1.png,stimuli/out2.png,,,,,,,,,,,,,,,,,,,,,,,,,,,,,,,,,,,,,,
,,60f99ec4c0f33da48795b916,30,male,2024-04-24_20h32.05.775,stockport_simplified,2022.2.4,Win32,74.96251874,661e456ee6de07e70aa9ef7b,6628df8b9a0c38ba6dbe697b,,,,,,,,,,,,,,,,,,,,,,,,,,,,,,,,,,287.852,293.254,"[6,3,8,7,2,5,1,4]","[[-0.3,0.2],[0.3,0.2]]","[[0.125,-0.2],[-0.125,-0.2]]",0.085185185,-0.223148148,1,0,0,4.895,o1_image,293.257,1,293.748,293.748,295.749,0,0,0,0,1,,,,,,,,,,,,,,,,,,,,,,,,,,,,,,,,,,,,,,,,,,,,,,,,,,
,,60f99ec4c0f33da48795b916,30,male,2024-04-24_20h32.05.775,stockport_simplified,2022.2.4,Win32,74.96251874,661e456ee6de07e70aa9ef7b,6628df8b9a0c38ba6dbe697b,,,,,,,,,,,,,,,,,,,,,,,,,,,,,,,,,,,,,,,,,,,,,,,,,,,,,,,,0,44,44,52,1,N,M,C,o1_image,stimuli/out1.png,stimuli/correct_out1.png,stimuli/out2.png,,,,,,,,,,,,,,,,,,,,,,,,,,,,,,,,,,,,,,
,,60f99ec4c0f33da48795b916,30,male,2024-04-24_20h32.05.775,stockport_simplified,2022.2.4,Win32,74.96251874,661e456ee6de07e70aa9ef7b,6628df8b9a0c38ba6dbe697b,,,,,,,,,,,,,,,,,,,,,,,,,,,,,,,,,,295.749,299.389,"[6,3,8,7,2,5,1,4]","[[-0.3,0.2],[0.3,0.2]]","[[-0.125,-0.2],[0.125,-0.2]]",-0.07962963,-0.218518519,1,0,0,3.134,o1_image,299.39,1,299.884,299.884,301.884,0,0,0,0,1,,,,,,,,,,,,,,,,,,,,,,,,,,,,,,,,,,,,,,,,,,,,,,,,,,
,,60f99ec4c0f33da48795b916,30,male,2024-04-24_20h32.05.775,stockport_simplified,2022.2.4,Win32,74.96251874,661e456ee6de07e70aa9ef7b,6628df8b9a0c38ba6dbe697b,,,,,,,,,,,,,,,,,,,,,,,,,,,,,,,,,,,,,,,,,,,,,,,,,,,,,,,,0,45,45,22,1,N,M,C,o1_image,stimuli/out1.png,stimuli/correct_out1.png,stimuli/out2.png,,,,,,,,,,,,,,,,,,,,,,,,,,,,,,,,,,,,,,
,,60f99ec4c0f33da48795b916,30,male,2024-04-24_20h32.05.775,stockport_simplified,2022.2.4,Win32,74.96251874,661e456ee6de07e70aa9ef7b,6628df8b9a0c38ba6dbe697b,,,,,,,,,,,,,,,,,,,,,,,,,,,,,,,,,,301.885,305.045,"[6,3,8,7,2,5,1,4]","[[-0.3,0.2],[0.3,0.2]]","[[0.125,-0.2],[-0.125,-0.2]]",-0.109259259,-0.231481481,1,0,0,2.653,o2_image,305.046,1,305.538,305.538,307.54,0,0,0,0,1,,,,,,,,,,,,,,,,,,,,,,,,,,,,,,,,,,,,,,,,,,,,,,,,,,
,,60f99ec4c0f33da48795b916,30,male,2024-04-24_20h32.05.775,stockport_simplified,2022.2.4,Win32,74.96251874,661e456ee6de07e70aa9ef7b,6628df8b9a0c38ba6dbe697b,,,,,,,,,,,,,,,,,,,,,,,,,,,,,,,,,,,,,,,,,,,,,,,,,,,,,,,,0,46,46,18,1,B,Y,N,o2_image,stimuli/out2.png,stimuli/out1.png,stimuli/correct_out2.png,,,,,,,,,,,,,,,,,,,,,,,,,,,,,,,,,,,,,,
,,60f99ec4c0f33da48795b916,30,male,2024-04-24_20h32.05.775,stockport_simplified,2022.2.4,Win32,74.96251874,661e456ee6de07e70aa9ef7b,6628df8b9a0c38ba6dbe697b,,,,,,,,,,,,,,,,,,,,,,,,,,,,,,,,,,307.54,310.38,"[6,3,8,7,2,5,1,4]","[[0.3,0.2],[-0.3,0.2]]","[[-0.125,-0.2],[0.125,-0.2]]",0.121296296,-0.225925926,1,0,0,2.334,o2_image,310.382,0,310.875,310.875,312.874,0,0,0,0,1,,,,,,,,,,,,,,,,,,,,,,,,,,,,,,,,,,,,,,,,,,,,,,,,,,
,,60f99ec4c0f33da48795b916,30,male,2024-04-24_20h32.05.775,stockport_simplified,2022.2.4,Win32,74.96251874,661e456ee6de07e70aa9ef7b,6628df8b9a0c38ba6dbe697b,,,,,,,,,,,,,,,,,,,,,,,,,,,,,,,,,,,,,,,,,,,,,,,,,,,,,,,,0,47,47,30,1,A,X,N,o1_image,stimuli/out1.png,stimuli/correct_out1.png,stimuli/out2.png,,,,,,,,,,,,,,,,,,,,,,,,,,,,,,,,,,,,,,
,,60f99ec4c0f33da48795b916,30,male,2024-04-24_20h32.05.775,stockport_simplified,2022.2.4,Win32,74.96251874,661e456ee6de07e70aa9ef7b,6628df8b9a0c38ba6dbe697b,,,,,,,,,,,,,,,,,,,,,,,,,,,,,,,,,,312.875,314.876,"[6,3,8,7,2,5,1,4]","[[-0.3,0.2],[0.3,0.2]]","[[-0.125,-0.2],[0.125,-0.2]]",0.065740741,-0.239814815,1,0,0,1.494,o2_image,314.876,1,315.368,315.369,317.369,0,0,0,0,1,,,,,,,,,,,,,,,,,,,,,,,,,,,,,,,,,,,,,,,,,,,,,,,,,,
,,60f99ec4c0f33da48795b916,30,male,2024-04-24_20h32.05.775,stockport_simplified,2022.2.4,Win32,74.96251874,661e456ee6de07e70aa9ef7b,6628df8b9a0c38ba6dbe697b,,,,,,,,,,,,,,,,,,,,,,,,,,,,,,,,,,,,,,,,,,,,,,,,,,,,,,,,0,48,48,16,1,B,Y,N,o2_image,stimuli/out2.png,stimuli/out1.png,stimuli/correct_out2.png,,,,,,,,,,,,,,,,,,,,,,,,,,,,,,,,,,,,,,
,,60f99ec4c0f33da48795b916,30,male,2024-04-24_20h32.05.775,stockport_simplified,2022.2.4,Win32,74.96251874,661e456ee6de07e70aa9ef7b,6628df8b9a0c38ba6dbe697b,,,,,,,,,,,,,,,,,,,,,,,,,,,,,,,,,,317.37,319.958,"[6,3,8,7,2,5,1,4]","[[-0.3,0.2],[0.3,0.2]]","[[0.125,-0.2],[-0.125,-0.2]]",-0.069444444,-0.256481481,1,0,0,2.08,o2_image,319.958,0,320.451,320.451,322.452,0,0,0,0,1,,,,,,,,,,,,,,,,,,,,,,,,,,,,,,,,,,,,,,,,,,,,,,,,,,
,,60f99ec4c0f33da48795b916,30,male,2024-04-24_20h32.05.775,stockport_simplified,2022.2.4,Win32,74.96251874,661e456ee6de07e70aa9ef7b,6628df8b9a0c38ba6dbe697b,,,,,,,,,,,,,,,,,,,,,,,,,,,,,,,,,,,,,,,,,,,,,,,,,,,,,,,,0,49,49,35,1,A,Y,N,o1_image,stimuli/out1.png,stimuli/correct_out1.png,stimuli/out2.png,,,,,,,,,,,,,,,,,,,,,,,,,,,,,,,,,,,,,,
,,60f99ec4c0f33da48795b916,30,male,2024-04-24_20h32.05.775,stockport_simplified,2022.2.4,Win32,74.96251874,661e456ee6de07e70aa9ef7b,6628df8b9a0c38ba6dbe697b,,,,,,,,,,,,,,,,,,,,,,,,,,,,,,,,,,322.452,324.626,"[6,3,8,7,2,5,1,4]","[[-0.3,0.2],[0.3,0.2]]","[[-0.125,-0.2],[0.125,-0.2]]",0.07037037,-0.249074074,1,0,0,1.668,o2_image,324.627,0,325.119,325.12,327.12,0,0,0,0,1,,,,,,,,,,,,,,,,,,,,,,,,,,,,,,,,,,,,,,,,,,,,,,,,,,
,,60f99ec4c0f33da48795b916,30,male,2024-04-24_20h32.05.775,stockport_simplified,2022.2.4,Win32,74.96251874,661e456ee6de07e70aa9ef7b,6628df8b9a0c38ba6dbe697b,,,,,,,,,,,,,,,,,,,,,,,,,,,,,,,,,,,,,,,,,,,,,,,,,,,,,,,,0,50,50,2,1,A,X,N,o1_image,stimuli/out1.png,stimuli/correct_out1.png,stimuli/out2.png,,,,,,,,,,,,,,,,,,,,,,,,,,,,,,,,,,,,,,
,,60f99ec4c0f33da48795b916,30,male,2024-04-24_20h32.05.775,stockport_simplified,2022.2.4,Win32,74.96251874,661e456ee6de07e70aa9ef7b,6628df8b9a0c38ba6dbe697b,,,,,,,,,,,,,,,,,,,,,,,,,,,,,,,,,,327.121,328.934,"[6,3,8,7,2,5,1,4]","[[0.3,0.2],[-0.3,0.2]]","[[-0.125,-0.2],[0.125,-0.2]]",0.107407407,-0.237037037,1,0,0,1.307,o2_image,328.935,0,329.427,329.427,331.428,0,0,0,0,1,,,,,,,,,,,,,,,,,,,,,,,,,,,,,,,,,,,,,,,,,,,,,,,,,,
,,60f99ec4c0f33da48795b916,30,male,2024-04-24_20h32.05.775,stockport_simplified,2022.2.4,Win32,74.96251874,661e456ee6de07e70aa9ef7b,6628df8b9a0c38ba6dbe697b,,,,,,,,,,,,,,,,,,,,,,,,,,,,,,,,,,,,,,,,,,,,,,,,,,,,,,,,0,51,51,3,1,A,X,N,o1_image,stimuli/out1.png,stimuli/correct_out1.png,stimuli/out2.png,,,,,,,,,,,,,,,,,,,,,,,,,,,,,,,,,,,,,,
,,60f99ec4c0f33da48795b916,30,male,2024-04-24_20h32.05.775,stockport_simplified,2022.2.4,Win32,74.96251874,661e456ee6de07e70aa9ef7b,6628df8b9a0c38ba6dbe697b,,,,,,,,,,,,,,,,,,,,,,,,,,,,,,,,,,331.429,333.855,"[6,3,8,7,2,5,1,4]","[[-0.3,0.2],[0.3,0.2]]","[[0.125,-0.2],[-0.125,-0.2]]",-0.072222222,-0.261111111,1,0,0,1.92,o2_image,333.857,0,334.349,334.35,336.35,0,0,0,0,1,,,,,,,,,,,,,,,,,,,,,,,,,,,,,,,,,,,,,,,,,,,,,,,,,,
,,60f99ec4c0f33da48795b916,30,male,2024-04-24_20h32.05.775,stockport_simplified,2022.2.4,Win32,74.96251874,661e456ee6de07e70aa9ef7b,6628df8b9a0c38ba6dbe697b,,,,,,,,,,,,,,,,,,,,,,,,,,,,,,,,,,,,,,,,,,,,,,,,,,,,,,,,0,52,52,38,1,A,Y,N,o1_image,stimuli/out1.png,stimuli/correct_out1.png,stimuli/out2.png,,,,,,,,,,,,,,,,,,,,,,,,,,,,,,,,,,,,,,
,,60f99ec4c0f33da48795b916,30,male,2024-04-24_20h32.05.775,stockport_simplified,2022.2.4,Win32,74.96251874,661e456ee6de07e70aa9ef7b,6628df8b9a0c38ba6dbe697b,,,,,,,,,,,,,,,,,,,,,,,,,,,,,,,,,,336.35,339.578,"[6,3,8,7,2,5,1,4]","[[0.3,0.2],[-0.3,0.2]]","[[-0.125,-0.2],[0.125,-0.2]]",-0.069444444,-0.261111111,1,0,0,2.721,o1_image,339.579,1,340.071,340.071,342.072,0,0,0,0,1,,,,,,,,,,,,,,,,,,,,,,,,,,,,,,,,,,,,,,,,,,,,,,,,,,
,,60f99ec4c0f33da48795b916,30,male,2024-04-24_20h32.05.775,stockport_simplified,2022.2.4,Win32,74.96251874,661e456ee6de07e70aa9ef7b,6628df8b9a0c38ba6dbe697b,,,,,,,,,,,,,,,,,,,,,,,,,,,,,,,,,,,,,,,,,,,,,,,,,,,,,,,,0,53,53,32,1,A,X,N,o1_image,stimuli/out1.png,stimuli/correct_out1.png,stimuli/out2.png,,,,,,,,,,,,,,,,,,,,,,,,,,,,,,,,,,,,,,
,,60f99ec4c0f33da48795b916,30,male,2024-04-24_20h32.05.775,stockport_simplified,2022.2.4,Win32,74.96251874,661e456ee6de07e70aa9ef7b,6628df8b9a0c38ba6dbe697b,,,,,,,,,,,,,,,,,,,,,,,,,,,,,,,,,,342.072,343.873,"[6,3,8,7,2,5,1,4]","[[0.3,0.2],[-0.3,0.2]]","[[-0.125,-0.2],[0.125,-0.2]]",0.051851852,-0.250925926,1,0,0,1.293,o2_image,343.874,1,344.366,344.366,346.367,0,0,0,0,1,,,,,,,,,,,,,,,,,,,,,,,,,,,,,,,,,,,,,,,,,,,,,,,,,,
,,60f99ec4c0f33da48795b916,30,male,2024-04-24_20h32.05.775,stockport_simplified,2022.2.4,Win32,74.96251874,661e456ee6de07e70aa9ef7b,6628df8b9a0c38ba6dbe697b,,,,,,,,,,,,,,,,,,,,,,,,,,,,,,,,,,,,,,,,,,,,,,,,,,,,,,,,0,54,54,45,1,B,Y,N,o2_image,stimuli/out2.png,stimuli/out1.png,stimuli/correct_out2.png,,,,,,,,,,,,,,,,,,,,,,,,,,,,,,,,,,,,,,
,,60f99ec4c0f33da48795b916,30,male,2024-04-24_20h32.05.775,stockport_simplified,2022.2.4,Win32,74.96251874,661e456ee6de07e70aa9ef7b,6628df8b9a0c38ba6dbe697b,,,,,,,,,,,,,,,,,,,,,,,,,,,,,,,,,,346.367,348.288,"[6,3,8,7,2,5,1,4]","[[-0.3,0.2],[0.3,0.2]]","[[-0.125,-0.2],[0.125,-0.2]]",0.10462963,-0.234259259,1,0,0,1.414,o2_image,348.289,0,348.781,348.781,350.782,0,0,0,0,1,,,,,,,,,,,,,,,,,,,,,,,,,,,,,,,,,,,,,,,,,,,,,,,,,,
,,60f99ec4c0f33da48795b916,30,male,2024-04-24_20h32.05.775,stockport_simplified,2022.2.4,Win32,74.96251874,661e456ee6de07e70aa9ef7b,6628df8b9a0c38ba6dbe697b,,,,,,,,,,,,,,,,,,,,,,,,,,,,,,,,,,,,,,,,,,,,,,,,,,,,,,,,0,55,55,36,1,A,Y,N,o1_image,stimuli/out1.png,stimuli/correct_out1.png,stimuli/out2.png,,,,,,,,,,,,,,,,,,,,,,,,,,,,,,,,,,,,,,
,,60f99ec4c0f33da48795b916,30,male,2024-04-24_20h32.05.775,stockport_simplified,2022.2.4,Win32,74.96251874,661e456ee6de07e70aa9ef7b,6628df8b9a0c38ba6dbe697b,,,,,,,,,,,,,,,,,,,,,,,,,,,,,,,,,,350.783,353.463,"[6,3,8,7,2,5,1,4]","[[-0.3,0.2],[0.3,0.2]]","[[0.125,-0.2],[-0.125,-0.2]]",0.094444444,-0.239814815,1,0,0,2.174,o1_image,353.463,0,353.956,353.956,355.957,0,0,0,0,1,,,,,,,,,,,,,,,,,,,,,,,,,,,,,,,,,,,,,,,,,,,,,,,,,,
,,60f99ec4c0f33da48795b916,30,male,2024-04-24_20h32.05.775,stockport_simplified,2022.2.4,Win32,74.96251874,661e456ee6de07e70aa9ef7b,6628df8b9a0c38ba6dbe697b,,,,,,,,,,,,,,,,,,,,,,,,,,,,,,,,,,,,,,,,,,,,,,,,,,,,,,,,0,56,56,44,1,B,X,N,o2_image,stimuli/out2.png,stimuli/out1.png,stimuli/correct_out2.png,,,,,,,,,,,,,,,,,,,,,,,,,,,,,,,,,,,,,,
,,60f99ec4c0f33da48795b916,30,male,2024-04-24_20h32.05.775,stockport_simplified,2022.2.4,Win32,74.96251874,661e456ee6de07e70aa9ef7b,6628df8b9a0c38ba6dbe697b,,,,,,,,,,,,,,,,,,,,,,,,,,,,,,,,,,355.957,358.025,"[6,3,8,7,2,5,1,4]","[[-0.3,0.2],[0.3,0.2]]","[[0.125,-0.2],[-0.125,-0.2]]",0.097222222,-0.244444444,1,0,0,1.561,o1_image,358.027,1,358.518,358.518,360.519,0,0,0,0,1,,,,,,,,,,,,,,,,,,,,,,,,,,,,,,,,,,,,,,,,,,,,,,,,,,
,,60f99ec4c0f33da48795b916,30,male,2024-04-24_20h32.05.775,stockport_simplified,2022.2.4,Win32,74.96251874,661e456ee6de07e70aa9ef7b,6628df8b9a0c38ba6dbe697b,,,,,,,,,,,,,,,,,,,,,,,,,,,,,,,,,,,,,,,,,,,,,,,,,,,,,,,,0,57,57,20,1,N,M,C,o1_image,stimuli/out1.png,stimuli/correct_out1.png,stimuli/out2.png,,,,,,,,,,,,,,,,,,,,,,,,,,,,,,,,,,,,,,
,,60f99ec4c0f33da48795b916,30,male,2024-04-24_20h32.05.775,stockport_simplified,2022.2.4,Win32,74.96251874,661e456ee6de07e70aa9ef7b,6628df8b9a0c38ba6dbe697b,,,,,,,,,,,,,,,,,,,,,,,,,,,,,,,,,,360.52,363.173,"[6,3,8,7,2,5,1,4]","[[0.3,0.2],[-0.3,0.2]]","[[-0.125,-0.2],[0.125,-0.2]]",0.077777778,-0.246296296,1,0,0,2.147,o2_image,363.174,1,363.666,363.666,365.667,0,0,0,0,1,,,,,,,,,,,,,,,,,,,,,,,,,,,,,,,,,,,,,,,,,,,,,,,,,,
,,60f99ec4c0f33da48795b916,30,male,2024-04-24_20h32.05.775,stockport_simplified,2022.2.4,Win32,74.96251874,661e456ee6de07e70aa9ef7b,6628df8b9a0c38ba6dbe697b,,,,,,,,,,,,,,,,,,,,,,,,,,,,,,,,,,,,,,,,,,,,,,,,,,,,,,,,0,58,58,25,1,N,M,D,o2_image,stimuli/out2.png,stimuli/out1.png,stimuli/correct_out2.png,,,,,,,,,,,,,,,,,,,,,,,,,,,,,,,,,,,,,,
,,60f99ec4c0f33da48795b916,30,male,2024-04-24_20h32.05.775,stockport_simplified,2022.2.4,Win32,74.96251874,661e456ee6de07e70aa9ef7b,6628df8b9a0c38ba6dbe697b,,,,,,,,,,,,,,,,,,,,,,,,,,,,,,,,,,365.667,367.375,"[6,3,8,7,2,5,1,4]","[[0.3,0.2],[-0.3,0.2]]","[[-0.125,-0.2],[0.125,-0.2]]",0.069444444,-0.247222222,1,0,0,1.2,o2_image,367.375,1,367.868,367.868,369.868,0,0,0,0,1,,,,,,,,,,,,,,,,,,,,,,,,,,,,,,,,,,,,,,,,,,,,,,,,,,
,,60f99ec4c0f33da48795b916,30,male,2024-04-24_20h32.05.775,stockport_simplified,2022.2.4,Win32,74.96251874,661e456ee6de07e70aa9ef7b,6628df8b9a0c38ba6dbe697b,,,,,,,,,,,,,,,,,,,,,,,,,,,,,,,,,,,,,,,,,,,,,,,,,,,,,,,,0,59,59,47,1,B,Y,N,o2_image,stimuli/out2.png,stimuli/out1.png,stimuli/correct_out2.png,,,,,,,,,,,,,,,,,,,,,,,,,,,,,,,,,,,,,,
,,60f99ec4c0f33da48795b916,30,male,2024-04-24_20h32.05.775,stockport_simplified,2022.2.4,Win32,74.96251874,661e456ee6de07e70aa9ef7b,6628df8b9a0c38ba6dbe697b,,,,,,,,,,,,,,,,,,,,,,,,,,,,,,,,,,369.869,372.403,"[6,3,8,7,2,5,1,4]","[[-0.3,0.2],[0.3,0.2]]","[[0.125,-0.2],[-0.125,-0.2]]",0.112962963,-0.237037037,1,0,0,2.027,o1_image,372.404,1,372.896,372.897,374.897,0,0,0,0,1,,,,,,,,,,,,,,,,,,,,,,,,,,,,,,,,,,,,,,,,,,,,,,,,,,
,,60f99ec4c0f33da48795b916,30,male,2024-04-24_20h32.05.775,stockport_simplified,2022.2.4,Win32,74.96251874,661e456ee6de07e70aa9ef7b,6628df8b9a0c38ba6dbe697b,,,,,,,,,,,,,,,,,,,,,,,,,,,,,,,,,,,,,,,,,,,,,,,,,,,,,,,,1,0,60,30,1,A,X,N,o1_image,stimuli/out1.png,stimuli/correct_out1.png,stimuli/out2.png,,,,,,,,,,,,,,,,,,,,,,,,,,,,,,,,,,,,,,
,,60f99ec4c0f33da48795b916,30,male,2024-04-24_20h32.05.775,stockport_simplified,2022.2.4,Win32,74.96251874,661e456ee6de07e70aa9ef7b,6628df8b9a0c38ba6dbe697b,,,,,,,,,,,,,,,,,,,,,,,,,,,,,,,,,,374.897,376.645,"[6,3,8,7,2,5,1,4]","[[0.3,0.2],[-0.3,0.2]]","[[0.125,-0.2],[-0.125,-0.2]]",-0.052777778,-0.251851852,1,0,0,1.241,o2_image,376.646,1,377.138,377.138,379.138,0,0,0,0,1,,,,,,,,,,,,,,,,,,,,,,,,,,,,,,,,,,,,,,,,,,,,,,,,,,
,,60f99ec4c0f33da48795b916,30,male,2024-04-24_20h32.05.775,stockport_simplified,2022.2.4,Win32,74.96251874,661e456ee6de07e70aa9ef7b,6628df8b9a0c38ba6dbe697b,,,,,,,,,,,,,,,,,,,,,,,,,,,,,,,,,,,,,,,,,,,,,,,,,,,,,,,,1,1,61,56,1,N,M,D,o2_image,stimuli/out2.png,stimuli/out1.png,stimuli/correct_out2.png,,,,,,,,,,,,,,,,,,,,,,,,,,,,,,,,,,,,,,
,,60f99ec4c0f33da48795b916,30,male,2024-04-24_20h32.05.775,stockport_simplified,2022.2.4,Win32,74.96251874,661e456ee6de07e70aa9ef7b,6628df8b9a0c38ba6dbe697b,,,,,,,,,,,,,,,,,,,,,,,,,,,,,,,,,,379.139,382.527,"[6,3,8,7,2,5,1,4]","[[-0.3,0.2],[0.3,0.2]]","[[-0.125,-0.2],[0.125,-0.2]]",0.114814815,-0.234259259,1,0,0,2.881,o2_image,382.527,1,383.02,383.02,385.021,0,0,0,0,1,,,,,,,,,,,,,,,,,,,,,,,,,,,,,,,,,,,,,,,,,,,,,,,,,,
,,60f99ec4c0f33da48795b916,30,male,2024-04-24_20h32.05.775,stockport_simplified,2022.2.4,Win32,74.96251874,661e456ee6de07e70aa9ef7b,6628df8b9a0c38ba6dbe697b,,,,,,,,,,,,,,,,,,,,,,,,,,,,,,,,,,,,,,,,,,,,,,,,,,,,,,,,1,2,62,12,1,B,X,N,o2_image,stimuli/out2.png,stimuli/out1.png,stimuli/correct_out2.png,,,,,,,,,,,,,,,,,,,,,,,,,,,,,,,,,,,,,,
,,60f99ec4c0f33da48795b916,30,male,2024-04-24_20h32.05.775,stockport_simplified,2022.2.4,Win32,74.96251874,661e456ee6de07e70aa9ef7b,6628df8b9a0c38ba6dbe697b,,,,,,,,,,,,,,,,,,,,,,,,,,,,,,,,,,385.021,386.821,"[6,3,8,7,2,5,1,4]","[[0.3,0.2],[-0.3,0.2]]","[[0.125,-0.2],[-0.125,-0.2]]",-0.05462963,-0.253703704,1,0,0,1.292,o2_image,386.822,0,387.315,387.315,389.316,0,0,0,0,1,,,,,,,,,,,,,,,,,,,,,,,,,,,,,,,,,,,,,,,,,,,,,,,,,,
,,60f99ec4c0f33da48795b916,30,male,2024-04-24_20h32.05.775,stockport_simplified,2022.2.4,Win32,74.96251874,661e456ee6de07e70aa9ef7b,6628df8b9a0c38ba6dbe697b,,,,,,,,,,,,,,,,,,,,,,,,,,,,,,,,,,,,,,,,,,,,,,,,,,,,,,,,1,3,63,5,1,A,Y,N,o1_image,stimuli/out1.png,stimuli/correct_out1.png,stimuli/out2.png,,,,,,,,,,,,,,,,,,,,,,,,,,,,,,,,,,,,,,
,,60f99ec4c0f33da48795b916,30,male,2024-04-24_20h32.05.775,stockport_simplified,2022.2.4,Win32,74.96251874,661e456ee6de07e70aa9ef7b,6628df8b9a0c38ba6dbe697b,,,,,,,,,,,,,,,,,,,,,,,,,,,,,,,,,,389.316,391.156,"[6,3,8,7,2,5,1,4]","[[-0.3,0.2],[0.3,0.2]]","[[-0.125,-0.2],[0.125,-0.2]]",0.114814815,-0.243518519,1,0,0,1.333,o2_image,391.157,1,391.65,391.65,393.65,0,0,0,0,1,,,,,,,,,,,,,,,,,,,,,,,,,,,,,,,,,,,,,,,,,,,,,,,,,,
,,60f99ec4c0f33da48795b916,30,male,2024-04-24_20h32.05.775,stockport_simplified,2022.2.4,Win32,74.96251874,661e456ee6de07e70aa9ef7b,6628df8b9a0c38ba6dbe697b,,,,,,,,,,,,,,,,,,,,,,,,,,,,,,,,,,,,,,,,,,,,,,,,,,,,,,,,1,4,64,29,1,N,M,D,o2_image,stimuli/out2.png,stimuli/out1.png,stimuli/correct_out2.png,,,,,,,,,,,,,,,,,,,,,,,,,,,,,,,,,,,,,,
,,60f99ec4c0f33da48795b916,30,male,2024-04-24_20h32.05.775,stockport_simplified,2022.2.4,Win32,74.96251874,661e456ee6de07e70aa9ef7b,6628df8b9a0c38ba6dbe697b,,,,,,,,,,,,,,,,,,,,,,,,,,,,,,,,,,393.652,396.878,"[6,3,8,7,2,5,1,4]","[[0.3,0.2],[-0.3,0.2]]","[[0.125,-0.2],[-0.125,-0.2]]",0.128703704,-0.243518519,1,0,0,2.72,o1_image,396.88,1,397.372,397.372,399.373,0,0,0,0,1,,,,,,,,,,,,,,,,,,,,,,,,,,,,,,,,,,,,,,,,,,,,,,,,,,
,,60f99ec4c0f33da48795b916,30,male,2024-04-24_20h32.05.775,stockport_simplified,2022.2.4,Win32,74.96251874,661e456ee6de07e70aa9ef7b,6628df8b9a0c38ba6dbe697b,,,,,,,,,,,,,,,,,,,,,,,,,,,,,,,,,,,,,,,,,,,,,,,,,,,,,,,,1,5,65,0,1,A,X,N,o1_image,stimuli/out1.png,stimuli/correct_out1.png,stimuli/out2.png,,,,,,,,,,,,,,,,,,,,,,,,,,,,,,,,,,,,,,
,,60f99ec4c0f33da48795b916,30,male,2024-04-24_20h32.05.775,stockport_simplified,2022.2.4,Win32,74.96251874,661e456ee6de07e70aa9ef7b,6628df8b9a0c38ba6dbe697b,,,,,,,,,,,,,,,,,,,,,,,,,,,,,,,,,,399.373,402.148,"[6,3,8,7,2,5,1,4]","[[-0.3,0.2],[0.3,0.2]]","[[-0.125,-0.2],[0.125,-0.2]]",0.081481481,-0.250925926,1,0,0,2.268,o2_image,402.148,1,402.641,402.641,404.641,0,0,0,0,1,,,,,,,,,,,,,,,,,,,,,,,,,,,,,,,,,,,,,,,,,,,,,,,,,,
,,60f99ec4c0f33da48795b916,30,male,2024-04-24_20h32.05.775,stockport_simplified,2022.2.4,Win32,74.96251874,661e456ee6de07e70aa9ef7b,6628df8b9a0c38ba6dbe697b,,,,,,,,,,,,,,,,,,,,,,,,,,,,,,,,,,,,,,,,,,,,,,,,,,,,,,,,1,6,66,49,1,B,Y,N,o2_image,stimuli/out2.png,stimuli/out1.png,stimuli/correct_out2.png,,,,,,,,,,,,,,,,,,,,,,,,,,,,,,,,,,,,,,
,,60f99ec4c0f33da48795b916,30,male,2024-04-24_20h32.05.775,stockport_simplified,2022.2.4,Win32,74.96251874,661e456ee6de07e70aa9ef7b,6628df8b9a0c38ba6dbe697b,,,,,,,,,,,,,,,,,,,,,,,,,,,,,,,,,,404.642,406.669,"[6,3,8,7,2,5,1,4]","[[-0.3,0.2],[0.3,0.2]]","[[-0.125,-0.2],[0.125,-0.2]]",0.082407407,-0.250925926,1,0,0,1.521,o2_image,406.67,1,407.162,407.162,409.163,0,0,0,0,1,,,,,,,,,,,,,,,,,,,,,,,,,,,,,,,,,,,,,,,,,,,,,,,,,,
,,60f99ec4c0f33da48795b916,30,male,2024-04-24_20h32.05.775,stockport_simplified,2022.2.4,Win32,74.96251874,661e456ee6de07e70aa9ef7b,6628df8b9a0c38ba6dbe697b,,,,,,,,,,,,,,,,,,,,,,,,,,,,,,,,,,,,,,,,,,,,,,,,,,,,,,,,1,7,67,18,1,B,Y,N,o2_image,stimuli/out2.png,stimuli/out1.png,stimuli/correct_out2.png,,,,,,,,,,,,,,,,,,,,,,,,,,,,,,,,,,,,,,
,,60f99ec4c0f33da48795b916,30,male,2024-04-24_20h32.05.775,stockport_simplified,2022.2.4,Win32,74.96251874,661e456ee6de07e70aa9ef7b,6628df8b9a0c38ba6dbe697b,,,,,,,,,,,,,,,,,,,,,,,,,,,,,,,,,,409.163,411.537,"[6,3,8,7,2,5,1,4]","[[-0.3,0.2],[0.3,0.2]]","[[-0.125,-0.2],[0.125,-0.2]]",0.076851852,-0.250925926,1,0,0,1.867,o2_image,411.538,0,412.03,412.03,414.031,0,0,0,0,1,,,,,,,,,,,,,,,,,,,,,,,,,,,,,,,,,,,,,,,,,,,,,,,,,,
,,60f99ec4c0f33da48795b916,30,male,2024-04-24_20h32.05.775,stockport_simplified,2022.2.4,Win32,74.96251874,661e456ee6de07e70aa9ef7b,6628df8b9a0c38ba6dbe697b,,,,,,,,,,,,,,,,,,,,,,,,,,,,,,,,,,,,,,,,,,,,,,,,,,,,,,,,1,8,68,3,1,A,X,N,o1_image,stimuli/out1.png,stimuli/correct_out1.png,stimuli/out2.png,,,,,,,,,,,,,,,,,,,,,,,,,,,,,,,,,,,,,,
,,60f99ec4c0f33da48795b916,30,male,2024-04-24_20h32.05.775,stockport_simplified,2022.2.4,Win32,74.96251874,661e456ee6de07e70aa9ef7b,6628df8b9a0c38ba6dbe697b,,,,,,,,,,,,,,,,,,,,,,,,,,,,,,,,,,414.032,416.952,"[6,3,8,7,2,5,1,4]","[[-0.3,0.2],[0.3,0.2]]","[[0.125,-0.2],[-0.125,-0.2]]",0.100925926,-0.244444444,1,0,0,2.413,o1_image,416.953,0,417.446,417.446,419.447,0,0,0,0,1,,,,,,,,,,,,,,,,,,,,,,,,,,,,,,,,,,,,,,,,,,,,,,,,,,
,,60f99ec4c0f33da48795b916,30,male,2024-04-24_20h32.05.775,stockport_simplified,2022.2.4,Win32,74.96251874,661e456ee6de07e70aa9ef7b,6628df8b9a0c38ba6dbe697b,,,,,,,,,,,,,,,,,,,,,,,,,,,,,,,,,,,,,,,,,,,,,,,,,,,,,,,,1,9,69,14,1,B,X,N,o2_image,stimuli/out2.png,stimuli/out1.png,stimuli/correct_out2.png,,,,,,,,,,,,,,,,,,,,,,,,,,,,,,,,,,,,,,
,,60f99ec4c0f33da48795b916,30,male,2024-04-24_20h32.05.775,stockport_simplified,2022.2.4,Win32,74.96251874,661e456ee6de07e70aa9ef7b,6628df8b9a0c38ba6dbe697b,,,,,,,,,,,,,,,,,,,,,,,,,,,,,,,,,,419.447,421.568,"[6,3,8,7,2,5,1,4]","[[-0.3,0.2],[0.3,0.2]]","[[0.125,-0.2],[-0.125,-0.2]]",0.102777778,-0.222222222,1,0,0,1.614,o1_image,421.568,1,422.061,422.061,424.062,0,0,0,0,1,,,,,,,,,,,,,,,,,,,,,,,,,,,,,,,,,,,,,,,,,,,,,,,,,,
,,60f99ec4c0f33da48795b916,30,male,2024-04-24_20h32.05.775,stockport_simplified,2022.2.4,Win32,74.96251874,661e456ee6de07e70aa9ef7b,6628df8b9a0c38ba6dbe697b,,,,,,,,,,,,,,,,,,,,,,,,,,,,,,,,,,,,,,,,,,,,,,,,,,,,,,,,1,10,70,53,1,N,M,C,o1_image,stimuli/out1.png,stimuli/correct_out1.png,stimuli/out2.png,,,,,,,,,,,,,,,,,,,,,,,,,,,,,,,,,,,,,,
,,60f99ec4c0f33da48795b916,30,male,2024-04-24_20h32.05.775,stockport_simplified,2022.2.4,Win32,74.96251874,661e456ee6de07e70aa9ef7b,6628df8b9a0c38ba6dbe697b,,,,,,,,,,,,,,,,,,,,,,,,,,,,,,,,,,424.062,426.53,"[6,3,8,7,2,5,1,4]","[[0.3,0.2],[-0.3,0.2]]","[[0.125,-0.2],[-0.125,-0.2]]",-0.083333333,-0.230555556,1,0,0,1.96,o2_image,426.532,0,427.023,427.023,429.023,0,0,0,0,1,,,,,,,,,,,,,,,,,,,,,,,,,,,,,,,,,,,,,,,,,,,,,,,,,,
,,60f99ec4c0f33da48795b916,30,male,2024-04-24_20h32.05.775,stockport_simplified,2022.2.4,Win32,74.96251874,661e456ee6de07e70aa9ef7b,6628df8b9a0c38ba6dbe697b,,,,,,,,,,,,,,,,,,,,,,,,,,,,,,,,,,,,,,,,,,,,,,,,,,,,,,,,1,11,71,32,1,A,X,N,o1_image,stimuli/out1.png,stimuli/correct_out1.png,stimuli/out2.png,,,,,,,,,,,,,,,,,,,,,,,,,,,,,,,,,,,,,,
,,60f99ec4c0f33da48795b916,30,male,2024-04-24_20h32.05.775,stockport_simplified,2022.2.4,Win32,74.96251874,661e456ee6de07e70aa9ef7b,6628df8b9a0c38ba6dbe697b,,,,,,,,,,,,,,,,,,,,,,,,,,,,,,,,,,429.024,431.131,"[6,3,8,7,2,5,1,4]","[[-0.3,0.2],[0.3,0.2]]","[[-0.125,-0.2],[0.125,-0.2]]",-0.076851852,-0.232407407,1,0,0,1.6,o1_image,431.132,0,431.624,431.624,433.625,0,0,0,0,1,,,,,,,,,,,,,,,,,,,,,,,,,,,,,,,,,,,,,,,,,,,,,,,,,,
,,60f99ec4c0f33da48795b916,30,male,2024-04-24_20h32.05.775,stockport_simplified,2022.2.4,Win32,74.96251874,661e456ee6de07e70aa9ef7b,6628df8b9a0c38ba6dbe697b,,,,,,,,,,,,,,,,,,,,,,,,,,,,,,,,,,,,,,,,,,,,,,,,,,,,,,,,1,12,72,19,1,B,Y,N,o2_image,stimuli/out2.png,stimuli/out1.png,stimuli/correct_out2.png,,,,,,,,,,,,,,,,,,,,,,,,,,,,,,,,,,,,,,
,,60f99ec4c0f33da48795b916,30,male,2024-04-24_20h32.05.775,stockport_simplified,2022.2.4,Win32,74.96251874,661e456ee6de07e70aa9ef7b,6628df8b9a0c38ba6dbe697b,,,,,,,,,,,,,,,,,,,,,,,,,,,,,,,,,,433.626,435.426,"[6,3,8,7,2,5,1,4]","[[0.3,0.2],[-0.3,0.2]]","[[-0.125,-0.2],[0.125,-0.2]]",-0.076851852,-0.232407407,1,0,0,1.293,o1_image,435.427,0,435.92,435.92,437.921,0,0,0,0,1,,,,,,,,,,,,,,,,,,,,,,,,,,,,,,,,,,,,,,,,,,,,,,,,,,
,,60f99ec4c0f33da48795b916,30,male,2024-04-24_20h32.05.775,stockport_simplified,2022.2.4,Win32,74.96251874,661e456ee6de07e70aa9ef7b,6628df8b9a0c38ba6dbe697b,,,,,,,,,,,,,,,,,,,,,,,,,,,,,,,,,,,,,,,,,,,,,,,,,,,,,,,,1,13,73,41,1,B,X,N,o2_image,stimuli/out2.png,stimuli/out1.png,stimuli/correct_out2.png,,,,,,,,,,,,,,,,,,,,,,,,,,,,,,,,,,,,,,
,,60f99ec4c0f33da48795b916,30,male,2024-04-24_20h32.05.775,stockport_simplified,2022.2.4,Win32,74.96251874,661e456ee6de07e70aa9ef7b,6628df8b9a0c38ba6dbe697b,,,,,,,,,,,,,,,,,,,,,,,,,,,,,,,,,,437.921,439.987,"[6,3,8,7,2,5,1,4]","[[0.3,0.2],[-0.3,0.2]]","[[0.125,-0.2],[-0.125,-0.2]]",-0.076851852,-0.232407407,1,0,0,1.559,o2_image,439.988,0,440.481,440.481,442.482,0,0,0,0,1,,,,,,,,,,,,,,,,,,,,,,,,,,,,,,,,,,,,,,,,,,,,,,,,,,
,,60f99ec4c0f33da48795b916,30,male,2024-04-24_20h32.05.775,stockport_simplified,2022.2.4,Win32,74.96251874,661e456ee6de07e70aa9ef7b,6628df8b9a0c38ba6dbe697b,,,,,,,,,,,,,,,,,,,,,,,,,,,,,,,,,,,,,,,,,,,,,,,,,,,,,,,,1,14,74,33,1,A,X,N,o1_image,stimuli/out1.png,stimuli/correct_out1.png,stimuli/out2.png,,,,,,,,,,,,,,,,,,,,,,,,,,,,,,,,,,,,,,
,,60f99ec4c0f33da48795b916,30,male,2024-04-24_20h32.05.775,stockport_simplified,2022.2.4,Win32,74.96251874,661e456ee6de07e70aa9ef7b,6628df8b9a0c38ba6dbe697b,,,,,,,,,,,,,,,,,,,,,,,,,,,,,,,,,,442.483,445.723,"[6,3,8,7,2,5,1,4]","[[0.3,0.2],[-0.3,0.2]]","[[-0.125,-0.2],[0.125,-0.2]]",0.125925926,-0.238888889,1,0,0,2.734,o2_image,445.724,0,446.216,446.216,448.218,0,0,0,0,1,,,,,,,,,,,,,,,,,,,,,,,,,,,,,,,,,,,,,,,,,,,,,,,,,,
,,60f99ec4c0f33da48795b916,30,male,2024-04-24_20h32.05.775,stockport_simplified,2022.2.4,Win32,74.96251874,661e456ee6de07e70aa9ef7b,6628df8b9a0c38ba6dbe697b,,,,,,,,,,,,,,,,,,,,,,,,,,,,,,,,,,,,,,,,,,,,,,,,,,,,,,,,1,15,75,9,1,A,Y,N,o1_image,stimuli/out1.png,stimuli/correct_out1.png,stimuli/out2.png,,,,,,,,,,,,,,,,,,,,,,,,,,,,,,,,,,,,,,
,,60f99ec4c0f33da48795b916,30,male,2024-04-24_20h32.05.775,stockport_simplified,2022.2.4,Win32,74.96251874,661e456ee6de07e70aa9ef7b,6628df8b9a0c38ba6dbe697b,,,,,,,,,,,,,,,,,,,,,,,,,,,,,,,,,,448.218,450.792,"[6,3,8,7,2,5,1,4]","[[-0.3,0.2],[0.3,0.2]]","[[-0.125,-0.2],[0.125,-0.2]]",0.1,-0.247222222,1,0,0,2.067,o2_image,450.792,1,451.285,451.285,453.286,0,0,0,0,1,,,,,,,,,,,,,,,,,,,,,,,,,,,,,,,,,,,,,,,,,,,,,,,,,,
,,60f99ec4c0f33da48795b916,30,male,2024-04-24_20h32.05.775,stockport_simplified,2022.2.4,Win32,74.96251874,661e456ee6de07e70aa9ef7b,6628df8b9a0c38ba6dbe697b,,,,,,,,,,,,,,,,,,,,,,,,,,,,,,,,,,,,,,,,,,,,,,,,,,,,,,,,1,16,76,26,1,N,M,D,o2_image,stimuli/out2.png,stimuli/out1.png,stimuli/correct_out2.png,,,,,,,,,,,,,,,,,,,,,,,,,,,,,,,,,,,,,,
,,60f99ec4c0f33da48795b916,30,male,2024-04-24_20h32.05.775,stockport_simplified,2022.2.4,Win32,74.96251874,661e456ee6de07e70aa9ef7b,6628df8b9a0c38ba6dbe697b,,,,,,,,,,,,,,,,,,,,,,,,,,,,,,,,,,453.286,454.607,"[6,3,8,7,2,5,1,4]","[[0.3,0.2],[-0.3,0.2]]","[[-0.125,-0.2],[0.125,-0.2]]",0.083333333,-0.248148148,1,0,0,0.813,o2_image,454.608,1,455.1,455.1,457.1,0,0,0,0,1,,,,,,,,,,,,,,,,,,,,,,,,,,,,,,,,,,,,,,,,,,,,,,,,,,
,,60f99ec4c0f33da48795b916,30,male,2024-04-24_20h32.05.775,stockport_simplified,2022.2.4,Win32,74.96251874,661e456ee6de07e70aa9ef7b,6628df8b9a0c38ba6dbe697b,,,,,,,,,,,,,,,,,,,,,,,,,,,,,,,,,,,,,,,,,,,,,,,,,,,,,,,,1,17,77,57,1,N,M,D,o2_image,stimuli/out2.png,stimuli/out1.png,stimuli/correct_out2.png,,,,,,,,,,,,,,,,,,,,,,,,,,,,,,,,,,,,,,
,,60f99ec4c0f33da48795b916,30,male,2024-04-24_20h32.05.775,stockport_simplified,2022.2.4,Win32,74.96251874,661e456ee6de07e70aa9ef7b,6628df8b9a0c38ba6dbe697b,,,,,,,,,,,,,,,,,,,,,,,,,,,,,,,,,,457.101,459.329,"[6,3,8,7,2,5,1,4]","[[0.3,0.2],[-0.3,0.2]]","[[0.125,-0.2],[-0.125,-0.2]]",-0.05462963,-0.25,1,0,0,1.72,o2_image,459.331,0,459.822,459.822,461.822,0,0,0,0,1,,,,,,,,,,,,,,,,,,,,,,,,,,,,,,,,,,,,,,,,,,,,,,,,,,
,,60f99ec4c0f33da48795b916,30,male,2024-04-24_20h32.05.775,stockport_simplified,2022.2.4,Win32,74.96251874,661e456ee6de07e70aa9ef7b,6628df8b9a0c38ba6dbe697b,,,,,,,,,,,,,,,,,,,,,,,,,,,,,,,,,,,,,,,,,,,,,,,,,,,,,,,,1,18,78,2,1,A,X,N,o1_image,stimuli/out1.png,stimuli/correct_out1.png,stimuli/out2.png,,,,,,,,,,,,,,,,,,,,,,,,,,,,,,,,,,,,,,
,,60f99ec4c0f33da48795b916,30,male,2024-04-24_20h32.05.775,stockport_simplified,2022.2.4,Win32,74.96251874,661e456ee6de07e70aa9ef7b,6628df8b9a0c38ba6dbe697b,,,,,,,,,,,,,,,,,,,,,,,,,,,,,,,,,,461.823,463.409,"[6,3,8,7,2,5,1,4]","[[0.3,0.2],[-0.3,0.2]]","[[0.125,-0.2],[-0.125,-0.2]]",-0.086111111,-0.260185185,1,0,0,1.079,o2_image,463.41,1,463.903,463.903,465.904,0,0,0,0,1,,,,,,,,,,,,,,,,,,,,,,,,,,,,,,,,,,,,,,,,,,,,,,,,,,
,,60f99ec4c0f33da48795b916,30,male,2024-04-24_20h32.05.775,stockport_simplified,2022.2.4,Win32,74.96251874,661e456ee6de07e70aa9ef7b,6628df8b9a0c38ba6dbe697b,,,,,,,,,,,,,,,,,,,,,,,,,,,,,,,,,,,,,,,,,,,,,,,,,,,,,,,,1,19,79,55,1,N,M,D,o2_image,stimuli/out2.png,stimuli/out1.png,stimuli/correct_out2.png,,,,,,,,,,,,,,,,,,,,,,,,,,,,,,,,,,,,,,
,,60f99ec4c0f33da48795b916,30,male,2024-04-24_20h32.05.775,stockport_simplified,2022.2.4,Win32,74.96251874,661e456ee6de07e70aa9ef7b,6628df8b9a0c38ba6dbe697b,,,,,,,,,,,,,,,,,,,,,,,,,,,,,,,,,,465.905,467.558,"[6,3,8,7,2,5,1,4]","[[-0.3,0.2],[0.3,0.2]]","[[0.125,-0.2],[-0.125,-0.2]]",-0.084259259,-0.258333333,1,0,0,1.148,o2_image,467.559,0,468.051,468.051,470.052,0,0,0,0,1,,,,,,,,,,,,,,,,,,,,,,,,,,,,,,,,,,,,,,,,,,,,,,,,,,
,,60f99ec4c0f33da48795b916,30,male,2024-04-24_20h32.05.775,stockport_simplified,2022.2.4,Win32,74.96251874,661e456ee6de07e70aa9ef7b,6628df8b9a0c38ba6dbe697b,,,,,,,,,,,,,,,,,,,,,,,,,,,,,,,,,,,,,,,,,,,,,,,,,,,,,,,,1,20,80,39,1,A,Y,N,o1_image,stimuli/out1.png,stimuli/correct_out1.png,stimuli/out2.png,,,,,,,,,,,,,,,,,,,,,,,,,,,,,,,,,,,,,,
,,60f99ec4c0f33da48795b916,30,male,2024-04-24_20h32.05.775,stockport_simplified,2022.2.4,Win32,74.96251874,661e456ee6de07e70aa9ef7b,6628df8b9a0c38ba6dbe697b,,,,,,,,,,,,,,,,,,,,,,,,,,,,,,,,,,470.052,472.093,"[6,3,8,7,2,5,1,4]","[[-0.3,0.2],[0.3,0.2]]","[[0.125,-0.2],[-0.125,-0.2]]",-0.084259259,-0.258333333,1,0,0,1.534,o2_image,472.094,1,472.586,472.586,474.587,0,0,0,0,1,,,,,,,,,,,,,,,,,,,,,,,,,,,,,,,,,,,,,,,,,,,,,,,,,,
,,60f99ec4c0f33da48795b916,30,male,2024-04-24_20h32.05.775,stockport_simplified,2022.2.4,Win32,74.96251874,661e456ee6de07e70aa9ef7b,6628df8b9a0c38ba6dbe697b,,,,,,,,,,,,,,,,,,,,,,,,,,,,,,,,,,,,,,,,,,,,,,,,,,,,,,,,1,21,81,15,1,B,Y,N,o2_image,stimuli/out2.png,stimuli/out1.png,stimuli/correct_out2.png,,,,,,,,,,,,,,,,,,,,,,,,,,,,,,,,,,,,,,
,,60f99ec4c0f33da48795b916,30,male,2024-04-24_20h32.05.775,stockport_simplified,2022.2.4,Win32,74.96251874,661e456ee6de07e70aa9ef7b,6628df8b9a0c38ba6dbe697b,,,,,,,,,,,,,,,,,,,,,,,,,,,,,,,,,,474.587,476.387,"[6,3,8,7,2,5,1,4]","[[0.3,0.2],[-0.3,0.2]]","[[0.125,-0.2],[-0.125,-0.2]]",0.093518519,-0.251851852,1,0,0,1.293,o1_image,476.388,1,476.881,476.881,478.881,0,0,0,0,1,,,,,,,,,,,,,,,,,,,,,,,,,,,,,,,,,,,,,,,,,,,,,,,,,,
,,60f99ec4c0f33da48795b916,30,male,2024-04-24_20h32.05.775,stockport_simplified,2022.2.4,Win32,74.96251874,661e456ee6de07e70aa9ef7b,6628df8b9a0c38ba6dbe697b,,,,,,,,,,,,,,,,,,,,,,,,,,,,,,,,,,,,,,,,,,,,,,,,,,,,,,,,1,22,82,22,1,N,M,C,o1_image,stimuli/out1.png,stimuli/correct_out1.png,stimuli/out2.png,,,,,,,,,,,,,,,,,,,,,,,,,,,,,,,,,,,,,,
,,60f99ec4c0f33da48795b916,30,male,2024-04-24_20h32.05.775,stockport_simplified,2022.2.4,Win32,74.96251874,661e456ee6de07e70aa9ef7b,6628df8b9a0c38ba6dbe697b,,,,,,,,,,,,,,,,,,,,,,,,,,,,,,,,,,478.882,481.269,"[6,3,8,7,2,5,1,4]","[[0.3,0.2],[-0.3,0.2]]","[[-0.125,-0.2],[0.125,-0.2]]",-0.075,-0.251851852,1,0,0,1.88,o1_image,481.27,0,481.762,481.762,483.763,0,0,0,0,1,,,,,,,,,,,,,,,,,,,,,,,,,,,,,,,,,,,,,,,,,,,,,,,,,,
,,60f99ec4c0f33da48795b916,30,male,2024-04-24_20h32.05.775,stockport_simplified,2022.2.4,Win32,74.96251874,661e456ee6de07e70aa9ef7b,6628df8b9a0c38ba6dbe697b,,,,,,,,,,,,,,,,,,,,,,,,,,,,,,,,,,,,,,,,,,,,,,,,,,,,,,,,1,23,83,40,1,B,X,N,o2_image,stimuli/out2.png,stimuli/out1.png,stimuli/correct_out2.png,,,,,,,,,,,,,,,,,,,,,,,,,,,,,,,,,,,,,,
,,60f99ec4c0f33da48795b916,30,male,2024-04-24_20h32.05.775,stockport_simplified,2022.2.4,Win32,74.96251874,661e456ee6de07e70aa9ef7b,6628df8b9a0c38ba6dbe697b,,,,,,,,,,,,,,,,,,,,,,,,,,,,,,,,,,483.764,486.018,"[6,3,8,7,2,5,1,4]","[[0.3,0.2],[-0.3,0.2]]","[[-0.125,-0.2],[0.125,-0.2]]",0.074074074,-0.246296296,1,0,0,1.748,o2_image,486.019,1,486.511,486.511,488.512,0,0,0,0,1,,,,,,,,,,,,,,,,,,,,,,,,,,,,,,,,,,,,,,,,,,,,,,,,,,
,,60f99ec4c0f33da48795b916,30,male,2024-04-24_20h32.05.775,stockport_simplified,2022.2.4,Win32,74.96251874,661e456ee6de07e70aa9ef7b,6628df8b9a0c38ba6dbe697b,,,,,,,,,,,,,,,,,,,,,,,,,,,,,,,,,,,,,,,,,,,,,,,,,,,,,,,,1,24,84,43,1,B,X,N,o2_image,stimuli/out2.png,stimuli/out1.png,stimuli/correct_out2.png,,,,,,,,,,,,,,,,,,,,,,,,,,,,,,,,,,,,,,
,,60f99ec4c0f33da48795b916,30,male,2024-04-24_20h32.05.775,stockport_simplified,2022.2.4,Win32,74.96251874,661e456ee6de07e70aa9ef7b,6628df8b9a0c38ba6dbe697b,,,,,,,,,,,,,,,,,,,,,,,,,,,,,,,,,,488.513,490.233,"[6,3,8,7,2,5,1,4]","[[-0.3,0.2],[0.3,0.2]]","[[0.125,-0.2],[-0.125,-0.2]]",0.088888889,-0.247222222,1,0,0,1.213,o1_image,490.233,1,490.726,490.726,492.728,0,0,0,0,1,,,,,,,,,,,,,,,,,,,,,,,,,,,,,,,,,,,,,,,,,,,,,,,,,,
,,60f99ec4c0f33da48795b916,30,male,2024-04-24_20h32.05.775,stockport_simplified,2022.2.4,Win32,74.96251874,661e456ee6de07e70aa9ef7b,6628df8b9a0c38ba6dbe697b,,,,,,,,,,,,,,,,,,,,,,,,,,,,,,,,,,,,,,,,,,,,,,,,,,,,,,,,1,25,85,23,1,N,M,C,o1_image,stimuli/out1.png,stimuli/correct_out1.png,stimuli/out2.png,,,,,,,,,,,,,,,,,,,,,,,,,,,,,,,,,,,,,,
,,60f99ec4c0f33da48795b916,30,male,2024-04-24_20h32.05.775,stockport_simplified,2022.2.4,Win32,74.96251874,661e456ee6de07e70aa9ef7b,6628df8b9a0c38ba6dbe697b,,,,,,,,,,,,,,,,,,,,,,,,,,,,,,,,,,492.729,494.701,"[6,3,8,7,2,5,1,4]","[[-0.3,0.2],[0.3,0.2]]","[[0.125,-0.2],[-0.125,-0.2]]",-0.080555556,-0.249074074,1,0,0,1.465,o2_image,494.703,1,495.194,495.194,497.195,0,0,0,0,1,,,,,,,,,,,,,,,,,,,,,,,,,,,,,,,,,,,,,,,,,,,,,,,,,,
,,60f99ec4c0f33da48795b916,30,male,2024-04-24_20h32.05.775,stockport_simplified,2022.2.4,Win32,74.96251874,661e456ee6de07e70aa9ef7b,6628df8b9a0c38ba6dbe697b,,,,,,,,,,,,,,,,,,,,,,,,,,,,,,,,,,,,,,,,,,,,,,,,,,,,,,,,1,26,86,27,1,N,M,D,o2_image,stimuli/out2.png,stimuli/out1.png,stimuli/correct_out2.png,,,,,,,,,,,,,,,,,,,,,,,,,,,,,,,,,,,,,,
,,60f99ec4c0f33da48795b916,30,male,2024-04-24_20h32.05.775,stockport_simplified,2022.2.4,Win32,74.96251874,661e456ee6de07e70aa9ef7b,6628df8b9a0c38ba6dbe697b,,,,,,,,,,,,,,,,,,,,,,,,,,,,,,,,,,497.196,500.036,"[6,3,8,7,2,5,1,4]","[[0.3,0.2],[-0.3,0.2]]","[[-0.125,-0.2],[0.125,-0.2]]",0.061111111,-0.233333333,1,0,0,2.334,o2_image,500.037,1,500.529,500.529,502.53,0,0,0,0,1,,,,,,,,,,,,,,,,,,,,,,,,,,,,,,,,,,,,,,,,,,,,,,,,,,
,,60f99ec4c0f33da48795b916,30,male,2024-04-24_20h32.05.775,stockport_simplified,2022.2.4,Win32,74.96251874,661e456ee6de07e70aa9ef7b,6628df8b9a0c38ba6dbe697b,,,,,,,,,,,,,,,,,,,,,,,,,,,,,,,,,,,,,,,,,,,,,,,,,,,,,,,,1,27,87,10,1,B,X,N,o2_image,stimuli/out2.png,stimuli/out1.png,stimuli/correct_out2.png,,,,,,,,,,,,,,,,,,,,,,,,,,,,,,,,,,,,,,
,,60f99ec4c0f33da48795b916,30,male,2024-04-24_20h32.05.775,stockport_simplified,2022.2.4,Win32,74.96251874,661e456ee6de07e70aa9ef7b,6628df8b9a0c38ba6dbe697b,,,,,,,,,,,,,,,,,,,,,,,,,,,,,,,,,,502.53,504.185,"[6,3,8,7,2,5,1,4]","[[-0.3,0.2],[0.3,0.2]]","[[0.125,-0.2],[-0.125,-0.2]]",-0.07037037,-0.235185185,1,0,0,1.147,o2_image,504.186,1,504.677,504.678,506.679,0,0,0,0,1,,,,,,,,,,,,,,,,,,,,,,,,,,,,,,,,,,,,,,,,,,,,,,,,,,
,,60f99ec4c0f33da48795b916,30,male,2024-04-24_20h32.05.775,stockport_simplified,2022.2.4,Win32,74.96251874,661e456ee6de07e70aa9ef7b,6628df8b9a0c38ba6dbe697b,,,,,,,,,,,,,,,,,,,,,,,,,,,,,,,,,,,,,,,,,,,,,,,,,,,,,,,,1,28,88,58,1,N,M,D,o2_image,stimuli/out2.png,stimuli/out1.png,stimuli/correct_out2.png,,,,,,,,,,,,,,,,,,,,,,,,,,,,,,,,,,,,,,
,,60f99ec4c0f33da48795b916,30,male,2024-04-24_20h32.05.775,stockport_simplified,2022.2.4,Win32,74.96251874,661e456ee6de07e70aa9ef7b,6628df8b9a0c38ba6dbe697b,,,,,,,,,,,,,,,,,,,,,,,,,,,,,,,,,,506.679,509.519,"[6,3,8,7,2,5,1,4]","[[-0.3,0.2],[0.3,0.2]]","[[0.125,-0.2],[-0.125,-0.2]]",0.086111111,-0.231481481,1,0,0,2.333,o1_image,509.52,1,510.013,510.013,512.013,0,0,0,0,1,,,,,,,,,,,,,,,,,,,,,,,,,,,,,,,,,,,,,,,,,,,,,,,,,,
,,60f99ec4c0f33da48795b916,30,male,2024-04-24_20h32.05.775,stockport_simplified,2022.2.4,Win32,74.96251874,661e456ee6de07e70aa9ef7b,6628df8b9a0c38ba6dbe697b,,,,,,,,,,,,,,,,,,,,,,,,,,,,,,,,,,,,,,,,,,,,,,,,,,,,,,,,1,29,89,34,1,A,X,N,o1_image,stimuli/out1.png,stimuli/correct_out1.png,stimuli/out2.png,,,,,,,,,,,,,,,,,,,,,,,,,,,,,,,,,,,,,,
,,60f99ec4c0f33da48795b916,30,male,2024-04-24_20h32.05.775,stockport_simplified,2022.2.4,Win32,74.96251874,661e456ee6de07e70aa9ef7b,6628df8b9a0c38ba6dbe697b,,,,,,,,,,,,,,,,,,,,,,,,,,,,,,,,,,512.014,515.028,"[6,3,8,7,2,5,1,4]","[[-0.3,0.2],[0.3,0.2]]","[[0.125,-0.2],[-0.125,-0.2]]",0.101851852,-0.226851852,1,0,0,2.508,o1_image,515.029,0,515.522,515.522,517.523,0,0,0,0,1,,,,,,,,,,,,,,,,,,,,,,,,,,,,,,,,,,,,,,,,,,,,,,,,,,
,,60f99ec4c0f33da48795b916,30,male,2024-04-24_20h32.05.775,stockport_simplified,2022.2.4,Win32,74.96251874,661e456ee6de07e70aa9ef7b,6628df8b9a0c38ba6dbe697b,,,,,,,,,,,,,,,,,,,,,,,,,,,,,,,,,,,,,,,,,,,,,,,,,,,,,,,,1,30,90,11,1,B,X,N,o2_image,stimuli/out2.png,stimuli/out1.png,stimuli/correct_out2.png,,,,,,,,,,,,,,,,,,,,,,,,,,,,,,,,,,,,,,
,,60f99ec4c0f33da48795b916,30,male,2024-04-24_20h32.05.775,stockport_simplified,2022.2.4,Win32,74.96251874,661e456ee6de07e70aa9ef7b,6628df8b9a0c38ba6dbe697b,,,,,,,,,,,,,,,,,,,,,,,,,,,,,,,,,,517.523,520.977,"[6,3,8,7,2,5,1,4]","[[0.3,0.2],[-0.3,0.2]]","[[-0.125,-0.2],[0.125,-0.2]]",-0.04537037,-0.230555556,1,0,0,2.947,o1_image,520.978,1,521.471,521.471,523.472,0,0,0,0,1,,,,,,,,,,,,,,,,,,,,,,,,,,,,,,,,,,,,,,,,,,,,,,,,,,
,,60f99ec4c0f33da48795b916,30,male,2024-04-24_20h32.05.775,stockport_simplified,2022.2.4,Win32,74.96251874,661e456ee6de07e70aa9ef7b,6628df8b9a0c38ba6dbe697b,,,,,,,,,,,,,,,,,,,,,,,,,,,,,,,,,,,,,,,,,,,,,,,,,,,,,,,,1,31,91,37,1,A,Y,N,o1_image,stimuli/out1.png,stimuli/correct_out1.png,stimuli/out2.png,,,,,,,,,,,,,,,,,,,,,,,,,,,,,,,,,,,,,,
,,60f99ec4c0f33da48795b916,30,male,2024-04-24_20h32.05.775,stockport_simplified,2022.2.4,Win32,74.96251874,661e456ee6de07e70aa9ef7b,6628df8b9a0c38ba6dbe697b,,,,,,,,,,,,,,,,,,,,,,,,,,,,,,,,,,523.472,525.593,"[6,3,8,7,2,5,1,4]","[[0.3,0.2],[-0.3,0.2]]","[[0.125,-0.2],[-0.125,-0.2]]",0.09537037,-0.226851852,1,0,0,1.614,o1_image,525.594,1,526.085,526.085,528.086,0,0,0,0,1,,,,,,,,,,,,,,,,,,,,,,,,,,,,,,,,,,,,,,,,,,,,,,,,,,
,,60f99ec4c0f33da48795b916,30,male,2024-04-24_20h32.05.775,stockport_simplified,2022.2.4,Win32,74.96251874,661e456ee6de07e70aa9ef7b,6628df8b9a0c38ba6dbe697b,,,,,,,,,,,,,,,,,,,,,,,,,,,,,,,,,,,,,,,,,,,,,,,,,,,,,,,,1,32,92,21,1,N,M,C,o1_image,stimuli/out1.png,stimuli/correct_out1.png,stimuli/out2.png,,,,,,,,,,,,,,,,,,,,,,,,,,,,,,,,,,,,,,
,,60f99ec4c0f33da48795b916,30,male,2024-04-24_20h32.05.775,stockport_simplified,2022.2.4,Win32,74.96251874,661e456ee6de07e70aa9ef7b,6628df8b9a0c38ba6dbe697b,,,,,,,,,,,,,,,,,,,,,,,,,,,,,,,,,,528.087,530.515,"[6,3,8,7,2,5,1,4]","[[-0.3,0.2],[0.3,0.2]]","[[-0.125,-0.2],[0.125,-0.2]]",-0.092592593,-0.237037037,1,0,0,1.92,o1_image,530.515,1,531.007,531.007,533.008,0,0,0,0,1,,,,,,,,,,,,,,,,,,,,,,,,,,,,,,,,,,,,,,,,,,,,,,,,,,
,,60f99ec4c0f33da48795b916,30,male,2024-04-24_20h32.05.775,stockport_simplified,2022.2.4,Win32,74.96251874,661e456ee6de07e70aa9ef7b,6628df8b9a0c38ba6dbe697b,,,,,,,,,,,,,,,,,,,,,,,,,,,,,,,,,,,,,,,,,,,,,,,,,,,,,,,,1,33,93,38,1,A,Y,N,o1_image,stimuli/out1.png,stimuli/correct_out1.png,stimuli/out2.png,,,,,,,,,,,,,,,,,,,,,,,,,,,,,,,,,,,,,,
,,60f99ec4c0f33da48795b916,30,male,2024-04-24_20h32.05.775,stockport_simplified,2022.2.4,Win32,74.96251874,661e456ee6de07e70aa9ef7b,6628df8b9a0c38ba6dbe697b,,,,,,,,,,,,,,,,,,,,,,,,,,,,,,,,,,533.009,534.822,"[6,3,8,7,2,5,1,4]","[[-0.3,0.2],[0.3,0.2]]","[[0.125,-0.2],[-0.125,-0.2]]",-0.090740741,-0.238888889,1,0,0,1.307,o2_image,534.823,1,535.315,535.315,537.316,0,0,0,0,1,,,,,,,,,,,,,,,,,,,,,,,,,,,,,,,,,,,,,,,,,,,,,,,,,,
,,60f99ec4c0f33da48795b916,30,male,2024-04-24_20h32.05.775,stockport_simplified,2022.2.4,Win32,74.96251874,661e456ee6de07e70aa9ef7b,6628df8b9a0c38ba6dbe697b,,,,,,,,,,,,,,,,,,,,,,,,,,,,,,,,,,,,,,,,,,,,,,,,,,,,,,,,1,34,94,28,1,N,M,D,o2_image,stimuli/out2.png,stimuli/out1.png,stimuli/correct_out2.png,,,,,,,,,,,,,,,,,,,,,,,,,,,,,,,,,,,,,,
,,60f99ec4c0f33da48795b916,30,male,2024-04-24_20h32.05.775,stockport_simplified,2022.2.4,Win32,74.96251874,661e456ee6de07e70aa9ef7b,6628df8b9a0c38ba6dbe697b,,,,,,,,,,,,,,,,,,,,,,,,,,,,,,,,,,537.317,541.518,"[6,3,8,7,2,5,1,4]","[[0.3,0.2],[-0.3,0.2]]","[[0.125,-0.2],[-0.125,-0.2]]",0.098148148,-0.233333333,1,0,0,3.694,o1_image,541.519,0,542.011,542.011,544.012,0,0,0,0,1,,,,,,,,,,,,,,,,,,,,,,,,,,,,,,,,,,,,,,,,,,,,,,,,,,
,,60f99ec4c0f33da48795b916,30,male,2024-04-24_20h32.05.775,stockport_simplified,2022.2.4,Win32,74.96251874,661e456ee6de07e70aa9ef7b,6628df8b9a0c38ba6dbe697b,,,,,,,,,,,,,,,,,,,,,,,,,,,,,,,,,,,,,,,,,,,,,,,,,,,,,,,,1,35,95,17,1,B,Y,N,o2_image,stimuli/out2.png,stimuli/out1.png,stimuli/correct_out2.png,,,,,,,,,,,,,,,,,,,,,,,,,,,,,,,,,,,,,,
,,60f99ec4c0f33da48795b916,30,male,2024-04-24_20h32.05.775,stockport_simplified,2022.2.4,Win32,74.96251874,661e456ee6de07e70aa9ef7b,6628df8b9a0c38ba6dbe697b,,,,,,,,,,,,,,,,,,,,,,,,,,,,,,,,,,544.013,546.786,"[6,3,8,7,2,5,1,4]","[[-0.3,0.2],[0.3,0.2]]","[[-0.125,-0.2],[0.125,-0.2]]",0.108333333,-0.225925926,1,0,0,2.267,o2_image,546.787,1,547.28,547.28,549.281,0,0,0,0,1,,,,,,,,,,,,,,,,,,,,,,,,,,,,,,,,,,,,,,,,,,,,,,,,,,
,,60f99ec4c0f33da48795b916,30,male,2024-04-24_20h32.05.775,stockport_simplified,2022.2.4,Win32,74.96251874,661e456ee6de07e70aa9ef7b,6628df8b9a0c38ba6dbe697b,,,,,,,,,,,,,,,,,,,,,,,,,,,,,,,,,,,,,,,,,,,,,,,,,,,,,,,,1,36,96,48,1,B,Y,N,o2_image,stimuli/out2.png,stimuli/out1.png,stimuli/correct_out2.png,,,,,,,,,,,,,,,,,,,,,,,,,,,,,,,,,,,,,,
,,60f99ec4c0f33da48795b916,30,male,2024-04-24_20h32.05.775,stockport_simplified,2022.2.4,Win32,74.96251874,661e456ee6de07e70aa9ef7b,6628df8b9a0c38ba6dbe697b,,,,,,,,,,,,,,,,,,,,,,,,,,,,,,,,,,549.281,550.881,"[6,3,8,7,2,5,1,4]","[[-0.3,0.2],[0.3,0.2]]","[[-0.125,-0.2],[0.125,-0.2]]",0.074074074,-0.226851852,1,0,0,1.093,o2_image,550.882,1,551.374,551.374,553.375,0,0,0,0,1,,,,,,,,,,,,,,,,,,,,,,,,,,,,,,,,,,,,,,,,,,,,,,,,,,
,,60f99ec4c0f33da48795b916,30,male,2024-04-24_20h32.05.775,stockport_simplified,2022.2.4,Win32,74.96251874,661e456ee6de07e70aa9ef7b,6628df8b9a0c38ba6dbe697b,,,,,,,,,,,,,,,,,,,,,,,,,,,,,,,,,,,,,,,,,,,,,,,,,,,,,,,,1,37,97,59,1,N,M,D,o2_image,stimuli/out2.png,stimuli/out1.png,stimuli/correct_out2.png,,,,,,,,,,,,,,,,,,,,,,,,,,,,,,,,,,,,,,
,,60f99ec4c0f33da48795b916,30,male,2024-04-24_20h32.05.775,stockport_simplified,2022.2.4,Win32,74.96251874,661e456ee6de07e70aa9ef7b,6628df8b9a0c38ba6dbe697b,,,,,,,,,,,,,,,,,,,,,,,,,,,,,,,,,,553.376,556.751,"[6,3,8,7,2,5,1,4]","[[0.3,0.2],[-0.3,0.2]]","[[-0.125,-0.2],[0.125,-0.2]]",0.056481481,-0.226851852,1,0,0,2.867,o2_image,556.751,0,557.244,557.244,559.245,0,0,0,0,1,,,,,,,,,,,,,,,,,,,,,,,,,,,,,,,,,,,,,,,,,,,,,,,,,,
,,60f99ec4c0f33da48795b916,30,male,2024-04-24_20h32.05.775,stockport_simplified,2022.2.4,Win32,74.96251874,661e456ee6de07e70aa9ef7b,6628df8b9a0c38ba6dbe697b,,,,,,,,,,,,,,,,,,,,,,,,,,,,,,,,,,,,,,,,,,,,,,,,,,,,,,,,1,38,98,31,1,A,X,N,o1_image,stimuli/out1.png,stimuli/correct_out1.png,stimuli/out2.png,,,,,,,,,,,,,,,,,,,,,,,,,,,,,,,,,,,,,,
,,60f99ec4c0f33da48795b916,30,male,2024-04-24_20h32.05.775,stockport_simplified,2022.2.4,Win32,74.96251874,661e456ee6de07e70aa9ef7b,6628df8b9a0c38ba6dbe697b,,,,,,,,,,,,,,,,,,,,,,,,,,,,,,,,,,559.246,561.979,"[6,3,8,7,2,5,1,4]","[[0.3,0.2],[-0.3,0.2]]","[[0.125,-0.2],[-0.125,-0.2]]",-0.067592593,-0.240740741,1,0,0,2.227,o2_image,561.98,0,562.472,562.472,564.473,0,0,0,0,1,,,,,,,,,,,,,,,,,,,,,,,,,,,,,,,,,,,,,,,,,,,,,,,,,,
,,60f99ec4c0f33da48795b916,30,male,2024-04-24_20h32.05.775,stockport_simplified,2022.2.4,Win32,74.96251874,661e456ee6de07e70aa9ef7b,6628df8b9a0c38ba6dbe697b,,,,,,,,,,,,,,,,,,,,,,,,,,,,,,,,,,,,,,,,,,,,,,,,,,,,,,,,1,39,99,6,1,A,Y,N,o1_image,stimuli/out1.png,stimuli/correct_out1.png,stimuli/out2.png,,,,,,,,,,,,,,,,,,,,,,,,,,,,,,,,,,,,,,
,,60f99ec4c0f33da48795b916,30,male,2024-04-24_20h32.05.775,stockport_simplified,2022.2.4,Win32,74.96251874,661e456ee6de07e70aa9ef7b,6628df8b9a0c38ba6dbe697b,,,,,,,,,,,,,,,,,,,,,,,,,,,,,,,,,,564.474,566.594,"[6,3,8,7,2,5,1,4]","[[0.3,0.2],[-0.3,0.2]]","[[-0.125,-0.2],[0.125,-0.2]]",-0.067592593,-0.240740741,1,0,0,1.614,o1_image,566.594,1,567.088,567.088,569.088,0,0,0,0,1,,,,,,,,,,,,,,,,,,,,,,,,,,,,,,,,,,,,,,,,,,,,,,,,,,
,,60f99ec4c0f33da48795b916,30,male,2024-04-24_20h32.05.775,stockport_simplified,2022.2.4,Win32,74.96251874,661e456ee6de07e70aa9ef7b,6628df8b9a0c38ba6dbe697b,,,,,,,,,,,,,,,,,,,,,,,,,,,,,,,,,,,,,,,,,,,,,,,,,,,,,,,,1,40,100,7,1,A,Y,N,o1_image,stimuli/out1.png,stimuli/correct_out1.png,stimuli/out2.png,,,,,,,,,,,,,,,,,,,,,,,,,,,,,,,,,,,,,,
,,60f99ec4c0f33da48795b916,30,male,2024-04-24_20h32.05.775,stockport_simplified,2022.2.4,Win32,74.96251874,661e456ee6de07e70aa9ef7b,6628df8b9a0c38ba6dbe697b,,,,,,,,,,,,,,,,,,,,,,,,,,,,,,,,,,569.089,570.995,"[6,3,8,7,2,5,1,4]","[[0.3,0.2],[-0.3,0.2]]","[[-0.125,-0.2],[0.125,-0.2]]",0.069444444,-0.232407407,1,0,0,1.399,o2_image,570.996,1,571.489,571.489,573.49,0,0,0,0,1,,,,,,,,,,,,,,,,,,,,,,,,,,,,,,,,,,,,,,,,,,,,,,,,,,
,,60f99ec4c0f33da48795b916,30,male,2024-04-24_20h32.05.775,stockport_simplified,2022.2.4,Win32,74.96251874,661e456ee6de07e70aa9ef7b,6628df8b9a0c38ba6dbe697b,,,,,,,,,,,,,,,,,,,,,,,,,,,,,,,,,,,,,,,,,,,,,,,,,,,,,,,,1,41,101,13,1,B,X,N,o2_image,stimuli/out2.png,stimuli/out1.png,stimuli/correct_out2.png,,,,,,,,,,,,,,,,,,,,,,,,,,,,,,,,,,,,,,
,,60f99ec4c0f33da48795b916,30,male,2024-04-24_20h32.05.775,stockport_simplified,2022.2.4,Win32,74.96251874,661e456ee6de07e70aa9ef7b,6628df8b9a0c38ba6dbe697b,,,,,,,,,,,,,,,,,,,,,,,,,,,,,,,,,,573.49,575.93,"[6,3,8,7,2,5,1,4]","[[-0.3,0.2],[0.3,0.2]]","[[-0.125,-0.2],[0.125,-0.2]]",-0.088888889,-0.246296296,1,0,0,1.934,o1_image,575.931,1,576.424,576.424,578.425,0,0,0,0,1,,,,,,,,,,,,,,,,,,,,,,,,,,,,,,,,,,,,,,,,,,,,,,,,,,
,,60f99ec4c0f33da48795b916,30,male,2024-04-24_20h32.05.775,stockport_simplified,2022.2.4,Win32,74.96251874,661e456ee6de07e70aa9ef7b,6628df8b9a0c38ba6dbe697b,,,,,,,,,,,,,,,,,,,,,,,,,,,,,,,,,,,,,,,,,,,,,,,,,,,,,,,,1,42,102,4,1,A,X,N,o1_image,stimuli/out1.png,stimuli/correct_out1.png,stimuli/out2.png,,,,,,,,,,,,,,,,,,,,,,,,,,,,,,,,,,,,,,
,,60f99ec4c0f33da48795b916,30,male,2024-04-24_20h32.05.775,stockport_simplified,2022.2.4,Win32,74.96251874,661e456ee6de07e70aa9ef7b,6628df8b9a0c38ba6dbe697b,,,,,,,,,,,,,,,,,,,,,,,,,,,,,,,,,,578.425,580.079,"[6,3,8,7,2,5,1,4]","[[-0.3,0.2],[0.3,0.2]]","[[-0.125,-0.2],[0.125,-0.2]]",-0.088888889,-0.246296296,1,0,0,1.147,o1_image,580.08,1,580.572,580.572,582.573,0,0,0,0,1,,,,,,,,,,,,,,,,,,,,,,,,,,,,,,,,,,,,,,,,,,,,,,,,,,
,,60f99ec4c0f33da48795b916,30,male,2024-04-24_20h32.05.775,stockport_simplified,2022.2.4,Win32,74.96251874,661e456ee6de07e70aa9ef7b,6628df8b9a0c38ba6dbe697b,,,,,,,,,,,,,,,,,,,,,,,,,,,,,,,,,,,,,,,,,,,,,,,,,,,,,,,,1,43,103,24,1,N,M,C,o1_image,stimuli/out1.png,stimuli/correct_out1.png,stimuli/out2.png,,,,,,,,,,,,,,,,,,,,,,,,,,,,,,,,,,,,,,
,,60f99ec4c0f33da48795b916,30,male,2024-04-24_20h32.05.775,stockport_simplified,2022.2.4,Win32,74.96251874,661e456ee6de07e70aa9ef7b,6628df8b9a0c38ba6dbe697b,,,,,,,,,,,,,,,,,,,,,,,,,,,,,,,,,,582.574,584.013,"[6,3,8,7,2,5,1,4]","[[-0.3,0.2],[0.3,0.2]]","[[0.125,-0.2],[-0.125,-0.2]]",-0.088888889,-0.246296296,1,0,0,0.933,o2_image,584.014,1,584.507,584.507,586.508,0,0,0,0,1,,,,,,,,,,,,,,,,,,,,,,,,,,,,,,,,,,,,,,,,,,,,,,,,,,
,,60f99ec4c0f33da48795b916,30,male,2024-04-24_20h32.05.775,stockport_simplified,2022.2.4,Win32,74.96251874,661e456ee6de07e70aa9ef7b,6628df8b9a0c38ba6dbe697b,,,,,,,,,,,,,,,,,,,,,,,,,,,,,,,,,,,,,,,,,,,,,,,,,,,,,,,,1,44,104,25,1,N,M,D,o2_image,stimuli/out2.png,stimuli/out1.png,stimuli/correct_out2.png,,,,,,,,,,,,,,,,,,,,,,,,,,,,,,,,,,,,,,
,,60f99ec4c0f33da48795b916,30,male,2024-04-24_20h32.05.775,stockport_simplified,2022.2.4,Win32,74.96251874,661e456ee6de07e70aa9ef7b,6628df8b9a0c38ba6dbe697b,,,,,,,,,,,,,,,,,,,,,,,,,,,,,,,,,,586.508,589.962,"[6,3,8,7,2,5,1,4]","[[-0.3,0.2],[0.3,0.2]]","[[-0.125,-0.2],[0.125,-0.2]]",-0.062962963,-0.241666667,1,0,0,2.947,o1_image,589.963,1,590.456,590.456,592.457,0,0,0,0,1,,,,,,,,,,,,,,,,,,,,,,,,,,,,,,,,,,,,,,,,,,,,,,,,,,
,,60f99ec4c0f33da48795b916,30,male,2024-04-24_20h32.05.775,stockport_simplified,2022.2.4,Win32,74.96251874,661e456ee6de07e70aa9ef7b,6628df8b9a0c38ba6dbe697b,,,,,,,,,,,,,,,,,,,,,,,,,,,,,,,,,,,,,,,,,,,,,,,,,,,,,,,,1,45,105,8,1,A,Y,N,o1_image,stimuli/out1.png,stimuli/correct_out1.png,stimuli/out2.png,,,,,,,,,,,,,,,,,,,,,,,,,,,,,,,,,,,,,,
,,60f99ec4c0f33da48795b916,30,male,2024-04-24_20h32.05.775,stockport_simplified,2022.2.4,Win32,74.96251874,661e456ee6de07e70aa9ef7b,6628df8b9a0c38ba6dbe697b,,,,,,,,,,,,,,,,,,,,,,,,,,,,,,,,,,592.458,595.751,"[6,3,8,7,2,5,1,4]","[[-0.3,0.2],[0.3,0.2]]","[[0.125,-0.2],[-0.125,-0.2]]",-0.062037037,-0.241666667,1,0,0,2.786,o2_image,595.753,1,596.245,596.245,598.245,0,0,0,0,1,,,,,,,,,,,,,,,,,,,,,,,,,,,,,,,,,,,,,,,,,,,,,,,,,,
,,60f99ec4c0f33da48795b916,30,male,2024-04-24_20h32.05.775,stockport_simplified,2022.2.4,Win32,74.96251874,661e456ee6de07e70aa9ef7b,6628df8b9a0c38ba6dbe697b,,,,,,,,,,,,,,,,,,,,,,,,,,,,,,,,,,,,,,,,,,,,,,,,,,,,,,,,1,46,106,42,1,B,X,N,o2_image,stimuli/out2.png,stimuli/out1.png,stimuli/correct_out2.png,,,,,,,,,,,,,,,,,,,,,,,,,,,,,,,,,,,,,,
,,60f99ec4c0f33da48795b916,30,male,2024-04-24_20h32.05.775,stockport_simplified,2022.2.4,Win32,74.96251874,661e456ee6de07e70aa9ef7b,6628df8b9a0c38ba6dbe697b,,,,,,,,,,,,,,,,,,,,,,,,,,,,,,,,,,598.245,601.273,"[6,3,8,7,2,5,1,4]","[[0.3,0.2],[-0.3,0.2]]","[[-0.125,-0.2],[0.125,-0.2]]",-0.060185185,-0.241666667,1,0,0,2.52,o1_image,601.274,1,601.766,601.766,603.767,0,0,0,0,1,,,,,,,,,,,,,,,,,,,,,,,,,,,,,,,,,,,,,,,,,,,,,,,,,,
,,60f99ec4c0f33da48795b916,30,male,2024-04-24_20h32.05.775,stockport_simplified,2022.2.4,Win32,74.96251874,661e456ee6de07e70aa9ef7b,6628df8b9a0c38ba6dbe697b,,,,,,,,,,,,,,,,,,,,,,,,,,,,,,,,,,,,,,,,,,,,,,,,,,,,,,,,1,47,107,35,1,A,Y,N,o1_image,stimuli/out1.png,stimuli/correct_out1.png,stimuli/out2.png,,,,,,,,,,,,,,,,,,,,,,,,,,,,,,,,,,,,,,
,,60f99ec4c0f33da48795b916,30,male,2024-04-24_20h32.05.775,stockport_simplified,2022.2.4,Win32,74.96251874,661e456ee6de07e70aa9ef7b,6628df8b9a0c38ba6dbe697b,,,,,,,,,,,,,,,,,,,,,,,,,,,,,,,,,,603.768,605.514,"[6,3,8,7,2,5,1,4]","[[-0.3,0.2],[0.3,0.2]]","[[-0.125,-0.2],[0.125,-0.2]]",-0.060185185,-0.241666667,1,0,0,1.24,o1_image,605.516,1,606.008,606.008,608.009,0,0,0,0,1,,,,,,,,,,,,,,,,,,,,,,,,,,,,,,,,,,,,,,,,,,,,,,,,,,
,,60f99ec4c0f33da48795b916,30,male,2024-04-24_20h32.05.775,stockport_simplified,2022.2.4,Win32,74.96251874,661e456ee6de07e70aa9ef7b,6628df8b9a0c38ba6dbe697b,,,,,,,,,,,,,,,,,,,,,,,,,,,,,,,,,,,,,,,,,,,,,,,,,,,,,,,,1,48,108,54,1,N,M,C,o1_image,stimuli/out1.png,stimuli/correct_out1.png,stimuli/out2.png,,,,,,,,,,,,,,,,,,,,,,,,,,,,,,,,,,,,,,
,,60f99ec4c0f33da48795b916,30,male,2024-04-24_20h32.05.775,stockport_simplified,2022.2.4,Win32,74.96251874,661e456ee6de07e70aa9ef7b,6628df8b9a0c38ba6dbe697b,,,,,,,,,,,,,,,,,,,,,,,,,,,,,,,,,,608.009,611.476,"[6,3,8,7,2,5,1,4]","[[0.3,0.2],[-0.3,0.2]]","[[-0.125,-0.2],[0.125,-0.2]]",0.083333333,-0.226851852,1,0,0,2.96,o2_image,611.478,1,611.971,611.971,613.971,0,0,0,0,1,,,,,,,,,,,,,,,,,,,,,,,,,,,,,,,,,,,,,,,,,,,,,,,,,,
,,60f99ec4c0f33da48795b916,30,male,2024-04-24_20h32.05.775,stockport_simplified,2022.2.4,Win32,74.96251874,661e456ee6de07e70aa9ef7b,6628df8b9a0c38ba6dbe697b,,,,,,,,,,,,,,,,,,,,,,,,,,,,,,,,,,,,,,,,,,,,,,,,,,,,,,,,1,49,109,47,1,B,Y,N,o2_image,stimuli/out2.png,stimuli/out1.png,stimuli/correct_out2.png,,,,,,,,,,,,,,,,,,,,,,,,,,,,,,,,,,,,,,
,,60f99ec4c0f33da48795b916,30,male,2024-04-24_20h32.05.775,stockport_simplified,2022.2.4,Win32,74.96251874,661e456ee6de07e70aa9ef7b,6628df8b9a0c38ba6dbe697b,,,,,,,,,,,,,,,,,,,,,,,,,,,,,,,,,,613.972,616.145,"[6,3,8,7,2,5,1,4]","[[0.3,0.2],[-0.3,0.2]]","[[-0.125,-0.2],[0.125,-0.2]]",-0.058333333,-0.237037037,1,0,0,1.667,o1_image,616.146,1,616.639,616.639,618.639,0,0,0,0,1,,,,,,,,,,,,,,,,,,,,,,,,,,,,,,,,,,,,,,,,,,,,,,,,,,
,,60f99ec4c0f33da48795b916,30,male,2024-04-24_20h32.05.775,stockport_simplified,2022.2.4,Win32,74.96251874,661e456ee6de07e70aa9ef7b,6628df8b9a0c38ba6dbe697b,,,,,,,,,,,,,,,,,,,,,,,,,,,,,,,,,,,,,,,,,,,,,,,,,,,,,,,,1,50,110,50,1,N,M,C,o1_image,stimuli/out1.png,stimuli/correct_out1.png,stimuli/out2.png,,,,,,,,,,,,,,,,,,,,,,,,,,,,,,,,,,,,,,
,,60f99ec4c0f33da48795b916,30,male,2024-04-24_20h32.05.775,stockport_simplified,2022.2.4,Win32,74.96251874,661e456ee6de07e70aa9ef7b,6628df8b9a0c38ba6dbe697b,,,,,,,,,,,,,,,,,,,,,,,,,,,,,,,,,,618.639,621.774,"[6,3,8,7,2,5,1,4]","[[-0.3,0.2],[0.3,0.2]]","[[-0.125,-0.2],[0.125,-0.2]]",0.085185185,-0.227777778,1,0,0,2.628,o2_image,621.774,0,622.267,622.267,624.269,0,0,0,0,1,,,,,,,,,,,,,,,,,,,,,,,,,,,,,,,,,,,,,,,,,,,,,,,,,,
,,60f99ec4c0f33da48795b916,30,male,2024-04-24_20h32.05.775,stockport_simplified,2022.2.4,Win32,74.96251874,661e456ee6de07e70aa9ef7b,6628df8b9a0c38ba6dbe697b,,,,,,,,,,,,,,,,,,,,,,,,,,,,,,,,,,,,,,,,,,,,,,,,,,,,,,,,1,51,111,1,1,A,X,N,o1_image,stimuli/out1.png,stimuli/correct_out1.png,stimuli/out2.png,,,,,,,,,,,,,,,,,,,,,,,,,,,,,,,,,,,,,,
,,60f99ec4c0f33da48795b916,30,male,2024-04-24_20h32.05.775,stockport_simplified,2022.2.4,Win32,74.96251874,661e456ee6de07e70aa9ef7b,6628df8b9a0c38ba6dbe697b,,,,,,,,,,,,,,,,,,,,,,,,,,,,,,,,,,624.27,626.149,"[6,3,8,7,2,5,1,4]","[[-0.3,0.2],[0.3,0.2]]","[[-0.125,-0.2],[0.125,-0.2]]",0.09537037,-0.231481481,1,0,0,1.373,o2_image,626.15,1,626.642,626.642,628.643,0,0,0,0,1,,,,,,,,,,,,,,,,,,,,,,,,,,,,,,,,,,,,,,,,,,,,,,,,,,
,,60f99ec4c0f33da48795b916,30,male,2024-04-24_20h32.05.775,stockport_simplified,2022.2.4,Win32,74.96251874,661e456ee6de07e70aa9ef7b,6628df8b9a0c38ba6dbe697b,,,,,,,,,,,,,,,,,,,,,,,,,,,,,,,,,,,,,,,,,,,,,,,,,,,,,,,,1,52,112,45,1,B,Y,N,o2_image,stimuli/out2.png,stimuli/out1.png,stimuli/correct_out2.png,,,,,,,,,,,,,,,,,,,,,,,,,,,,,,,,,,,,,,
,,60f99ec4c0f33da48795b916,30,male,2024-04-24_20h32.05.775,stockport_simplified,2022.2.4,Win32,74.96251874,661e456ee6de07e70aa9ef7b,6628df8b9a0c38ba6dbe697b,,,,,,,,,,,,,,,,,,,,,,,,,,,,,,,,,,628.644,630.737,"[6,3,8,7,2,5,1,4]","[[0.3,0.2],[-0.3,0.2]]","[[-0.125,-0.2],[0.125,-0.2]]",0.072222222,-0.232407407,1,0,0,1.587,o2_image,630.739,1,631.231,631.231,633.232,0,0,0,0,1,,,,,,,,,,,,,,,,,,,,,,,,,,,,,,,,,,,,,,,,,,,,,,,,,,
,,60f99ec4c0f33da48795b916,30,male,2024-04-24_20h32.05.775,stockport_simplified,2022.2.4,Win32,74.96251874,661e456ee6de07e70aa9ef7b,6628df8b9a0c38ba6dbe697b,,,,,,,,,,,,,,,,,,,,,,,,,,,,,,,,,,,,,,,,,,,,,,,,,,,,,,,,1,53,113,16,1,B,Y,N,o2_image,stimuli/out2.png,stimuli/out1.png,stimuli/correct_out2.png,,,,,,,,,,,,,,,,,,,,,,,,,,,,,,,,,,,,,,
,,60f99ec4c0f33da48795b916,30,male,2024-04-24_20h32.05.775,stockport_simplified,2022.2.4,Win32,74.96251874,661e456ee6de07e70aa9ef7b,6628df8b9a0c38ba6dbe697b,,,,,,,,,,,,,,,,,,,,,,,,,,,,,,,,,,633.232,636.38,"[6,3,8,7,2,5,1,4]","[[0.3,0.2],[-0.3,0.2]]","[[0.125,-0.2],[-0.125,-0.2]]",-0.039814815,-0.241666667,1,0,0,1.906,o2_image,636.38,1,636.872,636.872,638.874,0,0,0,0,1,,,,,,,,,,,,,,,,,,,,,,,,,,,,,,,,,,,,,,,,,,,,,,,,,,
,,60f99ec4c0f33da48795b916,30,male,2024-04-24_20h32.05.775,stockport_simplified,2022.2.4,Win32,74.96251874,661e456ee6de07e70aa9ef7b,6628df8b9a0c38ba6dbe697b,,,,,,,,,,,,,,,,,,,,,,,,,,,,,,,,,,,,,,,,,,,,,,,,,,,,,,,,1,54,114,44,1,B,X,N,o2_image,stimuli/out2.png,stimuli/out1.png,stimuli/correct_out2.png,,,,,,,,,,,,,,,,,,,,,,,,,,,,,,,,,,,,,,
,,60f99ec4c0f33da48795b916,30,male,2024-04-24_20h32.05.775,stockport_simplified,2022.2.4,Win32,74.96251874,661e456ee6de07e70aa9ef7b,6628df8b9a0c38ba6dbe697b,,,,,,,,,,,,,,,,,,,,,,,,,,,,,,,,,,638.874,641.487,"[6,3,8,7,2,5,1,4]","[[-0.3,0.2],[0.3,0.2]]","[[-0.125,-0.2],[0.125,-0.2]]",-0.055555556,-0.241666667,1,0,0,2.106,o1_image,641.488,1,641.981,641.981,643.982,0,0,0,0,1,,,,,,,,,,,,,,,,,,,,,,,,,,,,,,,,,,,,,,,,,,,,,,,,,,
,,60f99ec4c0f33da48795b916,30,male,2024-04-24_20h32.05.775,stockport_simplified,2022.2.4,Win32,74.96251874,661e456ee6de07e70aa9ef7b,6628df8b9a0c38ba6dbe697b,,,,,,,,,,,,,,,,,,,,,,,,,,,,,,,,,,,,,,,,,,,,,,,,,,,,,,,,1,55,115,20,1,N,M,C,o1_image,stimuli/out1.png,stimuli/correct_out1.png,stimuli/out2.png,,,,,,,,,,,,,,,,,,,,,,,,,,,,,,,,,,,,,,
,,60f99ec4c0f33da48795b916,30,male,2024-04-24_20h32.05.775,stockport_simplified,2022.2.4,Win32,74.96251874,661e456ee6de07e70aa9ef7b,6628df8b9a0c38ba6dbe697b,,,,,,,,,,,,,,,,,,,,,,,,,,,,,,,,,,643.982,645.916,"[6,3,8,7,2,5,1,4]","[[0.3,0.2],[-0.3,0.2]]","[[0.125,-0.2],[-0.125,-0.2]]",0.10462963,-0.227777778,1,0,0,1.427,o1_image,645.917,1,646.41,646.41,648.41,0,0,0,0,1,,,,,,,,,,,,,,,,,,,,,,,,,,,,,,,,,,,,,,,,,,,,,,,,,,
,,60f99ec4c0f33da48795b916,30,male,2024-04-24_20h32.05.775,stockport_simplified,2022.2.4,Win32,74.96251874,661e456ee6de07e70aa9ef7b,6628df8b9a0c38ba6dbe697b,,,,,,,,,,,,,,,,,,,,,,,,,,,,,,,,,,,,,,,,,,,,,,,,,,,,,,,,1,56,116,51,1,N,M,C,o1_image,stimuli/out1.png,stimuli/correct_out1.png,stimuli/out2.png,,,,,,,,,,,,,,,,,,,,,,,,,,,,,,,,,,,,,,
,,60f99ec4c0f33da48795b916,30,male,2024-04-24_20h32.05.775,stockport_simplified,2022.2.4,Win32,74.96251874,661e456ee6de07e70aa9ef7b,6628df8b9a0c38ba6dbe697b,,,,,,,,,,,,,,,,,,,,,,,,,,,,,,,,,,648.411,650.144,"[6,3,8,7,2,5,1,4]","[[0.3,0.2],[-0.3,0.2]]","[[0.125,-0.2],[-0.125,-0.2]]",0.066666667,-0.230555556,1,0,0,1.227,o1_image,650.145,1,650.637,650.637,652.638,0,0,0,0,1,,,,,,,,,,,,,,,,,,,,,,,,,,,,,,,,,,,,,,,,,,,,,,,,,,
,,60f99ec4c0f33da48795b916,30,male,2024-04-24_20h32.05.775,stockport_simplified,2022.2.4,Win32,74.96251874,661e456ee6de07e70aa9ef7b,6628df8b9a0c38ba6dbe697b,,,,,,,,,,,,,,,,,,,,,,,,,,,,,,,,,,,,,,,,,,,,,,,,,,,,,,,,1,57,117,52,1,N,M,C,o1_image,stimuli/out1.png,stimuli/correct_out1.png,stimuli/out2.png,,,,,,,,,,,,,,,,,,,,,,,,,,,,,,,,,,,,,,
,,60f99ec4c0f33da48795b916,30,male,2024-04-24_20h32.05.775,stockport_simplified,2022.2.4,Win32,74.96251874,661e456ee6de07e70aa9ef7b,6628df8b9a0c38ba6dbe697b,,,,,,,,,,,,,,,,,,,,,,,,,,,,,,,,,,652.638,656.173,"[6,3,8,7,2,5,1,4]","[[-0.3,0.2],[0.3,0.2]]","[[0.125,-0.2],[-0.125,-0.2]]",0.059259259,-0.232407407,1,0,0,3.027,o1_image,656.175,1,656.666,656.666,658.668,0,0,0,0,1,,,,,,,,,,,,,,,,,,,,,,,,,,,,,,,,,,,,,,,,,,,,,,,,,,
,,60f99ec4c0f33da48795b916,30,male,2024-04-24_20h32.05.775,stockport_simplified,2022.2.4,Win32,74.96251874,661e456ee6de07e70aa9ef7b,6628df8b9a0c38ba6dbe697b,,,,,,,,,,,,,,,,,,,,,,,,,,,,,,,,,,,,,,,,,,,,,,,,,,,,,,,,1,58,118,36,1,A,Y,N,o1_image,stimuli/out1.png,stimuli/correct_out1.png,stimuli/out2.png,,,,,,,,,,,,,,,,,,,,,,,,,,,,,,,,,,,,,,
,,60f99ec4c0f33da48795b916,30,male,2024-04-24_20h32.05.775,stockport_simplified,2022.2.4,Win32,74.96251874,661e456ee6de07e70aa9ef7b,6628df8b9a0c38ba6dbe697b,,,,,,,,,,,,,,,,,,,,,,,,,,,,,,,,,,658.669,660.455,"[6,3,8,7,2,5,1,4]","[[-0.3,0.2],[0.3,0.2]]","[[0.125,-0.2],[-0.125,-0.2]]",-0.077777778,-0.244444444,1,0,0,1.279,o2_image,660.456,1,660.949,660.949,662.949,0,0,0,0,1,,,,,,,,,,,,,,,,,,,,,,,,,,,,,,,,,,,,,,,,,,,,,,,,,,
,,60f99ec4c0f33da48795b916,30,male,2024-04-24_20h32.05.775,stockport_simplified,2022.2.4,Win32,74.96251874,661e456ee6de07e70aa9ef7b,6628df8b9a0c38ba6dbe697b,,,,,,,,,,,,,,,,,,,,,,,,,,,,,,,,,,,,,,,,,,,,,,,,,,,,,,,,1,59,119,46,1,B,Y,N,o2_image,stimuli/out2.png,stimuli/out1.png,stimuli/correct_out2.png,,,,,,,,,,,,,,,,,,,,,,,,,,,,,,,,,,,,,,
,,60f99ec4c0f33da48795b916,30,male,2024-04-24_20h32.05.775,stockport_simplified,2022.2.4,Win32,74.96251874,661e456ee6de07e70aa9ef7b,6628df8b9a0c38ba6dbe697b,,,,,,,,,,,,,,,,,,,,,,,,,,,,,,,,,,662.958,664.83,"[6,3,8,7,2,5,1,4]","[[0.3,0.2],[-0.3,0.2]]","[[-0.125,-0.2],[0.125,-0.2]]",-0.077777778,-0.244444444,1,0,0,1.361,o1_image,664.831,0,665.323,665.323,667.324,,,,,,,,,,,,,,,,,,0,0,0,0,1,,,,,,,,,,,,,,,,,,,,,,,,,,,,,,,,,
,,60f99ec4c0f33da48795b916,30,male,2024-04-24_20h32.05.775,stockport_simplified,2022.2.4,Win32,74.96251874,661e456ee6de07e70aa9ef7b,6628df8b9a0c38ba6dbe697b,,,,,,,,,,,,,,,,,,,,,,,,,,,,,,,,,,,,,,,,,,,,,,,,,,,,,,,,,,,,,A,X,N,o2_image,stimuli/out2.png,stimuli/out1.png,stimuli/correct_out2.png,,,,,,0,0,0,9,1,,,,,,,,,,,,,,,,,,,,,,,,,,,,
,,60f99ec4c0f33da48795b916,30,male,2024-04-24_20h32.05.775,stockport_simplified,2022.2.4,Win32,74.96251874,661e456ee6de07e70aa9ef7b,6628df8b9a0c38ba6dbe697b,,,,,,,,,,,,,,,,,,,,,,,,,,,,,,,,,,667.324,669.605,"[6,3,8,7,2,5,1,4]","[[-0.3,0.2],[0.3,0.2]]","[[-0.125,-0.2],[0.125,-0.2]]",0.117592593,-0.225,1,0,0,1.775,o2_image,669.606,1,670.098,670.098,672.098,,,,,,,,,,,,,,,,,,0,0,0,0,1,,,,,,,,,,,,,,,,,,,,,,,,,,,,,,,,,
,,60f99ec4c0f33da48795b916,30,male,2024-04-24_20h32.05.775,stockport_simplified,2022.2.4,Win32,74.96251874,661e456ee6de07e70aa9ef7b,6628df8b9a0c38ba6dbe697b,,,,,,,,,,,,,,,,,,,,,,,,,,,,,,,,,,,,,,,,,,,,,,,,,,,,,,,,,,,,,B,X,N,o2_image,stimuli/out2.png,stimuli/out1.png,stimuli/correct_out2.png,,,,,,0,1,1,22,1,,,,,,,,,,,,,,,,,,,,,,,,,,,,
,,60f99ec4c0f33da48795b916,30,male,2024-04-24_20h32.05.775,stockport_simplified,2022.2.4,Win32,74.96251874,661e456ee6de07e70aa9ef7b,6628df8b9a0c38ba6dbe697b,,,,,,,,,,,,,,,,,,,,,,,,,,,,,,,,,,672.1,673.94,"[6,3,8,7,2,5,1,4]","[[-0.3,0.2],[0.3,0.2]]","[[-0.125,-0.2],[0.125,-0.2]]",0.072222222,-0.228703704,1,0,0,1.333,o2_image,673.94,0,674.433,674.433,676.434,,,,,,,,,,,,,,,,,,0,0,0,0,1,,,,,,,,,,,,,,,,,,,,,,,,,,,,,,,,,
,,60f99ec4c0f33da48795b916,30,male,2024-04-24_20h32.05.775,stockport_simplified,2022.2.4,Win32,74.96251874,661e456ee6de07e70aa9ef7b,6628df8b9a0c38ba6dbe697b,,,,,,,,,,,,,,,,,,,,,,,,,,,,,,,,,,,,,,,,,,,,,,,,,,,,,,,,,,,,,A,Y,N,o1_image,stimuli/out1.png,stimuli/correct_out1.png,stimuli/out2.png,,,,,,0,2,2,17,1,,,,,,,,,,,,,,,,,,,,,,,,,,,,
,,60f99ec4c0f33da48795b916,30,male,2024-04-24_20h32.05.775,stockport_simplified,2022.2.4,Win32,74.96251874,661e456ee6de07e70aa9ef7b,6628df8b9a0c38ba6dbe697b,,,,,,,,,,,,,,,,,,,,,,,,,,,,,,,,,,676.434,678.195,"[6,3,8,7,2,5,1,4]","[[-0.3,0.2],[0.3,0.2]]","[[0.125,-0.2],[-0.125,-0.2]]",-0.093518519,-0.213888889,1,0,0,1.254,o2_image,678.195,0,678.687,678.687,680.688,,,,,,,,,,,,,,,,,,0,0,0,0,1,,,,,,,,,,,,,,,,,,,,,,,,,,,,,,,,,
,,60f99ec4c0f33da48795b916,30,male,2024-04-24_20h32.05.775,stockport_simplified,2022.2.4,Win32,74.96251874,661e456ee6de07e70aa9ef7b,6628df8b9a0c38ba6dbe697b,,,,,,,,,,,,,,,,,,,,,,,,,,,,,,,,,,,,,,,,,,,,,,,,,,,,,,,,,,,,,B,X,N,o1_image,stimuli/out1.png,stimuli/correct_out1.png,stimuli/out2.png,,,,,,0,3,3,29,1,,,,,,,,,,,,,,,,,,,,,,,,,,,,
,,60f99ec4c0f33da48795b916,30,male,2024-04-24_20h32.05.775,stockport_simplified,2022.2.4,Win32,74.96251874,661e456ee6de07e70aa9ef7b,6628df8b9a0c38ba6dbe697b,,,,,,,,,,,,,,,,,,,,,,,,,,,,,,,,,,680.689,683.05,"[6,3,8,7,2,5,1,4]","[[0.3,0.2],[-0.3,0.2]]","[[0.125,-0.2],[-0.125,-0.2]]",-0.082407407,-0.215740741,1,0,0,1.855,o2_image,683.051,0,683.543,683.543,685.544,,,,,,,,,,,,,,,,,,0,0,0,0,1,,,,,,,,,,,,,,,,,,,,,,,,,,,,,,,,,
,,60f99ec4c0f33da48795b916,30,male,2024-04-24_20h32.05.775,stockport_simplified,2022.2.4,Win32,74.96251874,661e456ee6de07e70aa9ef7b,6628df8b9a0c38ba6dbe697b,,,,,,,,,,,,,,,,,,,,,,,,,,,,,,,,,,,,,,,,,,,,,,,,,,,,,,,,,,,,,B,X,N,o1_image,stimuli/out1.png,stimuli/correct_out1.png,stimuli/out2.png,,,,,,0,4,4,28,1,,,,,,,,,,,,,,,,,,,,,,,,,,,,
,,60f99ec4c0f33da48795b916,30,male,2024-04-24_20h32.05.775,stockport_simplified,2022.2.4,Win32,74.96251874,661e456ee6de07e70aa9ef7b,6628df8b9a0c38ba6dbe697b,,,,,,,,,,,,,,,,,,,,,,,,,,,,,,,,,,685.544,687.798,"[6,3,8,7,2,5,1,4]","[[-0.3,0.2],[0.3,0.2]]","[[0.125,-0.2],[-0.125,-0.2]]",0.075,-0.217592593,1,0,0,1.747,o1_image,687.798,0,688.291,688.291,690.292,,,,,,,,,,,,,,,,,,0,0,0,0,1,,,,,,,,,,,,,,,,,,,,,,,,,,,,,,,,,
