counterbalance_2.started,counterbalance_2.stopped,participant,age,gender,date,expName,psychopyVersion,OS,frameRate,STUDY_ID,SESSION_ID,information_2.started,information_2.stopped,information_loop.thisRepN,information_loop.thisTrialN,information_loop.thisN,information_loop.thisIndex,information_loop.ran,information,consent_2.started,consent_2.stopped,slider_1.response,slider_2.response,slider_3.response,slider_4.response,slider_5.response,slider_6.response,instructions.started,instructions.stopped,task1_instr.thisRepN,task1_instr.thisTrialN,task1_instr.thisN,task1_instr.thisIndex,task1_instr.ran,task1,comprehension1_2.started,comprehension1_2.stopped,comp1_mouse.x,comp1_mouse.y,comp1_mouse.leftButton,comp1_mouse.midButton,comp1_mouse.rightButton,comp1_mouse.time,comp1_mouse.clicked_name,cue_o__trial_2.started,cue_o__trial_2.stopped,order,cue_order,out_order,cue_o_mouse.x,cue_o_mouse.y,cue_o_mouse.leftButton,cue_o_mouse.midButton,cue_o_mouse.rightButton,cue_o_mouse.time,cue_o_mouse.clicked_name,cue_selection_2.started,correct_answer,cue_selection_2.stopped,feedback_2.started,feedback_2.stopped,feedback_loop.thisRepN,feedback_loop.thisTrialN,feedback_loop.thisN,feedback_loop.thisIndex,feedback_loop.ran,stage1_trials.thisRepN,stage1_trials.thisTrialN,stage1_trials.thisN,stage1_trials.thisIndex,stage1_trials.ran,cue1,cue2,cue3,outcome,correct_out,o1_feedback,o2_feedback,stage2_feedback_loop.thisRepN,stage2_feedback_loop.thisTrialN,stage2_feedback_loop.thisN,stage2_feedback_loop.thisIndex,stage2_feedback_loop.ran,stage2_trials.thisRepN,stage2_trials.thisTrialN,stage2_trials.thisN,stage2_trials.thisIndex,stage2_trials.ran,stage3_feedback_loop.thisRepN,stage3_feedback_loop.thisTrialN,stage3_feedback_loop.thisN,stage3_feedback_loop.thisIndex,stage3_feedback_loop.ran,stage3_trials.thisRepN,stage3_trials.thisTrialN,stage3_trials.thisN,stage3_trials.thisIndex,stage3_trials.ran,debrief_2.started,debrief_2.stopped,debrief_loop.thisRepN,debrief_loop.thisTrialN,debrief_loop.thisN,debrief_loop.thisIndex,debrief_loop.ran,debrief_img,compr1_completed.thisRepN,compr1_completed.thisTrialN,compr1_completed.thisN,compr1_completed.thisIndex,compr1_completed.ran,consent_loop.thisRepN,consent_loop.thisTrialN,consent_loop.thisN,consent_loop.thisIndex,consent_loop.ran
0.0001,0.0003,5718a9c4dd9ef10013df01f0,38,female,2024-04-24_11h31.51.230,stockport_simplified,2022.2.4,Win32,61.72839506,661e456ee6de07e70aa9ef7b,6628df8b84caf05859bcb119,,,,,,,,,,,,,,,,,,,,,,,,,,,,,,,,,,,,,,,,,,,,,,,,,,,,,,,,,,,,,,,,,,,,,,,,,,,,,,,,,,,,,,,,,,,,,,,,,,,,,,,,,
,,5718a9c4dd9ef10013df01f0,38,female,2024-04-24_11h31.51.230,stockport_simplified,2022.2.4,Win32,61.72839506,661e456ee6de07e70aa9ef7b,6628df8b84caf05859bcb119,0.0123,9.4773,0,0,0,0,1,instructions/info1.png,,,,,,,,,,,,,,,,,,,,,,,,,,,,,,,,,,,,,,,,,,,,,,,,,,,,,,,,,,,,,,,,,,,,,,,,,,,,,,,,,,,,,,,,,,,,,,,,,
,,5718a9c4dd9ef10013df01f0,38,female,2024-04-24_11h31.51.230,stockport_simplified,2022.2.4,Win32,61.72839506,661e456ee6de07e70aa9ef7b,6628df8b84caf05859bcb119,9.4776,14.1033,0,1,1,1,1,instructions/info2.png,,,,,,,,,,,,,,,,,,,,,,,,,,,,,,,,,,,,,,,,,,,,,,,,,,,,,,,,,,,,,,,,,,,,,,,,,,,,,,,,,,,,,,,,,,,,,,,,,
,,5718a9c4dd9ef10013df01f0,38,female,2024-04-24_11h31.51.230,stockport_simplified,2022.2.4,Win32,61.72839506,661e456ee6de07e70aa9ef7b,6628df8b84caf05859bcb119,14.1039,18.6201,0,2,2,2,1,instructions/info3.png,,,,,,,,,,,,,,,,,,,,,,,,,,,,,,,,,,,,,,,,,,,,,,,,,,,,,,,,,,,,,,,,,,,,,,,,,,,,,,,,,,,,,,,,,,,,,,,,,
,,5718a9c4dd9ef10013df01f0,38,female,2024-04-24_11h31.51.230,stockport_simplified,2022.2.4,Win32,61.72839506,661e456ee6de07e70aa9ef7b,6628df8b84caf05859bcb119,,,,,,,,,18.6208,28.5039,1,1,1,1,1,1,,,,,,,,,,,,,,,,,,,,,,,,,,,,,,,,,,,,,,,,,,,,,,,,,,,,,,,,,,,,,,,,,,,,,,,,,,,,,,,,,,,,,,,,,
,,5718a9c4dd9ef10013df01f0,38,female,2024-04-24_11h31.51.230,stockport_simplified,2022.2.4,Win32,61.72839506,661e456ee6de07e70aa9ef7b,6628df8b84caf05859bcb119,,,,,,,,,,,,,,,,,28.5105,334.156,0,0,0,0,1,instructions/task1_1.png,,,,,,,,,,,,,,,,,,,,,,,,,,,,,,,,,,,,,,,,,,,,,,,,,,,,,,,,,,,,,,,,,,,,,,,,,,,,,,,,,
,,5718a9c4dd9ef10013df01f0,38,female,2024-04-24_11h31.51.230,stockport_simplified,2022.2.4,Win32,61.72839506,661e456ee6de07e70aa9ef7b,6628df8b84caf05859bcb119,,,,,,,,,,,,,,,,,334.1621,347.7723,0,1,1,1,1,instructions/task1_2.png,,,,,,,,,,,,,,,,,,,,,,,,,,,,,,,,,,,,,,,,,,,,,,,,,,,,,,,,,,,,,,,,,,,,,,,,,,,,,,,,,
,,5718a9c4dd9ef10013df01f0,38,female,2024-04-24_11h31.51.230,stockport_simplified,2022.2.4,Win32,61.72839506,661e456ee6de07e70aa9ef7b,6628df8b84caf05859bcb119,,,,,,,,,,,,,,,,,347.7793,362.9726,0,2,2,2,1,instructions/task1_3.png,,,,,,,,,,,,,,,,,,,,,,,,,,,,,,,,,,,,,,,,,,,,,,,,,,,,,,,,,,,,,,,,,,,,,,,,,,,,,,,,,
,,5718a9c4dd9ef10013df01f0,38,female,2024-04-24_11h31.51.230,stockport_simplified,2022.2.4,Win32,61.72839506,661e456ee6de07e70aa9ef7b,6628df8b84caf05859bcb119,,,,,,,,,,,,,,,,,,,,,,,,,362.9804,380.8757,-0.076851809,-0.33148151,1,0,0,17.8936,comp1_resp1,380.8942,386.2578,"[5,2,1,8,7,6,4,3]","[[-0.3,0.2],[0.3,0.2]]","[[0.125,-0.2],[-0.125,-0.2]]",-0.126851824,-0.19722225,1,0,0,4.8493,o2_image,386.2639,0,386.7579,386.758,388.7577,0,0,0,0,1,,,,,,,,,,,,,,,,,,,,,,,,,,,,,,,,,,,,,,,,,,,,,,,,,,
,,5718a9c4dd9ef10013df01f0,38,female,2024-04-24_11h31.51.230,stockport_simplified,2022.2.4,Win32,61.72839506,661e456ee6de07e70aa9ef7b,6628df8b84caf05859bcb119,,,,,,,,,,,,,,,,,,,,,,,,,,,,,,,,,,,,,,,,,,,,,,,,,,,,,,,,0,0,0,4,1,A,X,N,o1_image,stimuli/out1.png,stimuli/correct_out1.png,stimuli/out2.png,,,,,,,,,,,,,,,,,,,,,,,,,,,,,,,,,,,,,,
,,5718a9c4dd9ef10013df01f0,38,female,2024-04-24_11h31.51.230,stockport_simplified,2022.2.4,Win32,61.72839506,661e456ee6de07e70aa9ef7b,6628df8b84caf05859bcb119,,,,,,,,,,,,,,,,,,,,,,,,,,,,,,,,,,388.758,393.9417,"[5,2,1,8,7,6,4,3]","[[0.3,0.2],[-0.3,0.2]]","[[-0.125,-0.2],[0.125,-0.2]]",0.140740783,-0.193518533,1,0,0,4.6673,o2_image,393.9493,1,394.4417,394.4419,396.4419,0,0,0,0,1,,,,,,,,,,,,,,,,,,,,,,,,,,,,,,,,,,,,,,,,,,,,,,,,,,
,,5718a9c4dd9ef10013df01f0,38,female,2024-04-24_11h31.51.230,stockport_simplified,2022.2.4,Win32,61.72839506,661e456ee6de07e70aa9ef7b,6628df8b84caf05859bcb119,,,,,,,,,,,,,,,,,,,,,,,,,,,,,,,,,,,,,,,,,,,,,,,,,,,,,,,,0,1,1,40,1,B,X,N,o2_image,stimuli/out2.png,stimuli/out1.png,stimuli/correct_out2.png,,,,,,,,,,,,,,,,,,,,,,,,,,,,,,,,,,,,,,
,,5718a9c4dd9ef10013df01f0,38,female,2024-04-24_11h31.51.230,stockport_simplified,2022.2.4,Win32,61.72839506,661e456ee6de07e70aa9ef7b,6628df8b84caf05859bcb119,,,,,,,,,,,,,,,,,,,,,,,,,,,,,,,,,,396.4427,399.675,"[5,2,1,8,7,6,4,3]","[[0.3,0.2],[-0.3,0.2]]","[[0.125,-0.2],[-0.125,-0.2]]",0.092592593,-0.223148134,1,0,0,2.7169,o1_image,399.6813,1,400.1747,400.1748,402.1756,0,0,0,0,1,,,,,,,,,,,,,,,,,,,,,,,,,,,,,,,,,,,,,,,,,,,,,,,,,,
,,5718a9c4dd9ef10013df01f0,38,female,2024-04-24_11h31.51.230,stockport_simplified,2022.2.4,Win32,61.72839506,661e456ee6de07e70aa9ef7b,6628df8b84caf05859bcb119,,,,,,,,,,,,,,,,,,,,,,,,,,,,,,,,,,,,,,,,,,,,,,,,,,,,,,,,0,2,2,32,1,A,X,N,o1_image,stimuli/out1.png,stimuli/correct_out1.png,stimuli/out2.png,,,,,,,,,,,,,,,,,,,,,,,,,,,,,,,,,,,,,,
,,5718a9c4dd9ef10013df01f0,38,female,2024-04-24_11h31.51.230,stockport_simplified,2022.2.4,Win32,61.72839506,661e456ee6de07e70aa9ef7b,6628df8b84caf05859bcb119,,,,,,,,,,,,,,,,,,,,,,,,,,,,,,,,,,402.1765,407.5757,"[5,2,1,8,7,6,4,3]","[[0.3,0.2],[-0.3,0.2]]","[[-0.125,-0.2],[0.125,-0.2]]",-0.085185157,-0.20648151,1,0,0,4.8825,o1_image,407.5821,1,408.0761,408.0762,410.0767,0,0,0,0,1,,,,,,,,,,,,,,,,,,,,,,,,,,,,,,,,,,,,,,,,,,,,,,,,,,
,,5718a9c4dd9ef10013df01f0,38,female,2024-04-24_11h31.51.230,stockport_simplified,2022.2.4,Win32,61.72839506,661e456ee6de07e70aa9ef7b,6628df8b84caf05859bcb119,,,,,,,,,,,,,,,,,,,,,,,,,,,,,,,,,,,,,,,,,,,,,,,,,,,,,,,,0,3,3,22,1,N,M,C,o1_image,stimuli/out1.png,stimuli/correct_out1.png,stimuli/out2.png,,,,,,,,,,,,,,,,,,,,,,,,,,,,,,,,,,,,,,
,,5718a9c4dd9ef10013df01f0,38,female,2024-04-24_11h31.51.230,stockport_simplified,2022.2.4,Win32,61.72839506,661e456ee6de07e70aa9ef7b,6628df8b84caf05859bcb119,,,,,,,,,,,,,,,,,,,,,,,,,,,,,,,,,,410.0776,412.7926,"[5,2,1,8,7,6,4,3]","[[0.3,0.2],[-0.3,0.2]]","[[-0.125,-0.2],[0.125,-0.2]]",0.123148176,-0.200925968,1,0,0,2.2001,o2_image,412.7937,1,413.2929,413.293,415.2927,0,0,0,0,1,,,,,,,,,,,,,,,,,,,,,,,,,,,,,,,,,,,,,,,,,,,,,,,,,,
,,5718a9c4dd9ef10013df01f0,38,female,2024-04-24_11h31.51.230,stockport_simplified,2022.2.4,Win32,61.72839506,661e456ee6de07e70aa9ef7b,6628df8b84caf05859bcb119,,,,,,,,,,,,,,,,,,,,,,,,,,,,,,,,,,,,,,,,,,,,,,,,,,,,,,,,0,4,4,49,1,B,Y,N,o2_image,stimuli/out2.png,stimuli/out1.png,stimuli/correct_out2.png,,,,,,,,,,,,,,,,,,,,,,,,,,,,,,,,,,,,,,
,,5718a9c4dd9ef10013df01f0,38,female,2024-04-24_11h31.51.230,stockport_simplified,2022.2.4,Win32,61.72839506,661e456ee6de07e70aa9ef7b,6628df8b84caf05859bcb119,,,,,,,,,,,,,,,,,,,,,,,,,,,,,,,,,,415.2938,419.0089,"[5,2,1,8,7,6,4,3]","[[-0.3,0.2],[0.3,0.2]]","[[0.125,-0.2],[-0.125,-0.2]]",0.118518547,-0.193518533,1,0,0,3.1986,o1_image,419.0149,1,419.5089,419.5089,421.509,0,0,0,0,1,,,,,,,,,,,,,,,,,,,,,,,,,,,,,,,,,,,,,,,,,,,,,,,,,,
,,5718a9c4dd9ef10013df01f0,38,female,2024-04-24_11h31.51.230,stockport_simplified,2022.2.4,Win32,61.72839506,661e456ee6de07e70aa9ef7b,6628df8b84caf05859bcb119,,,,,,,,,,,,,,,,,,,,,,,,,,,,,,,,,,,,,,,,,,,,,,,,,,,,,,,,0,5,5,38,1,A,Y,N,o1_image,stimuli/out1.png,stimuli/correct_out1.png,stimuli/out2.png,,,,,,,,,,,,,,,,,,,,,,,,,,,,,,,,,,,,,,
,,5718a9c4dd9ef10013df01f0,38,female,2024-04-24_11h31.51.230,stockport_simplified,2022.2.4,Win32,61.72839506,661e456ee6de07e70aa9ef7b,6628df8b84caf05859bcb119,,,,,,,,,,,,,,,,,,,,,,,,,,,,,,,,,,421.5098,423.4269,"[5,2,1,8,7,6,4,3]","[[-0.3,0.2],[0.3,0.2]]","[[-0.125,-0.2],[0.125,-0.2]]",0.12962963,-0.185185185,1,0,0,1.4153,o2_image,423.4277,1,423.9264,423.9264,425.9261,0,0,0,0,1,,,,,,,,,,,,,,,,,,,,,,,,,,,,,,,,,,,,,,,,,,,,,,,,,,
,,5718a9c4dd9ef10013df01f0,38,female,2024-04-24_11h31.51.230,stockport_simplified,2022.2.4,Win32,61.72839506,661e456ee6de07e70aa9ef7b,6628df8b84caf05859bcb119,,,,,,,,,,,,,,,,,,,,,,,,,,,,,,,,,,,,,,,,,,,,,,,,,,,,,,,,0,6,6,13,1,B,X,N,o2_image,stimuli/out2.png,stimuli/out1.png,stimuli/correct_out2.png,,,,,,,,,,,,,,,,,,,,,,,,,,,,,,,,,,,,,,
,,5718a9c4dd9ef10013df01f0,38,female,2024-04-24_11h31.51.230,stockport_simplified,2022.2.4,Win32,61.72839506,661e456ee6de07e70aa9ef7b,6628df8b84caf05859bcb119,,,,,,,,,,,,,,,,,,,,,,,,,,,,,,,,,,425.9273,427.4931,"[5,2,1,8,7,6,4,3]","[[-0.3,0.2],[0.3,0.2]]","[[-0.125,-0.2],[0.125,-0.2]]",0.12962963,-0.185185185,1,0,0,1.0625,o2_image,427.4947,1,427.994,427.9941,429.9938,0,0,0,0,1,,,,,,,,,,,,,,,,,,,,,,,,,,,,,,,,,,,,,,,,,,,,,,,,,,
,,5718a9c4dd9ef10013df01f0,38,female,2024-04-24_11h31.51.230,stockport_simplified,2022.2.4,Win32,61.72839506,661e456ee6de07e70aa9ef7b,6628df8b84caf05859bcb119,,,,,,,,,,,,,,,,,,,,,,,,,,,,,,,,,,,,,,,,,,,,,,,,,,,,,,,,0,7,7,44,1,B,X,N,o2_image,stimuli/out2.png,stimuli/out1.png,stimuli/correct_out2.png,,,,,,,,,,,,,,,,,,,,,,,,,,,,,,,,,,,,,,
,,5718a9c4dd9ef10013df01f0,38,female,2024-04-24_11h31.51.230,stockport_simplified,2022.2.4,Win32,61.72839506,661e456ee6de07e70aa9ef7b,6628df8b84caf05859bcb119,,,,,,,,,,,,,,,,,,,,,,,,,,,,,,,,,,429.9947,433.094,"[5,2,1,8,7,6,4,3]","[[-0.3,0.2],[0.3,0.2]]","[[0.125,-0.2],[-0.125,-0.2]]",0.101851852,-0.198148162,1,0,0,2.5956,o1_image,433.0999,1,433.5936,433.5936,435.5935,0,0,0,0,1,,,,,,,,,,,,,,,,,,,,,,,,,,,,,,,,,,,,,,,,,,,,,,,,,,
,,5718a9c4dd9ef10013df01f0,38,female,2024-04-24_11h31.51.230,stockport_simplified,2022.2.4,Win32,61.72839506,661e456ee6de07e70aa9ef7b,6628df8b84caf05859bcb119,,,,,,,,,,,,,,,,,,,,,,,,,,,,,,,,,,,,,,,,,,,,,,,,,,,,,,,,0,8,8,50,1,N,M,C,o1_image,stimuli/out1.png,stimuli/correct_out1.png,stimuli/out2.png,,,,,,,,,,,,,,,,,,,,,,,,,,,,,,,,,,,,,,
,,5718a9c4dd9ef10013df01f0,38,female,2024-04-24_11h31.51.230,stockport_simplified,2022.2.4,Win32,61.72839506,661e456ee6de07e70aa9ef7b,6628df8b84caf05859bcb119,,,,,,,,,,,,,,,,,,,,,,,,,,,,,,,,,,435.5943,438.1818,"[5,2,1,8,7,6,4,3]","[[0.3,0.2],[-0.3,0.2]]","[[-0.125,-0.2],[0.125,-0.2]]",-0.102777764,-0.207407422,1,0,0,2.0703,o1_image,438.1823,1,438.6773,438.6774,440.6774,0,0,0,0,1,,,,,,,,,,,,,,,,,,,,,,,,,,,,,,,,,,,,,,,,,,,,,,,,,,
,,5718a9c4dd9ef10013df01f0,38,female,2024-04-24_11h31.51.230,stockport_simplified,2022.2.4,Win32,61.72839506,661e456ee6de07e70aa9ef7b,6628df8b84caf05859bcb119,,,,,,,,,,,,,,,,,,,,,,,,,,,,,,,,,,,,,,,,,,,,,,,,,,,,,,,,0,9,9,33,1,A,X,N,o1_image,stimuli/out1.png,stimuli/correct_out1.png,stimuli/out2.png,,,,,,,,,,,,,,,,,,,,,,,,,,,,,,,,,,,,,,
,,5718a9c4dd9ef10013df01f0,38,female,2024-04-24_11h31.51.230,stockport_simplified,2022.2.4,Win32,61.72839506,661e456ee6de07e70aa9ef7b,6628df8b84caf05859bcb119,,,,,,,,,,,,,,,,,,,,,,,,,,,,,,,,,,440.6783,443.5437,"[5,2,1,8,7,6,4,3]","[[0.3,0.2],[-0.3,0.2]]","[[-0.125,-0.2],[0.125,-0.2]]",0.104629658,-0.209259245,1,0,0,2.3447,o2_image,443.5511,1,444.0447,444.0447,446.0443,0,0,0,0,1,,,,,,,,,,,,,,,,,,,,,,,,,,,,,,,,,,,,,,,,,,,,,,,,,,
,,5718a9c4dd9ef10013df01f0,38,female,2024-04-24_11h31.51.230,stockport_simplified,2022.2.4,Win32,61.72839506,661e456ee6de07e70aa9ef7b,6628df8b84caf05859bcb119,,,,,,,,,,,,,,,,,,,,,,,,,,,,,,,,,,,,,,,,,,,,,,,,,,,,,,,,0,10,10,26,1,N,M,D,o2_image,stimuli/out2.png,stimuli/out1.png,stimuli/correct_out2.png,,,,,,,,,,,,,,,,,,,,,,,,,,,,,,,,,,,,,,
,,5718a9c4dd9ef10013df01f0,38,female,2024-04-24_11h31.51.230,stockport_simplified,2022.2.4,Win32,61.72839506,661e456ee6de07e70aa9ef7b,6628df8b84caf05859bcb119,,,,,,,,,,,,,,,,,,,,,,,,,,,,,,,,,,446.0451,448.2447,"[5,2,1,8,7,6,4,3]","[[-0.3,0.2],[0.3,0.2]]","[[-0.125,-0.2],[0.125,-0.2]]",-0.10092594,-0.220370399,1,0,0,1.6822,o1_image,448.2459,1,448.7449,448.745,450.745,0,0,0,0,1,,,,,,,,,,,,,,,,,,,,,,,,,,,,,,,,,,,,,,,,,,,,,,,,,,
,,5718a9c4dd9ef10013df01f0,38,female,2024-04-24_11h31.51.230,stockport_simplified,2022.2.4,Win32,61.72839506,661e456ee6de07e70aa9ef7b,6628df8b84caf05859bcb119,,,,,,,,,,,,,,,,,,,,,,,,,,,,,,,,,,,,,,,,,,,,,,,,,,,,,,,,0,11,11,8,1,A,Y,N,o1_image,stimuli/out1.png,stimuli/correct_out1.png,stimuli/out2.png,,,,,,,,,,,,,,,,,,,,,,,,,,,,,,,,,,,,,,
,,5718a9c4dd9ef10013df01f0,38,female,2024-04-24_11h31.51.230,stockport_simplified,2022.2.4,Win32,61.72839506,661e456ee6de07e70aa9ef7b,6628df8b84caf05859bcb119,,,,,,,,,,,,,,,,,,,,,,,,,,,,,,,,,,450.7458,452.6288,"[5,2,1,8,7,6,4,3]","[[-0.3,0.2],[0.3,0.2]]","[[-0.125,-0.2],[0.125,-0.2]]",0.109259288,-0.211111139,1,0,0,1.3636,o2_image,452.63,1,453.129,453.1291,455.1277,0,0,0,0,1,,,,,,,,,,,,,,,,,,,,,,,,,,,,,,,,,,,,,,,,,,,,,,,,,,
,,5718a9c4dd9ef10013df01f0,38,female,2024-04-24_11h31.51.230,stockport_simplified,2022.2.4,Win32,61.72839506,661e456ee6de07e70aa9ef7b,6628df8b84caf05859bcb119,,,,,,,,,,,,,,,,,,,,,,,,,,,,,,,,,,,,,,,,,,,,,,,,,,,,,,,,0,12,12,43,1,B,X,N,o2_image,stimuli/out2.png,stimuli/out1.png,stimuli/correct_out2.png,,,,,,,,,,,,,,,,,,,,,,,,,,,,,,,,,,,,,,
,,5718a9c4dd9ef10013df01f0,38,female,2024-04-24_11h31.51.230,stockport_simplified,2022.2.4,Win32,61.72839506,661e456ee6de07e70aa9ef7b,6628df8b84caf05859bcb119,,,,,,,,,,,,,,,,,,,,,,,,,,,,,,,,,,455.1282,457.1118,"[5,2,1,8,7,6,4,3]","[[-0.3,0.2],[0.3,0.2]]","[[-0.125,-0.2],[0.125,-0.2]]",-0.123148106,-0.225000028,1,0,0,1.4657,o1_image,457.1129,1,457.6111,457.6112,459.6118,0,0,0,0,1,,,,,,,,,,,,,,,,,,,,,,,,,,,,,,,,,,,,,,,,,,,,,,,,,,
,,5718a9c4dd9ef10013df01f0,38,female,2024-04-24_11h31.51.230,stockport_simplified,2022.2.4,Win32,61.72839506,661e456ee6de07e70aa9ef7b,6628df8b84caf05859bcb119,,,,,,,,,,,,,,,,,,,,,,,,,,,,,,,,,,,,,,,,,,,,,,,,,,,,,,,,0,13,13,37,1,A,Y,N,o1_image,stimuli/out1.png,stimuli/correct_out1.png,stimuli/out2.png,,,,,,,,,,,,,,,,,,,,,,,,,,,,,,,,,,,,,,
,,5718a9c4dd9ef10013df01f0,38,female,2024-04-24_11h31.51.230,stockport_simplified,2022.2.4,Win32,61.72839506,661e456ee6de07e70aa9ef7b,6628df8b84caf05859bcb119,,,,,,,,,,,,,,,,,,,,,,,,,,,,,,,,,,459.6128,461.8951,"[5,2,1,8,7,6,4,3]","[[-0.3,0.2],[0.3,0.2]]","[[0.125,-0.2],[-0.125,-0.2]]",-0.102777764,-0.223148134,1,0,0,1.766,o2_image,461.8965,1,462.4005,462.4005,464.3959,0,0,0,0,1,,,,,,,,,,,,,,,,,,,,,,,,,,,,,,,,,,,,,,,,,,,,,,,,,,
,,5718a9c4dd9ef10013df01f0,38,female,2024-04-24_11h31.51.230,stockport_simplified,2022.2.4,Win32,61.72839506,661e456ee6de07e70aa9ef7b,6628df8b84caf05859bcb119,,,,,,,,,,,,,,,,,,,,,,,,,,,,,,,,,,,,,,,,,,,,,,,,,,,,,,,,0,14,14,11,1,B,X,N,o2_image,stimuli/out2.png,stimuli/out1.png,stimuli/correct_out2.png,,,,,,,,,,,,,,,,,,,,,,,,,,,,,,,,,,,,,,
,,5718a9c4dd9ef10013df01f0,38,female,2024-04-24_11h31.51.230,stockport_simplified,2022.2.4,Win32,61.72839506,661e456ee6de07e70aa9ef7b,6628df8b84caf05859bcb119,,,,,,,,,,,,,,,,,,,,,,,,,,,,,,,,,,464.3968,466.7836,"[5,2,1,8,7,6,4,3]","[[0.3,0.2],[-0.3,0.2]]","[[0.125,-0.2],[-0.125,-0.2]]",0.113888917,-0.19722225,1,0,0,1.8709,o1_image,466.7841,1,467.2786,467.2786,469.2794,0,0,0,0,1,,,,,,,,,,,,,,,,,,,,,,,,,,,,,,,,,,,,,,,,,,,,,,,,,,
,,5718a9c4dd9ef10013df01f0,38,female,2024-04-24_11h31.51.230,stockport_simplified,2022.2.4,Win32,61.72839506,661e456ee6de07e70aa9ef7b,6628df8b84caf05859bcb119,,,,,,,,,,,,,,,,,,,,,,,,,,,,,,,,,,,,,,,,,,,,,,,,,,,,,,,,0,15,15,24,1,N,M,C,o1_image,stimuli/out1.png,stimuli/correct_out1.png,stimuli/out2.png,,,,,,,,,,,,,,,,,,,,,,,,,,,,,,,,,,,,,,
,,5718a9c4dd9ef10013df01f0,38,female,2024-04-24_11h31.51.230,stockport_simplified,2022.2.4,Win32,61.72839506,661e456ee6de07e70aa9ef7b,6628df8b84caf05859bcb119,,,,,,,,,,,,,,,,,,,,,,,,,,,,,,,,,,469.2802,471.4625,"[5,2,1,8,7,6,4,3]","[[0.3,0.2],[-0.3,0.2]]","[[-0.125,-0.2],[0.125,-0.2]]",-0.135185171,-0.20648151,1,0,0,1.666,o1_image,471.4637,1,471.9627,471.9627,473.9628,0,0,0,0,1,,,,,,,,,,,,,,,,,,,,,,,,,,,,,,,,,,,,,,,,,,,,,,,,,,
,,5718a9c4dd9ef10013df01f0,38,female,2024-04-24_11h31.51.230,stockport_simplified,2022.2.4,Win32,61.72839506,661e456ee6de07e70aa9ef7b,6628df8b84caf05859bcb119,,,,,,,,,,,,,,,,,,,,,,,,,,,,,,,,,,,,,,,,,,,,,,,,,,,,,,,,0,16,16,36,1,A,Y,N,o1_image,stimuli/out1.png,stimuli/correct_out1.png,stimuli/out2.png,,,,,,,,,,,,,,,,,,,,,,,,,,,,,,,,,,,,,,
,,5718a9c4dd9ef10013df01f0,38,female,2024-04-24_11h31.51.230,stockport_simplified,2022.2.4,Win32,61.72839506,661e456ee6de07e70aa9ef7b,6628df8b84caf05859bcb119,,,,,,,,,,,,,,,,,,,,,,,,,,,,,,,,,,473.9638,476.6791,"[5,2,1,8,7,6,4,3]","[[-0.3,0.2],[0.3,0.2]]","[[0.125,-0.2],[-0.125,-0.2]]",-0.094444416,-0.180555556,1,0,0,2.1968,o2_image,476.6804,1,477.1798,477.1798,479.1798,0,0,0,0,1,,,,,,,,,,,,,,,,,,,,,,,,,,,,,,,,,,,,,,,,,,,,,,,,,,
,,5718a9c4dd9ef10013df01f0,38,female,2024-04-24_11h31.51.230,stockport_simplified,2022.2.4,Win32,61.72839506,661e456ee6de07e70aa9ef7b,6628df8b84caf05859bcb119,,,,,,,,,,,,,,,,,,,,,,,,,,,,,,,,,,,,,,,,,,,,,,,,,,,,,,,,0,17,17,29,1,N,M,D,o2_image,stimuli/out2.png,stimuli/out1.png,stimuli/correct_out2.png,,,,,,,,,,,,,,,,,,,,,,,,,,,,,,,,,,,,,,
,,5718a9c4dd9ef10013df01f0,38,female,2024-04-24_11h31.51.230,stockport_simplified,2022.2.4,Win32,61.72839506,661e456ee6de07e70aa9ef7b,6628df8b84caf05859bcb119,,,,,,,,,,,,,,,,,,,,,,,,,,,,,,,,,,479.1807,481.163,"[5,2,1,8,7,6,4,3]","[[0.3,0.2],[-0.3,0.2]]","[[-0.125,-0.2],[0.125,-0.2]]",-0.099999958,-0.198148162,1,0,0,1.4643,o1_image,481.1641,1,481.663,481.6631,483.6634,0,0,0,0,1,,,,,,,,,,,,,,,,,,,,,,,,,,,,,,,,,,,,,,,,,,,,,,,,,,
,,5718a9c4dd9ef10013df01f0,38,female,2024-04-24_11h31.51.230,stockport_simplified,2022.2.4,Win32,61.72839506,661e456ee6de07e70aa9ef7b,6628df8b84caf05859bcb119,,,,,,,,,,,,,,,,,,,,,,,,,,,,,,,,,,,,,,,,,,,,,,,,,,,,,,,,0,18,18,0,1,A,X,N,o1_image,stimuli/out1.png,stimuli/correct_out1.png,stimuli/out2.png,,,,,,,,,,,,,,,,,,,,,,,,,,,,,,,,,,,,,,
,,5718a9c4dd9ef10013df01f0,38,female,2024-04-24_11h31.51.230,stockport_simplified,2022.2.4,Win32,61.72839506,661e456ee6de07e70aa9ef7b,6628df8b84caf05859bcb119,,,,,,,,,,,,,,,,,,,,,,,,,,,,,,,,,,483.6642,485.8295,"[5,2,1,8,7,6,4,3]","[[-0.3,0.2],[0.3,0.2]]","[[0.125,-0.2],[-0.125,-0.2]]",0.089814857,-0.216666681,1,0,0,1.648,o1_image,485.8308,1,486.33,486.3301,488.3302,0,0,0,0,1,,,,,,,,,,,,,,,,,,,,,,,,,,,,,,,,,,,,,,,,,,,,,,,,,,
,,5718a9c4dd9ef10013df01f0,38,female,2024-04-24_11h31.51.230,stockport_simplified,2022.2.4,Win32,61.72839506,661e456ee6de07e70aa9ef7b,6628df8b84caf05859bcb119,,,,,,,,,,,,,,,,,,,,,,,,,,,,,,,,,,,,,,,,,,,,,,,,,,,,,,,,0,19,19,53,1,N,M,C,o1_image,stimuli/out1.png,stimuli/correct_out1.png,stimuli/out2.png,,,,,,,,,,,,,,,,,,,,,,,,,,,,,,,,,,,,,,
,,5718a9c4dd9ef10013df01f0,38,female,2024-04-24_11h31.51.230,stockport_simplified,2022.2.4,Win32,61.72839506,661e456ee6de07e70aa9ef7b,6628df8b84caf05859bcb119,,,,,,,,,,,,,,,,,,,,,,,,,,,,,,,,,,488.331,490.1483,"[5,2,1,8,7,6,4,3]","[[-0.3,0.2],[0.3,0.2]]","[[-0.125,-0.2],[0.125,-0.2]]",-0.125,-0.218518504,1,0,0,1.3013,o1_image,490.1486,1,490.6476,490.6477,492.6472,0,0,0,0,1,,,,,,,,,,,,,,,,,,,,,,,,,,,,,,,,,,,,,,,,,,,,,,,,,,
,,5718a9c4dd9ef10013df01f0,38,female,2024-04-24_11h31.51.230,stockport_simplified,2022.2.4,Win32,61.72839506,661e456ee6de07e70aa9ef7b,6628df8b84caf05859bcb119,,,,,,,,,,,,,,,,,,,,,,,,,,,,,,,,,,,,,,,,,,,,,,,,,,,,,,,,0,20,20,20,1,N,M,C,o1_image,stimuli/out1.png,stimuli/correct_out1.png,stimuli/out2.png,,,,,,,,,,,,,,,,,,,,,,,,,,,,,,,,,,,,,,
,,5718a9c4dd9ef10013df01f0,38,female,2024-04-24_11h31.51.230,stockport_simplified,2022.2.4,Win32,61.72839506,661e456ee6de07e70aa9ef7b,6628df8b84caf05859bcb119,,,,,,,,,,,,,,,,,,,,,,,,,,,,,,,,,,492.6482,494.764,"[5,2,1,8,7,6,4,3]","[[-0.3,0.2],[0.3,0.2]]","[[-0.125,-0.2],[0.125,-0.2]]",0.174074102,-0.192592621,1,0,0,1.599,o2_image,494.7651,1,495.2642,495.2643,497.2641,0,0,0,0,1,,,,,,,,,,,,,,,,,,,,,,,,,,,,,,,,,,,,,,,,,,,,,,,,,,
,,5718a9c4dd9ef10013df01f0,38,female,2024-04-24_11h31.51.230,stockport_simplified,2022.2.4,Win32,61.72839506,661e456ee6de07e70aa9ef7b,6628df8b84caf05859bcb119,,,,,,,,,,,,,,,,,,,,,,,,,,,,,,,,,,,,,,,,,,,,,,,,,,,,,,,,0,21,21,41,1,B,X,N,o2_image,stimuli/out2.png,stimuli/out1.png,stimuli/correct_out2.png,,,,,,,,,,,,,,,,,,,,,,,,,,,,,,,,,,,,,,
,,5718a9c4dd9ef10013df01f0,38,female,2024-04-24_11h31.51.230,stockport_simplified,2022.2.4,Win32,61.72839506,661e456ee6de07e70aa9ef7b,6628df8b84caf05859bcb119,,,,,,,,,,,,,,,,,,,,,,,,,,,,,,,,,,497.2651,499.0477,"[5,2,1,8,7,6,4,3]","[[0.3,0.2],[-0.3,0.2]]","[[-0.125,-0.2],[0.125,-0.2]]",-0.119444459,-0.223148134,1,0,0,1.2794,o1_image,499.0487,1,499.548,499.5481,501.5477,0,0,0,0,1,,,,,,,,,,,,,,,,,,,,,,,,,,,,,,,,,,,,,,,,,,,,,,,,,,
,,5718a9c4dd9ef10013df01f0,38,female,2024-04-24_11h31.51.230,stockport_simplified,2022.2.4,Win32,61.72839506,661e456ee6de07e70aa9ef7b,6628df8b84caf05859bcb119,,,,,,,,,,,,,,,,,,,,,,,,,,,,,,,,,,,,,,,,,,,,,,,,,,,,,,,,0,22,22,6,1,A,Y,N,o1_image,stimuli/out1.png,stimuli/correct_out1.png,stimuli/out2.png,,,,,,,,,,,,,,,,,,,,,,,,,,,,,,,,,,,,,,
,,5718a9c4dd9ef10013df01f0,38,female,2024-04-24_11h31.51.230,stockport_simplified,2022.2.4,Win32,61.72839506,661e456ee6de07e70aa9ef7b,6628df8b84caf05859bcb119,,,,,,,,,,,,,,,,,,,,,,,,,,,,,,,,,,501.5486,503.9314,"[5,2,1,8,7,6,4,3]","[[0.3,0.2],[-0.3,0.2]]","[[-0.125,-0.2],[0.125,-0.2]]",0.122222265,-0.184259273,1,0,0,1.8661,o2_image,503.9329,1,504.4312,504.4313,506.4314,0,0,0,0,1,,,,,,,,,,,,,,,,,,,,,,,,,,,,,,,,,,,,,,,,,,,,,,,,,,
,,5718a9c4dd9ef10013df01f0,38,female,2024-04-24_11h31.51.230,stockport_simplified,2022.2.4,Win32,61.72839506,661e456ee6de07e70aa9ef7b,6628df8b84caf05859bcb119,,,,,,,,,,,,,,,,,,,,,,,,,,,,,,,,,,,,,,,,,,,,,,,,,,,,,,,,0,23,23,28,1,N,M,D,o2_image,stimuli/out2.png,stimuli/out1.png,stimuli/correct_out2.png,,,,,,,,,,,,,,,,,,,,,,,,,,,,,,,,,,,,,,
,,5718a9c4dd9ef10013df01f0,38,female,2024-04-24_11h31.51.230,stockport_simplified,2022.2.4,Win32,61.72839506,661e456ee6de07e70aa9ef7b,6628df8b84caf05859bcb119,,,,,,,,,,,,,,,,,,,,,,,,,,,,,,,,,,506.4324,508.7644,"[5,2,1,8,7,6,4,3]","[[0.3,0.2],[-0.3,0.2]]","[[0.125,-0.2],[-0.125,-0.2]]",0.107407393,-0.211111139,1,0,0,1.8151,o1_image,508.7655,1,509.2646,509.2647,511.2652,0,0,0,0,1,,,,,,,,,,,,,,,,,,,,,,,,,,,,,,,,,,,,,,,,,,,,,,,,,,
,,5718a9c4dd9ef10013df01f0,38,female,2024-04-24_11h31.51.230,stockport_simplified,2022.2.4,Win32,61.72839506,661e456ee6de07e70aa9ef7b,6628df8b84caf05859bcb119,,,,,,,,,,,,,,,,,,,,,,,,,,,,,,,,,,,,,,,,,,,,,,,,,,,,,,,,0,24,24,5,1,A,Y,N,o1_image,stimuli/out1.png,stimuli/correct_out1.png,stimuli/out2.png,,,,,,,,,,,,,,,,,,,,,,,,,,,,,,,,,,,,,,
,,5718a9c4dd9ef10013df01f0,38,female,2024-04-24_11h31.51.230,stockport_simplified,2022.2.4,Win32,61.72839506,661e456ee6de07e70aa9ef7b,6628df8b84caf05859bcb119,,,,,,,,,,,,,,,,,,,,,,,,,,,,,,,,,,511.2661,514.0982,"[5,2,1,8,7,6,4,3]","[[0.3,0.2],[-0.3,0.2]]","[[-0.125,-0.2],[0.125,-0.2]]",0.125,-0.185185185,1,0,0,2.3165,o2_image,514.0993,1,514.5986,514.5987,516.5984,0,0,0,0,1,,,,,,,,,,,,,,,,,,,,,,,,,,,,,,,,,,,,,,,,,,,,,,,,,,
,,5718a9c4dd9ef10013df01f0,38,female,2024-04-24_11h31.51.230,stockport_simplified,2022.2.4,Win32,61.72839506,661e456ee6de07e70aa9ef7b,6628df8b84caf05859bcb119,,,,,,,,,,,,,,,,,,,,,,,,,,,,,,,,,,,,,,,,,,,,,,,,,,,,,,,,0,25,25,59,1,N,M,D,o2_image,stimuli/out2.png,stimuli/out1.png,stimuli/correct_out2.png,,,,,,,,,,,,,,,,,,,,,,,,,,,,,,,,,,,,,,
,,5718a9c4dd9ef10013df01f0,38,female,2024-04-24_11h31.51.230,stockport_simplified,2022.2.4,Win32,61.72839506,661e456ee6de07e70aa9ef7b,6628df8b84caf05859bcb119,,,,,,,,,,,,,,,,,,,,,,,,,,,,,,,,,,516.599,518.5312,"[5,2,1,8,7,6,4,3]","[[0.3,0.2],[-0.3,0.2]]","[[-0.125,-0.2],[0.125,-0.2]]",-0.117592564,-0.184259273,1,0,0,1.4157,o1_image,518.532,1,519.0325,519.0327,521.0314,0,0,0,0,1,,,,,,,,,,,,,,,,,,,,,,,,,,,,,,,,,,,,,,,,,,,,,,,,,,
,,5718a9c4dd9ef10013df01f0,38,female,2024-04-24_11h31.51.230,stockport_simplified,2022.2.4,Win32,61.72839506,661e456ee6de07e70aa9ef7b,6628df8b84caf05859bcb119,,,,,,,,,,,,,,,,,,,,,,,,,,,,,,,,,,,,,,,,,,,,,,,,,,,,,,,,0,26,26,30,1,A,X,N,o1_image,stimuli/out1.png,stimuli/correct_out1.png,stimuli/out2.png,,,,,,,,,,,,,,,,,,,,,,,,,,,,,,,,,,,,,,
,,5718a9c4dd9ef10013df01f0,38,female,2024-04-24_11h31.51.230,stockport_simplified,2022.2.4,Win32,61.72839506,661e456ee6de07e70aa9ef7b,6628df8b84caf05859bcb119,,,,,,,,,,,,,,,,,,,,,,,,,,,,,,,,,,521.0325,522.9156,"[5,2,1,8,7,6,4,3]","[[0.3,0.2],[-0.3,0.2]]","[[-0.125,-0.2],[0.125,-0.2]]",0.138888889,-0.20648151,1,0,0,1.3663,o2_image,522.9167,1,523.4154,523.4155,525.4155,0,0,0,0,1,,,,,,,,,,,,,,,,,,,,,,,,,,,,,,,,,,,,,,,,,,,,,,,,,,
,,5718a9c4dd9ef10013df01f0,38,female,2024-04-24_11h31.51.230,stockport_simplified,2022.2.4,Win32,61.72839506,661e456ee6de07e70aa9ef7b,6628df8b84caf05859bcb119,,,,,,,,,,,,,,,,,,,,,,,,,,,,,,,,,,,,,,,,,,,,,,,,,,,,,,,,0,27,27,17,1,B,Y,N,o2_image,stimuli/out2.png,stimuli/out1.png,stimuli/correct_out2.png,,,,,,,,,,,,,,,,,,,,,,,,,,,,,,,,,,,,,,
,,5718a9c4dd9ef10013df01f0,38,female,2024-04-24_11h31.51.230,stockport_simplified,2022.2.4,Win32,61.72839506,661e456ee6de07e70aa9ef7b,6628df8b84caf05859bcb119,,,,,,,,,,,,,,,,,,,,,,,,,,,,,,,,,,525.4163,527.3491,"[5,2,1,8,7,6,4,3]","[[-0.3,0.2],[0.3,0.2]]","[[-0.125,-0.2],[0.125,-0.2]]",-0.127777735,-0.194444444,1,0,0,1.416,o1_image,527.3502,1,527.849,527.849,529.8532,0,0,0,0,1,,,,,,,,,,,,,,,,,,,,,,,,,,,,,,,,,,,,,,,,,,,,,,,,,,
,,5718a9c4dd9ef10013df01f0,38,female,2024-04-24_11h31.51.230,stockport_simplified,2022.2.4,Win32,61.72839506,661e456ee6de07e70aa9ef7b,6628df8b84caf05859bcb119,,,,,,,,,,,,,,,,,,,,,,,,,,,,,,,,,,,,,,,,,,,,,,,,,,,,,,,,0,28,28,31,1,A,X,N,o1_image,stimuli/out1.png,stimuli/correct_out1.png,stimuli/out2.png,,,,,,,,,,,,,,,,,,,,,,,,,,,,,,,,,,,,,,
,,5718a9c4dd9ef10013df01f0,38,female,2024-04-24_11h31.51.230,stockport_simplified,2022.2.4,Win32,61.72839506,661e456ee6de07e70aa9ef7b,6628df8b84caf05859bcb119,,,,,,,,,,,,,,,,,,,,,,,,,,,,,,,,,,529.8536,531.6163,"[5,2,1,8,7,6,4,3]","[[0.3,0.2],[-0.3,0.2]]","[[0.125,-0.2],[-0.125,-0.2]]",-0.071296268,-0.192592621,1,0,0,1.2493,o2_image,531.6173,1,532.1165,532.1166,534.1161,0,0,0,0,1,,,,,,,,,,,,,,,,,,,,,,,,,,,,,,,,,,,,,,,,,,,,,,,,,,
,,5718a9c4dd9ef10013df01f0,38,female,2024-04-24_11h31.51.230,stockport_simplified,2022.2.4,Win32,61.72839506,661e456ee6de07e70aa9ef7b,6628df8b84caf05859bcb119,,,,,,,,,,,,,,,,,,,,,,,,,,,,,,,,,,,,,,,,,,,,,,,,,,,,,,,,0,29,29,15,1,B,Y,N,o2_image,stimuli/out2.png,stimuli/out1.png,stimuli/correct_out2.png,,,,,,,,,,,,,,,,,,,,,,,,,,,,,,,,,,,,,,
,,5718a9c4dd9ef10013df01f0,38,female,2024-04-24_11h31.51.230,stockport_simplified,2022.2.4,Win32,61.72839506,661e456ee6de07e70aa9ef7b,6628df8b84caf05859bcb119,,,,,,,,,,,,,,,,,,,,,,,,,,,,,,,,,,534.117,535.9331,"[5,2,1,8,7,6,4,3]","[[-0.3,0.2],[0.3,0.2]]","[[-0.125,-0.2],[0.125,-0.2]]",0.127777806,-0.193518533,1,0,0,1.3001,o2_image,535.9342,1,536.4333,536.4334,538.4332,0,0,0,0,1,,,,,,,,,,,,,,,,,,,,,,,,,,,,,,,,,,,,,,,,,,,,,,,,,,
,,5718a9c4dd9ef10013df01f0,38,female,2024-04-24_11h31.51.230,stockport_simplified,2022.2.4,Win32,61.72839506,661e456ee6de07e70aa9ef7b,6628df8b84caf05859bcb119,,,,,,,,,,,,,,,,,,,,,,,,,,,,,,,,,,,,,,,,,,,,,,,,,,,,,,,,0,30,30,16,1,B,Y,N,o2_image,stimuli/out2.png,stimuli/out1.png,stimuli/correct_out2.png,,,,,,,,,,,,,,,,,,,,,,,,,,,,,,,,,,,,,,
,,5718a9c4dd9ef10013df01f0,38,female,2024-04-24_11h31.51.230,stockport_simplified,2022.2.4,Win32,61.72839506,661e456ee6de07e70aa9ef7b,6628df8b84caf05859bcb119,,,,,,,,,,,,,,,,,,,,,,,,,,,,,,,,,,538.4341,540.6494,"[5,2,1,8,7,6,4,3]","[[-0.3,0.2],[0.3,0.2]]","[[0.125,-0.2],[-0.125,-0.2]]",0.099074116,-0.211111139,1,0,0,1.6985,o1_image,540.651,1,541.1492,541.1493,543.1501,0,0,0,0,1,,,,,,,,,,,,,,,,,,,,,,,,,,,,,,,,,,,,,,,,,,,,,,,,,,
,,5718a9c4dd9ef10013df01f0,38,female,2024-04-24_11h31.51.230,stockport_simplified,2022.2.4,Win32,61.72839506,661e456ee6de07e70aa9ef7b,6628df8b84caf05859bcb119,,,,,,,,,,,,,,,,,,,,,,,,,,,,,,,,,,,,,,,,,,,,,,,,,,,,,,,,0,31,31,39,1,A,Y,N,o1_image,stimuli/out1.png,stimuli/correct_out1.png,stimuli/out2.png,,,,,,,,,,,,,,,,,,,,,,,,,,,,,,,,,,,,,,
,,5718a9c4dd9ef10013df01f0,38,female,2024-04-24_11h31.51.230,stockport_simplified,2022.2.4,Win32,61.72839506,661e456ee6de07e70aa9ef7b,6628df8b84caf05859bcb119,,,,,,,,,,,,,,,,,,,,,,,,,,,,,,,,,,543.1514,545,"[5,2,1,8,7,6,4,3]","[[-0.3,0.2],[0.3,0.2]]","[[-0.125,-0.2],[0.125,-0.2]]",0.114814829,-0.208333333,1,0,0,1.3316,o2_image,545.0011,1,545.5,545.5001,547.5001,0,0,0,0,1,,,,,,,,,,,,,,,,,,,,,,,,,,,,,,,,,,,,,,,,,,,,,,,,,,
,,5718a9c4dd9ef10013df01f0,38,female,2024-04-24_11h31.51.230,stockport_simplified,2022.2.4,Win32,61.72839506,661e456ee6de07e70aa9ef7b,6628df8b84caf05859bcb119,,,,,,,,,,,,,,,,,,,,,,,,,,,,,,,,,,,,,,,,,,,,,,,,,,,,,,,,0,32,32,12,1,B,X,N,o2_image,stimuli/out2.png,stimuli/out1.png,stimuli/correct_out2.png,,,,,,,,,,,,,,,,,,,,,,,,,,,,,,,,,,,,,,
,,5718a9c4dd9ef10013df01f0,38,female,2024-04-24_11h31.51.230,stockport_simplified,2022.2.4,Win32,61.72839506,661e456ee6de07e70aa9ef7b,6628df8b84caf05859bcb119,,,,,,,,,,,,,,,,,,,,,,,,,,,,,,,,,,547.5011,549.6503,"[5,2,1,8,7,6,4,3]","[[0.3,0.2],[-0.3,0.2]]","[[0.125,-0.2],[-0.125,-0.2]]",0.106481481,-0.205555598,1,0,0,1.6327,o1_image,549.6515,1,550.1501,550.1502,552.1499,0,0,0,0,1,,,,,,,,,,,,,,,,,,,,,,,,,,,,,,,,,,,,,,,,,,,,,,,,,,
,,5718a9c4dd9ef10013df01f0,38,female,2024-04-24_11h31.51.230,stockport_simplified,2022.2.4,Win32,61.72839506,661e456ee6de07e70aa9ef7b,6628df8b84caf05859bcb119,,,,,,,,,,,,,,,,,,,,,,,,,,,,,,,,,,,,,,,,,,,,,,,,,,,,,,,,0,33,33,23,1,N,M,C,o1_image,stimuli/out1.png,stimuli/correct_out1.png,stimuli/out2.png,,,,,,,,,,,,,,,,,,,,,,,,,,,,,,,,,,,,,,
,,5718a9c4dd9ef10013df01f0,38,female,2024-04-24_11h31.51.230,stockport_simplified,2022.2.4,Win32,61.72839506,661e456ee6de07e70aa9ef7b,6628df8b84caf05859bcb119,,,,,,,,,,,,,,,,,,,,,,,,,,,,,,,,,,552.1507,554.1167,"[5,2,1,8,7,6,4,3]","[[-0.3,0.2],[0.3,0.2]]","[[0.125,-0.2],[-0.125,-0.2]]",0.104629658,-0.205555598,1,0,0,1.4495,o1_image,554.1182,1,554.6168,554.6168,556.6166,0,0,0,0,1,,,,,,,,,,,,,,,,,,,,,,,,,,,,,,,,,,,,,,,,,,,,,,,,,,
,,5718a9c4dd9ef10013df01f0,38,female,2024-04-24_11h31.51.230,stockport_simplified,2022.2.4,Win32,61.72839506,661e456ee6de07e70aa9ef7b,6628df8b84caf05859bcb119,,,,,,,,,,,,,,,,,,,,,,,,,,,,,,,,,,,,,,,,,,,,,,,,,,,,,,,,0,34,34,52,1,N,M,C,o1_image,stimuli/out1.png,stimuli/correct_out1.png,stimuli/out2.png,,,,,,,,,,,,,,,,,,,,,,,,,,,,,,,,,,,,,,
,,5718a9c4dd9ef10013df01f0,38,female,2024-04-24_11h31.51.230,stockport_simplified,2022.2.4,Win32,61.72839506,661e456ee6de07e70aa9ef7b,6628df8b84caf05859bcb119,,,,,,,,,,,,,,,,,,,,,,,,,,,,,,,,,,556.6169,558.6174,"[5,2,1,8,7,6,4,3]","[[0.3,0.2],[-0.3,0.2]]","[[-0.125,-0.2],[0.125,-0.2]]",-0.134259259,-0.18240745,1,0,0,1.4993,o1_image,558.6189,1,559.1176,559.1176,561.1169,0,0,0,0,1,,,,,,,,,,,,,,,,,,,,,,,,,,,,,,,,,,,,,,,,,,,,,,,,,,
,,5718a9c4dd9ef10013df01f0,38,female,2024-04-24_11h31.51.230,stockport_simplified,2022.2.4,Win32,61.72839506,661e456ee6de07e70aa9ef7b,6628df8b84caf05859bcb119,,,,,,,,,,,,,,,,,,,,,,,,,,,,,,,,,,,,,,,,,,,,,,,,,,,,,,,,0,35,35,34,1,A,X,N,o1_image,stimuli/out1.png,stimuli/correct_out1.png,stimuli/out2.png,,,,,,,,,,,,,,,,,,,,,,,,,,,,,,,,,,,,,,
,,5718a9c4dd9ef10013df01f0,38,female,2024-04-24_11h31.51.230,stockport_simplified,2022.2.4,Win32,61.72839506,661e456ee6de07e70aa9ef7b,6628df8b84caf05859bcb119,,,,,,,,,,,,,,,,,,,,,,,,,,,,,,,,,,561.1177,562.8513,"[5,2,1,8,7,6,4,3]","[[0.3,0.2],[-0.3,0.2]]","[[-0.125,-0.2],[0.125,-0.2]]",0.065740727,-0.176851838,1,0,0,1.2158,o2_image,562.8523,1,563.3514,563.3516,565.3511,0,0,0,0,1,,,,,,,,,,,,,,,,,,,,,,,,,,,,,,,,,,,,,,,,,,,,,,,,,,
,,5718a9c4dd9ef10013df01f0,38,female,2024-04-24_11h31.51.230,stockport_simplified,2022.2.4,Win32,61.72839506,661e456ee6de07e70aa9ef7b,6628df8b84caf05859bcb119,,,,,,,,,,,,,,,,,,,,,,,,,,,,,,,,,,,,,,,,,,,,,,,,,,,,,,,,0,36,36,47,1,B,Y,N,o2_image,stimuli/out2.png,stimuli/out1.png,stimuli/correct_out2.png,,,,,,,,,,,,,,,,,,,,,,,,,,,,,,,,,,,,,,
,,5718a9c4dd9ef10013df01f0,38,female,2024-04-24_11h31.51.230,stockport_simplified,2022.2.4,Win32,61.72839506,661e456ee6de07e70aa9ef7b,6628df8b84caf05859bcb119,,,,,,,,,,,,,,,,,,,,,,,,,,,,,,,,,,565.3522,567.6848,"[5,2,1,8,7,6,4,3]","[[0.3,0.2],[-0.3,0.2]]","[[0.125,-0.2],[-0.125,-0.2]]",-0.116666653,-0.184259273,1,0,0,1.8166,o2_image,567.6858,1,568.1847,568.1847,570.1842,0,0,0,0,1,,,,,,,,,,,,,,,,,,,,,,,,,,,,,,,,,,,,,,,,,,,,,,,,,,
,,5718a9c4dd9ef10013df01f0,38,female,2024-04-24_11h31.51.230,stockport_simplified,2022.2.4,Win32,61.72839506,661e456ee6de07e70aa9ef7b,6628df8b84caf05859bcb119,,,,,,,,,,,,,,,,,,,,,,,,,,,,,,,,,,,,,,,,,,,,,,,,,,,,,,,,0,37,37,10,1,B,X,N,o2_image,stimuli/out2.png,stimuli/out1.png,stimuli/correct_out2.png,,,,,,,,,,,,,,,,,,,,,,,,,,,,,,,,,,,,,,
,,5718a9c4dd9ef10013df01f0,38,female,2024-04-24_11h31.51.230,stockport_simplified,2022.2.4,Win32,61.72839506,661e456ee6de07e70aa9ef7b,6628df8b84caf05859bcb119,,,,,,,,,,,,,,,,,,,,,,,,,,,,,,,,,,570.1854,572.0521,"[5,2,1,8,7,6,4,3]","[[0.3,0.2],[-0.3,0.2]]","[[-0.125,-0.2],[0.125,-0.2]]",0.089814857,-0.180555556,1,0,0,1.3499,o2_image,572.053,1,572.5515,572.5516,574.5518,0,0,0,0,1,,,,,,,,,,,,,,,,,,,,,,,,,,,,,,,,,,,,,,,,,,,,,,,,,,
,,5718a9c4dd9ef10013df01f0,38,female,2024-04-24_11h31.51.230,stockport_simplified,2022.2.4,Win32,61.72839506,661e456ee6de07e70aa9ef7b,6628df8b84caf05859bcb119,,,,,,,,,,,,,,,,,,,,,,,,,,,,,,,,,,,,,,,,,,,,,,,,,,,,,,,,0,38,38,18,1,B,Y,N,o2_image,stimuli/out2.png,stimuli/out1.png,stimuli/correct_out2.png,,,,,,,,,,,,,,,,,,,,,,,,,,,,,,,,,,,,,,
,,5718a9c4dd9ef10013df01f0,38,female,2024-04-24_11h31.51.230,stockport_simplified,2022.2.4,Win32,61.72839506,661e456ee6de07e70aa9ef7b,6628df8b84caf05859bcb119,,,,,,,,,,,,,,,,,,,,,,,,,,,,,,,,,,574.5525,576.0018,"[5,2,1,8,7,6,4,3]","[[0.3,0.2],[-0.3,0.2]]","[[-0.125,-0.2],[0.125,-0.2]]",0.089814857,-0.180555556,1,0,0,0.9333,o2_image,576.0029,1,576.502,576.5022,578.5062,0,0,0,0,1,,,,,,,,,,,,,,,,,,,,,,,,,,,,,,,,,,,,,,,,,,,,,,,,,,
,,5718a9c4dd9ef10013df01f0,38,female,2024-04-24_11h31.51.230,stockport_simplified,2022.2.4,Win32,61.72839506,661e456ee6de07e70aa9ef7b,6628df8b84caf05859bcb119,,,,,,,,,,,,,,,,,,,,,,,,,,,,,,,,,,,,,,,,,,,,,,,,,,,,,,,,0,39,39,19,1,B,Y,N,o2_image,stimuli/out2.png,stimuli/out1.png,stimuli/correct_out2.png,,,,,,,,,,,,,,,,,,,,,,,,,,,,,,,,,,,,,,
,,5718a9c4dd9ef10013df01f0,38,female,2024-04-24_11h31.51.230,stockport_simplified,2022.2.4,Win32,61.72839506,661e456ee6de07e70aa9ef7b,6628df8b84caf05859bcb119,,,,,,,,,,,,,,,,,,,,,,,,,,,,,,,,,,578.5067,581.3023,"[5,2,1,8,7,6,4,3]","[[-0.3,0.2],[0.3,0.2]]","[[-0.125,-0.2],[0.125,-0.2]]",-0.132407365,-0.225000028,1,0,0,2.2833,o1_image,581.3091,1,581.8021,581.8021,583.8025,0,0,0,0,1,,,,,,,,,,,,,,,,,,,,,,,,,,,,,,,,,,,,,,,,,,,,,,,,,,
,,5718a9c4dd9ef10013df01f0,38,female,2024-04-24_11h31.51.230,stockport_simplified,2022.2.4,Win32,61.72839506,661e456ee6de07e70aa9ef7b,6628df8b84caf05859bcb119,,,,,,,,,,,,,,,,,,,,,,,,,,,,,,,,,,,,,,,,,,,,,,,,,,,,,,,,0,40,40,2,1,A,X,N,o1_image,stimuli/out1.png,stimuli/correct_out1.png,stimuli/out2.png,,,,,,,,,,,,,,,,,,,,,,,,,,,,,,,,,,,,,,
,,5718a9c4dd9ef10013df01f0,38,female,2024-04-24_11h31.51.230,stockport_simplified,2022.2.4,Win32,61.72839506,661e456ee6de07e70aa9ef7b,6628df8b84caf05859bcb119,,,,,,,,,,,,,,,,,,,,,,,,,,,,,,,,,,583.8033,585.6022,"[5,2,1,8,7,6,4,3]","[[-0.3,0.2],[0.3,0.2]]","[[-0.125,-0.2],[0.125,-0.2]]",0.092592593,-0.199999986,1,0,0,1.2829,o2_image,585.6034,1,586.1027,586.1028,588.1028,0,0,0,0,1,,,,,,,,,,,,,,,,,,,,,,,,,,,,,,,,,,,,,,,,,,,,,,,,,,
,,5718a9c4dd9ef10013df01f0,38,female,2024-04-24_11h31.51.230,stockport_simplified,2022.2.4,Win32,61.72839506,661e456ee6de07e70aa9ef7b,6628df8b84caf05859bcb119,,,,,,,,,,,,,,,,,,,,,,,,,,,,,,,,,,,,,,,,,,,,,,,,,,,,,,,,0,41,41,57,1,N,M,D,o2_image,stimuli/out2.png,stimuli/out1.png,stimuli/correct_out2.png,,,,,,,,,,,,,,,,,,,,,,,,,,,,,,,,,,,,,,
,,5718a9c4dd9ef10013df01f0,38,female,2024-04-24_11h31.51.230,stockport_simplified,2022.2.4,Win32,61.72839506,661e456ee6de07e70aa9ef7b,6628df8b84caf05859bcb119,,,,,,,,,,,,,,,,,,,,,,,,,,,,,,,,,,588.1035,589.8191,"[5,2,1,8,7,6,4,3]","[[0.3,0.2],[-0.3,0.2]]","[[0.125,-0.2],[-0.125,-0.2]]",-0.121296282,-0.200925968,1,0,0,1.1997,o2_image,589.8204,1,590.3192,590.3193,592.3191,0,0,0,0,1,,,,,,,,,,,,,,,,,,,,,,,,,,,,,,,,,,,,,,,,,,,,,,,,,,
,,5718a9c4dd9ef10013df01f0,38,female,2024-04-24_11h31.51.230,stockport_simplified,2022.2.4,Win32,61.72839506,661e456ee6de07e70aa9ef7b,6628df8b84caf05859bcb119,,,,,,,,,,,,,,,,,,,,,,,,,,,,,,,,,,,,,,,,,,,,,,,,,,,,,,,,0,42,42,42,1,B,X,N,o2_image,stimuli/out2.png,stimuli/out1.png,stimuli/correct_out2.png,,,,,,,,,,,,,,,,,,,,,,,,,,,,,,,,,,,,,,
,,5718a9c4dd9ef10013df01f0,38,female,2024-04-24_11h31.51.230,stockport_simplified,2022.2.4,Win32,61.72839506,661e456ee6de07e70aa9ef7b,6628df8b84caf05859bcb119,,,,,,,,,,,,,,,,,,,,,,,,,,,,,,,,,,592.3203,594.2194,"[5,2,1,8,7,6,4,3]","[[-0.3,0.2],[0.3,0.2]]","[[0.125,-0.2],[-0.125,-0.2]]",0.117592635,-0.18240745,1,0,0,1.3951,o1_image,594.2207,1,594.7198,594.7198,596.7193,0,0,0,0,1,,,,,,,,,,,,,,,,,,,,,,,,,,,,,,,,,,,,,,,,,,,,,,,,,,
,,5718a9c4dd9ef10013df01f0,38,female,2024-04-24_11h31.51.230,stockport_simplified,2022.2.4,Win32,61.72839506,661e456ee6de07e70aa9ef7b,6628df8b84caf05859bcb119,,,,,,,,,,,,,,,,,,,,,,,,,,,,,,,,,,,,,,,,,,,,,,,,,,,,,,,,0,43,43,3,1,A,X,N,o1_image,stimuli/out1.png,stimuli/correct_out1.png,stimuli/out2.png,,,,,,,,,,,,,,,,,,,,,,,,,,,,,,,,,,,,,,
,,5718a9c4dd9ef10013df01f0,38,female,2024-04-24_11h31.51.230,stockport_simplified,2022.2.4,Win32,61.72839506,661e456ee6de07e70aa9ef7b,6628df8b84caf05859bcb119,,,,,,,,,,,,,,,,,,,,,,,,,,,,,,,,,,596.7199,598.7534,"[5,2,1,8,7,6,4,3]","[[-0.3,0.2],[0.3,0.2]]","[[0.125,-0.2],[-0.125,-0.2]]",-0.080555527,-0.200925968,1,0,0,1.5159,o2_image,598.7543,1,599.2536,599.2537,601.2531,0,0,0,0,1,,,,,,,,,,,,,,,,,,,,,,,,,,,,,,,,,,,,,,,,,,,,,,,,,,
,,5718a9c4dd9ef10013df01f0,38,female,2024-04-24_11h31.51.230,stockport_simplified,2022.2.4,Win32,61.72839506,661e456ee6de07e70aa9ef7b,6628df8b84caf05859bcb119,,,,,,,,,,,,,,,,,,,,,,,,,,,,,,,,,,,,,,,,,,,,,,,,,,,,,,,,0,44,44,46,1,B,Y,N,o2_image,stimuli/out2.png,stimuli/out1.png,stimuli/correct_out2.png,,,,,,,,,,,,,,,,,,,,,,,,,,,,,,,,,,,,,,
,,5718a9c4dd9ef10013df01f0,38,female,2024-04-24_11h31.51.230,stockport_simplified,2022.2.4,Win32,61.72839506,661e456ee6de07e70aa9ef7b,6628df8b84caf05859bcb119,,,,,,,,,,,,,,,,,,,,,,,,,,,,,,,,,,601.2539,603.0534,"[5,2,1,8,7,6,4,3]","[[-0.3,0.2],[0.3,0.2]]","[[0.125,-0.2],[-0.125,-0.2]]",0.133333347,-0.199074074,1,0,0,1.2827,o1_image,603.0544,1,603.5536,603.5538,605.554,0,0,0,0,1,,,,,,,,,,,,,,,,,,,,,,,,,,,,,,,,,,,,,,,,,,,,,,,,,,
,,5718a9c4dd9ef10013df01f0,38,female,2024-04-24_11h31.51.230,stockport_simplified,2022.2.4,Win32,61.72839506,661e456ee6de07e70aa9ef7b,6628df8b84caf05859bcb119,,,,,,,,,,,,,,,,,,,,,,,,,,,,,,,,,,,,,,,,,,,,,,,,,,,,,,,,0,45,45,1,1,A,X,N,o1_image,stimuli/out1.png,stimuli/correct_out1.png,stimuli/out2.png,,,,,,,,,,,,,,,,,,,,,,,,,,,,,,,,,,,,,,
,,5718a9c4dd9ef10013df01f0,38,female,2024-04-24_11h31.51.230,stockport_simplified,2022.2.4,Win32,61.72839506,661e456ee6de07e70aa9ef7b,6628df8b84caf05859bcb119,,,,,,,,,,,,,,,,,,,,,,,,,,,,,,,,,,605.5549,607.7411,"[5,2,1,8,7,6,4,3]","[[0.3,0.2],[-0.3,0.2]]","[[-0.125,-0.2],[0.125,-0.2]]",-0.130555541,-0.189814815,1,0,0,1.6699,o1_image,607.7414,1,608.2376,608.2377,610.2373,0,0,0,0,1,,,,,,,,,,,,,,,,,,,,,,,,,,,,,,,,,,,,,,,,,,,,,,,,,,
,,5718a9c4dd9ef10013df01f0,38,female,2024-04-24_11h31.51.230,stockport_simplified,2022.2.4,Win32,61.72839506,661e456ee6de07e70aa9ef7b,6628df8b84caf05859bcb119,,,,,,,,,,,,,,,,,,,,,,,,,,,,,,,,,,,,,,,,,,,,,,,,,,,,,,,,0,46,46,51,1,N,M,C,o1_image,stimuli/out1.png,stimuli/correct_out1.png,stimuli/out2.png,,,,,,,,,,,,,,,,,,,,,,,,,,,,,,,,,,,,,,
,,5718a9c4dd9ef10013df01f0,38,female,2024-04-24_11h31.51.230,stockport_simplified,2022.2.4,Win32,61.72839506,661e456ee6de07e70aa9ef7b,6628df8b84caf05859bcb119,,,,,,,,,,,,,,,,,,,,,,,,,,,,,,,,,,610.238,612.2373,"[5,2,1,8,7,6,4,3]","[[-0.3,0.2],[0.3,0.2]]","[[-0.125,-0.2],[0.125,-0.2]]",-0.154629601,-0.191666709,1,0,0,1.482,o1_image,612.2387,1,612.7375,612.7376,614.7376,0,0,0,0,1,,,,,,,,,,,,,,,,,,,,,,,,,,,,,,,,,,,,,,,,,,,,,,,,,,
,,5718a9c4dd9ef10013df01f0,38,female,2024-04-24_11h31.51.230,stockport_simplified,2022.2.4,Win32,61.72839506,661e456ee6de07e70aa9ef7b,6628df8b84caf05859bcb119,,,,,,,,,,,,,,,,,,,,,,,,,,,,,,,,,,,,,,,,,,,,,,,,,,,,,,,,0,47,47,7,1,A,Y,N,o1_image,stimuli/out1.png,stimuli/correct_out1.png,stimuli/out2.png,,,,,,,,,,,,,,,,,,,,,,,,,,,,,,,,,,,,,,
,,5718a9c4dd9ef10013df01f0,38,female,2024-04-24_11h31.51.230,stockport_simplified,2022.2.4,Win32,61.72839506,661e456ee6de07e70aa9ef7b,6628df8b84caf05859bcb119,,,,,,,,,,,,,,,,,,,,,,,,,,,,,,,,,,614.7385,616.6728,"[5,2,1,8,7,6,4,3]","[[0.3,0.2],[-0.3,0.2]]","[[0.125,-0.2],[-0.125,-0.2]]",-0.115740741,-0.191666709,1,0,0,1.4176,o2_image,616.6732,1,617.1708,617.1709,619.171,0,0,0,0,1,,,,,,,,,,,,,,,,,,,,,,,,,,,,,,,,,,,,,,,,,,,,,,,,,,
,,5718a9c4dd9ef10013df01f0,38,female,2024-04-24_11h31.51.230,stockport_simplified,2022.2.4,Win32,61.72839506,661e456ee6de07e70aa9ef7b,6628df8b84caf05859bcb119,,,,,,,,,,,,,,,,,,,,,,,,,,,,,,,,,,,,,,,,,,,,,,,,,,,,,,,,0,48,48,55,1,N,M,D,o2_image,stimuli/out2.png,stimuli/out1.png,stimuli/correct_out2.png,,,,,,,,,,,,,,,,,,,,,,,,,,,,,,,,,,,,,,
,,5718a9c4dd9ef10013df01f0,38,female,2024-04-24_11h31.51.230,stockport_simplified,2022.2.4,Win32,61.72839506,661e456ee6de07e70aa9ef7b,6628df8b84caf05859bcb119,,,,,,,,,,,,,,,,,,,,,,,,,,,,,,,,,,619.1718,620.5211,"[5,2,1,8,7,6,4,3]","[[0.3,0.2],[-0.3,0.2]]","[[0.125,-0.2],[-0.125,-0.2]]",-0.115740741,-0.191666709,1,0,0,0.8334,o2_image,620.5223,1,621.0211,621.0211,623.0216,0,0,0,0,1,,,,,,,,,,,,,,,,,,,,,,,,,,,,,,,,,,,,,,,,,,,,,,,,,,
,,5718a9c4dd9ef10013df01f0,38,female,2024-04-24_11h31.51.230,stockport_simplified,2022.2.4,Win32,61.72839506,661e456ee6de07e70aa9ef7b,6628df8b84caf05859bcb119,,,,,,,,,,,,,,,,,,,,,,,,,,,,,,,,,,,,,,,,,,,,,,,,,,,,,,,,0,49,49,27,1,N,M,D,o2_image,stimuli/out2.png,stimuli/out1.png,stimuli/correct_out2.png,,,,,,,,,,,,,,,,,,,,,,,,,,,,,,,,,,,,,,
,,5718a9c4dd9ef10013df01f0,38,female,2024-04-24_11h31.51.230,stockport_simplified,2022.2.4,Win32,61.72839506,661e456ee6de07e70aa9ef7b,6628df8b84caf05859bcb119,,,,,,,,,,,,,,,,,,,,,,,,,,,,,,,,,,623.0225,624.3377,"[5,2,1,8,7,6,4,3]","[[-0.3,0.2],[0.3,0.2]]","[[0.125,-0.2],[-0.125,-0.2]]",-0.115740741,-0.191666709,1,0,0,0.8,o2_image,624.339,1,624.838,624.8381,626.8377,0,0,0,0,1,,,,,,,,,,,,,,,,,,,,,,,,,,,,,,,,,,,,,,,,,,,,,,,,,,
,,5718a9c4dd9ef10013df01f0,38,female,2024-04-24_11h31.51.230,stockport_simplified,2022.2.4,Win32,61.72839506,661e456ee6de07e70aa9ef7b,6628df8b84caf05859bcb119,,,,,,,,,,,,,,,,,,,,,,,,,,,,,,,,,,,,,,,,,,,,,,,,,,,,,,,,0,50,50,56,1,N,M,D,o2_image,stimuli/out2.png,stimuli/out1.png,stimuli/correct_out2.png,,,,,,,,,,,,,,,,,,,,,,,,,,,,,,,,,,,,,,
,,5718a9c4dd9ef10013df01f0,38,female,2024-04-24_11h31.51.230,stockport_simplified,2022.2.4,Win32,61.72839506,661e456ee6de07e70aa9ef7b,6628df8b84caf05859bcb119,,,,,,,,,,,,,,,,,,,,,,,,,,,,,,,,,,626.8384,628.2549,"[5,2,1,8,7,6,4,3]","[[-0.3,0.2],[0.3,0.2]]","[[0.125,-0.2],[-0.125,-0.2]]",-0.115740741,-0.191666709,1,0,0,0.9129,o2_image,628.2561,1,628.755,628.7551,630.756,0,0,0,0,1,,,,,,,,,,,,,,,,,,,,,,,,,,,,,,,,,,,,,,,,,,,,,,,,,,
,,5718a9c4dd9ef10013df01f0,38,female,2024-04-24_11h31.51.230,stockport_simplified,2022.2.4,Win32,61.72839506,661e456ee6de07e70aa9ef7b,6628df8b84caf05859bcb119,,,,,,,,,,,,,,,,,,,,,,,,,,,,,,,,,,,,,,,,,,,,,,,,,,,,,,,,0,51,51,25,1,N,M,D,o2_image,stimuli/out2.png,stimuli/out1.png,stimuli/correct_out2.png,,,,,,,,,,,,,,,,,,,,,,,,,,,,,,,,,,,,,,
,,5718a9c4dd9ef10013df01f0,38,female,2024-04-24_11h31.51.230,stockport_simplified,2022.2.4,Win32,61.72839506,661e456ee6de07e70aa9ef7b,6628df8b84caf05859bcb119,,,,,,,,,,,,,,,,,,,,,,,,,,,,,,,,,,630.757,632.1217,"[5,2,1,8,7,6,4,3]","[[-0.3,0.2],[0.3,0.2]]","[[0.125,-0.2],[-0.125,-0.2]]",-0.115740741,-0.191666709,1,0,0,0.8507,o2_image,632.1227,1,632.6218,632.6219,634.6259,0,0,0,0,1,,,,,,,,,,,,,,,,,,,,,,,,,,,,,,,,,,,,,,,,,,,,,,,,,,
,,5718a9c4dd9ef10013df01f0,38,female,2024-04-24_11h31.51.230,stockport_simplified,2022.2.4,Win32,61.72839506,661e456ee6de07e70aa9ef7b,6628df8b84caf05859bcb119,,,,,,,,,,,,,,,,,,,,,,,,,,,,,,,,,,,,,,,,,,,,,,,,,,,,,,,,0,52,52,58,1,N,M,D,o2_image,stimuli/out2.png,stimuli/out1.png,stimuli/correct_out2.png,,,,,,,,,,,,,,,,,,,,,,,,,,,,,,,,,,,,,,
,,5718a9c4dd9ef10013df01f0,38,female,2024-04-24_11h31.51.230,stockport_simplified,2022.2.4,Win32,61.72839506,661e456ee6de07e70aa9ef7b,6628df8b84caf05859bcb119,,,,,,,,,,,,,,,,,,,,,,,,,,,,,,,,,,634.6262,636.5384,"[5,2,1,8,7,6,4,3]","[[-0.3,0.2],[0.3,0.2]]","[[0.125,-0.2],[-0.125,-0.2]]",0.100000028,-0.187037079,1,0,0,1.3987,o1_image,636.5398,1,637.0387,637.0388,639.0386,0,0,0,0,1,,,,,,,,,,,,,,,,,,,,,,,,,,,,,,,,,,,,,,,,,,,,,,,,,,
,,5718a9c4dd9ef10013df01f0,38,female,2024-04-24_11h31.51.230,stockport_simplified,2022.2.4,Win32,61.72839506,661e456ee6de07e70aa9ef7b,6628df8b84caf05859bcb119,,,,,,,,,,,,,,,,,,,,,,,,,,,,,,,,,,,,,,,,,,,,,,,,,,,,,,,,0,53,53,9,1,A,Y,N,o1_image,stimuli/out1.png,stimuli/correct_out1.png,stimuli/out2.png,,,,,,,,,,,,,,,,,,,,,,,,,,,,,,,,,,,,,,
,,5718a9c4dd9ef10013df01f0,38,female,2024-04-24_11h31.51.230,stockport_simplified,2022.2.4,Win32,61.72839506,661e456ee6de07e70aa9ef7b,6628df8b84caf05859bcb119,,,,,,,,,,,,,,,,,,,,,,,,,,,,,,,,,,639.0398,640.6389,"[5,2,1,8,7,6,4,3]","[[-0.3,0.2],[0.3,0.2]]","[[0.125,-0.2],[-0.125,-0.2]]",0.100000028,-0.187037079,1,0,0,1.0819,o1_image,640.6398,1,641.1388,641.1389,643.1427,0,0,0,0,1,,,,,,,,,,,,,,,,,,,,,,,,,,,,,,,,,,,,,,,,,,,,,,,,,,
,,5718a9c4dd9ef10013df01f0,38,female,2024-04-24_11h31.51.230,stockport_simplified,2022.2.4,Win32,61.72839506,661e456ee6de07e70aa9ef7b,6628df8b84caf05859bcb119,,,,,,,,,,,,,,,,,,,,,,,,,,,,,,,,,,,,,,,,,,,,,,,,,,,,,,,,0,54,54,21,1,N,M,C,o1_image,stimuli/out1.png,stimuli/correct_out1.png,stimuli/out2.png,,,,,,,,,,,,,,,,,,,,,,,,,,,,,,,,,,,,,,
,,5718a9c4dd9ef10013df01f0,38,female,2024-04-24_11h31.51.230,stockport_simplified,2022.2.4,Win32,61.72839506,661e456ee6de07e70aa9ef7b,6628df8b84caf05859bcb119,,,,,,,,,,,,,,,,,,,,,,,,,,,,,,,,,,643.143,644.8224,"[5,2,1,8,7,6,4,3]","[[-0.3,0.2],[0.3,0.2]]","[[0.125,-0.2],[-0.125,-0.2]]",0.100000028,-0.187037079,1,0,0,1.1656,o1_image,644.8235,1,645.3226,645.3226,647.3228,0,0,0,0,1,,,,,,,,,,,,,,,,,,,,,,,,,,,,,,,,,,,,,,,,,,,,,,,,,,
,,5718a9c4dd9ef10013df01f0,38,female,2024-04-24_11h31.51.230,stockport_simplified,2022.2.4,Win32,61.72839506,661e456ee6de07e70aa9ef7b,6628df8b84caf05859bcb119,,,,,,,,,,,,,,,,,,,,,,,,,,,,,,,,,,,,,,,,,,,,,,,,,,,,,,,,0,55,55,35,1,A,Y,N,o1_image,stimuli/out1.png,stimuli/correct_out1.png,stimuli/out2.png,,,,,,,,,,,,,,,,,,,,,,,,,,,,,,,,,,,,,,
,,5718a9c4dd9ef10013df01f0,38,female,2024-04-24_11h31.51.230,stockport_simplified,2022.2.4,Win32,61.72839506,661e456ee6de07e70aa9ef7b,6628df8b84caf05859bcb119,,,,,,,,,,,,,,,,,,,,,,,,,,,,,,,,,,647.3237,649.056,"[5,2,1,8,7,6,4,3]","[[-0.3,0.2],[0.3,0.2]]","[[0.125,-0.2],[-0.125,-0.2]]",-0.089814787,-0.213888875,1,0,0,1.2164,o2_image,649.057,1,649.5564,649.5564,651.5562,0,0,0,0,1,,,,,,,,,,,,,,,,,,,,,,,,,,,,,,,,,,,,,,,,,,,,,,,,,,
,,5718a9c4dd9ef10013df01f0,38,female,2024-04-24_11h31.51.230,stockport_simplified,2022.2.4,Win32,61.72839506,661e456ee6de07e70aa9ef7b,6628df8b84caf05859bcb119,,,,,,,,,,,,,,,,,,,,,,,,,,,,,,,,,,,,,,,,,,,,,,,,,,,,,,,,0,56,56,48,1,B,Y,N,o2_image,stimuli/out2.png,stimuli/out1.png,stimuli/correct_out2.png,,,,,,,,,,,,,,,,,,,,,,,,,,,,,,,,,,,,,,
,,5718a9c4dd9ef10013df01f0,38,female,2024-04-24_11h31.51.230,stockport_simplified,2022.2.4,Win32,61.72839506,661e456ee6de07e70aa9ef7b,6628df8b84caf05859bcb119,,,,,,,,,,,,,,,,,,,,,,,,,,,,,,,,,,651.5571,653.3779,"[5,2,1,8,7,6,4,3]","[[-0.3,0.2],[0.3,0.2]]","[[-0.125,-0.2],[0.125,-0.2]]",0.109259288,-0.202777792,1,0,0,1.3044,o2_image,653.3784,1,653.8729,653.873,655.8733,0,0,0,0,1,,,,,,,,,,,,,,,,,,,,,,,,,,,,,,,,,,,,,,,,,,,,,,,,,,
,,5718a9c4dd9ef10013df01f0,38,female,2024-04-24_11h31.51.230,stockport_simplified,2022.2.4,Win32,61.72839506,661e456ee6de07e70aa9ef7b,6628df8b84caf05859bcb119,,,,,,,,,,,,,,,,,,,,,,,,,,,,,,,,,,,,,,,,,,,,,,,,,,,,,,,,0,57,57,14,1,B,X,N,o2_image,stimuli/out2.png,stimuli/out1.png,stimuli/correct_out2.png,,,,,,,,,,,,,,,,,,,,,,,,,,,,,,,,,,,,,,
,,5718a9c4dd9ef10013df01f0,38,female,2024-04-24_11h31.51.230,stockport_simplified,2022.2.4,Win32,61.72839506,661e456ee6de07e70aa9ef7b,6628df8b84caf05859bcb119,,,,,,,,,,,,,,,,,,,,,,,,,,,,,,,,,,655.8741,657.8393,"[5,2,1,8,7,6,4,3]","[[-0.3,0.2],[0.3,0.2]]","[[0.125,-0.2],[-0.125,-0.2]]",0.12962963,-0.200925968,1,0,0,1.449,o1_image,657.8405,1,658.3397,658.3398,660.3401,0,0,0,0,1,,,,,,,,,,,,,,,,,,,,,,,,,,,,,,,,,,,,,,,,,,,,,,,,,,
,,5718a9c4dd9ef10013df01f0,38,female,2024-04-24_11h31.51.230,stockport_simplified,2022.2.4,Win32,61.72839506,661e456ee6de07e70aa9ef7b,6628df8b84caf05859bcb119,,,,,,,,,,,,,,,,,,,,,,,,,,,,,,,,,,,,,,,,,,,,,,,,,,,,,,,,0,58,58,54,1,N,M,C,o1_image,stimuli/out1.png,stimuli/correct_out1.png,stimuli/out2.png,,,,,,,,,,,,,,,,,,,,,,,,,,,,,,,,,,,,,,
,,5718a9c4dd9ef10013df01f0,38,female,2024-04-24_11h31.51.230,stockport_simplified,2022.2.4,Win32,61.72839506,661e456ee6de07e70aa9ef7b,6628df8b84caf05859bcb119,,,,,,,,,,,,,,,,,,,,,,,,,,,,,,,,,,660.341,662.2567,"[5,2,1,8,7,6,4,3]","[[-0.3,0.2],[0.3,0.2]]","[[-0.125,-0.2],[0.125,-0.2]]",0.106481481,-0.196296339,1,0,0,1.3996,o2_image,662.2579,1,662.7571,662.7571,664.7571,0,0,0,0,1,,,,,,,,,,,,,,,,,,,,,,,,,,,,,,,,,,,,,,,,,,,,,,,,,,
,,5718a9c4dd9ef10013df01f0,38,female,2024-04-24_11h31.51.230,stockport_simplified,2022.2.4,Win32,61.72839506,661e456ee6de07e70aa9ef7b,6628df8b84caf05859bcb119,,,,,,,,,,,,,,,,,,,,,,,,,,,,,,,,,,,,,,,,,,,,,,,,,,,,,,,,0,59,59,45,1,B,Y,N,o2_image,stimuli/out2.png,stimuli/out1.png,stimuli/correct_out2.png,,,,,,,,,,,,,,,,,,,,,,,,,,,,,,,,,,,,,,
,,5718a9c4dd9ef10013df01f0,38,female,2024-04-24_11h31.51.230,stockport_simplified,2022.2.4,Win32,61.72839506,661e456ee6de07e70aa9ef7b,6628df8b84caf05859bcb119,,,,,,,,,,,,,,,,,,,,,,,,,,,,,,,,,,664.7581,666.9904,"[5,2,1,8,7,6,4,3]","[[0.3,0.2],[-0.3,0.2]]","[[0.125,-0.2],[-0.125,-0.2]]",0.09629631,-0.19722225,1,0,0,1.729,o1_image,666.9915,1,667.4903,667.4903,669.4906,0,0,0,0,1,,,,,,,,,,,,,,,,,,,,,,,,,,,,,,,,,,,,,,,,,,,,,,,,,,
,,5718a9c4dd9ef10013df01f0,38,female,2024-04-24_11h31.51.230,stockport_simplified,2022.2.4,Win32,61.72839506,661e456ee6de07e70aa9ef7b,6628df8b84caf05859bcb119,,,,,,,,,,,,,,,,,,,,,,,,,,,,,,,,,,,,,,,,,,,,,,,,,,,,,,,,1,0,60,22,1,N,M,C,o1_image,stimuli/out1.png,stimuli/correct_out1.png,stimuli/out2.png,,,,,,,,,,,,,,,,,,,,,,,,,,,,,,,,,,,,,,
,,5718a9c4dd9ef10013df01f0,38,female,2024-04-24_11h31.51.230,stockport_simplified,2022.2.4,Win32,61.72839506,661e456ee6de07e70aa9ef7b,6628df8b84caf05859bcb119,,,,,,,,,,,,,,,,,,,,,,,,,,,,,,,,,,669.4915,671.7907,"[5,2,1,8,7,6,4,3]","[[-0.3,0.2],[0.3,0.2]]","[[0.125,-0.2],[-0.125,-0.2]]",-0.112962935,-0.204629616,1,0,0,1.779,o2_image,671.7917,1,672.2907,672.2908,674.2909,0,0,0,0,1,,,,,,,,,,,,,,,,,,,,,,,,,,,,,,,,,,,,,,,,,,,,,,,,,,
,,5718a9c4dd9ef10013df01f0,38,female,2024-04-24_11h31.51.230,stockport_simplified,2022.2.4,Win32,61.72839506,661e456ee6de07e70aa9ef7b,6628df8b84caf05859bcb119,,,,,,,,,,,,,,,,,,,,,,,,,,,,,,,,,,,,,,,,,,,,,,,,,,,,,,,,1,1,61,47,1,B,Y,N,o2_image,stimuli/out2.png,stimuli/out1.png,stimuli/correct_out2.png,,,,,,,,,,,,,,,,,,,,,,,,,,,,,,,,,,,,,,
,,5718a9c4dd9ef10013df01f0,38,female,2024-04-24_11h31.51.230,stockport_simplified,2022.2.4,Win32,61.72839506,661e456ee6de07e70aa9ef7b,6628df8b84caf05859bcb119,,,,,,,,,,,,,,,,,,,,,,,,,,,,,,,,,,674.2918,675.9575,"[5,2,1,8,7,6,4,3]","[[0.3,0.2],[-0.3,0.2]]","[[0.125,-0.2],[-0.125,-0.2]]",0.119444459,-0.19722225,1,0,0,1.149,o1_image,675.9586,1,676.4575,676.4576,678.4576,0,0,0,0,1,,,,,,,,,,,,,,,,,,,,,,,,,,,,,,,,,,,,,,,,,,,,,,,,,,
,,5718a9c4dd9ef10013df01f0,38,female,2024-04-24_11h31.51.230,stockport_simplified,2022.2.4,Win32,61.72839506,661e456ee6de07e70aa9ef7b,6628df8b84caf05859bcb119,,,,,,,,,,,,,,,,,,,,,,,,,,,,,,,,,,,,,,,,,,,,,,,,,,,,,,,,1,2,62,37,1,A,Y,N,o1_image,stimuli/out1.png,stimuli/correct_out1.png,stimuli/out2.png,,,,,,,,,,,,,,,,,,,,,,,,,,,,,,,,,,,,,,
,,5718a9c4dd9ef10013df01f0,38,female,2024-04-24_11h31.51.230,stockport_simplified,2022.2.4,Win32,61.72839506,661e456ee6de07e70aa9ef7b,6628df8b84caf05859bcb119,,,,,,,,,,,,,,,,,,,,,,,,,,,,,,,,,,678.4585,680.3574,"[5,2,1,8,7,6,4,3]","[[0.3,0.2],[-0.3,0.2]]","[[0.125,-0.2],[-0.125,-0.2]]",0.085185228,-0.20185188,1,0,0,1.3821,o1_image,680.3584,1,680.8579,680.858,682.8575,0,0,0,0,1,,,,,,,,,,,,,,,,,,,,,,,,,,,,,,,,,,,,,,,,,,,,,,,,,,
,,5718a9c4dd9ef10013df01f0,38,female,2024-04-24_11h31.51.230,stockport_simplified,2022.2.4,Win32,61.72839506,661e456ee6de07e70aa9ef7b,6628df8b84caf05859bcb119,,,,,,,,,,,,,,,,,,,,,,,,,,,,,,,,,,,,,,,,,,,,,,,,,,,,,,,,1,3,63,54,1,N,M,C,o1_image,stimuli/out1.png,stimuli/correct_out1.png,stimuli/out2.png,,,,,,,,,,,,,,,,,,,,,,,,,,,,,,,,,,,,,,
,,5718a9c4dd9ef10013df01f0,38,female,2024-04-24_11h31.51.230,stockport_simplified,2022.2.4,Win32,61.72839506,661e456ee6de07e70aa9ef7b,6628df8b84caf05859bcb119,,,,,,,,,,,,,,,,,,,,,,,,,,,,,,,,,,682.8581,684.2577,"[5,2,1,8,7,6,4,3]","[[0.3,0.2],[-0.3,0.2]]","[[0.125,-0.2],[-0.125,-0.2]]",0.085185228,-0.20185188,1,0,0,0.8828,o1_image,684.2586,1,684.7577,684.7578,686.7574,0,0,0,0,1,,,,,,,,,,,,,,,,,,,,,,,,,,,,,,,,,,,,,,,,,,,,,,,,,,
,,5718a9c4dd9ef10013df01f0,38,female,2024-04-24_11h31.51.230,stockport_simplified,2022.2.4,Win32,61.72839506,661e456ee6de07e70aa9ef7b,6628df8b84caf05859bcb119,,,,,,,,,,,,,,,,,,,,,,,,,,,,,,,,,,,,,,,,,,,,,,,,,,,,,,,,1,4,64,23,1,N,M,C,o1_image,stimuli/out1.png,stimuli/correct_out1.png,stimuli/out2.png,,,,,,,,,,,,,,,,,,,,,,,,,,,,,,,,,,,,,,
,,5718a9c4dd9ef10013df01f0,38,female,2024-04-24_11h31.51.230,stockport_simplified,2022.2.4,Win32,61.72839506,661e456ee6de07e70aa9ef7b,6628df8b84caf05859bcb119,,,,,,,,,,,,,,,,,,,,,,,,,,,,,,,,,,686.7578,688.9415,"[5,2,1,8,7,6,4,3]","[[0.3,0.2],[-0.3,0.2]]","[[-0.125,-0.2],[0.125,-0.2]]",-0.125,-0.19722225,1,0,0,1.6659,o1_image,688.9426,1,689.4419,689.4419,691.4415,0,0,0,0,1,,,,,,,,,,,,,,,,,,,,,,,,,,,,,,,,,,,,,,,,,,,,,,,,,,
,,5718a9c4dd9ef10013df01f0,38,female,2024-04-24_11h31.51.230,stockport_simplified,2022.2.4,Win32,61.72839506,661e456ee6de07e70aa9ef7b,6628df8b84caf05859bcb119,,,,,,,,,,,,,,,,,,,,,,,,,,,,,,,,,,,,,,,,,,,,,,,,,,,,,,,,1,5,65,39,1,A,Y,N,o1_image,stimuli/out1.png,stimuli/correct_out1.png,stimuli/out2.png,,,,,,,,,,,,,,,,,,,,,,,,,,,,,,,,,,,,,,
,,5718a9c4dd9ef10013df01f0,38,female,2024-04-24_11h31.51.230,stockport_simplified,2022.2.4,Win32,61.72839506,661e456ee6de07e70aa9ef7b,6628df8b84caf05859bcb119,,,,,,,,,,,,,,,,,,,,,,,,,,,,,,,,,,691.4423,693.1919,"[5,2,1,8,7,6,4,3]","[[-0.3,0.2],[0.3,0.2]]","[[0.125,-0.2],[-0.125,-0.2]]",0.112963005,-0.184259273,1,0,0,1.2318,o1_image,693.1929,1,693.6921,693.6921,695.6924,0,0,0,0,1,,,,,,,,,,,,,,,,,,,,,,,,,,,,,,,,,,,,,,,,,,,,,,,,,,
,,5718a9c4dd9ef10013df01f0,38,female,2024-04-24_11h31.51.230,stockport_simplified,2022.2.4,Win32,61.72839506,661e456ee6de07e70aa9ef7b,6628df8b84caf05859bcb119,,,,,,,,,,,,,,,,,,,,,,,,,,,,,,,,,,,,,,,,,,,,,,,,,,,,,,,,1,6,66,51,1,N,M,C,o1_image,stimuli/out1.png,stimuli/correct_out1.png,stimuli/out2.png,,,,,,,,,,,,,,,,,,,,,,,,,,,,,,,,,,,,,,
,,5718a9c4dd9ef10013df01f0,38,female,2024-04-24_11h31.51.230,stockport_simplified,2022.2.4,Win32,61.72839506,661e456ee6de07e70aa9ef7b,6628df8b84caf05859bcb119,,,,,,,,,,,,,,,,,,,,,,,,,,,,,,,,,,695.6932,697.542,"[5,2,1,8,7,6,4,3]","[[-0.3,0.2],[0.3,0.2]]","[[0.125,-0.2],[-0.125,-0.2]]",-0.117592564,-0.190740727,1,0,0,1.3291,o2_image,697.5431,1,698.0421,698.0422,700.0447,0,0,0,0,1,,,,,,,,,,,,,,,,,,,,,,,,,,,,,,,,,,,,,,,,,,,,,,,,,,
,,5718a9c4dd9ef10013df01f0,38,female,2024-04-24_11h31.51.230,stockport_simplified,2022.2.4,Win32,61.72839506,661e456ee6de07e70aa9ef7b,6628df8b84caf05859bcb119,,,,,,,,,,,,,,,,,,,,,,,,,,,,,,,,,,,,,,,,,,,,,,,,,,,,,,,,1,7,67,13,1,B,X,N,o2_image,stimuli/out2.png,stimuli/out1.png,stimuli/correct_out2.png,,,,,,,,,,,,,,,,,,,,,,,,,,,,,,,,,,,,,,
,,5718a9c4dd9ef10013df01f0,38,female,2024-04-24_11h31.51.230,stockport_simplified,2022.2.4,Win32,61.72839506,661e456ee6de07e70aa9ef7b,6628df8b84caf05859bcb119,,,,,,,,,,,,,,,,,,,,,,,,,,,,,,,,,,700.0451,702.2422,"[5,2,1,8,7,6,4,3]","[[-0.3,0.2],[0.3,0.2]]","[[-0.125,-0.2],[0.125,-0.2]]",-0.114814829,-0.191666709,1,0,0,1.6831,o1_image,702.2432,1,702.7416,702.7417,704.742,0,0,0,0,1,,,,,,,,,,,,,,,,,,,,,,,,,,,,,,,,,,,,,,,,,,,,,,,,,,
,,5718a9c4dd9ef10013df01f0,38,female,2024-04-24_11h31.51.230,stockport_simplified,2022.2.4,Win32,61.72839506,661e456ee6de07e70aa9ef7b,6628df8b84caf05859bcb119,,,,,,,,,,,,,,,,,,,,,,,,,,,,,,,,,,,,,,,,,,,,,,,,,,,,,,,,1,8,68,31,1,A,X,N,o1_image,stimuli/out1.png,stimuli/correct_out1.png,stimuli/out2.png,,,,,,,,,,,,,,,,,,,,,,,,,,,,,,,,,,,,,,
,,5718a9c4dd9ef10013df01f0,38,female,2024-04-24_11h31.51.230,stockport_simplified,2022.2.4,Win32,61.72839506,661e456ee6de07e70aa9ef7b,6628df8b84caf05859bcb119,,,,,,,,,,,,,,,,,,,,,,,,,,,,,,,,,,704.7428,706.642,"[5,2,1,8,7,6,4,3]","[[-0.3,0.2],[0.3,0.2]]","[[-0.125,-0.2],[0.125,-0.2]]",0.074999986,-0.20185188,1,0,0,1.3792,o2_image,706.643,1,707.1426,707.1427,709.143,0,0,0,0,1,,,,,,,,,,,,,,,,,,,,,,,,,,,,,,,,,,,,,,,,,,,,,,,,,,
,,5718a9c4dd9ef10013df01f0,38,female,2024-04-24_11h31.51.230,stockport_simplified,2022.2.4,Win32,61.72839506,661e456ee6de07e70aa9ef7b,6628df8b84caf05859bcb119,,,,,,,,,,,,,,,,,,,,,,,,,,,,,,,,,,,,,,,,,,,,,,,,,,,,,,,,1,9,69,58,1,N,M,D,o2_image,stimuli/out2.png,stimuli/out1.png,stimuli/correct_out2.png,,,,,,,,,,,,,,,,,,,,,,,,,,,,,,,,,,,,,,
,,5718a9c4dd9ef10013df01f0,38,female,2024-04-24_11h31.51.230,stockport_simplified,2022.2.4,Win32,61.72839506,661e456ee6de07e70aa9ef7b,6628df8b84caf05859bcb119,,,,,,,,,,,,,,,,,,,,,,,,,,,,,,,,,,709.1439,711.1595,"[5,2,1,8,7,6,4,3]","[[-0.3,0.2],[0.3,0.2]]","[[0.125,-0.2],[-0.125,-0.2]]",-0.092592593,-0.211111139,1,0,0,1.4989,o2_image,711.1605,1,711.6597,711.6597,713.6598,0,0,0,0,1,,,,,,,,,,,,,,,,,,,,,,,,,,,,,,,,,,,,,,,,,,,,,,,,,,
,,5718a9c4dd9ef10013df01f0,38,female,2024-04-24_11h31.51.230,stockport_simplified,2022.2.4,Win32,61.72839506,661e456ee6de07e70aa9ef7b,6628df8b84caf05859bcb119,,,,,,,,,,,,,,,,,,,,,,,,,,,,,,,,,,,,,,,,,,,,,,,,,,,,,,,,1,10,70,15,1,B,Y,N,o2_image,stimuli/out2.png,stimuli/out1.png,stimuli/correct_out2.png,,,,,,,,,,,,,,,,,,,,,,,,,,,,,,,,,,,,,,
,,5718a9c4dd9ef10013df01f0,38,female,2024-04-24_11h31.51.230,stockport_simplified,2022.2.4,Win32,61.72839506,661e456ee6de07e70aa9ef7b,6628df8b84caf05859bcb119,,,,,,,,,,,,,,,,,,,,,,,,,,,,,,,,,,713.6604,715.61,"[5,2,1,8,7,6,4,3]","[[-0.3,0.2],[0.3,0.2]]","[[-0.125,-0.2],[0.125,-0.2]]",-0.106481481,-0.223148134,1,0,0,1.4324,o1_image,715.6112,1,716.1139,716.114,718.1102,0,0,0,0,1,,,,,,,,,,,,,,,,,,,,,,,,,,,,,,,,,,,,,,,,,,,,,,,,,,
,,5718a9c4dd9ef10013df01f0,38,female,2024-04-24_11h31.51.230,stockport_simplified,2022.2.4,Win32,61.72839506,661e456ee6de07e70aa9ef7b,6628df8b84caf05859bcb119,,,,,,,,,,,,,,,,,,,,,,,,,,,,,,,,,,,,,,,,,,,,,,,,,,,,,,,,1,11,71,34,1,A,X,N,o1_image,stimuli/out1.png,stimuli/correct_out1.png,stimuli/out2.png,,,,,,,,,,,,,,,,,,,,,,,,,,,,,,,,,,,,,,
,,5718a9c4dd9ef10013df01f0,38,female,2024-04-24_11h31.51.230,stockport_simplified,2022.2.4,Win32,61.72839506,661e456ee6de07e70aa9ef7b,6628df8b84caf05859bcb119,,,,,,,,,,,,,,,,,,,,,,,,,,,,,,,,,,718.111,719.5771,"[5,2,1,8,7,6,4,3]","[[0.3,0.2],[-0.3,0.2]]","[[-0.125,-0.2],[0.125,-0.2]]",-0.106481481,-0.223148134,1,0,0,0.9492,o1_image,719.5782,1,720.0767,720.0768,722.0768,0,0,0,0,1,,,,,,,,,,,,,,,,,,,,,,,,,,,,,,,,,,,,,,,,,,,,,,,,,,
,,5718a9c4dd9ef10013df01f0,38,female,2024-04-24_11h31.51.230,stockport_simplified,2022.2.4,Win32,61.72839506,661e456ee6de07e70aa9ef7b,6628df8b84caf05859bcb119,,,,,,,,,,,,,,,,,,,,,,,,,,,,,,,,,,,,,,,,,,,,,,,,,,,,,,,,1,12,72,35,1,A,Y,N,o1_image,stimuli/out1.png,stimuli/correct_out1.png,stimuli/out2.png,,,,,,,,,,,,,,,,,,,,,,,,,,,,,,,,,,,,,,
,,5718a9c4dd9ef10013df01f0,38,female,2024-04-24_11h31.51.230,stockport_simplified,2022.2.4,Win32,61.72839506,661e456ee6de07e70aa9ef7b,6628df8b84caf05859bcb119,,,,,,,,,,,,,,,,,,,,,,,,,,,,,,,,,,722.0777,723.6103,"[5,2,1,8,7,6,4,3]","[[-0.3,0.2],[0.3,0.2]]","[[-0.125,-0.2],[0.125,-0.2]]",-0.106481481,-0.223148134,1,0,0,1.0164,o1_image,723.6116,1,724.1102,724.1103,726.0983,0,0,0,0,1,,,,,,,,,,,,,,,,,,,,,,,,,,,,,,,,,,,,,,,,,,,,,,,,,,
,,5718a9c4dd9ef10013df01f0,38,female,2024-04-24_11h31.51.230,stockport_simplified,2022.2.4,Win32,61.72839506,661e456ee6de07e70aa9ef7b,6628df8b84caf05859bcb119,,,,,,,,,,,,,,,,,,,,,,,,,,,,,,,,,,,,,,,,,,,,,,,,,,,,,,,,1,13,73,5,1,A,Y,N,o1_image,stimuli/out1.png,stimuli/correct_out1.png,stimuli/out2.png,,,,,,,,,,,,,,,,,,,,,,,,,,,,,,,,,,,,,,
,,5718a9c4dd9ef10013df01f0,38,female,2024-04-24_11h31.51.230,stockport_simplified,2022.2.4,Win32,61.72839506,661e456ee6de07e70aa9ef7b,6628df8b84caf05859bcb119,,,,,,,,,,,,,,,,,,,,,,,,,,,,,,,,,,726.0987,728.194,"[5,2,1,8,7,6,4,3]","[[-0.3,0.2],[0.3,0.2]]","[[0.125,-0.2],[-0.125,-0.2]]",-0.097222222,-0.215740769,1,0,0,1.5826,o2_image,728.195,1,728.6939,728.694,730.6944,0,0,0,0,1,,,,,,,,,,,,,,,,,,,,,,,,,,,,,,,,,,,,,,,,,,,,,,,,,,
,,5718a9c4dd9ef10013df01f0,38,female,2024-04-24_11h31.51.230,stockport_simplified,2022.2.4,Win32,61.72839506,661e456ee6de07e70aa9ef7b,6628df8b84caf05859bcb119,,,,,,,,,,,,,,,,,,,,,,,,,,,,,,,,,,,,,,,,,,,,,,,,,,,,,,,,1,14,74,55,1,N,M,D,o2_image,stimuli/out2.png,stimuli/out1.png,stimuli/correct_out2.png,,,,,,,,,,,,,,,,,,,,,,,,,,,,,,,,,,,,,,
,,5718a9c4dd9ef10013df01f0,38,female,2024-04-24_11h31.51.230,stockport_simplified,2022.2.4,Win32,61.72839506,661e456ee6de07e70aa9ef7b,6628df8b84caf05859bcb119,,,,,,,,,,,,,,,,,,,,,,,,,,,,,,,,,,730.6952,732.5278,"[5,2,1,8,7,6,4,3]","[[-0.3,0.2],[0.3,0.2]]","[[-0.125,-0.2],[0.125,-0.2]]",-0.097222222,-0.215740769,1,0,0,1.3295,o1_image,732.5291,1,733.0274,733.0276,735.0279,0,0,0,0,1,,,,,,,,,,,,,,,,,,,,,,,,,,,,,,,,,,,,,,,,,,,,,,,,,,
,,5718a9c4dd9ef10013df01f0,38,female,2024-04-24_11h31.51.230,stockport_simplified,2022.2.4,Win32,61.72839506,661e456ee6de07e70aa9ef7b,6628df8b84caf05859bcb119,,,,,,,,,,,,,,,,,,,,,,,,,,,,,,,,,,,,,,,,,,,,,,,,,,,,,,,,1,15,75,38,1,A,Y,N,o1_image,stimuli/out1.png,stimuli/correct_out1.png,stimuli/out2.png,,,,,,,,,,,,,,,,,,,,,,,,,,,,,,,,,,,,,,
,,5718a9c4dd9ef10013df01f0,38,female,2024-04-24_11h31.51.230,stockport_simplified,2022.2.4,Win32,61.72839506,661e456ee6de07e70aa9ef7b,6628df8b84caf05859bcb119,,,,,,,,,,,,,,,,,,,,,,,,,,,,,,,,,,735.0286,737.3609,"[5,2,1,8,7,6,4,3]","[[0.3,0.2],[-0.3,0.2]]","[[0.125,-0.2],[-0.125,-0.2]]",0.100000028,-0.212037051,1,0,0,1.8165,o1_image,737.3619,1,737.8611,737.8611,739.8611,0,0,0,0,1,,,,,,,,,,,,,,,,,,,,,,,,,,,,,,,,,,,,,,,,,,,,,,,,,,
,,5718a9c4dd9ef10013df01f0,38,female,2024-04-24_11h31.51.230,stockport_simplified,2022.2.4,Win32,61.72839506,661e456ee6de07e70aa9ef7b,6628df8b84caf05859bcb119,,,,,,,,,,,,,,,,,,,,,,,,,,,,,,,,,,,,,,,,,,,,,,,,,,,,,,,,1,16,76,1,1,A,X,N,o1_image,stimuli/out1.png,stimuli/correct_out1.png,stimuli/out2.png,,,,,,,,,,,,,,,,,,,,,,,,,,,,,,,,,,,,,,
,,5718a9c4dd9ef10013df01f0,38,female,2024-04-24_11h31.51.230,stockport_simplified,2022.2.4,Win32,61.72839506,661e456ee6de07e70aa9ef7b,6628df8b84caf05859bcb119,,,,,,,,,,,,,,,,,,,,,,,,,,,,,,,,,,739.862,741.5775,"[5,2,1,8,7,6,4,3]","[[0.3,0.2],[-0.3,0.2]]","[[-0.125,-0.2],[0.125,-0.2]]",-0.118518476,-0.216666681,1,0,0,1.199,o1_image,741.5784,1,742.0778,742.0779,744.0779,0,0,0,0,1,,,,,,,,,,,,,,,,,,,,,,,,,,,,,,,,,,,,,,,,,,,,,,,,,,
,,5718a9c4dd9ef10013df01f0,38,female,2024-04-24_11h31.51.230,stockport_simplified,2022.2.4,Win32,61.72839506,661e456ee6de07e70aa9ef7b,6628df8b84caf05859bcb119,,,,,,,,,,,,,,,,,,,,,,,,,,,,,,,,,,,,,,,,,,,,,,,,,,,,,,,,1,17,77,21,1,N,M,C,o1_image,stimuli/out1.png,stimuli/correct_out1.png,stimuli/out2.png,,,,,,,,,,,,,,,,,,,,,,,,,,,,,,,,,,,,,,
,,5718a9c4dd9ef10013df01f0,38,female,2024-04-24_11h31.51.230,stockport_simplified,2022.2.4,Win32,61.72839506,661e456ee6de07e70aa9ef7b,6628df8b84caf05859bcb119,,,,,,,,,,,,,,,,,,,,,,,,,,,,,,,,,,744.0787,745.7614,"[5,2,1,8,7,6,4,3]","[[0.3,0.2],[-0.3,0.2]]","[[-0.125,-0.2],[0.125,-0.2]]",0.125925912,-0.17777782,1,0,0,1.1659,o2_image,745.7625,1,746.2618,746.2619,748.2619,0,0,0,0,1,,,,,,,,,,,,,,,,,,,,,,,,,,,,,,,,,,,,,,,,,,,,,,,,,,
,,5718a9c4dd9ef10013df01f0,38,female,2024-04-24_11h31.51.230,stockport_simplified,2022.2.4,Win32,61.72839506,661e456ee6de07e70aa9ef7b,6628df8b84caf05859bcb119,,,,,,,,,,,,,,,,,,,,,,,,,,,,,,,,,,,,,,,,,,,,,,,,,,,,,,,,1,18,78,27,1,N,M,D,o2_image,stimuli/out2.png,stimuli/out1.png,stimuli/correct_out2.png,,,,,,,,,,,,,,,,,,,,,,,,,,,,,,,,,,,,,,
,,5718a9c4dd9ef10013df01f0,38,female,2024-04-24_11h31.51.230,stockport_simplified,2022.2.4,Win32,61.72839506,661e456ee6de07e70aa9ef7b,6628df8b84caf05859bcb119,,,,,,,,,,,,,,,,,,,,,,,,,,,,,,,,,,748.263,750.0444,"[5,2,1,8,7,6,4,3]","[[-0.3,0.2],[0.3,0.2]]","[[0.125,-0.2],[-0.125,-0.2]]",-0.099074046,-0.19722225,1,0,0,1.2664,o2_image,750.0457,1,750.5451,750.5451,752.5453,0,0,0,0,1,,,,,,,,,,,,,,,,,,,,,,,,,,,,,,,,,,,,,,,,,,,,,,,,,,
,,5718a9c4dd9ef10013df01f0,38,female,2024-04-24_11h31.51.230,stockport_simplified,2022.2.4,Win32,61.72839506,661e456ee6de07e70aa9ef7b,6628df8b84caf05859bcb119,,,,,,,,,,,,,,,,,,,,,,,,,,,,,,,,,,,,,,,,,,,,,,,,,,,,,,,,1,19,79,59,1,N,M,D,o2_image,stimuli/out2.png,stimuli/out1.png,stimuli/correct_out2.png,,,,,,,,,,,,,,,,,,,,,,,,,,,,,,,,,,,,,,
,,5718a9c4dd9ef10013df01f0,38,female,2024-04-24_11h31.51.230,stockport_simplified,2022.2.4,Win32,61.72839506,661e456ee6de07e70aa9ef7b,6628df8b84caf05859bcb119,,,,,,,,,,,,,,,,,,,,,,,,,,,,,,,,,,752.5463,754.5453,"[5,2,1,8,7,6,4,3]","[[0.3,0.2],[-0.3,0.2]]","[[0.125,-0.2],[-0.125,-0.2]]",0.099074116,-0.209259245,1,0,0,1.4834,o1_image,754.5465,1,755.0453,755.0454,757.0455,0,0,0,0,1,,,,,,,,,,,,,,,,,,,,,,,,,,,,,,,,,,,,,,,,,,,,,,,,,,
,,5718a9c4dd9ef10013df01f0,38,female,2024-04-24_11h31.51.230,stockport_simplified,2022.2.4,Win32,61.72839506,661e456ee6de07e70aa9ef7b,6628df8b84caf05859bcb119,,,,,,,,,,,,,,,,,,,,,,,,,,,,,,,,,,,,,,,,,,,,,,,,,,,,,,,,1,20,80,52,1,N,M,C,o1_image,stimuli/out1.png,stimuli/correct_out1.png,stimuli/out2.png,,,,,,,,,,,,,,,,,,,,,,,,,,,,,,,,,,,,,,
,,5718a9c4dd9ef10013df01f0,38,female,2024-04-24_11h31.51.230,stockport_simplified,2022.2.4,Win32,61.72839506,661e456ee6de07e70aa9ef7b,6628df8b84caf05859bcb119,,,,,,,,,,,,,,,,,,,,,,,,,,,,,,,,,,757.0465,758.862,"[5,2,1,8,7,6,4,3]","[[0.3,0.2],[-0.3,0.2]]","[[0.125,-0.2],[-0.125,-0.2]]",-0.134259259,-0.215740769,1,0,0,1.2959,o2_image,758.8634,1,759.3624,759.3626,761.3625,0,0,0,0,1,,,,,,,,,,,,,,,,,,,,,,,,,,,,,,,,,,,,,,,,,,,,,,,,,,
,,5718a9c4dd9ef10013df01f0,38,female,2024-04-24_11h31.51.230,stockport_simplified,2022.2.4,Win32,61.72839506,661e456ee6de07e70aa9ef7b,6628df8b84caf05859bcb119,,,,,,,,,,,,,,,,,,,,,,,,,,,,,,,,,,,,,,,,,,,,,,,,,,,,,,,,1,21,81,10,1,B,X,N,o2_image,stimuli/out2.png,stimuli/out1.png,stimuli/correct_out2.png,,,,,,,,,,,,,,,,,,,,,,,,,,,,,,,,,,,,,,
,,5718a9c4dd9ef10013df01f0,38,female,2024-04-24_11h31.51.230,stockport_simplified,2022.2.4,Win32,61.72839506,661e456ee6de07e70aa9ef7b,6628df8b84caf05859bcb119,,,,,,,,,,,,,,,,,,,,,,,,,,,,,,,,,,761.3633,763.2624,"[5,2,1,8,7,6,4,3]","[[0.3,0.2],[-0.3,0.2]]","[[0.125,-0.2],[-0.125,-0.2]]",0.125,-0.203703704,1,0,0,1.396,o1_image,763.2635,1,763.7627,763.7627,765.7626,0,0,0,0,1,,,,,,,,,,,,,,,,,,,,,,,,,,,,,,,,,,,,,,,,,,,,,,,,,,
,,5718a9c4dd9ef10013df01f0,38,female,2024-04-24_11h31.51.230,stockport_simplified,2022.2.4,Win32,61.72839506,661e456ee6de07e70aa9ef7b,6628df8b84caf05859bcb119,,,,,,,,,,,,,,,,,,,,,,,,,,,,,,,,,,,,,,,,,,,,,,,,,,,,,,,,1,22,82,33,1,A,X,N,o1_image,stimuli/out1.png,stimuli/correct_out1.png,stimuli/out2.png,,,,,,,,,,,,,,,,,,,,,,,,,,,,,,,,,,,,,,
,,5718a9c4dd9ef10013df01f0,38,female,2024-04-24_11h31.51.230,stockport_simplified,2022.2.4,Win32,61.72839506,661e456ee6de07e70aa9ef7b,6628df8b84caf05859bcb119,,,,,,,,,,,,,,,,,,,,,,,,,,,,,,,,,,765.7637,767.6957,"[5,2,1,8,7,6,4,3]","[[-0.3,0.2],[0.3,0.2]]","[[-0.125,-0.2],[0.125,-0.2]]",-0.107407393,-0.20648151,1,0,0,1.4158,o1_image,767.6967,1,768.1965,768.1966,770.1963,0,0,0,0,1,,,,,,,,,,,,,,,,,,,,,,,,,,,,,,,,,,,,,,,,,,,,,,,,,,
,,5718a9c4dd9ef10013df01f0,38,female,2024-04-24_11h31.51.230,stockport_simplified,2022.2.4,Win32,61.72839506,661e456ee6de07e70aa9ef7b,6628df8b84caf05859bcb119,,,,,,,,,,,,,,,,,,,,,,,,,,,,,,,,,,,,,,,,,,,,,,,,,,,,,,,,1,23,83,7,1,A,Y,N,o1_image,stimuli/out1.png,stimuli/correct_out1.png,stimuli/out2.png,,,,,,,,,,,,,,,,,,,,,,,,,,,,,,,,,,,,,,
,,5718a9c4dd9ef10013df01f0,38,female,2024-04-24_11h31.51.230,stockport_simplified,2022.2.4,Win32,61.72839506,661e456ee6de07e70aa9ef7b,6628df8b84caf05859bcb119,,,,,,,,,,,,,,,,,,,,,,,,,,,,,,,,,,770.1973,772.4793,"[5,2,1,8,7,6,4,3]","[[-0.3,0.2],[0.3,0.2]]","[[-0.125,-0.2],[0.125,-0.2]]",0.069444444,-0.187037079,1,0,0,1.7661,o2_image,772.4805,1,772.9789,772.9789,774.9792,0,0,0,0,1,,,,,,,,,,,,,,,,,,,,,,,,,,,,,,,,,,,,,,,,,,,,,,,,,,
,,5718a9c4dd9ef10013df01f0,38,female,2024-04-24_11h31.51.230,stockport_simplified,2022.2.4,Win32,61.72839506,661e456ee6de07e70aa9ef7b,6628df8b84caf05859bcb119,,,,,,,,,,,,,,,,,,,,,,,,,,,,,,,,,,,,,,,,,,,,,,,,,,,,,,,,1,24,84,56,1,N,M,D,o2_image,stimuli/out2.png,stimuli/out1.png,stimuli/correct_out2.png,,,,,,,,,,,,,,,,,,,,,,,,,,,,,,,,,,,,,,
,,5718a9c4dd9ef10013df01f0,38,female,2024-04-24_11h31.51.230,stockport_simplified,2022.2.4,Win32,61.72839506,661e456ee6de07e70aa9ef7b,6628df8b84caf05859bcb119,,,,,,,,,,,,,,,,,,,,,,,,,,,,,,,,,,774.9801,776.6964,"[5,2,1,8,7,6,4,3]","[[-0.3,0.2],[0.3,0.2]]","[[0.125,-0.2],[-0.125,-0.2]]",-0.106481481,-0.19722225,1,0,0,1.1996,o2_image,776.6975,1,777.1967,777.1967,779.1968,0,0,0,0,1,,,,,,,,,,,,,,,,,,,,,,,,,,,,,,,,,,,,,,,,,,,,,,,,,,
,,5718a9c4dd9ef10013df01f0,38,female,2024-04-24_11h31.51.230,stockport_simplified,2022.2.4,Win32,61.72839506,661e456ee6de07e70aa9ef7b,6628df8b84caf05859bcb119,,,,,,,,,,,,,,,,,,,,,,,,,,,,,,,,,,,,,,,,,,,,,,,,,,,,,,,,1,25,85,28,1,N,M,D,o2_image,stimuli/out2.png,stimuli/out1.png,stimuli/correct_out2.png,,,,,,,,,,,,,,,,,,,,,,,,,,,,,,,,,,,,,,
,,5718a9c4dd9ef10013df01f0,38,female,2024-04-24_11h31.51.230,stockport_simplified,2022.2.4,Win32,61.72839506,661e456ee6de07e70aa9ef7b,6628df8b84caf05859bcb119,,,,,,,,,,,,,,,,,,,,,,,,,,,,,,,,,,779.1979,780.9968,"[5,2,1,8,7,6,4,3]","[[-0.3,0.2],[0.3,0.2]]","[[-0.125,-0.2],[0.125,-0.2]]",0.112963005,-0.173148191,1,0,0,1.2826,o2_image,780.998,1,781.496,781.496,783.4854,0,0,0,0,1,,,,,,,,,,,,,,,,,,,,,,,,,,,,,,,,,,,,,,,,,,,,,,,,,,
,,5718a9c4dd9ef10013df01f0,38,female,2024-04-24_11h31.51.230,stockport_simplified,2022.2.4,Win32,61.72839506,661e456ee6de07e70aa9ef7b,6628df8b84caf05859bcb119,,,,,,,,,,,,,,,,,,,,,,,,,,,,,,,,,,,,,,,,,,,,,,,,,,,,,,,,1,26,86,40,1,B,X,N,o2_image,stimuli/out2.png,stimuli/out1.png,stimuli/correct_out2.png,,,,,,,,,,,,,,,,,,,,,,,,,,,,,,,,,,,,,,
,,5718a9c4dd9ef10013df01f0,38,female,2024-04-24_11h31.51.230,stockport_simplified,2022.2.4,Win32,61.72839506,661e456ee6de07e70aa9ef7b,6628df8b84caf05859bcb119,,,,,,,,,,,,,,,,,,,,,,,,,,,,,,,,,,783.4858,785.3805,"[5,2,1,8,7,6,4,3]","[[0.3,0.2],[-0.3,0.2]]","[[0.125,-0.2],[-0.125,-0.2]]",-0.12962963,-0.210185228,1,0,0,1.3824,o2_image,785.3817,1,785.8807,785.8807,787.8808,0,0,0,0,1,,,,,,,,,,,,,,,,,,,,,,,,,,,,,,,,,,,,,,,,,,,,,,,,,,
,,5718a9c4dd9ef10013df01f0,38,female,2024-04-24_11h31.51.230,stockport_simplified,2022.2.4,Win32,61.72839506,661e456ee6de07e70aa9ef7b,6628df8b84caf05859bcb119,,,,,,,,,,,,,,,,,,,,,,,,,,,,,,,,,,,,,,,,,,,,,,,,,,,,,,,,1,27,87,49,1,B,Y,N,o2_image,stimuli/out2.png,stimuli/out1.png,stimuli/correct_out2.png,,,,,,,,,,,,,,,,,,,,,,,,,,,,,,,,,,,,,,
,,5718a9c4dd9ef10013df01f0,38,female,2024-04-24_11h31.51.230,stockport_simplified,2022.2.4,Win32,61.72839506,661e456ee6de07e70aa9ef7b,6628df8b84caf05859bcb119,,,,,,,,,,,,,,,,,,,,,,,,,,,,,,,,,,787.8816,789.7473,"[5,2,1,8,7,6,4,3]","[[0.3,0.2],[-0.3,0.2]]","[[-0.125,-0.2],[0.125,-0.2]]",-0.150925884,-0.204629616,1,0,0,1.3458,o1_image,789.7485,1,790.2474,790.2475,792.2479,0,0,0,0,1,,,,,,,,,,,,,,,,,,,,,,,,,,,,,,,,,,,,,,,,,,,,,,,,,,
,,5718a9c4dd9ef10013df01f0,38,female,2024-04-24_11h31.51.230,stockport_simplified,2022.2.4,Win32,61.72839506,661e456ee6de07e70aa9ef7b,6628df8b84caf05859bcb119,,,,,,,,,,,,,,,,,,,,,,,,,,,,,,,,,,,,,,,,,,,,,,,,,,,,,,,,1,28,88,30,1,A,X,N,o1_image,stimuli/out1.png,stimuli/correct_out1.png,stimuli/out2.png,,,,,,,,,,,,,,,,,,,,,,,,,,,,,,,,,,,,,,
,,5718a9c4dd9ef10013df01f0,38,female,2024-04-24_11h31.51.230,stockport_simplified,2022.2.4,Win32,61.72839506,661e456ee6de07e70aa9ef7b,6628df8b84caf05859bcb119,,,,,,,,,,,,,,,,,,,,,,,,,,,,,,,,,,792.2486,793.9645,"[5,2,1,8,7,6,4,3]","[[-0.3,0.2],[0.3,0.2]]","[[0.125,-0.2],[-0.125,-0.2]]",-0.125925912,-0.20648151,1,0,0,1.1961,o2_image,793.9655,1,794.4643,794.4644,796.4645,0,0,0,0,1,,,,,,,,,,,,,,,,,,,,,,,,,,,,,,,,,,,,,,,,,,,,,,,,,,
,,5718a9c4dd9ef10013df01f0,38,female,2024-04-24_11h31.51.230,stockport_simplified,2022.2.4,Win32,61.72839506,661e456ee6de07e70aa9ef7b,6628df8b84caf05859bcb119,,,,,,,,,,,,,,,,,,,,,,,,,,,,,,,,,,,,,,,,,,,,,,,,,,,,,,,,1,29,89,57,1,N,M,D,o2_image,stimuli/out2.png,stimuli/out1.png,stimuli/correct_out2.png,,,,,,,,,,,,,,,,,,,,,,,,,,,,,,,,,,,,,,
,,5718a9c4dd9ef10013df01f0,38,female,2024-04-24_11h31.51.230,stockport_simplified,2022.2.4,Win32,61.72839506,661e456ee6de07e70aa9ef7b,6628df8b84caf05859bcb119,,,,,,,,,,,,,,,,,,,,,,,,,,,,,,,,,,796.4657,798.4644,"[5,2,1,8,7,6,4,3]","[[-0.3,0.2],[0.3,0.2]]","[[0.125,-0.2],[-0.125,-0.2]]",-0.125925912,-0.20648151,1,0,0,1.4825,o2_image,798.4655,1,798.9531,798.9532,800.9479,0,0,0,0,1,,,,,,,,,,,,,,,,,,,,,,,,,,,,,,,,,,,,,,,,,,,,,,,,,,
,,5718a9c4dd9ef10013df01f0,38,female,2024-04-24_11h31.51.230,stockport_simplified,2022.2.4,Win32,61.72839506,661e456ee6de07e70aa9ef7b,6628df8b84caf05859bcb119,,,,,,,,,,,,,,,,,,,,,,,,,,,,,,,,,,,,,,,,,,,,,,,,,,,,,,,,1,30,90,16,1,B,Y,N,o2_image,stimuli/out2.png,stimuli/out1.png,stimuli/correct_out2.png,,,,,,,,,,,,,,,,,,,,,,,,,,,,,,,,,,,,,,
,,5718a9c4dd9ef10013df01f0,38,female,2024-04-24_11h31.51.230,stockport_simplified,2022.2.4,Win32,61.72839506,661e456ee6de07e70aa9ef7b,6628df8b84caf05859bcb119,,,,,,,,,,,,,,,,,,,,,,,,,,,,,,,,,,800.9488,803.0812,"[5,2,1,8,7,6,4,3]","[[-0.3,0.2],[0.3,0.2]]","[[-0.125,-0.2],[0.125,-0.2]]",-0.130555541,-0.208333333,1,0,0,1.6157,o1_image,803.0826,1,803.5814,803.5815,805.5816,0,0,0,0,1,,,,,,,,,,,,,,,,,,,,,,,,,,,,,,,,,,,,,,,,,,,,,,,,,,
,,5718a9c4dd9ef10013df01f0,38,female,2024-04-24_11h31.51.230,stockport_simplified,2022.2.4,Win32,61.72839506,661e456ee6de07e70aa9ef7b,6628df8b84caf05859bcb119,,,,,,,,,,,,,,,,,,,,,,,,,,,,,,,,,,,,,,,,,,,,,,,,,,,,,,,,1,31,91,32,1,A,X,N,o1_image,stimuli/out1.png,stimuli/correct_out1.png,stimuli/out2.png,,,,,,,,,,,,,,,,,,,,,,,,,,,,,,,,,,,,,,
,,5718a9c4dd9ef10013df01f0,38,female,2024-04-24_11h31.51.230,stockport_simplified,2022.2.4,Win32,61.72839506,661e456ee6de07e70aa9ef7b,6628df8b84caf05859bcb119,,,,,,,,,,,,,,,,,,,,,,,,,,,,,,,,,,805.5827,807.2817,"[5,2,1,8,7,6,4,3]","[[0.3,0.2],[-0.3,0.2]]","[[0.125,-0.2],[-0.125,-0.2]]",-0.095370328,-0.202777792,1,0,0,1.1827,o2_image,807.2829,1,807.7816,807.7817,809.7695,0,0,0,0,1,,,,,,,,,,,,,,,,,,,,,,,,,,,,,,,,,,,,,,,,,,,,,,,,,,
,,5718a9c4dd9ef10013df01f0,38,female,2024-04-24_11h31.51.230,stockport_simplified,2022.2.4,Win32,61.72839506,661e456ee6de07e70aa9ef7b,6628df8b84caf05859bcb119,,,,,,,,,,,,,,,,,,,,,,,,,,,,,,,,,,,,,,,,,,,,,,,,,,,,,,,,1,32,92,46,1,B,Y,N,o2_image,stimuli/out2.png,stimuli/out1.png,stimuli/correct_out2.png,,,,,,,,,,,,,,,,,,,,,,,,,,,,,,,,,,,,,,
,,5718a9c4dd9ef10013df01f0,38,female,2024-04-24_11h31.51.230,stockport_simplified,2022.2.4,Win32,61.72839506,661e456ee6de07e70aa9ef7b,6628df8b84caf05859bcb119,,,,,,,,,,,,,,,,,,,,,,,,,,,,,,,,,,809.7698,811.7152,"[5,2,1,8,7,6,4,3]","[[0.3,0.2],[-0.3,0.2]]","[[0.125,-0.2],[-0.125,-0.2]]",-0.095370328,-0.202777792,1,0,0,1.4326,o2_image,811.7162,1,812.2153,812.2153,814.2157,0,0,0,0,1,,,,,,,,,,,,,,,,,,,,,,,,,,,,,,,,,,,,,,,,,,,,,,,,,,
,,5718a9c4dd9ef10013df01f0,38,female,2024-04-24_11h31.51.230,stockport_simplified,2022.2.4,Win32,61.72839506,661e456ee6de07e70aa9ef7b,6628df8b84caf05859bcb119,,,,,,,,,,,,,,,,,,,,,,,,,,,,,,,,,,,,,,,,,,,,,,,,,,,,,,,,1,33,93,12,1,B,X,N,o2_image,stimuli/out2.png,stimuli/out1.png,stimuli/correct_out2.png,,,,,,,,,,,,,,,,,,,,,,,,,,,,,,,,,,,,,,
,,5718a9c4dd9ef10013df01f0,38,female,2024-04-24_11h31.51.230,stockport_simplified,2022.2.4,Win32,61.72839506,661e456ee6de07e70aa9ef7b,6628df8b84caf05859bcb119,,,,,,,,,,,,,,,,,,,,,,,,,,,,,,,,,,814.2168,815.9982,"[5,2,1,8,7,6,4,3]","[[-0.3,0.2],[0.3,0.2]]","[[-0.125,-0.2],[0.125,-0.2]]",0.110185199,-0.188888903,1,0,0,1.2658,o2_image,815.999,1,816.4987,816.4987,818.4983,0,0,0,0,1,,,,,,,,,,,,,,,,,,,,,,,,,,,,,,,,,,,,,,,,,,,,,,,,,,
,,5718a9c4dd9ef10013df01f0,38,female,2024-04-24_11h31.51.230,stockport_simplified,2022.2.4,Win32,61.72839506,661e456ee6de07e70aa9ef7b,6628df8b84caf05859bcb119,,,,,,,,,,,,,,,,,,,,,,,,,,,,,,,,,,,,,,,,,,,,,,,,,,,,,,,,1,34,94,41,1,B,X,N,o2_image,stimuli/out2.png,stimuli/out1.png,stimuli/correct_out2.png,,,,,,,,,,,,,,,,,,,,,,,,,,,,,,,,,,,,,,
,,5718a9c4dd9ef10013df01f0,38,female,2024-04-24_11h31.51.230,stockport_simplified,2022.2.4,Win32,61.72839506,661e456ee6de07e70aa9ef7b,6628df8b84caf05859bcb119,,,,,,,,,,,,,,,,,,,,,,,,,,,,,,,,,,818.4986,820.1983,"[5,2,1,8,7,6,4,3]","[[-0.3,0.2],[0.3,0.2]]","[[0.125,-0.2],[-0.125,-0.2]]",-0.110185199,-0.204629616,1,0,0,1.1988,o2_image,820.1991,1,820.7034,820.7035,822.699,0,0,0,0,1,,,,,,,,,,,,,,,,,,,,,,,,,,,,,,,,,,,,,,,,,,,,,,,,,,
,,5718a9c4dd9ef10013df01f0,38,female,2024-04-24_11h31.51.230,stockport_simplified,2022.2.4,Win32,61.72839506,661e456ee6de07e70aa9ef7b,6628df8b84caf05859bcb119,,,,,,,,,,,,,,,,,,,,,,,,,,,,,,,,,,,,,,,,,,,,,,,,,,,,,,,,1,35,95,26,1,N,M,D,o2_image,stimuli/out2.png,stimuli/out1.png,stimuli/correct_out2.png,,,,,,,,,,,,,,,,,,,,,,,,,,,,,,,,,,,,,,
,,5718a9c4dd9ef10013df01f0,38,female,2024-04-24_11h31.51.230,stockport_simplified,2022.2.4,Win32,61.72839506,661e456ee6de07e70aa9ef7b,6628df8b84caf05859bcb119,,,,,,,,,,,,,,,,,,,,,,,,,,,,,,,,,,822.6999,824.0658,"[5,2,1,8,7,6,4,3]","[[-0.3,0.2],[0.3,0.2]]","[[0.125,-0.2],[-0.125,-0.2]]",-0.110185199,-0.204629616,1,0,0,0.8506,o2_image,824.0668,1,824.5657,824.5658,826.5656,0,0,0,0,1,,,,,,,,,,,,,,,,,,,,,,,,,,,,,,,,,,,,,,,,,,,,,,,,,,
,,5718a9c4dd9ef10013df01f0,38,female,2024-04-24_11h31.51.230,stockport_simplified,2022.2.4,Win32,61.72839506,661e456ee6de07e70aa9ef7b,6628df8b84caf05859bcb119,,,,,,,,,,,,,,,,,,,,,,,,,,,,,,,,,,,,,,,,,,,,,,,,,,,,,,,,1,36,96,25,1,N,M,D,o2_image,stimuli/out2.png,stimuli/out1.png,stimuli/correct_out2.png,,,,,,,,,,,,,,,,,,,,,,,,,,,,,,,,,,,,,,
,,5718a9c4dd9ef10013df01f0,38,female,2024-04-24_11h31.51.230,stockport_simplified,2022.2.4,Win32,61.72839506,661e456ee6de07e70aa9ef7b,6628df8b84caf05859bcb119,,,,,,,,,,,,,,,,,,,,,,,,,,,,,,,,,,826.5666,828.4162,"[5,2,1,8,7,6,4,3]","[[0.3,0.2],[-0.3,0.2]]","[[0.125,-0.2],[-0.125,-0.2]]",-0.10555557,-0.204629616,1,0,0,1.3325,o2_image,828.4172,1,828.9184,828.9184,830.916,0,0,0,0,1,,,,,,,,,,,,,,,,,,,,,,,,,,,,,,,,,,,,,,,,,,,,,,,,,,
,,5718a9c4dd9ef10013df01f0,38,female,2024-04-24_11h31.51.230,stockport_simplified,2022.2.4,Win32,61.72839506,661e456ee6de07e70aa9ef7b,6628df8b84caf05859bcb119,,,,,,,,,,,,,,,,,,,,,,,,,,,,,,,,,,,,,,,,,,,,,,,,,,,,,,,,1,37,97,44,1,B,X,N,o2_image,stimuli/out2.png,stimuli/out1.png,stimuli/correct_out2.png,,,,,,,,,,,,,,,,,,,,,,,,,,,,,,,,,,,,,,
,,5718a9c4dd9ef10013df01f0,38,female,2024-04-24_11h31.51.230,stockport_simplified,2022.2.4,Win32,61.72839506,661e456ee6de07e70aa9ef7b,6628df8b84caf05859bcb119,,,,,,,,,,,,,,,,,,,,,,,,,,,,,,,,,,830.9166,832.5829,"[5,2,1,8,7,6,4,3]","[[0.3,0.2],[-0.3,0.2]]","[[-0.125,-0.2],[0.125,-0.2]]",0.103703746,-0.192592621,1,0,0,1.1453,o2_image,832.5842,1,833.0834,833.0835,835.0871,0,0,0,0,1,,,,,,,,,,,,,,,,,,,,,,,,,,,,,,,,,,,,,,,,,,,,,,,,,,
,,5718a9c4dd9ef10013df01f0,38,female,2024-04-24_11h31.51.230,stockport_simplified,2022.2.4,Win32,61.72839506,661e456ee6de07e70aa9ef7b,6628df8b84caf05859bcb119,,,,,,,,,,,,,,,,,,,,,,,,,,,,,,,,,,,,,,,,,,,,,,,,,,,,,,,,1,38,98,42,1,B,X,N,o2_image,stimuli/out2.png,stimuli/out1.png,stimuli/correct_out2.png,,,,,,,,,,,,,,,,,,,,,,,,,,,,,,,,,,,,,,
,,5718a9c4dd9ef10013df01f0,38,female,2024-04-24_11h31.51.230,stockport_simplified,2022.2.4,Win32,61.72839506,661e456ee6de07e70aa9ef7b,6628df8b84caf05859bcb119,,,,,,,,,,,,,,,,,,,,,,,,,,,,,,,,,,835.0876,836.6833,"[5,2,1,8,7,6,4,3]","[[-0.3,0.2],[0.3,0.2]]","[[0.125,-0.2],[-0.125,-0.2]]",-0.121296282,-0.199999986,1,0,0,1.0829,o2_image,836.6844,1,837.1835,837.1837,839.1836,0,0,0,0,1,,,,,,,,,,,,,,,,,,,,,,,,,,,,,,,,,,,,,,,,,,,,,,,,,,
,,5718a9c4dd9ef10013df01f0,38,female,2024-04-24_11h31.51.230,stockport_simplified,2022.2.4,Win32,61.72839506,661e456ee6de07e70aa9ef7b,6628df8b84caf05859bcb119,,,,,,,,,,,,,,,,,,,,,,,,,,,,,,,,,,,,,,,,,,,,,,,,,,,,,,,,1,39,99,14,1,B,X,N,o2_image,stimuli/out2.png,stimuli/out1.png,stimuli/correct_out2.png,,,,,,,,,,,,,,,,,,,,,,,,,,,,,,,,,,,,,,
,,5718a9c4dd9ef10013df01f0,38,female,2024-04-24_11h31.51.230,stockport_simplified,2022.2.4,Win32,61.72839506,661e456ee6de07e70aa9ef7b,6628df8b84caf05859bcb119,,,,,,,,,,,,,,,,,,,,,,,,,,,,,,,,,,839.1845,841.0337,"[5,2,1,8,7,6,4,3]","[[-0.3,0.2],[0.3,0.2]]","[[0.125,-0.2],[-0.125,-0.2]]",0.086111139,-0.188888903,1,0,0,1.333,o1_image,841.0347,1,841.533,841.533,843.5338,0,0,0,0,1,,,,,,,,,,,,,,,,,,,,,,,,,,,,,,,,,,,,,,,,,,,,,,,,,,
,,5718a9c4dd9ef10013df01f0,38,female,2024-04-24_11h31.51.230,stockport_simplified,2022.2.4,Win32,61.72839506,661e456ee6de07e70aa9ef7b,6628df8b84caf05859bcb119,,,,,,,,,,,,,,,,,,,,,,,,,,,,,,,,,,,,,,,,,,,,,,,,,,,,,,,,1,40,100,24,1,N,M,C,o1_image,stimuli/out1.png,stimuli/correct_out1.png,stimuli/out2.png,,,,,,,,,,,,,,,,,,,,,,,,,,,,,,,,,,,,,,
,,5718a9c4dd9ef10013df01f0,38,female,2024-04-24_11h31.51.230,stockport_simplified,2022.2.4,Win32,61.72839506,661e456ee6de07e70aa9ef7b,6628df8b84caf05859bcb119,,,,,,,,,,,,,,,,,,,,,,,,,,,,,,,,,,843.5347,845.4001,"[5,2,1,8,7,6,4,3]","[[-0.3,0.2],[0.3,0.2]]","[[0.125,-0.2],[-0.125,-0.2]]",0.086111139,-0.188888903,1,0,0,1.3492,o1_image,845.4018,1,845.9003,845.9004,847.901,0,0,0,0,1,,,,,,,,,,,,,,,,,,,,,,,,,,,,,,,,,,,,,,,,,,,,,,,,,,
,,5718a9c4dd9ef10013df01f0,38,female,2024-04-24_11h31.51.230,stockport_simplified,2022.2.4,Win32,61.72839506,661e456ee6de07e70aa9ef7b,6628df8b84caf05859bcb119,,,,,,,,,,,,,,,,,,,,,,,,,,,,,,,,,,,,,,,,,,,,,,,,,,,,,,,,1,41,101,53,1,N,M,C,o1_image,stimuli/out1.png,stimuli/correct_out1.png,stimuli/out2.png,,,,,,,,,,,,,,,,,,,,,,,,,,,,,,,,,,,,,,
,,5718a9c4dd9ef10013df01f0,38,female,2024-04-24_11h31.51.230,stockport_simplified,2022.2.4,Win32,61.72839506,661e456ee6de07e70aa9ef7b,6628df8b84caf05859bcb119,,,,,,,,,,,,,,,,,,,,,,,,,,,,,,,,,,847.9019,849.9008,"[5,2,1,8,7,6,4,3]","[[0.3,0.2],[-0.3,0.2]]","[[-0.125,-0.2],[0.125,-0.2]]",0.114814829,-0.17777782,1,0,0,1.4832,o2_image,849.9018,1,850.4007,850.4007,852.4013,0,0,0,0,1,,,,,,,,,,,,,,,,,,,,,,,,,,,,,,,,,,,,,,,,,,,,,,,,,,
,,5718a9c4dd9ef10013df01f0,38,female,2024-04-24_11h31.51.230,stockport_simplified,2022.2.4,Win32,61.72839506,661e456ee6de07e70aa9ef7b,6628df8b84caf05859bcb119,,,,,,,,,,,,,,,,,,,,,,,,,,,,,,,,,,,,,,,,,,,,,,,,,,,,,,,,1,42,102,18,1,B,Y,N,o2_image,stimuli/out2.png,stimuli/out1.png,stimuli/correct_out2.png,,,,,,,,,,,,,,,,,,,,,,,,,,,,,,,,,,,,,,
,,5718a9c4dd9ef10013df01f0,38,female,2024-04-24_11h31.51.230,stockport_simplified,2022.2.4,Win32,61.72839506,661e456ee6de07e70aa9ef7b,6628df8b84caf05859bcb119,,,,,,,,,,,,,,,,,,,,,,,,,,,,,,,,,,852.4022,854.2683,"[5,2,1,8,7,6,4,3]","[[-0.3,0.2],[0.3,0.2]]","[[0.125,-0.2],[-0.125,-0.2]]",0.104629658,-0.19722225,1,0,0,1.348,o1_image,854.2695,1,854.7669,854.7669,856.7722,0,0,0,0,1,,,,,,,,,,,,,,,,,,,,,,,,,,,,,,,,,,,,,,,,,,,,,,,,,,
,,5718a9c4dd9ef10013df01f0,38,female,2024-04-24_11h31.51.230,stockport_simplified,2022.2.4,Win32,61.72839506,661e456ee6de07e70aa9ef7b,6628df8b84caf05859bcb119,,,,,,,,,,,,,,,,,,,,,,,,,,,,,,,,,,,,,,,,,,,,,,,,,,,,,,,,1,43,103,0,1,A,X,N,o1_image,stimuli/out1.png,stimuli/correct_out1.png,stimuli/out2.png,,,,,,,,,,,,,,,,,,,,,,,,,,,,,,,,,,,,,,
,,5718a9c4dd9ef10013df01f0,38,female,2024-04-24_11h31.51.230,stockport_simplified,2022.2.4,Win32,61.72839506,661e456ee6de07e70aa9ef7b,6628df8b84caf05859bcb119,,,,,,,,,,,,,,,,,,,,,,,,,,,,,,,,,,856.7725,858.3179,"[5,2,1,8,7,6,4,3]","[[-0.3,0.2],[0.3,0.2]]","[[0.125,-0.2],[-0.125,-0.2]]",0.104629658,-0.19722225,1,0,0,1.0331,o1_image,858.3191,1,858.8175,858.8175,860.8182,0,0,0,0,1,,,,,,,,,,,,,,,,,,,,,,,,,,,,,,,,,,,,,,,,,,,,,,,,,,
,,5718a9c4dd9ef10013df01f0,38,female,2024-04-24_11h31.51.230,stockport_simplified,2022.2.4,Win32,61.72839506,661e456ee6de07e70aa9ef7b,6628df8b84caf05859bcb119,,,,,,,,,,,,,,,,,,,,,,,,,,,,,,,,,,,,,,,,,,,,,,,,,,,,,,,,1,44,104,4,1,A,X,N,o1_image,stimuli/out1.png,stimuli/correct_out1.png,stimuli/out2.png,,,,,,,,,,,,,,,,,,,,,,,,,,,,,,,,,,,,,,
,,5718a9c4dd9ef10013df01f0,38,female,2024-04-24_11h31.51.230,stockport_simplified,2022.2.4,Win32,61.72839506,661e456ee6de07e70aa9ef7b,6628df8b84caf05859bcb119,,,,,,,,,,,,,,,,,,,,,,,,,,,,,,,,,,860.8191,862.5347,"[5,2,1,8,7,6,4,3]","[[-0.3,0.2],[0.3,0.2]]","[[0.125,-0.2],[-0.125,-0.2]]",0.104629658,-0.19722225,1,0,0,1.1993,o1_image,862.5358,1,863.0351,863.0352,865.0351,0,0,0,0,1,,,,,,,,,,,,,,,,,,,,,,,,,,,,,,,,,,,,,,,,,,,,,,,,,,
,,5718a9c4dd9ef10013df01f0,38,female,2024-04-24_11h31.51.230,stockport_simplified,2022.2.4,Win32,61.72839506,661e456ee6de07e70aa9ef7b,6628df8b84caf05859bcb119,,,,,,,,,,,,,,,,,,,,,,,,,,,,,,,,,,,,,,,,,,,,,,,,,,,,,,,,1,45,105,9,1,A,Y,N,o1_image,stimuli/out1.png,stimuli/correct_out1.png,stimuli/out2.png,,,,,,,,,,,,,,,,,,,,,,,,,,,,,,,,,,,,,,
,,5718a9c4dd9ef10013df01f0,38,female,2024-04-24_11h31.51.230,stockport_simplified,2022.2.4,Win32,61.72839506,661e456ee6de07e70aa9ef7b,6628df8b84caf05859bcb119,,,,,,,,,,,,,,,,,,,,,,,,,,,,,,,,,,865.0361,866.935,"[5,2,1,8,7,6,4,3]","[[-0.3,0.2],[0.3,0.2]]","[[-0.125,-0.2],[0.125,-0.2]]",0.10555557,-0.199074074,1,0,0,1.3836,o2_image,866.9361,1,867.4345,867.4346,869.4346,0,0,0,0,1,,,,,,,,,,,,,,,,,,,,,,,,,,,,,,,,,,,,,,,,,,,,,,,,,,
,,5718a9c4dd9ef10013df01f0,38,female,2024-04-24_11h31.51.230,stockport_simplified,2022.2.4,Win32,61.72839506,661e456ee6de07e70aa9ef7b,6628df8b84caf05859bcb119,,,,,,,,,,,,,,,,,,,,,,,,,,,,,,,,,,,,,,,,,,,,,,,,,,,,,,,,1,46,106,17,1,B,Y,N,o2_image,stimuli/out2.png,stimuli/out1.png,stimuli/correct_out2.png,,,,,,,,,,,,,,,,,,,,,,,,,,,,,,,,,,,,,,
,,5718a9c4dd9ef10013df01f0,38,female,2024-04-24_11h31.51.230,stockport_simplified,2022.2.4,Win32,61.72839506,661e456ee6de07e70aa9ef7b,6628df8b84caf05859bcb119,,,,,,,,,,,,,,,,,,,,,,,,,,,,,,,,,,869.4353,871.0354,"[5,2,1,8,7,6,4,3]","[[0.3,0.2],[-0.3,0.2]]","[[0.125,-0.2],[-0.125,-0.2]]",0.10555557,-0.199074074,1,0,0,1.0827,o1_image,871.0365,1,871.535,871.5351,873.5347,0,0,0,0,1,,,,,,,,,,,,,,,,,,,,,,,,,,,,,,,,,,,,,,,,,,,,,,,,,,
,,5718a9c4dd9ef10013df01f0,38,female,2024-04-24_11h31.51.230,stockport_simplified,2022.2.4,Win32,61.72839506,661e456ee6de07e70aa9ef7b,6628df8b84caf05859bcb119,,,,,,,,,,,,,,,,,,,,,,,,,,,,,,,,,,,,,,,,,,,,,,,,,,,,,,,,1,47,107,8,1,A,Y,N,o1_image,stimuli/out1.png,stimuli/correct_out1.png,stimuli/out2.png,,,,,,,,,,,,,,,,,,,,,,,,,,,,,,,,,,,,,,
,,5718a9c4dd9ef10013df01f0,38,female,2024-04-24_11h31.51.230,stockport_simplified,2022.2.4,Win32,61.72839506,661e456ee6de07e70aa9ef7b,6628df8b84caf05859bcb119,,,,,,,,,,,,,,,,,,,,,,,,,,,,,,,,,,873.5352,875.3188,"[5,2,1,8,7,6,4,3]","[[0.3,0.2],[-0.3,0.2]]","[[0.125,-0.2],[-0.125,-0.2]]",-0.12037037,-0.195370356,1,0,0,1.282,o2_image,875.3198,1,875.8189,875.819,877.8184,0,0,0,0,1,,,,,,,,,,,,,,,,,,,,,,,,,,,,,,,,,,,,,,,,,,,,,,,,,,
,,5718a9c4dd9ef10013df01f0,38,female,2024-04-24_11h31.51.230,stockport_simplified,2022.2.4,Win32,61.72839506,661e456ee6de07e70aa9ef7b,6628df8b84caf05859bcb119,,,,,,,,,,,,,,,,,,,,,,,,,,,,,,,,,,,,,,,,,,,,,,,,,,,,,,,,1,48,108,48,1,B,Y,N,o2_image,stimuli/out2.png,stimuli/out1.png,stimuli/correct_out2.png,,,,,,,,,,,,,,,,,,,,,,,,,,,,,,,,,,,,,,
,,5718a9c4dd9ef10013df01f0,38,female,2024-04-24_11h31.51.230,stockport_simplified,2022.2.4,Win32,61.72839506,661e456ee6de07e70aa9ef7b,6628df8b84caf05859bcb119,,,,,,,,,,,,,,,,,,,,,,,,,,,,,,,,,,877.819,879.5852,"[5,2,1,8,7,6,4,3]","[[0.3,0.2],[-0.3,0.2]]","[[-0.125,-0.2],[0.125,-0.2]]",0.103703746,-0.188888903,1,0,0,1.2495,o2_image,879.5866,1,880.0861,880.0863,882.0861,0,0,0,0,1,,,,,,,,,,,,,,,,,,,,,,,,,,,,,,,,,,,,,,,,,,,,,,,,,,
,,5718a9c4dd9ef10013df01f0,38,female,2024-04-24_11h31.51.230,stockport_simplified,2022.2.4,Win32,61.72839506,661e456ee6de07e70aa9ef7b,6628df8b84caf05859bcb119,,,,,,,,,,,,,,,,,,,,,,,,,,,,,,,,,,,,,,,,,,,,,,,,,,,,,,,,1,49,109,19,1,B,Y,N,o2_image,stimuli/out2.png,stimuli/out1.png,stimuli/correct_out2.png,,,,,,,,,,,,,,,,,,,,,,,,,,,,,,,,,,,,,,
,,5718a9c4dd9ef10013df01f0,38,female,2024-04-24_11h31.51.230,stockport_simplified,2022.2.4,Win32,61.72839506,661e456ee6de07e70aa9ef7b,6628df8b84caf05859bcb119,,,,,,,,,,,,,,,,,,,,,,,,,,,,,,,,,,882.0871,883.9195,"[5,2,1,8,7,6,4,3]","[[-0.3,0.2],[0.3,0.2]]","[[-0.125,-0.2],[0.125,-0.2]]",0.071296339,-0.192592621,1,0,0,1.3141,o2_image,883.9204,1,884.419,884.419,886.4078,0,0,0,0,1,,,,,,,,,,,,,,,,,,,,,,,,,,,,,,,,,,,,,,,,,,,,,,,,,,
,,5718a9c4dd9ef10013df01f0,38,female,2024-04-24_11h31.51.230,stockport_simplified,2022.2.4,Win32,61.72839506,661e456ee6de07e70aa9ef7b,6628df8b84caf05859bcb119,,,,,,,,,,,,,,,,,,,,,,,,,,,,,,,,,,,,,,,,,,,,,,,,,,,,,,,,1,50,110,11,1,B,X,N,o2_image,stimuli/out2.png,stimuli/out1.png,stimuli/correct_out2.png,,,,,,,,,,,,,,,,,,,,,,,,,,,,,,,,,,,,,,
,,5718a9c4dd9ef10013df01f0,38,female,2024-04-24_11h31.51.230,stockport_simplified,2022.2.4,Win32,61.72839506,661e456ee6de07e70aa9ef7b,6628df8b84caf05859bcb119,,,,,,,,,,,,,,,,,,,,,,,,,,,,,,,,,,886.4083,888.0695,"[5,2,1,8,7,6,4,3]","[[-0.3,0.2],[0.3,0.2]]","[[-0.125,-0.2],[0.125,-0.2]]",-0.132407365,-0.20185188,1,0,0,1.1495,o1_image,888.0705,1,888.5694,888.5694,890.5701,0,0,0,0,1,,,,,,,,,,,,,,,,,,,,,,,,,,,,,,,,,,,,,,,,,,,,,,,,,,
,,5718a9c4dd9ef10013df01f0,38,female,2024-04-24_11h31.51.230,stockport_simplified,2022.2.4,Win32,61.72839506,661e456ee6de07e70aa9ef7b,6628df8b84caf05859bcb119,,,,,,,,,,,,,,,,,,,,,,,,,,,,,,,,,,,,,,,,,,,,,,,,,,,,,,,,1,51,111,6,1,A,Y,N,o1_image,stimuli/out1.png,stimuli/correct_out1.png,stimuli/out2.png,,,,,,,,,,,,,,,,,,,,,,,,,,,,,,,,,,,,,,
,,5718a9c4dd9ef10013df01f0,38,female,2024-04-24_11h31.51.230,stockport_simplified,2022.2.4,Win32,61.72839506,661e456ee6de07e70aa9ef7b,6628df8b84caf05859bcb119,,,,,,,,,,,,,,,,,,,,,,,,,,,,,,,,,,890.5711,892.4365,"[5,2,1,8,7,6,4,3]","[[0.3,0.2],[-0.3,0.2]]","[[-0.125,-0.2],[0.125,-0.2]]",-0.123148106,-0.195370356,1,0,0,1.3622,o1_image,892.4377,1,892.9366,892.9367,894.9366,0,0,0,0,1,,,,,,,,,,,,,,,,,,,,,,,,,,,,,,,,,,,,,,,,,,,,,,,,,,
,,5718a9c4dd9ef10013df01f0,38,female,2024-04-24_11h31.51.230,stockport_simplified,2022.2.4,Win32,61.72839506,661e456ee6de07e70aa9ef7b,6628df8b84caf05859bcb119,,,,,,,,,,,,,,,,,,,,,,,,,,,,,,,,,,,,,,,,,,,,,,,,,,,,,,,,1,52,112,36,1,A,Y,N,o1_image,stimuli/out1.png,stimuli/correct_out1.png,stimuli/out2.png,,,,,,,,,,,,,,,,,,,,,,,,,,,,,,,,,,,,,,
,,5718a9c4dd9ef10013df01f0,38,female,2024-04-24_11h31.51.230,stockport_simplified,2022.2.4,Win32,61.72839506,661e456ee6de07e70aa9ef7b,6628df8b84caf05859bcb119,,,,,,,,,,,,,,,,,,,,,,,,,,,,,,,,,,894.9376,896.77,"[5,2,1,8,7,6,4,3]","[[-0.3,0.2],[0.3,0.2]]","[[0.125,-0.2],[-0.125,-0.2]]",0.111111111,-0.183333362,1,0,0,1.3157,o1_image,896.7713,1,897.2701,897.2703,899.2584,0,0,0,0,1,,,,,,,,,,,,,,,,,,,,,,,,,,,,,,,,,,,,,,,,,,,,,,,,,,
,,5718a9c4dd9ef10013df01f0,38,female,2024-04-24_11h31.51.230,stockport_simplified,2022.2.4,Win32,61.72839506,661e456ee6de07e70aa9ef7b,6628df8b84caf05859bcb119,,,,,,,,,,,,,,,,,,,,,,,,,,,,,,,,,,,,,,,,,,,,,,,,,,,,,,,,1,53,113,3,1,A,X,N,o1_image,stimuli/out1.png,stimuli/correct_out1.png,stimuli/out2.png,,,,,,,,,,,,,,,,,,,,,,,,,,,,,,,,,,,,,,
,,5718a9c4dd9ef10013df01f0,38,female,2024-04-24_11h31.51.230,stockport_simplified,2022.2.4,Win32,61.72839506,661e456ee6de07e70aa9ef7b,6628df8b84caf05859bcb119,,,,,,,,,,,,,,,,,,,,,,,,,,,,,,,,,,899.2588,901.1199,"[5,2,1,8,7,6,4,3]","[[-0.3,0.2],[0.3,0.2]]","[[0.125,-0.2],[-0.125,-0.2]]",-0.117592564,-0.20648151,1,0,0,1.35,o2_image,901.1207,1,901.6196,901.6197,903.6197,0,0,0,0,1,,,,,,,,,,,,,,,,,,,,,,,,,,,,,,,,,,,,,,,,,,,,,,,,,,
,,5718a9c4dd9ef10013df01f0,38,female,2024-04-24_11h31.51.230,stockport_simplified,2022.2.4,Win32,61.72839506,661e456ee6de07e70aa9ef7b,6628df8b84caf05859bcb119,,,,,,,,,,,,,,,,,,,,,,,,,,,,,,,,,,,,,,,,,,,,,,,,,,,,,,,,1,54,114,29,1,N,M,D,o2_image,stimuli/out2.png,stimuli/out1.png,stimuli/correct_out2.png,,,,,,,,,,,,,,,,,,,,,,,,,,,,,,,,,,,,,,
,,5718a9c4dd9ef10013df01f0,38,female,2024-04-24_11h31.51.230,stockport_simplified,2022.2.4,Win32,61.72839506,661e456ee6de07e70aa9ef7b,6628df8b84caf05859bcb119,,,,,,,,,,,,,,,,,,,,,,,,,,,,,,,,,,903.6203,905.5707,"[5,2,1,8,7,6,4,3]","[[-0.3,0.2],[0.3,0.2]]","[[-0.125,-0.2],[0.125,-0.2]]",-0.087037051,-0.195370356,1,0,0,1.4332,o1_image,905.5718,1,906.0705,906.0706,908.0589,0,0,0,0,1,,,,,,,,,,,,,,,,,,,,,,,,,,,,,,,,,,,,,,,,,,,,,,,,,,
,,5718a9c4dd9ef10013df01f0,38,female,2024-04-24_11h31.51.230,stockport_simplified,2022.2.4,Win32,61.72839506,661e456ee6de07e70aa9ef7b,6628df8b84caf05859bcb119,,,,,,,,,,,,,,,,,,,,,,,,,,,,,,,,,,,,,,,,,,,,,,,,,,,,,,,,1,55,115,20,1,N,M,C,o1_image,stimuli/out1.png,stimuli/correct_out1.png,stimuli/out2.png,,,,,,,,,,,,,,,,,,,,,,,,,,,,,,,,,,,,,,
,,5718a9c4dd9ef10013df01f0,38,female,2024-04-24_11h31.51.230,stockport_simplified,2022.2.4,Win32,61.72839506,661e456ee6de07e70aa9ef7b,6628df8b84caf05859bcb119,,,,,,,,,,,,,,,,,,,,,,,,,,,,,,,,,,908.0594,909.8419,"[5,2,1,8,7,6,4,3]","[[-0.3,0.2],[0.3,0.2]]","[[0.125,-0.2],[-0.125,-0.2]]",-0.119444459,-0.175000014,1,0,0,1.271,o2_image,909.8423,1,910.3372,910.3372,912.3378,0,0,0,0,1,,,,,,,,,,,,,,,,,,,,,,,,,,,,,,,,,,,,,,,,,,,,,,,,,,
,,5718a9c4dd9ef10013df01f0,38,female,2024-04-24_11h31.51.230,stockport_simplified,2022.2.4,Win32,61.72839506,661e456ee6de07e70aa9ef7b,6628df8b84caf05859bcb119,,,,,,,,,,,,,,,,,,,,,,,,,,,,,,,,,,,,,,,,,,,,,,,,,,,,,,,,1,56,116,43,1,B,X,N,o2_image,stimuli/out2.png,stimuli/out1.png,stimuli/correct_out2.png,,,,,,,,,,,,,,,,,,,,,,,,,,,,,,,,,,,,,,
,,5718a9c4dd9ef10013df01f0,38,female,2024-04-24_11h31.51.230,stockport_simplified,2022.2.4,Win32,61.72839506,661e456ee6de07e70aa9ef7b,6628df8b84caf05859bcb119,,,,,,,,,,,,,,,,,,,,,,,,,,,,,,,,,,912.3388,914.0045,"[5,2,1,8,7,6,4,3]","[[0.3,0.2],[-0.3,0.2]]","[[-0.125,-0.2],[0.125,-0.2]]",0.092592593,-0.172222208,1,0,0,1.1496,o2_image,914.0056,1,914.5041,914.5042,916.5045,0,0,0,0,1,,,,,,,,,,,,,,,,,,,,,,,,,,,,,,,,,,,,,,,,,,,,,,,,,,
,,5718a9c4dd9ef10013df01f0,38,female,2024-04-24_11h31.51.230,stockport_simplified,2022.2.4,Win32,61.72839506,661e456ee6de07e70aa9ef7b,6628df8b84caf05859bcb119,,,,,,,,,,,,,,,,,,,,,,,,,,,,,,,,,,,,,,,,,,,,,,,,,,,,,,,,1,57,117,45,1,B,Y,N,o2_image,stimuli/out2.png,stimuli/out1.png,stimuli/correct_out2.png,,,,,,,,,,,,,,,,,,,,,,,,,,,,,,,,,,,,,,
,,5718a9c4dd9ef10013df01f0,38,female,2024-04-24_11h31.51.230,stockport_simplified,2022.2.4,Win32,61.72839506,661e456ee6de07e70aa9ef7b,6628df8b84caf05859bcb119,,,,,,,,,,,,,,,,,,,,,,,,,,,,,,,,,,916.5054,918.2208,"[5,2,1,8,7,6,4,3]","[[0.3,0.2],[-0.3,0.2]]","[[0.125,-0.2],[-0.125,-0.2]]",0.092592593,-0.178703732,1,0,0,1.1991,o1_image,918.2219,1,918.7213,918.7213,920.7268,0,0,0,0,1,,,,,,,,,,,,,,,,,,,,,,,,,,,,,,,,,,,,,,,,,,,,,,,,,,
,,5718a9c4dd9ef10013df01f0,38,female,2024-04-24_11h31.51.230,stockport_simplified,2022.2.4,Win32,61.72839506,661e456ee6de07e70aa9ef7b,6628df8b84caf05859bcb119,,,,,,,,,,,,,,,,,,,,,,,,,,,,,,,,,,,,,,,,,,,,,,,,,,,,,,,,1,58,118,2,1,A,X,N,o1_image,stimuli/out1.png,stimuli/correct_out1.png,stimuli/out2.png,,,,,,,,,,,,,,,,,,,,,,,,,,,,,,,,,,,,,,
,,5718a9c4dd9ef10013df01f0,38,female,2024-04-24_11h31.51.230,stockport_simplified,2022.2.4,Win32,61.72839506,661e456ee6de07e70aa9ef7b,6628df8b84caf05859bcb119,,,,,,,,,,,,,,,,,,,,,,,,,,,,,,,,,,920.7275,922.505,"[5,2,1,8,7,6,4,3]","[[0.3,0.2],[-0.3,0.2]]","[[-0.125,-0.2],[0.125,-0.2]]",-0.116666653,-0.199999986,1,0,0,1.2659,o1_image,922.5061,1,923.0049,923.0049,925.0051,0,0,0,0,1,,,,,,,,,,,,,,,,,,,,,,,,,,,,,,,,,,,,,,,,,,,,,,,,,,
,,5718a9c4dd9ef10013df01f0,38,female,2024-04-24_11h31.51.230,stockport_simplified,2022.2.4,Win32,61.72839506,661e456ee6de07e70aa9ef7b,6628df8b84caf05859bcb119,,,,,,,,,,,,,,,,,,,,,,,,,,,,,,,,,,,,,,,,,,,,,,,,,,,,,,,,1,59,119,50,1,N,M,C,o1_image,stimuli/out1.png,stimuli/correct_out1.png,stimuli/out2.png,,,,,,,,,,,,,,,,,,,,,,,,,,,,,,,,,,,,,,
,,5718a9c4dd9ef10013df01f0,38,female,2024-04-24_11h31.51.230,stockport_simplified,2022.2.4,Win32,61.72839506,661e456ee6de07e70aa9ef7b,6628df8b84caf05859bcb119,,,,,,,,,,,,,,,,,,,,,,,,,,,,,,,,,,925.0176,926.9554,"[5,2,1,8,7,6,4,3]","[[-0.3,0.2],[0.3,0.2]]","[[-0.125,-0.2],[0.125,-0.2]]",0.114814829,-0.187037079,1,0,0,1.4327,o2_image,926.9565,1,927.455,927.455,929.4554,,,,,,,,,,,,,,,,,,0,0,0,0,1,,,,,,,,,,,,,,,,,,,,,,,,,,,,,,,,,
,,5718a9c4dd9ef10013df01f0,38,female,2024-04-24_11h31.51.230,stockport_simplified,2022.2.4,Win32,61.72839506,661e456ee6de07e70aa9ef7b,6628df8b84caf05859bcb119,,,,,,,,,,,,,,,,,,,,,,,,,,,,,,,,,,,,,,,,,,,,,,,,,,,,,,,,,,,,,B,Y,N,o2_image,stimuli/out2.png,stimuli/out1.png,stimuli/correct_out2.png,,,,,,0,0,0,38,1,,,,,,,,,,,,,,,,,,,,,,,,,,,,
,,5718a9c4dd9ef10013df01f0,38,female,2024-04-24_11h31.51.230,stockport_simplified,2022.2.4,Win32,61.72839506,661e456ee6de07e70aa9ef7b,6628df8b84caf05859bcb119,,,,,,,,,,,,,,,,,,,,,,,,,,,,,,,,,,929.4566,931.8213,"[5,2,1,8,7,6,4,3]","[[-0.3,0.2],[0.3,0.2]]","[[0.125,-0.2],[-0.125,-0.2]]",0.147222236,-0.191666709,1,0,0,1.8489,o1_image,931.8278,1,932.3222,932.3223,934.3226,,,,,,,,,,,,,,,,,,0,0,0,0,1,,,,,,,,,,,,,,,,,,,,,,,,,,,,,,,,,
,,5718a9c4dd9ef10013df01f0,38,female,2024-04-24_11h31.51.230,stockport_simplified,2022.2.4,Win32,61.72839506,661e456ee6de07e70aa9ef7b,6628df8b84caf05859bcb119,,,,,,,,,,,,,,,,,,,,,,,,,,,,,,,,,,,,,,,,,,,,,,,,,,,,,,,,,,,,,A,Y,N,o1_image,stimuli/out1.png,stimuli/correct_out1.png,stimuli/out2.png,,,,,,0,1,1,16,1,,,,,,,,,,,,,,,,,,,,,,,,,,,,
,,5718a9c4dd9ef10013df01f0,38,female,2024-04-24_11h31.51.230,stockport_simplified,2022.2.4,Win32,61.72839506,661e456ee6de07e70aa9ef7b,6628df8b84caf05859bcb119,,,,,,,,,,,,,,,,,,,,,,,,,,,,,,,,,,934.3234,936.3721,"[5,2,1,8,7,6,4,3]","[[-0.3,0.2],[0.3,0.2]]","[[-0.125,-0.2],[0.125,-0.2]]",0.116666653,-0.184259273,1,0,0,1.545,o2_image,936.3732,1,936.8723,936.8723,938.8722,,,,,,,,,,,,,,,,,,0,0,0,0,1,,,,,,,,,,,,,,,,,,,,,,,,,,,,,,,,,
,,5718a9c4dd9ef10013df01f0,38,female,2024-04-24_11h31.51.230,stockport_simplified,2022.2.4,Win32,61.72839506,661e456ee6de07e70aa9ef7b,6628df8b84caf05859bcb119,,,,,,,,,,,,,,,,,,,,,,,,,,,,,,,,,,,,,,,,,,,,,,,,,,,,,,,,,,,,,N,M,D,o2_image,stimuli/out2.png,stimuli/out1.png,stimuli/correct_out2.png,,,,,,0,2,2,53,1,,,,,,,,,,,,,,,,,,,,,,,,,,,,
,,5718a9c4dd9ef10013df01f0,38,female,2024-04-24_11h31.51.230,stockport_simplified,2022.2.4,Win32,61.72839506,661e456ee6de07e70aa9ef7b,6628df8b84caf05859bcb119,,,,,,,,,,,,,,,,,,,,,,,,,,,,,,,,,,938.8728,940.5889,"[5,2,1,8,7,6,4,3]","[[0.3,0.2],[-0.3,0.2]]","[[0.125,-0.2],[-0.125,-0.2]]",-0.093518504,-0.185185185,1,0,0,1.1988,o2_image,940.59,1,941.0889,941.0889,943.0893,,,,,,,,,,,,,,,,,,0,0,0,0,1,,,,,,,,,,,,,,,,,,,,,,,,,,,,,,,,,
