counterbalance_2.started,counterbalance_2.stopped,participant,age,gender,date,expName,psychopyVersion,OS,frameRate,STUDY_ID,SESSION_ID,information_2.started,information_2.stopped,information_loop.thisRepN,information_loop.thisTrialN,information_loop.thisN,information_loop.thisIndex,information_loop.ran,information,consent_2.started,consent_2.stopped,slider_1.response,slider_2.response,slider_3.response,slider_4.response,slider_5.response,slider_6.response,instructions.started,instructions.stopped,task1_instr.thisRepN,task1_instr.thisTrialN,task1_instr.thisN,task1_instr.thisIndex,task1_instr.ran,task1,comprehension1_2.started,comprehension1_2.stopped,comp1_mouse.x,comp1_mouse.y,comp1_mouse.leftButton,comp1_mouse.midButton,comp1_mouse.rightButton,comp1_mouse.time,comp1_mouse.clicked_name,cue_o__trial_2.started,cue_o__trial_2.stopped,order,cue_order,out_order,cue_o_mouse.x,cue_o_mouse.y,cue_o_mouse.leftButton,cue_o_mouse.midButton,cue_o_mouse.rightButton,cue_o_mouse.time,cue_o_mouse.clicked_name,cue_selection_2.started,correct_answer,cue_selection_2.stopped,feedback_2.started,feedback_2.stopped,feedback_loop.thisRepN,feedback_loop.thisTrialN,feedback_loop.thisN,feedback_loop.thisIndex,feedback_loop.ran,stage1_trials.thisRepN,stage1_trials.thisTrialN,stage1_trials.thisN,stage1_trials.thisIndex,stage1_trials.ran,cue1,cue2,cue3,outcome,correct_out,o1_feedback,o2_feedback,stage2_feedback_loop.thisRepN,stage2_feedback_loop.thisTrialN,stage2_feedback_loop.thisN,stage2_feedback_loop.thisIndex,stage2_feedback_loop.ran,stage2_trials.thisRepN,stage2_trials.thisTrialN,stage2_trials.thisN,stage2_trials.thisIndex,stage2_trials.ran,stage3_feedback_loop.thisRepN,stage3_feedback_loop.thisTrialN,stage3_feedback_loop.thisN,stage3_feedback_loop.thisIndex,stage3_feedback_loop.ran,stage3_trials.thisRepN,stage3_trials.thisTrialN,stage3_trials.thisN,stage3_trials.thisIndex,stage3_trials.ran,debrief_2.started,debrief_2.stopped,debrief_loop.thisRepN,debrief_loop.thisTrialN,debrief_loop.thisN,debrief_loop.thisIndex,debrief_loop.ran,debrief_img,compr1_completed.thisRepN,compr1_completed.thisTrialN,compr1_completed.thisN,compr1_completed.thisIndex,compr1_completed.ran,consent_loop.thisRepN,consent_loop.thisTrialN,consent_loop.thisN,consent_loop.thisIndex,consent_loop.ran
0.0001,0.0003,6147c5874b61952e42e9b2bd,27,male,2024-04-24_11h32.24.143,stockport_simplified,2022.2.4,Win32,142.8571429,661e456ee6de07e70aa9ef7b,6628df8d2ec4bdf738651ece,,,,,,,,,,,,,,,,,,,,,,,,,,,,,,,,,,,,,,,,,,,,,,,,,,,,,,,,,,,,,,,,,,,,,,,,,,,,,,,,,,,,,,,,,,,,,,,,,,,,,,,,,
,,6147c5874b61952e42e9b2bd,27,male,2024-04-24_11h32.24.143,stockport_simplified,2022.2.4,Win32,142.8571429,661e456ee6de07e70aa9ef7b,6628df8d2ec4bdf738651ece,0.0109,9.5229,0,0,0,0,1,instructions/info1.png,,,,,,,,,,,,,,,,,,,,,,,,,,,,,,,,,,,,,,,,,,,,,,,,,,,,,,,,,,,,,,,,,,,,,,,,,,,,,,,,,,,,,,,,,,,,,,,,,
,,6147c5874b61952e42e9b2bd,27,male,2024-04-24_11h32.24.143,stockport_simplified,2022.2.4,Win32,142.8571429,661e456ee6de07e70aa9ef7b,6628df8d2ec4bdf738651ece,9.5232,10.8712,0,1,1,1,1,instructions/info2.png,,,,,,,,,,,,,,,,,,,,,,,,,,,,,,,,,,,,,,,,,,,,,,,,,,,,,,,,,,,,,,,,,,,,,,,,,,,,,,,,,,,,,,,,,,,,,,,,,
,,6147c5874b61952e42e9b2bd,27,male,2024-04-24_11h32.24.143,stockport_simplified,2022.2.4,Win32,142.8571429,661e456ee6de07e70aa9ef7b,6628df8d2ec4bdf738651ece,10.8715,12.0112,0,2,2,2,1,instructions/info3.png,,,,,,,,,,,,,,,,,,,,,,,,,,,,,,,,,,,,,,,,,,,,,,,,,,,,,,,,,,,,,,,,,,,,,,,,,,,,,,,,,,,,,,,,,,,,,,,,,
,,6147c5874b61952e42e9b2bd,27,male,2024-04-24_11h32.24.143,stockport_simplified,2022.2.4,Win32,142.8571429,661e456ee6de07e70aa9ef7b,6628df8d2ec4bdf738651ece,,,,,,,,,12.0114,18.643,1,1,1,1,1,1,,,,,,,,,,,,,,,,,,,,,,,,,,,,,,,,,,,,,,,,,,,,,,,,,,,,,,,,,,,,,,,,,,,,,,,,,,,,,,,,,,,,,,,,,
,,6147c5874b61952e42e9b2bd,27,male,2024-04-24_11h32.24.143,stockport_simplified,2022.2.4,Win32,142.8571429,661e456ee6de07e70aa9ef7b,6628df8d2ec4bdf738651ece,,,,,,,,,,,,,,,,,18.6473,27.7631,0,0,0,0,1,instructions/task1_1.png,,,,,,,,,,,,,,,,,,,,,,,,,,,,,,,,,,,,,,,,,,,,,,,,,,,,,,,,,,,,,,,,,,,,,,,,,,,,,,,,,
,,6147c5874b61952e42e9b2bd,27,male,2024-04-24_11h32.24.143,stockport_simplified,2022.2.4,Win32,142.8571429,661e456ee6de07e70aa9ef7b,6628df8d2ec4bdf738651ece,,,,,,,,,,,,,,,,,27.7633,32.8304,0,1,1,1,1,instructions/task1_2.png,,,,,,,,,,,,,,,,,,,,,,,,,,,,,,,,,,,,,,,,,,,,,,,,,,,,,,,,,,,,,,,,,,,,,,,,,,,,,,,,,
,,6147c5874b61952e42e9b2bd,27,male,2024-04-24_11h32.24.143,stockport_simplified,2022.2.4,Win32,142.8571429,661e456ee6de07e70aa9ef7b,6628df8d2ec4bdf738651ece,,,,,,,,,,,,,,,,,32.8306,40.5256,0,2,2,2,1,instructions/task1_3.png,,,,,,,,,,,,,,,,,,,,,,,,,,,,,,,,,,,,,,,,,,,,,,,,,,,,,,,,,,,,,,,,,,,,,,,,,,,,,,,,,
,,6147c5874b61952e42e9b2bd,27,male,2024-04-24_11h32.24.143,stockport_simplified,2022.2.4,Win32,142.8571429,661e456ee6de07e70aa9ef7b,6628df8d2ec4bdf738651ece,,,,,,,,,,,,,,,,,,,,,,,,,40.5258,50.3412,-0.175,-0.327083333,1,0,0,9.815,comp1_resp1,50.3531,52.2595,"[4,5,1,7,2,6,8,3]","[[-0.3,0.2],[0.3,0.2]]","[[-0.125,-0.2],[0.125,-0.2]]",-0.134722222,-0.221527778,1,0,0,1.4039,o1_image,52.2601,1,52.7599,52.7599,54.762,0,0,0,0,1,,,,,,,,,,,,,,,,,,,,,,,,,,,,,,,,,,,,,,,,,,,,,,,,,,
,,6147c5874b61952e42e9b2bd,27,male,2024-04-24_11h32.24.143,stockport_simplified,2022.2.4,Win32,142.8571429,661e456ee6de07e70aa9ef7b,6628df8d2ec4bdf738651ece,,,,,,,,,,,,,,,,,,,,,,,,,,,,,,,,,,,,,,,,,,,,,,,,,,,,,,,,0,0,0,36,1,A,Y,N,o1_image,stimuli/out1.png,stimuli/correct_out1.png,stimuli/out2.png,,,,,,,,,,,,,,,,,,,,,,,,,,,,,,,,,,,,,,
,,6147c5874b61952e42e9b2bd,27,male,2024-04-24_11h32.24.143,stockport_simplified,2022.2.4,Win32,142.8571429,661e456ee6de07e70aa9ef7b,6628df8d2ec4bdf738651ece,,,,,,,,,,,,,,,,,,,,,,,,,,,,,,,,,,54.7623,56.4579,"[4,5,1,7,2,6,8,3]","[[0.3,0.2],[-0.3,0.2]]","[[0.125,-0.2],[-0.125,-0.2]]",0.106944444,-0.188888889,1,0,0,1.1886,o1_image,56.4582,1,56.9584,56.9584,58.9534,0,0,0,0,1,,,,,,,,,,,,,,,,,,,,,,,,,,,,,,,,,,,,,,,,,,,,,,,,,,
,,6147c5874b61952e42e9b2bd,27,male,2024-04-24_11h32.24.143,stockport_simplified,2022.2.4,Win32,142.8571429,661e456ee6de07e70aa9ef7b,6628df8d2ec4bdf738651ece,,,,,,,,,,,,,,,,,,,,,,,,,,,,,,,,,,,,,,,,,,,,,,,,,,,,,,,,0,1,1,31,1,A,X,N,o1_image,stimuli/out1.png,stimuli/correct_out1.png,stimuli/out2.png,,,,,,,,,,,,,,,,,,,,,,,,,,,,,,,,,,,,,,
,,6147c5874b61952e42e9b2bd,27,male,2024-04-24_11h32.24.143,stockport_simplified,2022.2.4,Win32,142.8571429,661e456ee6de07e70aa9ef7b,6628df8d2ec4bdf738651ece,,,,,,,,,,,,,,,,,,,,,,,,,,,,,,,,,,58.9537,60.3855,"[4,5,1,7,2,6,8,3]","[[-0.3,0.2],[0.3,0.2]]","[[0.125,-0.2],[-0.125,-0.2]]",0.104861111,-0.188888889,1,0,0,0.931,o1_image,60.3858,0,60.8865,60.8866,62.8885,0,0,0,0,1,,,,,,,,,,,,,,,,,,,,,,,,,,,,,,,,,,,,,,,,,,,,,,,,,,
,,6147c5874b61952e42e9b2bd,27,male,2024-04-24_11h32.24.143,stockport_simplified,2022.2.4,Win32,142.8571429,661e456ee6de07e70aa9ef7b,6628df8d2ec4bdf738651ece,,,,,,,,,,,,,,,,,,,,,,,,,,,,,,,,,,,,,,,,,,,,,,,,,,,,,,,,0,2,2,45,1,B,Y,N,o2_image,stimuli/out2.png,stimuli/out1.png,stimuli/correct_out2.png,,,,,,,,,,,,,,,,,,,,,,,,,,,,,,,,,,,,,,
,,6147c5874b61952e42e9b2bd,27,male,2024-04-24_11h32.24.143,stockport_simplified,2022.2.4,Win32,142.8571429,661e456ee6de07e70aa9ef7b,6628df8d2ec4bdf738651ece,,,,,,,,,,,,,,,,,,,,,,,,,,,,,,,,,,62.8887,64.7858,"[4,5,1,7,2,6,8,3]","[[-0.3,0.2],[0.3,0.2]]","[[-0.125,-0.2],[0.125,-0.2]]",-0.090972222,-0.196527778,1,0,0,1.3966,o1_image,64.7861,1,65.2867,65.2867,67.2888,0,0,0,0,1,,,,,,,,,,,,,,,,,,,,,,,,,,,,,,,,,,,,,,,,,,,,,,,,,,
,,6147c5874b61952e42e9b2bd,27,male,2024-04-24_11h32.24.143,stockport_simplified,2022.2.4,Win32,142.8571429,661e456ee6de07e70aa9ef7b,6628df8d2ec4bdf738651ece,,,,,,,,,,,,,,,,,,,,,,,,,,,,,,,,,,,,,,,,,,,,,,,,,,,,,,,,0,3,3,37,1,A,Y,N,o1_image,stimuli/out1.png,stimuli/correct_out1.png,stimuli/out2.png,,,,,,,,,,,,,,,,,,,,,,,,,,,,,,,,,,,,,,
,,6147c5874b61952e42e9b2bd,27,male,2024-04-24_11h32.24.143,stockport_simplified,2022.2.4,Win32,142.8571429,661e456ee6de07e70aa9ef7b,6628df8d2ec4bdf738651ece,,,,,,,,,,,,,,,,,,,,,,,,,,,,,,,,,,67.2889,68.602,"[4,5,1,7,2,6,8,3]","[[-0.3,0.2],[0.3,0.2]]","[[-0.125,-0.2],[0.125,-0.2]]",-0.079166667,-0.188194444,1,0,0,0.8127,o1_image,68.6023,1,69.1024,69.1024,71.0974,0,0,0,0,1,,,,,,,,,,,,,,,,,,,,,,,,,,,,,,,,,,,,,,,,,,,,,,,,,,
,,6147c5874b61952e42e9b2bd,27,male,2024-04-24_11h32.24.143,stockport_simplified,2022.2.4,Win32,142.8571429,661e456ee6de07e70aa9ef7b,6628df8d2ec4bdf738651ece,,,,,,,,,,,,,,,,,,,,,,,,,,,,,,,,,,,,,,,,,,,,,,,,,,,,,,,,0,4,4,38,1,A,Y,N,o1_image,stimuli/out1.png,stimuli/correct_out1.png,stimuli/out2.png,,,,,,,,,,,,,,,,,,,,,,,,,,,,,,,,,,,,,,
,,6147c5874b61952e42e9b2bd,27,male,2024-04-24_11h32.24.143,stockport_simplified,2022.2.4,Win32,142.8571429,661e456ee6de07e70aa9ef7b,6628df8d2ec4bdf738651ece,,,,,,,,,,,,,,,,,,,,,,,,,,,,,,,,,,71.0976,72.8223,"[4,5,1,7,2,6,8,3]","[[-0.3,0.2],[0.3,0.2]]","[[0.125,-0.2],[-0.125,-0.2]]",0.073611111,-0.194444444,1,0,0,1.2241,o1_image,72.8225,1,73.3226,73.3226,75.3238,0,0,0,0,1,,,,,,,,,,,,,,,,,,,,,,,,,,,,,,,,,,,,,,,,,,,,,,,,,,
,,6147c5874b61952e42e9b2bd,27,male,2024-04-24_11h32.24.143,stockport_simplified,2022.2.4,Win32,142.8571429,661e456ee6de07e70aa9ef7b,6628df8d2ec4bdf738651ece,,,,,,,,,,,,,,,,,,,,,,,,,,,,,,,,,,,,,,,,,,,,,,,,,,,,,,,,0,5,5,30,1,A,X,N,o1_image,stimuli/out1.png,stimuli/correct_out1.png,stimuli/out2.png,,,,,,,,,,,,,,,,,,,,,,,,,,,,,,,,,,,,,,
,,6147c5874b61952e42e9b2bd,27,male,2024-04-24_11h32.24.143,stockport_simplified,2022.2.4,Win32,142.8571429,661e456ee6de07e70aa9ef7b,6628df8d2ec4bdf738651ece,,,,,,,,,,,,,,,,,,,,,,,,,,,,,,,,,,75.3241,77.0061,"[4,5,1,7,2,6,8,3]","[[-0.3,0.2],[0.3,0.2]]","[[-0.125,-0.2],[0.125,-0.2]]",-0.10625,-0.179166667,1,0,0,1.1816,o1_image,77.0065,0,77.5072,77.5072,79.5024,0,0,0,0,1,,,,,,,,,,,,,,,,,,,,,,,,,,,,,,,,,,,,,,,,,,,,,,,,,,
,,6147c5874b61952e42e9b2bd,27,male,2024-04-24_11h32.24.143,stockport_simplified,2022.2.4,Win32,142.8571429,661e456ee6de07e70aa9ef7b,6628df8d2ec4bdf738651ece,,,,,,,,,,,,,,,,,,,,,,,,,,,,,,,,,,,,,,,,,,,,,,,,,,,,,,,,0,6,6,42,1,B,X,N,o2_image,stimuli/out2.png,stimuli/out1.png,stimuli/correct_out2.png,,,,,,,,,,,,,,,,,,,,,,,,,,,,,,,,,,,,,,
,,6147c5874b61952e42e9b2bd,27,male,2024-04-24_11h32.24.143,stockport_simplified,2022.2.4,Win32,142.8571429,661e456ee6de07e70aa9ef7b,6628df8d2ec4bdf738651ece,,,,,,,,,,,,,,,,,,,,,,,,,,,,,,,,,,79.5026,82.1439,"[4,5,1,7,2,6,8,3]","[[-0.3,0.2],[0.3,0.2]]","[[-0.125,-0.2],[0.125,-0.2]]",0.018055556,0.022222222,1,0,0,1.7656,o2_image,82.1442,0,82.6443,82.6443,84.6462,0,0,0,0,1,,,,,,,,,,,,,,,,,,,,,,,,,,,,,,,,,,,,,,,,,,,,,,,,,,
,,6147c5874b61952e42e9b2bd,27,male,2024-04-24_11h32.24.143,stockport_simplified,2022.2.4,Win32,142.8571429,661e456ee6de07e70aa9ef7b,6628df8d2ec4bdf738651ece,,,,,,,,,,,,,,,,,,,,,,,,,,,,,,,,,,,,,,,,,,,,,,,,,,,,,,,,0,7,7,0,1,A,X,N,o1_image,stimuli/out1.png,stimuli/correct_out1.png,stimuli/out2.png,,,,,,,,,,,,,,,,,,,,,,,,,,,,,,,,,,,,,,
,,6147c5874b61952e42e9b2bd,27,male,2024-04-24_11h32.24.143,stockport_simplified,2022.2.4,Win32,142.8571429,661e456ee6de07e70aa9ef7b,6628df8d2ec4bdf738651ece,,,,,,,,,,,,,,,,,,,,,,,,,,,,,,,,,,84.6464,86.4677,"[4,5,1,7,2,6,8,3]","[[-0.3,0.2],[0.3,0.2]]","[[0.125,-0.2],[-0.125,-0.2]]",0.113888889,-0.134027778,1,0,0,1.321,o1_image,86.4679,1,86.9673,86.9673,88.9623,0,0,0,0,1,,,,,,,,,,,,,,,,,,,,,,,,,,,,,,,,,,,,,,,,,,,,,,,,,,
,,6147c5874b61952e42e9b2bd,27,male,2024-04-24_11h32.24.143,stockport_simplified,2022.2.4,Win32,142.8571429,661e456ee6de07e70aa9ef7b,6628df8d2ec4bdf738651ece,,,,,,,,,,,,,,,,,,,,,,,,,,,,,,,,,,,,,,,,,,,,,,,,,,,,,,,,0,8,8,3,1,A,X,N,o1_image,stimuli/out1.png,stimuli/correct_out1.png,stimuli/out2.png,,,,,,,,,,,,,,,,,,,,,,,,,,,,,,,,,,,,,,
,,6147c5874b61952e42e9b2bd,27,male,2024-04-24_11h32.24.143,stockport_simplified,2022.2.4,Win32,142.8571429,661e456ee6de07e70aa9ef7b,6628df8d2ec4bdf738651ece,,,,,,,,,,,,,,,,,,,,,,,,,,,,,,,,,,88.9625,90.8114,"[4,5,1,7,2,6,8,3]","[[-0.3,0.2],[0.3,0.2]]","[[0.125,-0.2],[-0.125,-0.2]]",0.082638889,-0.133333333,1,0,0,1.3484,o1_image,90.8118,1,91.3127,91.3127,93.3145,0,0,0,0,1,,,,,,,,,,,,,,,,,,,,,,,,,,,,,,,,,,,,,,,,,,,,,,,,,,
,,6147c5874b61952e42e9b2bd,27,male,2024-04-24_11h32.24.143,stockport_simplified,2022.2.4,Win32,142.8571429,661e456ee6de07e70aa9ef7b,6628df8d2ec4bdf738651ece,,,,,,,,,,,,,,,,,,,,,,,,,,,,,,,,,,,,,,,,,,,,,,,,,,,,,,,,0,9,9,8,1,A,Y,N,o1_image,stimuli/out1.png,stimuli/correct_out1.png,stimuli/out2.png,,,,,,,,,,,,,,,,,,,,,,,,,,,,,,,,,,,,,,
,,6147c5874b61952e42e9b2bd,27,male,2024-04-24_11h32.24.143,stockport_simplified,2022.2.4,Win32,142.8571429,661e456ee6de07e70aa9ef7b,6628df8d2ec4bdf738651ece,,,,,,,,,,,,,,,,,,,,,,,,,,,,,,,,,,93.3147,94.9135,"[4,5,1,7,2,6,8,3]","[[-0.3,0.2],[0.3,0.2]]","[[-0.125,-0.2],[0.125,-0.2]]",-0.122222222,-0.105555556,1,0,0,1.0984,o1_image,94.9137,0,95.414,95.414,97.4157,0,0,0,0,1,,,,,,,,,,,,,,,,,,,,,,,,,,,,,,,,,,,,,,,,,,,,,,,,,,
,,6147c5874b61952e42e9b2bd,27,male,2024-04-24_11h32.24.143,stockport_simplified,2022.2.4,Win32,142.8571429,661e456ee6de07e70aa9ef7b,6628df8d2ec4bdf738651ece,,,,,,,,,,,,,,,,,,,,,,,,,,,,,,,,,,,,,,,,,,,,,,,,,,,,,,,,0,10,10,15,1,B,Y,N,o2_image,stimuli/out2.png,stimuli/out1.png,stimuli/correct_out2.png,,,,,,,,,,,,,,,,,,,,,,,,,,,,,,,,,,,,,,
,,6147c5874b61952e42e9b2bd,27,male,2024-04-24_11h32.24.143,stockport_simplified,2022.2.4,Win32,142.8571429,661e456ee6de07e70aa9ef7b,6628df8d2ec4bdf738651ece,,,,,,,,,,,,,,,,,,,,,,,,,,,,,,,,,,97.4159,99.5145,"[4,5,1,7,2,6,8,3]","[[-0.3,0.2],[0.3,0.2]]","[[-0.125,-0.2],[0.125,-0.2]]",-0.109027778,-0.090277778,1,0,0,1.2788,o1_image,99.5148,1,100.0152,100.0152,102.0169,0,0,0,0,1,,,,,,,,,,,,,,,,,,,,,,,,,,,,,,,,,,,,,,,,,,,,,,,,,,
,,6147c5874b61952e42e9b2bd,27,male,2024-04-24_11h32.24.143,stockport_simplified,2022.2.4,Win32,142.8571429,661e456ee6de07e70aa9ef7b,6628df8d2ec4bdf738651ece,,,,,,,,,,,,,,,,,,,,,,,,,,,,,,,,,,,,,,,,,,,,,,,,,,,,,,,,0,11,11,21,1,N,M,C,o1_image,stimuli/out1.png,stimuli/correct_out1.png,stimuli/out2.png,,,,,,,,,,,,,,,,,,,,,,,,,,,,,,,,,,,,,,
,,6147c5874b61952e42e9b2bd,27,male,2024-04-24_11h32.24.143,stockport_simplified,2022.2.4,Win32,142.8571429,661e456ee6de07e70aa9ef7b,6628df8d2ec4bdf738651ece,,,,,,,,,,,,,,,,,,,,,,,,,,,,,,,,,,102.0172,103.6374,"[4,5,1,7,2,6,8,3]","[[-0.3,0.2],[0.3,0.2]]","[[0.125,-0.2],[-0.125,-0.2]]",-0.099305556,-0.138194444,1,0,0,1.1199,o2_image,103.6376,0,104.1377,104.1377,106.1391,0,0,0,0,1,,,,,,,,,,,,,,,,,,,,,,,,,,,,,,,,,,,,,,,,,,,,,,,,,,
,,6147c5874b61952e42e9b2bd,27,male,2024-04-24_11h32.24.143,stockport_simplified,2022.2.4,Win32,142.8571429,661e456ee6de07e70aa9ef7b,6628df8d2ec4bdf738651ece,,,,,,,,,,,,,,,,,,,,,,,,,,,,,,,,,,,,,,,,,,,,,,,,,,,,,,,,0,12,12,50,1,N,M,C,o1_image,stimuli/out1.png,stimuli/correct_out1.png,stimuli/out2.png,,,,,,,,,,,,,,,,,,,,,,,,,,,,,,,,,,,,,,
,,6147c5874b61952e42e9b2bd,27,male,2024-04-24_11h32.24.143,stockport_simplified,2022.2.4,Win32,142.8571429,661e456ee6de07e70aa9ef7b,6628df8d2ec4bdf738651ece,,,,,,,,,,,,,,,,,,,,,,,,,,,,,,,,,,106.1393,107.9543,"[4,5,1,7,2,6,8,3]","[[-0.3,0.2],[0.3,0.2]]","[[-0.125,-0.2],[0.125,-0.2]]",-0.111111111,-0.121527778,1,0,0,1.3143,o1_image,107.9546,1,108.4546,108.4546,110.4562,0,0,0,0,1,,,,,,,,,,,,,,,,,,,,,,,,,,,,,,,,,,,,,,,,,,,,,,,,,,
,,6147c5874b61952e42e9b2bd,27,male,2024-04-24_11h32.24.143,stockport_simplified,2022.2.4,Win32,142.8571429,661e456ee6de07e70aa9ef7b,6628df8d2ec4bdf738651ece,,,,,,,,,,,,,,,,,,,,,,,,,,,,,,,,,,,,,,,,,,,,,,,,,,,,,,,,0,13,13,39,1,A,Y,N,o1_image,stimuli/out1.png,stimuli/correct_out1.png,stimuli/out2.png,,,,,,,,,,,,,,,,,,,,,,,,,,,,,,,,,,,,,,
,,6147c5874b61952e42e9b2bd,27,male,2024-04-24_11h32.24.143,stockport_simplified,2022.2.4,Win32,142.8571429,661e456ee6de07e70aa9ef7b,6628df8d2ec4bdf738651ece,,,,,,,,,,,,,,,,,,,,,,,,,,,,,,,,,,110.4564,112.139,"[4,5,1,7,2,6,8,3]","[[-0.3,0.2],[0.3,0.2]]","[[0.125,-0.2],[-0.125,-0.2]]",-0.120138889,-0.129861111,1,0,0,1.1757,o2_image,112.1393,0,112.6392,112.6392,114.6405,0,0,0,0,1,,,,,,,,,,,,,,,,,,,,,,,,,,,,,,,,,,,,,,,,,,,,,,,,,,
,,6147c5874b61952e42e9b2bd,27,male,2024-04-24_11h32.24.143,stockport_simplified,2022.2.4,Win32,142.8571429,661e456ee6de07e70aa9ef7b,6628df8d2ec4bdf738651ece,,,,,,,,,,,,,,,,,,,,,,,,,,,,,,,,,,,,,,,,,,,,,,,,,,,,,,,,0,14,14,5,1,A,Y,N,o1_image,stimuli/out1.png,stimuli/correct_out1.png,stimuli/out2.png,,,,,,,,,,,,,,,,,,,,,,,,,,,,,,,,,,,,,,
,,6147c5874b61952e42e9b2bd,27,male,2024-04-24_11h32.24.143,stockport_simplified,2022.2.4,Win32,142.8571429,661e456ee6de07e70aa9ef7b,6628df8d2ec4bdf738651ece,,,,,,,,,,,,,,,,,,,,,,,,,,,,,,,,,,114.6408,117.5045,"[4,5,1,7,2,6,8,3]","[[-0.3,0.2],[0.3,0.2]]","[[0.125,-0.2],[-0.125,-0.2]]",-0.079166667,-0.211805556,1,0,0,2.3633,o2_image,117.5048,1,118.0057,118.0058,120.007,0,0,0,0,1,,,,,,,,,,,,,,,,,,,,,,,,,,,,,,,,,,,,,,,,,,,,,,,,,,
,,6147c5874b61952e42e9b2bd,27,male,2024-04-24_11h32.24.143,stockport_simplified,2022.2.4,Win32,142.8571429,661e456ee6de07e70aa9ef7b,6628df8d2ec4bdf738651ece,,,,,,,,,,,,,,,,,,,,,,,,,,,,,,,,,,,,,,,,,,,,,,,,,,,,,,,,0,15,15,49,1,B,Y,N,o2_image,stimuli/out2.png,stimuli/out1.png,stimuli/correct_out2.png,,,,,,,,,,,,,,,,,,,,,,,,,,,,,,,,,,,,,,
,,6147c5874b61952e42e9b2bd,27,male,2024-04-24_11h32.24.143,stockport_simplified,2022.2.4,Win32,142.8571429,661e456ee6de07e70aa9ef7b,6628df8d2ec4bdf738651ece,,,,,,,,,,,,,,,,,,,,,,,,,,,,,,,,,,120.0072,122.6841,"[4,5,1,7,2,6,8,3]","[[0.3,0.2],[-0.3,0.2]]","[[0.125,-0.2],[-0.125,-0.2]]",0.121527778,-0.200694444,1,0,0,2.1765,o1_image,122.6893,1,123.1844,123.1845,125.1857,0,0,0,0,1,,,,,,,,,,,,,,,,,,,,,,,,,,,,,,,,,,,,,,,,,,,,,,,,,,
,,6147c5874b61952e42e9b2bd,27,male,2024-04-24_11h32.24.143,stockport_simplified,2022.2.4,Win32,142.8571429,661e456ee6de07e70aa9ef7b,6628df8d2ec4bdf738651ece,,,,,,,,,,,,,,,,,,,,,,,,,,,,,,,,,,,,,,,,,,,,,,,,,,,,,,,,0,16,16,9,1,A,Y,N,o1_image,stimuli/out1.png,stimuli/correct_out1.png,stimuli/out2.png,,,,,,,,,,,,,,,,,,,,,,,,,,,,,,,,,,,,,,
,,6147c5874b61952e42e9b2bd,27,male,2024-04-24_11h32.24.143,stockport_simplified,2022.2.4,Win32,142.8571429,661e456ee6de07e70aa9ef7b,6628df8d2ec4bdf738651ece,,,,,,,,,,,,,,,,,,,,,,,,,,,,,,,,,,125.1859,127.6058,"[4,5,1,7,2,6,8,3]","[[-0.3,0.2],[0.3,0.2]]","[[-0.125,-0.2],[0.125,-0.2]]",-0.120833333,-0.199305556,1,0,0,1.9192,o1_image,127.606,1,128.1053,128.1053,130.1009,0,0,0,0,1,,,,,,,,,,,,,,,,,,,,,,,,,,,,,,,,,,,,,,,,,,,,,,,,,,
,,6147c5874b61952e42e9b2bd,27,male,2024-04-24_11h32.24.143,stockport_simplified,2022.2.4,Win32,142.8571429,661e456ee6de07e70aa9ef7b,6628df8d2ec4bdf738651ece,,,,,,,,,,,,,,,,,,,,,,,,,,,,,,,,,,,,,,,,,,,,,,,,,,,,,,,,0,17,17,20,1,N,M,C,o1_image,stimuli/out1.png,stimuli/correct_out1.png,stimuli/out2.png,,,,,,,,,,,,,,,,,,,,,,,,,,,,,,,,,,,,,,
,,6147c5874b61952e42e9b2bd,27,male,2024-04-24_11h32.24.143,stockport_simplified,2022.2.4,Win32,142.8571429,661e456ee6de07e70aa9ef7b,6628df8d2ec4bdf738651ece,,,,,,,,,,,,,,,,,,,,,,,,,,,,,,,,,,130.1011,133.0069,"[4,5,1,7,2,6,8,3]","[[0.3,0.2],[-0.3,0.2]]","[[-0.125,-0.2],[0.125,-0.2]]",-0.107638889,-0.153472222,1,0,0,2.3988,o1_image,133.0119,1,133.5134,133.5134,135.5085,0,0,0,0,1,,,,,,,,,,,,,,,,,,,,,,,,,,,,,,,,,,,,,,,,,,,,,,,,,,
,,6147c5874b61952e42e9b2bd,27,male,2024-04-24_11h32.24.143,stockport_simplified,2022.2.4,Win32,142.8571429,661e456ee6de07e70aa9ef7b,6628df8d2ec4bdf738651ece,,,,,,,,,,,,,,,,,,,,,,,,,,,,,,,,,,,,,,,,,,,,,,,,,,,,,,,,0,18,18,4,1,A,X,N,o1_image,stimuli/out1.png,stimuli/correct_out1.png,stimuli/out2.png,,,,,,,,,,,,,,,,,,,,,,,,,,,,,,,,,,,,,,
,,6147c5874b61952e42e9b2bd,27,male,2024-04-24_11h32.24.143,stockport_simplified,2022.2.4,Win32,142.8571429,661e456ee6de07e70aa9ef7b,6628df8d2ec4bdf738651ece,,,,,,,,,,,,,,,,,,,,,,,,,,,,,,,,,,135.5086,137.4341,"[4,5,1,7,2,6,8,3]","[[-0.3,0.2],[0.3,0.2]]","[[-0.125,-0.2],[0.125,-0.2]]",-0.104166667,-0.122222222,1,0,0,1.4249,o1_image,137.4343,1,137.9345,137.9345,139.9295,0,0,0,0,1,,,,,,,,,,,,,,,,,,,,,,,,,,,,,,,,,,,,,,,,,,,,,,,,,,
,,6147c5874b61952e42e9b2bd,27,male,2024-04-24_11h32.24.143,stockport_simplified,2022.2.4,Win32,142.8571429,661e456ee6de07e70aa9ef7b,6628df8d2ec4bdf738651ece,,,,,,,,,,,,,,,,,,,,,,,,,,,,,,,,,,,,,,,,,,,,,,,,,,,,,,,,0,19,19,54,1,N,M,C,o1_image,stimuli/out1.png,stimuli/correct_out1.png,stimuli/out2.png,,,,,,,,,,,,,,,,,,,,,,,,,,,,,,,,,,,,,,
,,6147c5874b61952e42e9b2bd,27,male,2024-04-24_11h32.24.143,stockport_simplified,2022.2.4,Win32,142.8571429,661e456ee6de07e70aa9ef7b,6628df8d2ec4bdf738651ece,,,,,,,,,,,,,,,,,,,,,,,,,,,,,,,,,,139.9298,142.1471,"[4,5,1,7,2,6,8,3]","[[-0.3,0.2],[0.3,0.2]]","[[-0.125,-0.2],[0.125,-0.2]]",-0.104166667,-0.104861111,1,0,0,1.7169,o1_image,142.1476,1,142.6474,142.6475,144.6425,0,0,0,0,1,,,,,,,,,,,,,,,,,,,,,,,,,,,,,,,,,,,,,,,,,,,,,,,,,,
,,6147c5874b61952e42e9b2bd,27,male,2024-04-24_11h32.24.143,stockport_simplified,2022.2.4,Win32,142.8571429,661e456ee6de07e70aa9ef7b,6628df8d2ec4bdf738651ece,,,,,,,,,,,,,,,,,,,,,,,,,,,,,,,,,,,,,,,,,,,,,,,,,,,,,,,,0,20,20,32,1,A,X,N,o1_image,stimuli/out1.png,stimuli/correct_out1.png,stimuli/out2.png,,,,,,,,,,,,,,,,,,,,,,,,,,,,,,,,,,,,,,
,,6147c5874b61952e42e9b2bd,27,male,2024-04-24_11h32.24.143,stockport_simplified,2022.2.4,Win32,142.8571429,661e456ee6de07e70aa9ef7b,6628df8d2ec4bdf738651ece,,,,,,,,,,,,,,,,,,,,,,,,,,,,,,,,,,144.6427,146.84,"[4,5,1,7,2,6,8,3]","[[-0.3,0.2],[0.3,0.2]]","[[0.125,-0.2],[-0.125,-0.2]]",-0.10625,-0.138194444,1,0,0,1.6968,o2_image,146.8403,1,147.3396,147.3397,149.3417,0,0,0,0,1,,,,,,,,,,,,,,,,,,,,,,,,,,,,,,,,,,,,,,,,,,,,,,,,,,
,,6147c5874b61952e42e9b2bd,27,male,2024-04-24_11h32.24.143,stockport_simplified,2022.2.4,Win32,142.8571429,661e456ee6de07e70aa9ef7b,6628df8d2ec4bdf738651ece,,,,,,,,,,,,,,,,,,,,,,,,,,,,,,,,,,,,,,,,,,,,,,,,,,,,,,,,0,21,21,26,1,N,M,D,o2_image,stimuli/out2.png,stimuli/out1.png,stimuli/correct_out2.png,,,,,,,,,,,,,,,,,,,,,,,,,,,,,,,,,,,,,,
,,6147c5874b61952e42e9b2bd,27,male,2024-04-24_11h32.24.143,stockport_simplified,2022.2.4,Win32,142.8571429,661e456ee6de07e70aa9ef7b,6628df8d2ec4bdf738651ece,,,,,,,,,,,,,,,,,,,,,,,,,,,,,,,,,,149.3419,151.1909,"[4,5,1,7,2,6,8,3]","[[0.3,0.2],[-0.3,0.2]]","[[0.125,-0.2],[-0.125,-0.2]]",0.110416667,-0.186111111,1,0,0,1.3485,o1_image,151.1912,1,151.6914,151.6914,153.6862,0,0,0,0,1,,,,,,,,,,,,,,,,,,,,,,,,,,,,,,,,,,,,,,,,,,,,,,,,,,
,,6147c5874b61952e42e9b2bd,27,male,2024-04-24_11h32.24.143,stockport_simplified,2022.2.4,Win32,142.8571429,661e456ee6de07e70aa9ef7b,6628df8d2ec4bdf738651ece,,,,,,,,,,,,,,,,,,,,,,,,,,,,,,,,,,,,,,,,,,,,,,,,,,,,,,,,0,22,22,51,1,N,M,C,o1_image,stimuli/out1.png,stimuli/correct_out1.png,stimuli/out2.png,,,,,,,,,,,,,,,,,,,,,,,,,,,,,,,,,,,,,,
,,6147c5874b61952e42e9b2bd,27,male,2024-04-24_11h32.24.143,stockport_simplified,2022.2.4,Win32,142.8571429,661e456ee6de07e70aa9ef7b,6628df8d2ec4bdf738651ece,,,,,,,,,,,,,,,,,,,,,,,,,,,,,,,,,,153.6864,156.3279,"[4,5,1,7,2,6,8,3]","[[-0.3,0.2],[0.3,0.2]]","[[-0.125,-0.2],[0.125,-0.2]]",0.034027778,-0.161805556,1,0,0,1.7933,o2_image,156.3282,1,156.8282,156.8282,158.8232,0,0,0,0,1,,,,,,,,,,,,,,,,,,,,,,,,,,,,,,,,,,,,,,,,,,,,,,,,,,
,,6147c5874b61952e42e9b2bd,27,male,2024-04-24_11h32.24.143,stockport_simplified,2022.2.4,Win32,142.8571429,661e456ee6de07e70aa9ef7b,6628df8d2ec4bdf738651ece,,,,,,,,,,,,,,,,,,,,,,,,,,,,,,,,,,,,,,,,,,,,,,,,,,,,,,,,0,23,23,18,1,B,Y,N,o2_image,stimuli/out2.png,stimuli/out1.png,stimuli/correct_out2.png,,,,,,,,,,,,,,,,,,,,,,,,,,,,,,,,,,,,,,
,,6147c5874b61952e42e9b2bd,27,male,2024-04-24_11h32.24.143,stockport_simplified,2022.2.4,Win32,142.8571429,661e456ee6de07e70aa9ef7b,6628df8d2ec4bdf738651ece,,,,,,,,,,,,,,,,,,,,,,,,,,,,,,,,,,158.8235,161.152,"[4,5,1,7,2,6,8,3]","[[-0.3,0.2],[0.3,0.2]]","[[-0.125,-0.2],[0.125,-0.2]]",-0.084722222,-0.168055556,1,0,0,1.8281,o1_image,161.1523,0,161.6524,161.6524,163.6475,0,0,0,0,1,,,,,,,,,,,,,,,,,,,,,,,,,,,,,,,,,,,,,,,,,,,,,,,,,,
,,6147c5874b61952e42e9b2bd,27,male,2024-04-24_11h32.24.143,stockport_simplified,2022.2.4,Win32,142.8571429,661e456ee6de07e70aa9ef7b,6628df8d2ec4bdf738651ece,,,,,,,,,,,,,,,,,,,,,,,,,,,,,,,,,,,,,,,,,,,,,,,,,,,,,,,,0,24,24,12,1,B,X,N,o2_image,stimuli/out2.png,stimuli/out1.png,stimuli/correct_out2.png,,,,,,,,,,,,,,,,,,,,,,,,,,,,,,,,,,,,,,
,,6147c5874b61952e42e9b2bd,27,male,2024-04-24_11h32.24.143,stockport_simplified,2022.2.4,Win32,142.8571429,661e456ee6de07e70aa9ef7b,6628df8d2ec4bdf738651ece,,,,,,,,,,,,,,,,,,,,,,,,,,,,,,,,,,163.6477,166.018,"[4,5,1,7,2,6,8,3]","[[0.3,0.2],[-0.3,0.2]]","[[-0.125,-0.2],[0.125,-0.2]]",0.101388889,-0.204861111,1,0,0,1.8698,o2_image,166.0182,0,166.5185,166.5185,168.5134,0,0,0,0,1,,,,,,,,,,,,,,,,,,,,,,,,,,,,,,,,,,,,,,,,,,,,,,,,,,
,,6147c5874b61952e42e9b2bd,27,male,2024-04-24_11h32.24.143,stockport_simplified,2022.2.4,Win32,142.8571429,661e456ee6de07e70aa9ef7b,6628df8d2ec4bdf738651ece,,,,,,,,,,,,,,,,,,,,,,,,,,,,,,,,,,,,,,,,,,,,,,,,,,,,,,,,0,25,25,24,1,N,M,C,o1_image,stimuli/out1.png,stimuli/correct_out1.png,stimuli/out2.png,,,,,,,,,,,,,,,,,,,,,,,,,,,,,,,,,,,,,,
,,6147c5874b61952e42e9b2bd,27,male,2024-04-24_11h32.24.143,stockport_simplified,2022.2.4,Win32,142.8571429,661e456ee6de07e70aa9ef7b,6628df8d2ec4bdf738651ece,,,,,,,,,,,,,,,,,,,,,,,,,,,,,,,,,,168.5136,170.2652,"[4,5,1,7,2,6,8,3]","[[-0.3,0.2],[0.3,0.2]]","[[0.125,-0.2],[-0.125,-0.2]]",0.106944444,-0.200694444,1,0,0,1.2513,o1_image,170.2654,1,170.7657,170.7657,172.7607,0,0,0,0,1,,,,,,,,,,,,,,,,,,,,,,,,,,,,,,,,,,,,,,,,,,,,,,,,,,
,,6147c5874b61952e42e9b2bd,27,male,2024-04-24_11h32.24.143,stockport_simplified,2022.2.4,Win32,142.8571429,661e456ee6de07e70aa9ef7b,6628df8d2ec4bdf738651ece,,,,,,,,,,,,,,,,,,,,,,,,,,,,,,,,,,,,,,,,,,,,,,,,,,,,,,,,0,26,26,52,1,N,M,C,o1_image,stimuli/out1.png,stimuli/correct_out1.png,stimuli/out2.png,,,,,,,,,,,,,,,,,,,,,,,,,,,,,,,,,,,,,,
,,6147c5874b61952e42e9b2bd,27,male,2024-04-24_11h32.24.143,stockport_simplified,2022.2.4,Win32,142.8571429,661e456ee6de07e70aa9ef7b,6628df8d2ec4bdf738651ece,,,,,,,,,,,,,,,,,,,,,,,,,,,,,,,,,,172.761,174.6029,"[4,5,1,7,2,6,8,3]","[[-0.3,0.2],[0.3,0.2]]","[[0.125,-0.2],[-0.125,-0.2]]",-0.126388889,-0.140277778,1,0,0,1.3414,o2_image,174.6031,1,175.1033,175.1033,177.0983,0,0,0,0,1,,,,,,,,,,,,,,,,,,,,,,,,,,,,,,,,,,,,,,,,,,,,,,,,,,
,,6147c5874b61952e42e9b2bd,27,male,2024-04-24_11h32.24.143,stockport_simplified,2022.2.4,Win32,142.8571429,661e456ee6de07e70aa9ef7b,6628df8d2ec4bdf738651ece,,,,,,,,,,,,,,,,,,,,,,,,,,,,,,,,,,,,,,,,,,,,,,,,,,,,,,,,0,27,27,58,1,N,M,D,o2_image,stimuli/out2.png,stimuli/out1.png,stimuli/correct_out2.png,,,,,,,,,,,,,,,,,,,,,,,,,,,,,,,,,,,,,,
,,6147c5874b61952e42e9b2bd,27,male,2024-04-24_11h32.24.143,stockport_simplified,2022.2.4,Win32,142.8571429,661e456ee6de07e70aa9ef7b,6628df8d2ec4bdf738651ece,,,,,,,,,,,,,,,,,,,,,,,,,,,,,,,,,,177.0985,178.4817,"[4,5,1,7,2,6,8,3]","[[-0.3,0.2],[0.3,0.2]]","[[-0.125,-0.2],[0.125,-0.2]]",0.165277778,-0.211111111,1,0,0,0.8828,o2_image,178.482,1,178.9822,178.9822,180.9773,0,0,0,0,1,,,,,,,,,,,,,,,,,,,,,,,,,,,,,,,,,,,,,,,,,,,,,,,,,,
,,6147c5874b61952e42e9b2bd,27,male,2024-04-24_11h32.24.143,stockport_simplified,2022.2.4,Win32,142.8571429,661e456ee6de07e70aa9ef7b,6628df8d2ec4bdf738651ece,,,,,,,,,,,,,,,,,,,,,,,,,,,,,,,,,,,,,,,,,,,,,,,,,,,,,,,,0,28,28,28,1,N,M,D,o2_image,stimuli/out2.png,stimuli/out1.png,stimuli/correct_out2.png,,,,,,,,,,,,,,,,,,,,,,,,,,,,,,,,,,,,,,
,,6147c5874b61952e42e9b2bd,27,male,2024-04-24_11h32.24.143,stockport_simplified,2022.2.4,Win32,142.8571429,661e456ee6de07e70aa9ef7b,6628df8d2ec4bdf738651ece,,,,,,,,,,,,,,,,,,,,,,,,,,,,,,,,,,180.9775,183.3198,"[4,5,1,7,2,6,8,3]","[[-0.3,0.2],[0.3,0.2]]","[[0.125,-0.2],[-0.125,-0.2]]",-0.128472222,-0.143055556,1,0,0,1.8418,o2_image,183.32,1,183.8203,183.8203,185.8153,0,0,0,0,1,,,,,,,,,,,,,,,,,,,,,,,,,,,,,,,,,,,,,,,,,,,,,,,,,,
,,6147c5874b61952e42e9b2bd,27,male,2024-04-24_11h32.24.143,stockport_simplified,2022.2.4,Win32,142.8571429,661e456ee6de07e70aa9ef7b,6628df8d2ec4bdf738651ece,,,,,,,,,,,,,,,,,,,,,,,,,,,,,,,,,,,,,,,,,,,,,,,,,,,,,,,,0,29,29,48,1,B,Y,N,o2_image,stimuli/out2.png,stimuli/out1.png,stimuli/correct_out2.png,,,,,,,,,,,,,,,,,,,,,,,,,,,,,,,,,,,,,,
,,6147c5874b61952e42e9b2bd,27,male,2024-04-24_11h32.24.143,stockport_simplified,2022.2.4,Win32,142.8571429,661e456ee6de07e70aa9ef7b,6628df8d2ec4bdf738651ece,,,,,,,,,,,,,,,,,,,,,,,,,,,,,,,,,,185.8155,187.8798,"[4,5,1,7,2,6,8,3]","[[-0.3,0.2],[0.3,0.2]]","[[0.125,-0.2],[-0.125,-0.2]]",-0.13125,-0.136805556,1,0,0,1.5638,o2_image,187.8802,1,188.3802,188.3803,190.3753,0,0,0,0,1,,,,,,,,,,,,,,,,,,,,,,,,,,,,,,,,,,,,,,,,,,,,,,,,,,
,,6147c5874b61952e42e9b2bd,27,male,2024-04-24_11h32.24.143,stockport_simplified,2022.2.4,Win32,142.8571429,661e456ee6de07e70aa9ef7b,6628df8d2ec4bdf738651ece,,,,,,,,,,,,,,,,,,,,,,,,,,,,,,,,,,,,,,,,,,,,,,,,,,,,,,,,0,30,30,55,1,N,M,D,o2_image,stimuli/out2.png,stimuli/out1.png,stimuli/correct_out2.png,,,,,,,,,,,,,,,,,,,,,,,,,,,,,,,,,,,,,,
,,6147c5874b61952e42e9b2bd,27,male,2024-04-24_11h32.24.143,stockport_simplified,2022.2.4,Win32,142.8571429,661e456ee6de07e70aa9ef7b,6628df8d2ec4bdf738651ece,,,,,,,,,,,,,,,,,,,,,,,,,,,,,,,,,,190.3755,191.6753,"[4,5,1,7,2,6,8,3]","[[-0.3,0.2],[0.3,0.2]]","[[0.125,-0.2],[-0.125,-0.2]]",-0.163194444,-0.134722222,1,0,0,0.7994,o2_image,191.6757,1,192.1758,192.1758,194.1707,0,0,0,0,1,,,,,,,,,,,,,,,,,,,,,,,,,,,,,,,,,,,,,,,,,,,,,,,,,,
,,6147c5874b61952e42e9b2bd,27,male,2024-04-24_11h32.24.143,stockport_simplified,2022.2.4,Win32,142.8571429,661e456ee6de07e70aa9ef7b,6628df8d2ec4bdf738651ece,,,,,,,,,,,,,,,,,,,,,,,,,,,,,,,,,,,,,,,,,,,,,,,,,,,,,,,,0,31,31,25,1,N,M,D,o2_image,stimuli/out2.png,stimuli/out1.png,stimuli/correct_out2.png,,,,,,,,,,,,,,,,,,,,,,,,,,,,,,,,,,,,,,
,,6147c5874b61952e42e9b2bd,27,male,2024-04-24_11h32.24.143,stockport_simplified,2022.2.4,Win32,142.8571429,661e456ee6de07e70aa9ef7b,6628df8d2ec4bdf738651ece,,,,,,,,,,,,,,,,,,,,,,,,,,,,,,,,,,194.1709,195.4985,"[4,5,1,7,2,6,8,3]","[[-0.3,0.2],[0.3,0.2]]","[[-0.125,-0.2],[0.125,-0.2]]",0.092361111,-0.176388889,1,0,0,0.827,o2_image,195.4988,1,195.9991,195.9991,197.9941,0,0,0,0,1,,,,,,,,,,,,,,,,,,,,,,,,,,,,,,,,,,,,,,,,,,,,,,,,,,
,,6147c5874b61952e42e9b2bd,27,male,2024-04-24_11h32.24.143,stockport_simplified,2022.2.4,Win32,142.8571429,661e456ee6de07e70aa9ef7b,6628df8d2ec4bdf738651ece,,,,,,,,,,,,,,,,,,,,,,,,,,,,,,,,,,,,,,,,,,,,,,,,,,,,,,,,0,32,32,56,1,N,M,D,o2_image,stimuli/out2.png,stimuli/out1.png,stimuli/correct_out2.png,,,,,,,,,,,,,,,,,,,,,,,,,,,,,,,,,,,,,,
,,6147c5874b61952e42e9b2bd,27,male,2024-04-24_11h32.24.143,stockport_simplified,2022.2.4,Win32,142.8571429,661e456ee6de07e70aa9ef7b,6628df8d2ec4bdf738651ece,,,,,,,,,,,,,,,,,,,,,,,,,,,,,,,,,,197.9943,200.2256,"[4,5,1,7,2,6,8,3]","[[0.3,0.2],[-0.3,0.2]]","[[-0.125,-0.2],[0.125,-0.2]]",-0.159722222,-0.138888889,1,0,0,1.7307,o1_image,200.226,0,200.726,200.726,202.7279,0,0,0,0,1,,,,,,,,,,,,,,,,,,,,,,,,,,,,,,,,,,,,,,,,,,,,,,,,,,
,,6147c5874b61952e42e9b2bd,27,male,2024-04-24_11h32.24.143,stockport_simplified,2022.2.4,Win32,142.8571429,661e456ee6de07e70aa9ef7b,6628df8d2ec4bdf738651ece,,,,,,,,,,,,,,,,,,,,,,,,,,,,,,,,,,,,,,,,,,,,,,,,,,,,,,,,0,33,33,11,1,B,X,N,o2_image,stimuli/out2.png,stimuli/out1.png,stimuli/correct_out2.png,,,,,,,,,,,,,,,,,,,,,,,,,,,,,,,,,,,,,,
,,6147c5874b61952e42e9b2bd,27,male,2024-04-24_11h32.24.143,stockport_simplified,2022.2.4,Win32,142.8571429,661e456ee6de07e70aa9ef7b,6628df8d2ec4bdf738651ece,,,,,,,,,,,,,,,,,,,,,,,,,,,,,,,,,,202.7281,206.579,"[4,5,1,7,2,6,8,3]","[[0.3,0.2],[-0.3,0.2]]","[[-0.125,-0.2],[0.125,-0.2]]",0.109027778,-0.195138889,1,0,0,3.3504,o2_image,206.5842,0,207.0796,207.0796,209.0744,0,0,0,0,1,,,,,,,,,,,,,,,,,,,,,,,,,,,,,,,,,,,,,,,,,,,,,,,,,,
,,6147c5874b61952e42e9b2bd,27,male,2024-04-24_11h32.24.143,stockport_simplified,2022.2.4,Win32,142.8571429,661e456ee6de07e70aa9ef7b,6628df8d2ec4bdf738651ece,,,,,,,,,,,,,,,,,,,,,,,,,,,,,,,,,,,,,,,,,,,,,,,,,,,,,,,,0,34,34,2,1,A,X,N,o1_image,stimuli/out1.png,stimuli/correct_out1.png,stimuli/out2.png,,,,,,,,,,,,,,,,,,,,,,,,,,,,,,,,,,,,,,
,,6147c5874b61952e42e9b2bd,27,male,2024-04-24_11h32.24.143,stockport_simplified,2022.2.4,Win32,142.8571429,661e456ee6de07e70aa9ef7b,6628df8d2ec4bdf738651ece,,,,,,,,,,,,,,,,,,,,,,,,,,,,,,,,,,209.0746,211.146,"[4,5,1,7,2,6,8,3]","[[0.3,0.2],[-0.3,0.2]]","[[0.125,-0.2],[-0.125,-0.2]]",-0.100694444,-0.190972222,1,0,0,1.5706,o2_image,211.1463,1,211.6465,211.6465,213.6414,0,0,0,0,1,,,,,,,,,,,,,,,,,,,,,,,,,,,,,,,,,,,,,,,,,,,,,,,,,,
,,6147c5874b61952e42e9b2bd,27,male,2024-04-24_11h32.24.143,stockport_simplified,2022.2.4,Win32,142.8571429,661e456ee6de07e70aa9ef7b,6628df8d2ec4bdf738651ece,,,,,,,,,,,,,,,,,,,,,,,,,,,,,,,,,,,,,,,,,,,,,,,,,,,,,,,,0,35,35,16,1,B,Y,N,o2_image,stimuli/out2.png,stimuli/out1.png,stimuli/correct_out2.png,,,,,,,,,,,,,,,,,,,,,,,,,,,,,,,,,,,,,,
,,6147c5874b61952e42e9b2bd,27,male,2024-04-24_11h32.24.143,stockport_simplified,2022.2.4,Win32,142.8571429,661e456ee6de07e70aa9ef7b,6628df8d2ec4bdf738651ece,,,,,,,,,,,,,,,,,,,,,,,,,,,,,,,,,,213.6417,215.3515,"[4,5,1,7,2,6,8,3]","[[0.3,0.2],[-0.3,0.2]]","[[-0.125,-0.2],[0.125,-0.2]]",0.110416667,-0.134722222,1,0,0,1.2094,o2_image,215.3518,1,215.8521,215.8521,217.847,0,0,0,0,1,,,,,,,,,,,,,,,,,,,,,,,,,,,,,,,,,,,,,,,,,,,,,,,,,,
,,6147c5874b61952e42e9b2bd,27,male,2024-04-24_11h32.24.143,stockport_simplified,2022.2.4,Win32,142.8571429,661e456ee6de07e70aa9ef7b,6628df8d2ec4bdf738651ece,,,,,,,,,,,,,,,,,,,,,,,,,,,,,,,,,,,,,,,,,,,,,,,,,,,,,,,,0,36,36,41,1,B,X,N,o2_image,stimuli/out2.png,stimuli/out1.png,stimuli/correct_out2.png,,,,,,,,,,,,,,,,,,,,,,,,,,,,,,,,,,,,,,
,,6147c5874b61952e42e9b2bd,27,male,2024-04-24_11h32.24.143,stockport_simplified,2022.2.4,Win32,142.8571429,661e456ee6de07e70aa9ef7b,6628df8d2ec4bdf738651ece,,,,,,,,,,,,,,,,,,,,,,,,,,,,,,,,,,217.8472,219.717,"[4,5,1,7,2,6,8,3]","[[-0.3,0.2],[0.3,0.2]]","[[0.125,-0.2],[-0.125,-0.2]]",-0.125694444,-0.140277778,1,0,0,1.3693,o2_image,219.7172,1,220.2175,220.2176,222.2194,0,0,0,0,1,,,,,,,,,,,,,,,,,,,,,,,,,,,,,,,,,,,,,,,,,,,,,,,,,,
,,6147c5874b61952e42e9b2bd,27,male,2024-04-24_11h32.24.143,stockport_simplified,2022.2.4,Win32,142.8571429,661e456ee6de07e70aa9ef7b,6628df8d2ec4bdf738651ece,,,,,,,,,,,,,,,,,,,,,,,,,,,,,,,,,,,,,,,,,,,,,,,,,,,,,,,,0,37,37,44,1,B,X,N,o2_image,stimuli/out2.png,stimuli/out1.png,stimuli/correct_out2.png,,,,,,,,,,,,,,,,,,,,,,,,,,,,,,,,,,,,,,
,,6147c5874b61952e42e9b2bd,27,male,2024-04-24_11h32.24.143,stockport_simplified,2022.2.4,Win32,142.8571429,661e456ee6de07e70aa9ef7b,6628df8d2ec4bdf738651ece,,,,,,,,,,,,,,,,,,,,,,,,,,,,,,,,,,222.2195,224.8263,"[4,5,1,7,2,6,8,3]","[[-0.3,0.2],[0.3,0.2]]","[[0.125,-0.2],[-0.125,-0.2]]",0.070138889,-0.178472222,1,0,0,2.106,o1_image,224.8313,1,225.3268,225.3268,227.3218,0,0,0,0,1,,,,,,,,,,,,,,,,,,,,,,,,,,,,,,,,,,,,,,,,,,,,,,,,,,
,,6147c5874b61952e42e9b2bd,27,male,2024-04-24_11h32.24.143,stockport_simplified,2022.2.4,Win32,142.8571429,661e456ee6de07e70aa9ef7b,6628df8d2ec4bdf738651ece,,,,,,,,,,,,,,,,,,,,,,,,,,,,,,,,,,,,,,,,,,,,,,,,,,,,,,,,0,38,38,23,1,N,M,C,o1_image,stimuli/out1.png,stimuli/correct_out1.png,stimuli/out2.png,,,,,,,,,,,,,,,,,,,,,,,,,,,,,,,,,,,,,,
,,6147c5874b61952e42e9b2bd,27,male,2024-04-24_11h32.24.143,stockport_simplified,2022.2.4,Win32,142.8571429,661e456ee6de07e70aa9ef7b,6628df8d2ec4bdf738651ece,,,,,,,,,,,,,,,,,,,,,,,,,,,,,,,,,,227.322,230.0468,"[4,5,1,7,2,6,8,3]","[[-0.3,0.2],[0.3,0.2]]","[[0.125,-0.2],[-0.125,-0.2]]",-0.143055556,-0.127777778,1,0,0,2.2244,o2_image,230.0471,0,230.5471,230.5471,232.5422,0,0,0,0,1,,,,,,,,,,,,,,,,,,,,,,,,,,,,,,,,,,,,,,,,,,,,,,,,,,
,,6147c5874b61952e42e9b2bd,27,male,2024-04-24_11h32.24.143,stockport_simplified,2022.2.4,Win32,142.8571429,661e456ee6de07e70aa9ef7b,6628df8d2ec4bdf738651ece,,,,,,,,,,,,,,,,,,,,,,,,,,,,,,,,,,,,,,,,,,,,,,,,,,,,,,,,0,39,39,6,1,A,Y,N,o1_image,stimuli/out1.png,stimuli/correct_out1.png,stimuli/out2.png,,,,,,,,,,,,,,,,,,,,,,,,,,,,,,,,,,,,,,
,,6147c5874b61952e42e9b2bd,27,male,2024-04-24_11h32.24.143,stockport_simplified,2022.2.4,Win32,142.8571429,661e456ee6de07e70aa9ef7b,6628df8d2ec4bdf738651ece,,,,,,,,,,,,,,,,,,,,,,,,,,,,,,,,,,232.5424,235.2741,"[4,5,1,7,2,6,8,3]","[[-0.3,0.2],[0.3,0.2]]","[[-0.125,-0.2],[0.125,-0.2]]",0.106944444,-0.175,1,0,0,2.2312,o2_image,235.2743,1,235.7746,235.7746,237.7696,0,0,0,0,1,,,,,,,,,,,,,,,,,,,,,,,,,,,,,,,,,,,,,,,,,,,,,,,,,,
,,6147c5874b61952e42e9b2bd,27,male,2024-04-24_11h32.24.143,stockport_simplified,2022.2.4,Win32,142.8571429,661e456ee6de07e70aa9ef7b,6628df8d2ec4bdf738651ece,,,,,,,,,,,,,,,,,,,,,,,,,,,,,,,,,,,,,,,,,,,,,,,,,,,,,,,,0,40,40,43,1,B,X,N,o2_image,stimuli/out2.png,stimuli/out1.png,stimuli/correct_out2.png,,,,,,,,,,,,,,,,,,,,,,,,,,,,,,,,,,,,,,
,,6147c5874b61952e42e9b2bd,27,male,2024-04-24_11h32.24.143,stockport_simplified,2022.2.4,Win32,142.8571429,661e456ee6de07e70aa9ef7b,6628df8d2ec4bdf738651ece,,,,,,,,,,,,,,,,,,,,,,,,,,,,,,,,,,237.7698,240.1262,"[4,5,1,7,2,6,8,3]","[[-0.3,0.2],[0.3,0.2]]","[[-0.125,-0.2],[0.125,-0.2]]",0.085416667,-0.183333333,1,0,0,1.8561,o2_image,240.1266,1,240.6267,240.6267,242.6217,0,0,0,0,1,,,,,,,,,,,,,,,,,,,,,,,,,,,,,,,,,,,,,,,,,,,,,,,,,,
,,6147c5874b61952e42e9b2bd,27,male,2024-04-24_11h32.24.143,stockport_simplified,2022.2.4,Win32,142.8571429,661e456ee6de07e70aa9ef7b,6628df8d2ec4bdf738651ece,,,,,,,,,,,,,,,,,,,,,,,,,,,,,,,,,,,,,,,,,,,,,,,,,,,,,,,,0,41,41,19,1,B,Y,N,o2_image,stimuli/out2.png,stimuli/out1.png,stimuli/correct_out2.png,,,,,,,,,,,,,,,,,,,,,,,,,,,,,,,,,,,,,,
,,6147c5874b61952e42e9b2bd,27,male,2024-04-24_11h32.24.143,stockport_simplified,2022.2.4,Win32,142.8571429,661e456ee6de07e70aa9ef7b,6628df8d2ec4bdf738651ece,,,,,,,,,,,,,,,,,,,,,,,,,,,,,,,,,,242.6219,244.5679,"[4,5,1,7,2,6,8,3]","[[-0.3,0.2],[0.3,0.2]]","[[0.125,-0.2],[-0.125,-0.2]]",0.109027778,-0.1875,1,0,0,1.4456,o1_image,244.5683,0,245.0686,245.0686,247.0705,0,0,0,0,1,,,,,,,,,,,,,,,,,,,,,,,,,,,,,,,,,,,,,,,,,,,,,,,,,,
,,6147c5874b61952e42e9b2bd,27,male,2024-04-24_11h32.24.143,stockport_simplified,2022.2.4,Win32,142.8571429,661e456ee6de07e70aa9ef7b,6628df8d2ec4bdf738651ece,,,,,,,,,,,,,,,,,,,,,,,,,,,,,,,,,,,,,,,,,,,,,,,,,,,,,,,,0,42,42,10,1,B,X,N,o2_image,stimuli/out2.png,stimuli/out1.png,stimuli/correct_out2.png,,,,,,,,,,,,,,,,,,,,,,,,,,,,,,,,,,,,,,
,,6147c5874b61952e42e9b2bd,27,male,2024-04-24_11h32.24.143,stockport_simplified,2022.2.4,Win32,142.8571429,661e456ee6de07e70aa9ef7b,6628df8d2ec4bdf738651ece,,,,,,,,,,,,,,,,,,,,,,,,,,,,,,,,,,247.0707,249.7537,"[4,5,1,7,2,6,8,3]","[[-0.3,0.2],[0.3,0.2]]","[[-0.125,-0.2],[0.125,-0.2]]",-0.131944444,-0.156944444,1,0,0,2.1826,o1_image,249.754,1,250.2542,250.2542,252.2492,0,0,0,0,1,,,,,,,,,,,,,,,,,,,,,,,,,,,,,,,,,,,,,,,,,,,,,,,,,,
,,6147c5874b61952e42e9b2bd,27,male,2024-04-24_11h32.24.143,stockport_simplified,2022.2.4,Win32,142.8571429,661e456ee6de07e70aa9ef7b,6628df8d2ec4bdf738651ece,,,,,,,,,,,,,,,,,,,,,,,,,,,,,,,,,,,,,,,,,,,,,,,,,,,,,,,,0,43,43,35,1,A,Y,N,o1_image,stimuli/out1.png,stimuli/correct_out1.png,stimuli/out2.png,,,,,,,,,,,,,,,,,,,,,,,,,,,,,,,,,,,,,,
,,6147c5874b61952e42e9b2bd,27,male,2024-04-24_11h32.24.143,stockport_simplified,2022.2.4,Win32,142.8571429,661e456ee6de07e70aa9ef7b,6628df8d2ec4bdf738651ece,,,,,,,,,,,,,,,,,,,,,,,,,,,,,,,,,,252.2493,255.5373,"[4,5,1,7,2,6,8,3]","[[-0.3,0.2],[0.3,0.2]]","[[0.125,-0.2],[-0.125,-0.2]]",-0.086111111,-0.172916667,1,0,0,2.7873,o2_image,255.5424,1,256.0377,256.0377,258.0327,0,0,0,0,1,,,,,,,,,,,,,,,,,,,,,,,,,,,,,,,,,,,,,,,,,,,,,,,,,,
,,6147c5874b61952e42e9b2bd,27,male,2024-04-24_11h32.24.143,stockport_simplified,2022.2.4,Win32,142.8571429,661e456ee6de07e70aa9ef7b,6628df8d2ec4bdf738651ece,,,,,,,,,,,,,,,,,,,,,,,,,,,,,,,,,,,,,,,,,,,,,,,,,,,,,,,,0,44,44,13,1,B,X,N,o2_image,stimuli/out2.png,stimuli/out1.png,stimuli/correct_out2.png,,,,,,,,,,,,,,,,,,,,,,,,,,,,,,,,,,,,,,
,,6147c5874b61952e42e9b2bd,27,male,2024-04-24_11h32.24.143,stockport_simplified,2022.2.4,Win32,142.8571429,661e456ee6de07e70aa9ef7b,6628df8d2ec4bdf738651ece,,,,,,,,,,,,,,,,,,,,,,,,,,,,,,,,,,258.0329,260.821,"[4,5,1,7,2,6,8,3]","[[0.3,0.2],[-0.3,0.2]]","[[0.125,-0.2],[-0.125,-0.2]]",0.09375,-0.13125,1,0,0,2.2876,o1_image,260.8263,1,261.3277,261.3277,263.3227,0,0,0,0,1,,,,,,,,,,,,,,,,,,,,,,,,,,,,,,,,,,,,,,,,,,,,,,,,,,
,,6147c5874b61952e42e9b2bd,27,male,2024-04-24_11h32.24.143,stockport_simplified,2022.2.4,Win32,142.8571429,661e456ee6de07e70aa9ef7b,6628df8d2ec4bdf738651ece,,,,,,,,,,,,,,,,,,,,,,,,,,,,,,,,,,,,,,,,,,,,,,,,,,,,,,,,0,45,45,22,1,N,M,C,o1_image,stimuli/out1.png,stimuli/correct_out1.png,stimuli/out2.png,,,,,,,,,,,,,,,,,,,,,,,,,,,,,,,,,,,,,,
,,6147c5874b61952e42e9b2bd,27,male,2024-04-24_11h32.24.143,stockport_simplified,2022.2.4,Win32,142.8571429,661e456ee6de07e70aa9ef7b,6628df8d2ec4bdf738651ece,,,,,,,,,,,,,,,,,,,,,,,,,,,,,,,,,,263.3228,264.9425,"[4,5,1,7,2,6,8,3]","[[-0.3,0.2],[0.3,0.2]]","[[-0.125,-0.2],[0.125,-0.2]]",0.090972222,-0.154166667,1,0,0,1.1192,o2_image,264.9428,1,265.4429,265.4429,267.4379,0,0,0,0,1,,,,,,,,,,,,,,,,,,,,,,,,,,,,,,,,,,,,,,,,,,,,,,,,,,
,,6147c5874b61952e42e9b2bd,27,male,2024-04-24_11h32.24.143,stockport_simplified,2022.2.4,Win32,142.8571429,661e456ee6de07e70aa9ef7b,6628df8d2ec4bdf738651ece,,,,,,,,,,,,,,,,,,,,,,,,,,,,,,,,,,,,,,,,,,,,,,,,,,,,,,,,0,46,46,27,1,N,M,D,o2_image,stimuli/out2.png,stimuli/out1.png,stimuli/correct_out2.png,,,,,,,,,,,,,,,,,,,,,,,,,,,,,,,,,,,,,,
,,6147c5874b61952e42e9b2bd,27,male,2024-04-24_11h32.24.143,stockport_simplified,2022.2.4,Win32,142.8571429,661e456ee6de07e70aa9ef7b,6628df8d2ec4bdf738651ece,,,,,,,,,,,,,,,,,,,,,,,,,,,,,,,,,,267.438,270.2603,"[4,5,1,7,2,6,8,3]","[[0.3,0.2],[-0.3,0.2]]","[[0.125,-0.2],[-0.125,-0.2]]",0.103472222,-0.157638889,1,0,0,2.3218,o1_image,270.2606,0,270.7612,270.7612,272.7626,0,0,0,0,1,,,,,,,,,,,,,,,,,,,,,,,,,,,,,,,,,,,,,,,,,,,,,,,,,,
,,6147c5874b61952e42e9b2bd,27,male,2024-04-24_11h32.24.143,stockport_simplified,2022.2.4,Win32,142.8571429,661e456ee6de07e70aa9ef7b,6628df8d2ec4bdf738651ece,,,,,,,,,,,,,,,,,,,,,,,,,,,,,,,,,,,,,,,,,,,,,,,,,,,,,,,,0,47,47,47,1,B,Y,N,o2_image,stimuli/out2.png,stimuli/out1.png,stimuli/correct_out2.png,,,,,,,,,,,,,,,,,,,,,,,,,,,,,,,,,,,,,,
,,6147c5874b61952e42e9b2bd,27,male,2024-04-24_11h32.24.143,stockport_simplified,2022.2.4,Win32,142.8571429,661e456ee6de07e70aa9ef7b,6628df8d2ec4bdf738651ece,,,,,,,,,,,,,,,,,,,,,,,,,,,,,,,,,,272.7627,275.2589,"[4,5,1,7,2,6,8,3]","[[0.3,0.2],[-0.3,0.2]]","[[-0.125,-0.2],[0.125,-0.2]]",-0.063194444,-0.154166667,1,0,0,1.9956,o1_image,275.2592,1,275.7593,275.7593,277.7605,0,0,0,0,1,,,,,,,,,,,,,,,,,,,,,,,,,,,,,,,,,,,,,,,,,,,,,,,,,,
,,6147c5874b61952e42e9b2bd,27,male,2024-04-24_11h32.24.143,stockport_simplified,2022.2.4,Win32,142.8571429,661e456ee6de07e70aa9ef7b,6628df8d2ec4bdf738651ece,,,,,,,,,,,,,,,,,,,,,,,,,,,,,,,,,,,,,,,,,,,,,,,,,,,,,,,,0,48,48,1,1,A,X,N,o1_image,stimuli/out1.png,stimuli/correct_out1.png,stimuli/out2.png,,,,,,,,,,,,,,,,,,,,,,,,,,,,,,,,,,,,,,
,,6147c5874b61952e42e9b2bd,27,male,2024-04-24_11h32.24.143,stockport_simplified,2022.2.4,Win32,142.8571429,661e456ee6de07e70aa9ef7b,6628df8d2ec4bdf738651ece,,,,,,,,,,,,,,,,,,,,,,,,,,,,,,,,,,277.7608,280.5421,"[4,5,1,7,2,6,8,3]","[[0.3,0.2],[-0.3,0.2]]","[[0.125,-0.2],[-0.125,-0.2]]",0.122916667,-0.172222222,1,0,0,2.2808,o1_image,280.5424,1,281.0416,281.0416,283.0373,0,0,0,0,1,,,,,,,,,,,,,,,,,,,,,,,,,,,,,,,,,,,,,,,,,,,,,,,,,,
,,6147c5874b61952e42e9b2bd,27,male,2024-04-24_11h32.24.143,stockport_simplified,2022.2.4,Win32,142.8571429,661e456ee6de07e70aa9ef7b,6628df8d2ec4bdf738651ece,,,,,,,,,,,,,,,,,,,,,,,,,,,,,,,,,,,,,,,,,,,,,,,,,,,,,,,,0,49,49,7,1,A,Y,N,o1_image,stimuli/out1.png,stimuli/correct_out1.png,stimuli/out2.png,,,,,,,,,,,,,,,,,,,,,,,,,,,,,,,,,,,,,,
,,6147c5874b61952e42e9b2bd,27,male,2024-04-24_11h32.24.143,stockport_simplified,2022.2.4,Win32,142.8571429,661e456ee6de07e70aa9ef7b,6628df8d2ec4bdf738651ece,,,,,,,,,,,,,,,,,,,,,,,,,,,,,,,,,,283.0374,285.3872,"[4,5,1,7,2,6,8,3]","[[0.3,0.2],[-0.3,0.2]]","[[-0.125,-0.2],[0.125,-0.2]]",0.113888889,-0.156944444,1,0,0,1.8491,o2_image,285.3874,1,285.8873,285.8873,287.8892,0,0,0,0,1,,,,,,,,,,,,,,,,,,,,,,,,,,,,,,,,,,,,,,,,,,,,,,,,,,
,,6147c5874b61952e42e9b2bd,27,male,2024-04-24_11h32.24.143,stockport_simplified,2022.2.4,Win32,142.8571429,661e456ee6de07e70aa9ef7b,6628df8d2ec4bdf738651ece,,,,,,,,,,,,,,,,,,,,,,,,,,,,,,,,,,,,,,,,,,,,,,,,,,,,,,,,0,50,50,59,1,N,M,D,o2_image,stimuli/out2.png,stimuli/out1.png,stimuli/correct_out2.png,,,,,,,,,,,,,,,,,,,,,,,,,,,,,,,,,,,,,,
,,6147c5874b61952e42e9b2bd,27,male,2024-04-24_11h32.24.143,stockport_simplified,2022.2.4,Win32,142.8571429,661e456ee6de07e70aa9ef7b,6628df8d2ec4bdf738651ece,,,,,,,,,,,,,,,,,,,,,,,,,,,,,,,,,,287.8894,290.3772,"[4,5,1,7,2,6,8,3]","[[-0.3,0.2],[0.3,0.2]]","[[-0.125,-0.2],[0.125,-0.2]]",-0.058333333,-0.145833333,1,0,0,1.9874,o1_image,290.3776,0,290.8785,290.8785,292.8797,0,0,0,0,1,,,,,,,,,,,,,,,,,,,,,,,,,,,,,,,,,,,,,,,,,,,,,,,,,,
,,6147c5874b61952e42e9b2bd,27,male,2024-04-24_11h32.24.143,stockport_simplified,2022.2.4,Win32,142.8571429,661e456ee6de07e70aa9ef7b,6628df8d2ec4bdf738651ece,,,,,,,,,,,,,,,,,,,,,,,,,,,,,,,,,,,,,,,,,,,,,,,,,,,,,,,,0,51,51,14,1,B,X,N,o2_image,stimuli/out2.png,stimuli/out1.png,stimuli/correct_out2.png,,,,,,,,,,,,,,,,,,,,,,,,,,,,,,,,,,,,,,
,,6147c5874b61952e42e9b2bd,27,male,2024-04-24_11h32.24.143,stockport_simplified,2022.2.4,Win32,142.8571429,661e456ee6de07e70aa9ef7b,6628df8d2ec4bdf738651ece,,,,,,,,,,,,,,,,,,,,,,,,,,,,,,,,,,292.8799,294.98,"[4,5,1,7,2,6,8,3]","[[-0.3,0.2],[0.3,0.2]]","[[0.125,-0.2],[-0.125,-0.2]]",0.108333333,-0.152083333,1,0,0,1.599,o1_image,294.9803,0,295.4795,295.4795,297.4746,0,0,0,0,1,,,,,,,,,,,,,,,,,,,,,,,,,,,,,,,,,,,,,,,,,,,,,,,,,,
,,6147c5874b61952e42e9b2bd,27,male,2024-04-24_11h32.24.143,stockport_simplified,2022.2.4,Win32,142.8571429,661e456ee6de07e70aa9ef7b,6628df8d2ec4bdf738651ece,,,,,,,,,,,,,,,,,,,,,,,,,,,,,,,,,,,,,,,,,,,,,,,,,,,,,,,,0,52,52,17,1,B,Y,N,o2_image,stimuli/out2.png,stimuli/out1.png,stimuli/correct_out2.png,,,,,,,,,,,,,,,,,,,,,,,,,,,,,,,,,,,,,,
,,6147c5874b61952e42e9b2bd,27,male,2024-04-24_11h32.24.143,stockport_simplified,2022.2.4,Win32,142.8571429,661e456ee6de07e70aa9ef7b,6628df8d2ec4bdf738651ece,,,,,,,,,,,,,,,,,,,,,,,,,,,,,,,,,,297.4748,299.4557,"[4,5,1,7,2,6,8,3]","[[0.3,0.2],[-0.3,0.2]]","[[0.125,-0.2],[-0.125,-0.2]]",0.097222222,-0.163888889,1,0,0,1.4803,o1_image,299.456,1,299.9571,299.9571,301.9582,0,0,0,0,1,,,,,,,,,,,,,,,,,,,,,,,,,,,,,,,,,,,,,,,,,,,,,,,,,,
,,6147c5874b61952e42e9b2bd,27,male,2024-04-24_11h32.24.143,stockport_simplified,2022.2.4,Win32,142.8571429,661e456ee6de07e70aa9ef7b,6628df8d2ec4bdf738651ece,,,,,,,,,,,,,,,,,,,,,,,,,,,,,,,,,,,,,,,,,,,,,,,,,,,,,,,,0,53,53,53,1,N,M,C,o1_image,stimuli/out1.png,stimuli/correct_out1.png,stimuli/out2.png,,,,,,,,,,,,,,,,,,,,,,,,,,,,,,,,,,,,,,
,,6147c5874b61952e42e9b2bd,27,male,2024-04-24_11h32.24.143,stockport_simplified,2022.2.4,Win32,142.8571429,661e456ee6de07e70aa9ef7b,6628df8d2ec4bdf738651ece,,,,,,,,,,,,,,,,,,,,,,,,,,,,,,,,,,301.9584,304.1348,"[4,5,1,7,2,6,8,3]","[[0.3,0.2],[-0.3,0.2]]","[[0.125,-0.2],[-0.125,-0.2]]",-0.070138889,-0.150694444,1,0,0,1.6759,o2_image,304.135,1,304.6351,304.6351,306.6364,0,0,0,0,1,,,,,,,,,,,,,,,,,,,,,,,,,,,,,,,,,,,,,,,,,,,,,,,,,,
,,6147c5874b61952e42e9b2bd,27,male,2024-04-24_11h32.24.143,stockport_simplified,2022.2.4,Win32,142.8571429,661e456ee6de07e70aa9ef7b,6628df8d2ec4bdf738651ece,,,,,,,,,,,,,,,,,,,,,,,,,,,,,,,,,,,,,,,,,,,,,,,,,,,,,,,,0,54,54,46,1,B,Y,N,o2_image,stimuli/out2.png,stimuli/out1.png,stimuli/correct_out2.png,,,,,,,,,,,,,,,,,,,,,,,,,,,,,,,,,,,,,,
,,6147c5874b61952e42e9b2bd,27,male,2024-04-24_11h32.24.143,stockport_simplified,2022.2.4,Win32,142.8571429,661e456ee6de07e70aa9ef7b,6628df8d2ec4bdf738651ece,,,,,,,,,,,,,,,,,,,,,,,,,,,,,,,,,,306.6366,309.1319,"[4,5,1,7,2,6,8,3]","[[-0.3,0.2],[0.3,0.2]]","[[-0.125,-0.2],[0.125,-0.2]]",0.089583333,-0.156944444,1,0,0,1.9949,o2_image,309.1323,1,309.6332,309.6332,311.628,0,0,0,0,1,,,,,,,,,,,,,,,,,,,,,,,,,,,,,,,,,,,,,,,,,,,,,,,,,,
,,6147c5874b61952e42e9b2bd,27,male,2024-04-24_11h32.24.143,stockport_simplified,2022.2.4,Win32,142.8571429,661e456ee6de07e70aa9ef7b,6628df8d2ec4bdf738651ece,,,,,,,,,,,,,,,,,,,,,,,,,,,,,,,,,,,,,,,,,,,,,,,,,,,,,,,,0,55,55,40,1,B,X,N,o2_image,stimuli/out2.png,stimuli/out1.png,stimuli/correct_out2.png,,,,,,,,,,,,,,,,,,,,,,,,,,,,,,,,,,,,,,
,,6147c5874b61952e42e9b2bd,27,male,2024-04-24_11h32.24.143,stockport_simplified,2022.2.4,Win32,142.8571429,661e456ee6de07e70aa9ef7b,6628df8d2ec4bdf738651ece,,,,,,,,,,,,,,,,,,,,,,,,,,,,,,,,,,311.6282,314.3463,"[4,5,1,7,2,6,8,3]","[[0.3,0.2],[-0.3,0.2]]","[[-0.125,-0.2],[0.125,-0.2]]",-0.093055556,-0.165972222,1,0,0,2.2113,o1_image,314.3465,1,314.846,314.846,316.841,0,0,0,0,1,,,,,,,,,,,,,,,,,,,,,,,,,,,,,,,,,,,,,,,,,,,,,,,,,,
,,6147c5874b61952e42e9b2bd,27,male,2024-04-24_11h32.24.143,stockport_simplified,2022.2.4,Win32,142.8571429,661e456ee6de07e70aa9ef7b,6628df8d2ec4bdf738651ece,,,,,,,,,,,,,,,,,,,,,,,,,,,,,,,,,,,,,,,,,,,,,,,,,,,,,,,,0,56,56,33,1,A,X,N,o1_image,stimuli/out1.png,stimuli/correct_out1.png,stimuli/out2.png,,,,,,,,,,,,,,,,,,,,,,,,,,,,,,,,,,,,,,
,,6147c5874b61952e42e9b2bd,27,male,2024-04-24_11h32.24.143,stockport_simplified,2022.2.4,Win32,142.8571429,661e456ee6de07e70aa9ef7b,6628df8d2ec4bdf738651ece,,,,,,,,,,,,,,,,,,,,,,,,,,,,,,,,,,316.8412,319.0733,"[4,5,1,7,2,6,8,3]","[[0.3,0.2],[-0.3,0.2]]","[[0.125,-0.2],[-0.125,-0.2]]",0.105555556,-0.158333333,1,0,0,1.7318,o1_image,319.0736,1,319.5728,319.5728,321.5679,0,0,0,0,1,,,,,,,,,,,,,,,,,,,,,,,,,,,,,,,,,,,,,,,,,,,,,,,,,,
,,6147c5874b61952e42e9b2bd,27,male,2024-04-24_11h32.24.143,stockport_simplified,2022.2.4,Win32,142.8571429,661e456ee6de07e70aa9ef7b,6628df8d2ec4bdf738651ece,,,,,,,,,,,,,,,,,,,,,,,,,,,,,,,,,,,,,,,,,,,,,,,,,,,,,,,,0,57,57,34,1,A,X,N,o1_image,stimuli/out1.png,stimuli/correct_out1.png,stimuli/out2.png,,,,,,,,,,,,,,,,,,,,,,,,,,,,,,,,,,,,,,
,,6147c5874b61952e42e9b2bd,27,male,2024-04-24_11h32.24.143,stockport_simplified,2022.2.4,Win32,142.8571429,661e456ee6de07e70aa9ef7b,6628df8d2ec4bdf738651ece,,,,,,,,,,,,,,,,,,,,,,,,,,,,,,,,,,321.5681,323.8835,"[4,5,1,7,2,6,8,3]","[[0.3,0.2],[-0.3,0.2]]","[[0.125,-0.2],[-0.125,-0.2]]",-0.090277778,-0.145138889,1,0,0,1.8144,o2_image,323.8838,1,324.3832,324.3832,326.3782,0,0,0,0,1,,,,,,,,,,,,,,,,,,,,,,,,,,,,,,,,,,,,,,,,,,,,,,,,,,
,,6147c5874b61952e42e9b2bd,27,male,2024-04-24_11h32.24.143,stockport_simplified,2022.2.4,Win32,142.8571429,661e456ee6de07e70aa9ef7b,6628df8d2ec4bdf738651ece,,,,,,,,,,,,,,,,,,,,,,,,,,,,,,,,,,,,,,,,,,,,,,,,,,,,,,,,0,58,58,29,1,N,M,D,o2_image,stimuli/out2.png,stimuli/out1.png,stimuli/correct_out2.png,,,,,,,,,,,,,,,,,,,,,,,,,,,,,,,,,,,,,,
,,6147c5874b61952e42e9b2bd,27,male,2024-04-24_11h32.24.143,stockport_simplified,2022.2.4,Win32,142.8571429,661e456ee6de07e70aa9ef7b,6628df8d2ec4bdf738651ece,,,,,,,,,,,,,,,,,,,,,,,,,,,,,,,,,,326.3785,327.3583,"[4,5,1,7,2,6,8,3]","[[-0.3,0.2],[0.3,0.2]]","[[0.125,-0.2],[-0.125,-0.2]]",-0.090277778,-0.145138889,1,0,0,0.4797,o2_image,327.3586,1,327.8587,327.8588,329.8538,0,0,0,0,1,,,,,,,,,,,,,,,,,,,,,,,,,,,,,,,,,,,,,,,,,,,,,,,,,,
,,6147c5874b61952e42e9b2bd,27,male,2024-04-24_11h32.24.143,stockport_simplified,2022.2.4,Win32,142.8571429,661e456ee6de07e70aa9ef7b,6628df8d2ec4bdf738651ece,,,,,,,,,,,,,,,,,,,,,,,,,,,,,,,,,,,,,,,,,,,,,,,,,,,,,,,,0,59,59,57,1,N,M,D,o2_image,stimuli/out2.png,stimuli/out1.png,stimuli/correct_out2.png,,,,,,,,,,,,,,,,,,,,,,,,,,,,,,,,,,,,,,
,,6147c5874b61952e42e9b2bd,27,male,2024-04-24_11h32.24.143,stockport_simplified,2022.2.4,Win32,142.8571429,661e456ee6de07e70aa9ef7b,6628df8d2ec4bdf738651ece,,,,,,,,,,,,,,,,,,,,,,,,,,,,,,,,,,329.8541,332.3989,"[4,5,1,7,2,6,8,3]","[[0.3,0.2],[-0.3,0.2]]","[[-0.125,-0.2],[0.125,-0.2]]",-0.104166667,-0.152777778,1,0,0,2.0443,o1_image,332.3991,0,332.8986,332.8987,334.8935,0,0,0,0,1,,,,,,,,,,,,,,,,,,,,,,,,,,,,,,,,,,,,,,,,,,,,,,,,,,
,,6147c5874b61952e42e9b2bd,27,male,2024-04-24_11h32.24.143,stockport_simplified,2022.2.4,Win32,142.8571429,661e456ee6de07e70aa9ef7b,6628df8d2ec4bdf738651ece,,,,,,,,,,,,,,,,,,,,,,,,,,,,,,,,,,,,,,,,,,,,,,,,,,,,,,,,1,0,60,40,1,B,X,N,o2_image,stimuli/out2.png,stimuli/out1.png,stimuli/correct_out2.png,,,,,,,,,,,,,,,,,,,,,,,,,,,,,,,,,,,,,,
,,6147c5874b61952e42e9b2bd,27,male,2024-04-24_11h32.24.143,stockport_simplified,2022.2.4,Win32,142.8571429,661e456ee6de07e70aa9ef7b,6628df8d2ec4bdf738651ece,,,,,,,,,,,,,,,,,,,,,,,,,,,,,,,,,,334.8937,336.7017,"[4,5,1,7,2,6,8,3]","[[-0.3,0.2],[0.3,0.2]]","[[-0.125,-0.2],[0.125,-0.2]]",0.054861111,-0.157638889,1,0,0,1.3074,o2_image,336.702,0,337.2022,337.2022,339.204,0,0,0,0,1,,,,,,,,,,,,,,,,,,,,,,,,,,,,,,,,,,,,,,,,,,,,,,,,,,
,,6147c5874b61952e42e9b2bd,27,male,2024-04-24_11h32.24.143,stockport_simplified,2022.2.4,Win32,142.8571429,661e456ee6de07e70aa9ef7b,6628df8d2ec4bdf738651ece,,,,,,,,,,,,,,,,,,,,,,,,,,,,,,,,,,,,,,,,,,,,,,,,,,,,,,,,1,1,61,24,1,N,M,C,o1_image,stimuli/out1.png,stimuli/correct_out1.png,stimuli/out2.png,,,,,,,,,,,,,,,,,,,,,,,,,,,,,,,,,,,,,,
,,6147c5874b61952e42e9b2bd,27,male,2024-04-24_11h32.24.143,stockport_simplified,2022.2.4,Win32,142.8571429,661e456ee6de07e70aa9ef7b,6628df8d2ec4bdf738651ece,,,,,,,,,,,,,,,,,,,,,,,,,,,,,,,,,,339.2042,341.1715,"[4,5,1,7,2,6,8,3]","[[-0.3,0.2],[0.3,0.2]]","[[-0.125,-0.2],[0.125,-0.2]]",0.054166667,-0.157638889,1,0,0,1.4668,o2_image,341.1718,1,341.6717,341.6717,343.6737,0,0,0,0,1,,,,,,,,,,,,,,,,,,,,,,,,,,,,,,,,,,,,,,,,,,,,,,,,,,
,,6147c5874b61952e42e9b2bd,27,male,2024-04-24_11h32.24.143,stockport_simplified,2022.2.4,Win32,142.8571429,661e456ee6de07e70aa9ef7b,6628df8d2ec4bdf738651ece,,,,,,,,,,,,,,,,,,,,,,,,,,,,,,,,,,,,,,,,,,,,,,,,,,,,,,,,1,2,62,15,1,B,Y,N,o2_image,stimuli/out2.png,stimuli/out1.png,stimuli/correct_out2.png,,,,,,,,,,,,,,,,,,,,,,,,,,,,,,,,,,,,,,
,,6147c5874b61952e42e9b2bd,27,male,2024-04-24_11h32.24.143,stockport_simplified,2022.2.4,Win32,142.8571429,661e456ee6de07e70aa9ef7b,6628df8d2ec4bdf738651ece,,,,,,,,,,,,,,,,,,,,,,,,,,,,,,,,,,343.6739,345.384,"[4,5,1,7,2,6,8,3]","[[-0.3,0.2],[0.3,0.2]]","[[0.125,-0.2],[-0.125,-0.2]]",-0.073611111,-0.172222222,1,0,0,1.2032,o2_image,345.3843,1,345.8836,345.8836,347.8786,0,0,0,0,1,,,,,,,,,,,,,,,,,,,,,,,,,,,,,,,,,,,,,,,,,,,,,,,,,,
,,6147c5874b61952e42e9b2bd,27,male,2024-04-24_11h32.24.143,stockport_simplified,2022.2.4,Win32,142.8571429,661e456ee6de07e70aa9ef7b,6628df8d2ec4bdf738651ece,,,,,,,,,,,,,,,,,,,,,,,,,,,,,,,,,,,,,,,,,,,,,,,,,,,,,,,,1,3,63,57,1,N,M,D,o2_image,stimuli/out2.png,stimuli/out1.png,stimuli/correct_out2.png,,,,,,,,,,,,,,,,,,,,,,,,,,,,,,,,,,,,,,
,,6147c5874b61952e42e9b2bd,27,male,2024-04-24_11h32.24.143,stockport_simplified,2022.2.4,Win32,142.8571429,661e456ee6de07e70aa9ef7b,6628df8d2ec4bdf738651ece,,,,,,,,,,,,,,,,,,,,,,,,,,,,,,,,,,347.8788,350.8608,"[4,5,1,7,2,6,8,3]","[[-0.3,0.2],[0.3,0.2]]","[[0.125,-0.2],[-0.125,-0.2]]",0.117361111,-0.171527778,1,0,0,2.4814,o1_image,350.8659,0,351.3612,351.3613,353.3562,0,0,0,0,1,,,,,,,,,,,,,,,,,,,,,,,,,,,,,,,,,,,,,,,,,,,,,,,,,,
,,6147c5874b61952e42e9b2bd,27,male,2024-04-24_11h32.24.143,stockport_simplified,2022.2.4,Win32,142.8571429,661e456ee6de07e70aa9ef7b,6628df8d2ec4bdf738651ece,,,,,,,,,,,,,,,,,,,,,,,,,,,,,,,,,,,,,,,,,,,,,,,,,,,,,,,,1,4,64,10,1,B,X,N,o2_image,stimuli/out2.png,stimuli/out1.png,stimuli/correct_out2.png,,,,,,,,,,,,,,,,,,,,,,,,,,,,,,,,,,,,,,
,,6147c5874b61952e42e9b2bd,27,male,2024-04-24_11h32.24.143,stockport_simplified,2022.2.4,Win32,142.8571429,661e456ee6de07e70aa9ef7b,6628df8d2ec4bdf738651ece,,,,,,,,,,,,,,,,,,,,,,,,,,,,,,,,,,353.3565,354.983,"[4,5,1,7,2,6,8,3]","[[0.3,0.2],[-0.3,0.2]]","[[0.125,-0.2],[-0.125,-0.2]]",-0.063888889,-0.144444444,1,0,0,1.126,o2_image,354.9832,1,355.4834,355.4834,357.4785,0,0,0,0,1,,,,,,,,,,,,,,,,,,,,,,,,,,,,,,,,,,,,,,,,,,,,,,,,,,
,,6147c5874b61952e42e9b2bd,27,male,2024-04-24_11h32.24.143,stockport_simplified,2022.2.4,Win32,142.8571429,661e456ee6de07e70aa9ef7b,6628df8d2ec4bdf738651ece,,,,,,,,,,,,,,,,,,,,,,,,,,,,,,,,,,,,,,,,,,,,,,,,,,,,,,,,1,5,65,25,1,N,M,D,o2_image,stimuli/out2.png,stimuli/out1.png,stimuli/correct_out2.png,,,,,,,,,,,,,,,,,,,,,,,,,,,,,,,,,,,,,,
,,6147c5874b61952e42e9b2bd,27,male,2024-04-24_11h32.24.143,stockport_simplified,2022.2.4,Win32,142.8571429,661e456ee6de07e70aa9ef7b,6628df8d2ec4bdf738651ece,,,,,,,,,,,,,,,,,,,,,,,,,,,,,,,,,,357.4786,359.8002,"[4,5,1,7,2,6,8,3]","[[0.3,0.2],[-0.3,0.2]]","[[-0.125,-0.2],[0.125,-0.2]]",-0.093055556,-0.150694444,1,0,0,1.8211,o1_image,359.8005,1,360.3008,360.3008,362.3027,0,0,0,0,1,,,,,,,,,,,,,,,,,,,,,,,,,,,,,,,,,,,,,,,,,,,,,,,,,,
,,6147c5874b61952e42e9b2bd,27,male,2024-04-24_11h32.24.143,stockport_simplified,2022.2.4,Win32,142.8571429,661e456ee6de07e70aa9ef7b,6628df8d2ec4bdf738651ece,,,,,,,,,,,,,,,,,,,,,,,,,,,,,,,,,,,,,,,,,,,,,,,,,,,,,,,,1,6,66,33,1,A,X,N,o1_image,stimuli/out1.png,stimuli/correct_out1.png,stimuli/out2.png,,,,,,,,,,,,,,,,,,,,,,,,,,,,,,,,,,,,,,
,,6147c5874b61952e42e9b2bd,27,male,2024-04-24_11h32.24.143,stockport_simplified,2022.2.4,Win32,142.8571429,661e456ee6de07e70aa9ef7b,6628df8d2ec4bdf738651ece,,,,,,,,,,,,,,,,,,,,,,,,,,,,,,,,,,362.303,364.6592,"[4,5,1,7,2,6,8,3]","[[-0.3,0.2],[0.3,0.2]]","[[-0.125,-0.2],[0.125,-0.2]]",-0.070138889,-0.138194444,1,0,0,1.8558,o1_image,364.6643,1,365.1597,365.1597,367.1547,0,0,0,0,1,,,,,,,,,,,,,,,,,,,,,,,,,,,,,,,,,,,,,,,,,,,,,,,,,,
,,6147c5874b61952e42e9b2bd,27,male,2024-04-24_11h32.24.143,stockport_simplified,2022.2.4,Win32,142.8571429,661e456ee6de07e70aa9ef7b,6628df8d2ec4bdf738651ece,,,,,,,,,,,,,,,,,,,,,,,,,,,,,,,,,,,,,,,,,,,,,,,,,,,,,,,,1,7,67,38,1,A,Y,N,o1_image,stimuli/out1.png,stimuli/correct_out1.png,stimuli/out2.png,,,,,,,,,,,,,,,,,,,,,,,,,,,,,,,,,,,,,,
,,6147c5874b61952e42e9b2bd,27,male,2024-04-24_11h32.24.143,stockport_simplified,2022.2.4,Win32,142.8571429,661e456ee6de07e70aa9ef7b,6628df8d2ec4bdf738651ece,,,,,,,,,,,,,,,,,,,,,,,,,,,,,,,,,,367.1548,369.0386,"[4,5,1,7,2,6,8,3]","[[-0.3,0.2],[0.3,0.2]]","[[-0.125,-0.2],[0.125,-0.2]]",-0.081944444,-0.141666667,1,0,0,1.3833,o1_image,369.0389,1,369.539,369.539,371.534,0,0,0,0,1,,,,,,,,,,,,,,,,,,,,,,,,,,,,,,,,,,,,,,,,,,,,,,,,,,
,,6147c5874b61952e42e9b2bd,27,male,2024-04-24_11h32.24.143,stockport_simplified,2022.2.4,Win32,142.8571429,661e456ee6de07e70aa9ef7b,6628df8d2ec4bdf738651ece,,,,,,,,,,,,,,,,,,,,,,,,,,,,,,,,,,,,,,,,,,,,,,,,,,,,,,,,1,8,68,35,1,A,Y,N,o1_image,stimuli/out1.png,stimuli/correct_out1.png,stimuli/out2.png,,,,,,,,,,,,,,,,,,,,,,,,,,,,,,,,,,,,,,
,,6147c5874b61952e42e9b2bd,27,male,2024-04-24_11h32.24.143,stockport_simplified,2022.2.4,Win32,142.8571429,661e456ee6de07e70aa9ef7b,6628df8d2ec4bdf738651ece,,,,,,,,,,,,,,,,,,,,,,,,,,,,,,,,,,371.5343,373.2858,"[4,5,1,7,2,6,8,3]","[[-0.3,0.2],[0.3,0.2]]","[[-0.125,-0.2],[0.125,-0.2]]",-0.075694444,-0.140972222,1,0,0,1.2511,o1_image,373.2861,1,373.7862,373.7862,375.7812,0,0,0,0,1,,,,,,,,,,,,,,,,,,,,,,,,,,,,,,,,,,,,,,,,,,,,,,,,,,
,,6147c5874b61952e42e9b2bd,27,male,2024-04-24_11h32.24.143,stockport_simplified,2022.2.4,Win32,142.8571429,661e456ee6de07e70aa9ef7b,6628df8d2ec4bdf738651ece,,,,,,,,,,,,,,,,,,,,,,,,,,,,,,,,,,,,,,,,,,,,,,,,,,,,,,,,1,9,69,23,1,N,M,C,o1_image,stimuli/out1.png,stimuli/correct_out1.png,stimuli/out2.png,,,,,,,,,,,,,,,,,,,,,,,,,,,,,,,,,,,,,,
,,6147c5874b61952e42e9b2bd,27,male,2024-04-24_11h32.24.143,stockport_simplified,2022.2.4,Win32,142.8571429,661e456ee6de07e70aa9ef7b,6628df8d2ec4bdf738651ece,,,,,,,,,,,,,,,,,,,,,,,,,,,,,,,,,,375.7814,378.3186,"[4,5,1,7,2,6,8,3]","[[0.3,0.2],[-0.3,0.2]]","[[0.125,-0.2],[-0.125,-0.2]]",-0.069444444,-0.133333333,1,0,0,2.0366,o2_image,378.3188,1,378.819,378.8191,380.8141,0,0,0,0,1,,,,,,,,,,,,,,,,,,,,,,,,,,,,,,,,,,,,,,,,,,,,,,,,,,
,,6147c5874b61952e42e9b2bd,27,male,2024-04-24_11h32.24.143,stockport_simplified,2022.2.4,Win32,142.8571429,661e456ee6de07e70aa9ef7b,6628df8d2ec4bdf738651ece,,,,,,,,,,,,,,,,,,,,,,,,,,,,,,,,,,,,,,,,,,,,,,,,,,,,,,,,1,10,70,29,1,N,M,D,o2_image,stimuli/out2.png,stimuli/out1.png,stimuli/correct_out2.png,,,,,,,,,,,,,,,,,,,,,,,,,,,,,,,,,,,,,,
,,6147c5874b61952e42e9b2bd,27,male,2024-04-24_11h32.24.143,stockport_simplified,2022.2.4,Win32,142.8571429,661e456ee6de07e70aa9ef7b,6628df8d2ec4bdf738651ece,,,,,,,,,,,,,,,,,,,,,,,,,,,,,,,,,,380.8143,384.1785,"[4,5,1,7,2,6,8,3]","[[-0.3,0.2],[0.3,0.2]]","[[-0.125,-0.2],[0.125,-0.2]]",-0.06875,-0.146527778,1,0,0,2.8638,o1_image,384.1788,1,384.6791,384.6791,386.6741,0,0,0,0,1,,,,,,,,,,,,,,,,,,,,,,,,,,,,,,,,,,,,,,,,,,,,,,,,,,
,,6147c5874b61952e42e9b2bd,27,male,2024-04-24_11h32.24.143,stockport_simplified,2022.2.4,Win32,142.8571429,661e456ee6de07e70aa9ef7b,6628df8d2ec4bdf738651ece,,,,,,,,,,,,,,,,,,,,,,,,,,,,,,,,,,,,,,,,,,,,,,,,,,,,,,,,1,11,71,4,1,A,X,N,o1_image,stimuli/out1.png,stimuli/correct_out1.png,stimuli/out2.png,,,,,,,,,,,,,,,,,,,,,,,,,,,,,,,,,,,,,,
,,6147c5874b61952e42e9b2bd,27,male,2024-04-24_11h32.24.143,stockport_simplified,2022.2.4,Win32,142.8571429,661e456ee6de07e70aa9ef7b,6628df8d2ec4bdf738651ece,,,,,,,,,,,,,,,,,,,,,,,,,,,,,,,,,,386.6742,389.3225,"[4,5,1,7,2,6,8,3]","[[-0.3,0.2],[0.3,0.2]]","[[0.125,-0.2],[-0.125,-0.2]]",-0.074305556,-0.152083333,1,0,0,2.1476,o2_image,389.3228,1,389.8231,389.8231,391.8249,0,0,0,0,1,,,,,,,,,,,,,,,,,,,,,,,,,,,,,,,,,,,,,,,,,,,,,,,,,,
,,6147c5874b61952e42e9b2bd,27,male,2024-04-24_11h32.24.143,stockport_simplified,2022.2.4,Win32,142.8571429,661e456ee6de07e70aa9ef7b,6628df8d2ec4bdf738651ece,,,,,,,,,,,,,,,,,,,,,,,,,,,,,,,,,,,,,,,,,,,,,,,,,,,,,,,,1,12,72,48,1,B,Y,N,o2_image,stimuli/out2.png,stimuli/out1.png,stimuli/correct_out2.png,,,,,,,,,,,,,,,,,,,,,,,,,,,,,,,,,,,,,,
,,6147c5874b61952e42e9b2bd,27,male,2024-04-24_11h32.24.143,stockport_simplified,2022.2.4,Win32,142.8571429,661e456ee6de07e70aa9ef7b,6628df8d2ec4bdf738651ece,,,,,,,,,,,,,,,,,,,,,,,,,,,,,,,,,,391.8251,393.6185,"[4,5,1,7,2,6,8,3]","[[-0.3,0.2],[0.3,0.2]]","[[0.125,-0.2],[-0.125,-0.2]]",-0.070833333,-0.1375,1,0,0,1.293,o2_image,393.6189,1,394.119,394.119,396.1139,0,0,0,0,1,,,,,,,,,,,,,,,,,,,,,,,,,,,,,,,,,,,,,,,,,,,,,,,,,,
,,6147c5874b61952e42e9b2bd,27,male,2024-04-24_11h32.24.143,stockport_simplified,2022.2.4,Win32,142.8571429,661e456ee6de07e70aa9ef7b,6628df8d2ec4bdf738651ece,,,,,,,,,,,,,,,,,,,,,,,,,,,,,,,,,,,,,,,,,,,,,,,,,,,,,,,,1,13,73,46,1,B,Y,N,o2_image,stimuli/out2.png,stimuli/out1.png,stimuli/correct_out2.png,,,,,,,,,,,,,,,,,,,,,,,,,,,,,,,,,,,,,,
,,6147c5874b61952e42e9b2bd,27,male,2024-04-24_11h32.24.143,stockport_simplified,2022.2.4,Win32,142.8571429,661e456ee6de07e70aa9ef7b,6628df8d2ec4bdf738651ece,,,,,,,,,,,,,,,,,,,,,,,,,,,,,,,,,,396.1141,398.8944,"[4,5,1,7,2,6,8,3]","[[-0.3,0.2],[0.3,0.2]]","[[-0.125,-0.2],[0.125,-0.2]]",0.0875,-0.140972222,1,0,0,2.2798,o2_image,398.8996,1,399.3949,399.395,401.39,0,0,0,0,1,,,,,,,,,,,,,,,,,,,,,,,,,,,,,,,,,,,,,,,,,,,,,,,,,,
,,6147c5874b61952e42e9b2bd,27,male,2024-04-24_11h32.24.143,stockport_simplified,2022.2.4,Win32,142.8571429,661e456ee6de07e70aa9ef7b,6628df8d2ec4bdf738651ece,,,,,,,,,,,,,,,,,,,,,,,,,,,,,,,,,,,,,,,,,,,,,,,,,,,,,,,,1,14,74,59,1,N,M,D,o2_image,stimuli/out2.png,stimuli/out1.png,stimuli/correct_out2.png,,,,,,,,,,,,,,,,,,,,,,,,,,,,,,,,,,,,,,
,,6147c5874b61952e42e9b2bd,27,male,2024-04-24_11h32.24.143,stockport_simplified,2022.2.4,Win32,142.8571429,661e456ee6de07e70aa9ef7b,6628df8d2ec4bdf738651ece,,,,,,,,,,,,,,,,,,,,,,,,,,,,,,,,,,401.3901,403.6492,"[4,5,1,7,2,6,8,3]","[[-0.3,0.2],[0.3,0.2]]","[[0.125,-0.2],[-0.125,-0.2]]",-0.064583333,-0.159027778,1,0,0,1.7585,o2_image,403.6495,1,404.1497,404.1497,406.1448,0,0,0,0,1,,,,,,,,,,,,,,,,,,,,,,,,,,,,,,,,,,,,,,,,,,,,,,,,,,
,,6147c5874b61952e42e9b2bd,27,male,2024-04-24_11h32.24.143,stockport_simplified,2022.2.4,Win32,142.8571429,661e456ee6de07e70aa9ef7b,6628df8d2ec4bdf738651ece,,,,,,,,,,,,,,,,,,,,,,,,,,,,,,,,,,,,,,,,,,,,,,,,,,,,,,,,1,15,75,17,1,B,Y,N,o2_image,stimuli/out2.png,stimuli/out1.png,stimuli/correct_out2.png,,,,,,,,,,,,,,,,,,,,,,,,,,,,,,,,,,,,,,
,,6147c5874b61952e42e9b2bd,27,male,2024-04-24_11h32.24.143,stockport_simplified,2022.2.4,Win32,142.8571429,661e456ee6de07e70aa9ef7b,6628df8d2ec4bdf738651ece,,,,,,,,,,,,,,,,,,,,,,,,,,,,,,,,,,406.1449,408.2649,"[4,5,1,7,2,6,8,3]","[[-0.3,0.2],[0.3,0.2]]","[[0.125,-0.2],[-0.125,-0.2]]",-0.074305556,-0.172222222,1,0,0,1.6194,o2_image,408.2653,1,408.7653,408.7654,410.7605,0,0,0,0,1,,,,,,,,,,,,,,,,,,,,,,,,,,,,,,,,,,,,,,,,,,,,,,,,,,
,,6147c5874b61952e42e9b2bd,27,male,2024-04-24_11h32.24.143,stockport_simplified,2022.2.4,Win32,142.8571429,661e456ee6de07e70aa9ef7b,6628df8d2ec4bdf738651ece,,,,,,,,,,,,,,,,,,,,,,,,,,,,,,,,,,,,,,,,,,,,,,,,,,,,,,,,1,16,76,28,1,N,M,D,o2_image,stimuli/out2.png,stimuli/out1.png,stimuli/correct_out2.png,,,,,,,,,,,,,,,,,,,,,,,,,,,,,,,,,,,,,,
,,6147c5874b61952e42e9b2bd,27,male,2024-04-24_11h32.24.143,stockport_simplified,2022.2.4,Win32,142.8571429,661e456ee6de07e70aa9ef7b,6628df8d2ec4bdf738651ece,,,,,,,,,,,,,,,,,,,,,,,,,,,,,,,,,,410.7607,412.7067,"[4,5,1,7,2,6,8,3]","[[0.3,0.2],[-0.3,0.2]]","[[-0.125,-0.2],[0.125,-0.2]]",0.078472222,-0.177777778,1,0,0,1.4458,o2_image,412.707,1,413.2072,413.2072,415.2024,0,0,0,0,1,,,,,,,,,,,,,,,,,,,,,,,,,,,,,,,,,,,,,,,,,,,,,,,,,,
,,6147c5874b61952e42e9b2bd,27,male,2024-04-24_11h32.24.143,stockport_simplified,2022.2.4,Win32,142.8571429,661e456ee6de07e70aa9ef7b,6628df8d2ec4bdf738651ece,,,,,,,,,,,,,,,,,,,,,,,,,,,,,,,,,,,,,,,,,,,,,,,,,,,,,,,,1,17,77,56,1,N,M,D,o2_image,stimuli/out2.png,stimuli/out1.png,stimuli/correct_out2.png,,,,,,,,,,,,,,,,,,,,,,,,,,,,,,,,,,,,,,
,,6147c5874b61952e42e9b2bd,27,male,2024-04-24_11h32.24.143,stockport_simplified,2022.2.4,Win32,142.8571429,661e456ee6de07e70aa9ef7b,6628df8d2ec4bdf738651ece,,,,,,,,,,,,,,,,,,,,,,,,,,,,,,,,,,415.2026,417.9064,"[4,5,1,7,2,6,8,3]","[[-0.3,0.2],[0.3,0.2]]","[[0.125,-0.2],[-0.125,-0.2]]",-0.055555556,-0.186805556,1,0,0,2.2034,o2_image,417.9067,1,418.4069,418.4069,420.4088,0,0,0,0,1,,,,,,,,,,,,,,,,,,,,,,,,,,,,,,,,,,,,,,,,,,,,,,,,,,
,,6147c5874b61952e42e9b2bd,27,male,2024-04-24_11h32.24.143,stockport_simplified,2022.2.4,Win32,142.8571429,661e456ee6de07e70aa9ef7b,6628df8d2ec4bdf738651ece,,,,,,,,,,,,,,,,,,,,,,,,,,,,,,,,,,,,,,,,,,,,,,,,,,,,,,,,1,18,78,16,1,B,Y,N,o2_image,stimuli/out2.png,stimuli/out1.png,stimuli/correct_out2.png,,,,,,,,,,,,,,,,,,,,,,,,,,,,,,,,,,,,,,
,,6147c5874b61952e42e9b2bd,27,male,2024-04-24_11h32.24.143,stockport_simplified,2022.2.4,Win32,142.8571429,661e456ee6de07e70aa9ef7b,6628df8d2ec4bdf738651ece,,,,,,,,,,,,,,,,,,,,,,,,,,,,,,,,,,420.409,422.3553,"[4,5,1,7,2,6,8,3]","[[-0.3,0.2],[0.3,0.2]]","[[0.125,-0.2],[-0.125,-0.2]]",-0.055555556,-0.186805556,1,0,0,1.446,o2_image,422.3555,1,422.8557,422.8557,424.8507,0,0,0,0,1,,,,,,,,,,,,,,,,,,,,,,,,,,,,,,,,,,,,,,,,,,,,,,,,,,
,,6147c5874b61952e42e9b2bd,27,male,2024-04-24_11h32.24.143,stockport_simplified,2022.2.4,Win32,142.8571429,661e456ee6de07e70aa9ef7b,6628df8d2ec4bdf738651ece,,,,,,,,,,,,,,,,,,,,,,,,,,,,,,,,,,,,,,,,,,,,,,,,,,,,,,,,1,19,79,19,1,B,Y,N,o2_image,stimuli/out2.png,stimuli/out1.png,stimuli/correct_out2.png,,,,,,,,,,,,,,,,,,,,,,,,,,,,,,,,,,,,,,
,,6147c5874b61952e42e9b2bd,27,male,2024-04-24_11h32.24.143,stockport_simplified,2022.2.4,Win32,142.8571429,661e456ee6de07e70aa9ef7b,6628df8d2ec4bdf738651ece,,,,,,,,,,,,,,,,,,,,,,,,,,,,,,,,,,424.8509,426.7208,"[4,5,1,7,2,6,8,3]","[[0.3,0.2],[-0.3,0.2]]","[[0.125,-0.2],[-0.125,-0.2]]",0.129166667,-0.175694444,1,0,0,1.3692,o1_image,426.721,1,427.2212,427.2212,429.2162,0,0,0,0,1,,,,,,,,,,,,,,,,,,,,,,,,,,,,,,,,,,,,,,,,,,,,,,,,,,
,,6147c5874b61952e42e9b2bd,27,male,2024-04-24_11h32.24.143,stockport_simplified,2022.2.4,Win32,142.8571429,661e456ee6de07e70aa9ef7b,6628df8d2ec4bdf738651ece,,,,,,,,,,,,,,,,,,,,,,,,,,,,,,,,,,,,,,,,,,,,,,,,,,,,,,,,1,20,80,21,1,N,M,C,o1_image,stimuli/out1.png,stimuli/correct_out1.png,stimuli/out2.png,,,,,,,,,,,,,,,,,,,,,,,,,,,,,,,,,,,,,,
,,6147c5874b61952e42e9b2bd,27,male,2024-04-24_11h32.24.143,stockport_simplified,2022.2.4,Win32,142.8571429,661e456ee6de07e70aa9ef7b,6628df8d2ec4bdf738651ece,,,,,,,,,,,,,,,,,,,,,,,,,,,,,,,,,,429.2164,430.8984,"[4,5,1,7,2,6,8,3]","[[-0.3,0.2],[0.3,0.2]]","[[-0.125,-0.2],[0.125,-0.2]]",-0.077777778,-0.167361111,1,0,0,1.1816,o1_image,430.8989,1,431.3989,431.3989,433.3943,0,0,0,0,1,,,,,,,,,,,,,,,,,,,,,,,,,,,,,,,,,,,,,,,,,,,,,,,,,,
,,6147c5874b61952e42e9b2bd,27,male,2024-04-24_11h32.24.143,stockport_simplified,2022.2.4,Win32,142.8571429,661e456ee6de07e70aa9ef7b,6628df8d2ec4bdf738651ece,,,,,,,,,,,,,,,,,,,,,,,,,,,,,,,,,,,,,,,,,,,,,,,,,,,,,,,,1,21,81,50,1,N,M,C,o1_image,stimuli/out1.png,stimuli/correct_out1.png,stimuli/out2.png,,,,,,,,,,,,,,,,,,,,,,,,,,,,,,,,,,,,,,
,,6147c5874b61952e42e9b2bd,27,male,2024-04-24_11h32.24.143,stockport_simplified,2022.2.4,Win32,142.8571429,661e456ee6de07e70aa9ef7b,6628df8d2ec4bdf738651ece,,,,,,,,,,,,,,,,,,,,,,,,,,,,,,,,,,433.3947,435.535,"[4,5,1,7,2,6,8,3]","[[-0.3,0.2],[0.3,0.2]]","[[0.125,-0.2],[-0.125,-0.2]]",0.065972222,-0.141666667,1,0,0,1.6335,o1_image,435.5353,0,436.0355,436.0356,438.0305,0,0,0,0,1,,,,,,,,,,,,,,,,,,,,,,,,,,,,,,,,,,,,,,,,,,,,,,,,,,
,,6147c5874b61952e42e9b2bd,27,male,2024-04-24_11h32.24.143,stockport_simplified,2022.2.4,Win32,142.8571429,661e456ee6de07e70aa9ef7b,6628df8d2ec4bdf738651ece,,,,,,,,,,,,,,,,,,,,,,,,,,,,,,,,,,,,,,,,,,,,,,,,,,,,,,,,1,22,82,47,1,B,Y,N,o2_image,stimuli/out2.png,stimuli/out1.png,stimuli/correct_out2.png,,,,,,,,,,,,,,,,,,,,,,,,,,,,,,,,,,,,,,
,,6147c5874b61952e42e9b2bd,27,male,2024-04-24_11h32.24.143,stockport_simplified,2022.2.4,Win32,142.8571429,661e456ee6de07e70aa9ef7b,6628df8d2ec4bdf738651ece,,,,,,,,,,,,,,,,,,,,,,,,,,,,,,,,,,438.0307,440.2132,"[4,5,1,7,2,6,8,3]","[[0.3,0.2],[-0.3,0.2]]","[[-0.125,-0.2],[0.125,-0.2]]",-0.077777778,-0.209027778,1,0,0,1.6821,o1_image,440.2135,1,440.7137,440.7137,442.7086,0,0,0,0,1,,,,,,,,,,,,,,,,,,,,,,,,,,,,,,,,,,,,,,,,,,,,,,,,,,
,,6147c5874b61952e42e9b2bd,27,male,2024-04-24_11h32.24.143,stockport_simplified,2022.2.4,Win32,142.8571429,661e456ee6de07e70aa9ef7b,6628df8d2ec4bdf738651ece,,,,,,,,,,,,,,,,,,,,,,,,,,,,,,,,,,,,,,,,,,,,,,,,,,,,,,,,1,23,83,9,1,A,Y,N,o1_image,stimuli/out1.png,stimuli/correct_out1.png,stimuli/out2.png,,,,,,,,,,,,,,,,,,,,,,,,,,,,,,,,,,,,,,
,,6147c5874b61952e42e9b2bd,27,male,2024-04-24_11h32.24.143,stockport_simplified,2022.2.4,Win32,142.8571429,661e456ee6de07e70aa9ef7b,6628df8d2ec4bdf738651ece,,,,,,,,,,,,,,,,,,,,,,,,,,,,,,,,,,442.7089,445.3781,"[4,5,1,7,2,6,8,3]","[[0.3,0.2],[-0.3,0.2]]","[[-0.125,-0.2],[0.125,-0.2]]",-0.044444444,-0.170138889,1,0,0,1.6337,o1_image,445.3784,1,445.8785,445.8785,447.8735,0,0,0,0,1,,,,,,,,,,,,,,,,,,,,,,,,,,,,,,,,,,,,,,,,,,,,,,,,,,
,,6147c5874b61952e42e9b2bd,27,male,2024-04-24_11h32.24.143,stockport_simplified,2022.2.4,Win32,142.8571429,661e456ee6de07e70aa9ef7b,6628df8d2ec4bdf738651ece,,,,,,,,,,,,,,,,,,,,,,,,,,,,,,,,,,,,,,,,,,,,,,,,,,,,,,,,1,24,84,5,1,A,Y,N,o1_image,stimuli/out1.png,stimuli/correct_out1.png,stimuli/out2.png,,,,,,,,,,,,,,,,,,,,,,,,,,,,,,,,,,,,,,
,,6147c5874b61952e42e9b2bd,27,male,2024-04-24_11h32.24.143,stockport_simplified,2022.2.4,Win32,142.8571429,661e456ee6de07e70aa9ef7b,6628df8d2ec4bdf738651ece,,,,,,,,,,,,,,,,,,,,,,,,,,,,,,,,,,447.8738,450.1188,"[4,5,1,7,2,6,8,3]","[[0.3,0.2],[-0.3,0.2]]","[[0.125,-0.2],[-0.125,-0.2]]",0.086111111,-0.184027778,1,0,0,1.7448,o1_image,450.1192,1,450.6194,450.6194,452.6214,0,0,0,0,1,,,,,,,,,,,,,,,,,,,,,,,,,,,,,,,,,,,,,,,,,,,,,,,,,,
,,6147c5874b61952e42e9b2bd,27,male,2024-04-24_11h32.24.143,stockport_simplified,2022.2.4,Win32,142.8571429,661e456ee6de07e70aa9ef7b,6628df8d2ec4bdf738651ece,,,,,,,,,,,,,,,,,,,,,,,,,,,,,,,,,,,,,,,,,,,,,,,,,,,,,,,,1,25,85,39,1,A,Y,N,o1_image,stimuli/out1.png,stimuli/correct_out1.png,stimuli/out2.png,,,,,,,,,,,,,,,,,,,,,,,,,,,,,,,,,,,,,,
,,6147c5874b61952e42e9b2bd,27,male,2024-04-24_11h32.24.143,stockport_simplified,2022.2.4,Win32,142.8571429,661e456ee6de07e70aa9ef7b,6628df8d2ec4bdf738651ece,,,,,,,,,,,,,,,,,,,,,,,,,,,,,,,,,,452.6215,455.2142,"[4,5,1,7,2,6,8,3]","[[0.3,0.2],[-0.3,0.2]]","[[0.125,-0.2],[-0.125,-0.2]]",0.063888889,-0.181944444,1,0,0,2.0922,o1_image,455.2193,1,455.7147,455.7148,457.7097,0,0,0,0,1,,,,,,,,,,,,,,,,,,,,,,,,,,,,,,,,,,,,,,,,,,,,,,,,,,
,,6147c5874b61952e42e9b2bd,27,male,2024-04-24_11h32.24.143,stockport_simplified,2022.2.4,Win32,142.8571429,661e456ee6de07e70aa9ef7b,6628df8d2ec4bdf738651ece,,,,,,,,,,,,,,,,,,,,,,,,,,,,,,,,,,,,,,,,,,,,,,,,,,,,,,,,1,26,86,1,1,A,X,N,o1_image,stimuli/out1.png,stimuli/correct_out1.png,stimuli/out2.png,,,,,,,,,,,,,,,,,,,,,,,,,,,,,,,,,,,,,,
,,6147c5874b61952e42e9b2bd,27,male,2024-04-24_11h32.24.143,stockport_simplified,2022.2.4,Win32,142.8571429,661e456ee6de07e70aa9ef7b,6628df8d2ec4bdf738651ece,,,,,,,,,,,,,,,,,,,,,,,,,,,,,,,,,,457.7098,459.7188,"[4,5,1,7,2,6,8,3]","[[0.3,0.2],[-0.3,0.2]]","[[-0.125,-0.2],[0.125,-0.2]]",-0.070138889,-0.193055556,1,0,0,1.5085,o1_image,459.719,0,460.2192,460.2192,462.2142,0,0,0,0,1,,,,,,,,,,,,,,,,,,,,,,,,,,,,,,,,,,,,,,,,,,,,,,,,,,
,,6147c5874b61952e42e9b2bd,27,male,2024-04-24_11h32.24.143,stockport_simplified,2022.2.4,Win32,142.8571429,661e456ee6de07e70aa9ef7b,6628df8d2ec4bdf738651ece,,,,,,,,,,,,,,,,,,,,,,,,,,,,,,,,,,,,,,,,,,,,,,,,,,,,,,,,1,27,87,13,1,B,X,N,o2_image,stimuli/out2.png,stimuli/out1.png,stimuli/correct_out2.png,,,,,,,,,,,,,,,,,,,,,,,,,,,,,,,,,,,,,,
,,6147c5874b61952e42e9b2bd,27,male,2024-04-24_11h32.24.143,stockport_simplified,2022.2.4,Win32,142.8571429,661e456ee6de07e70aa9ef7b,6628df8d2ec4bdf738651ece,,,,,,,,,,,,,,,,,,,,,,,,,,,,,,,,,,462.2143,464.2509,"[4,5,1,7,2,6,8,3]","[[0.3,0.2],[-0.3,0.2]]","[[-0.125,-0.2],[0.125,-0.2]]",-0.076388889,-0.18125,1,0,0,1.5362,o1_image,464.2512,1,464.7515,464.7515,466.7465,0,0,0,0,1,,,,,,,,,,,,,,,,,,,,,,,,,,,,,,,,,,,,,,,,,,,,,,,,,,
,,6147c5874b61952e42e9b2bd,27,male,2024-04-24_11h32.24.143,stockport_simplified,2022.2.4,Win32,142.8571429,661e456ee6de07e70aa9ef7b,6628df8d2ec4bdf738651ece,,,,,,,,,,,,,,,,,,,,,,,,,,,,,,,,,,,,,,,,,,,,,,,,,,,,,,,,1,28,88,2,1,A,X,N,o1_image,stimuli/out1.png,stimuli/correct_out1.png,stimuli/out2.png,,,,,,,,,,,,,,,,,,,,,,,,,,,,,,,,,,,,,,
,,6147c5874b61952e42e9b2bd,27,male,2024-04-24_11h32.24.143,stockport_simplified,2022.2.4,Win32,142.8571429,661e456ee6de07e70aa9ef7b,6628df8d2ec4bdf738651ece,,,,,,,,,,,,,,,,,,,,,,,,,,,,,,,,,,466.7467,468.2063,"[4,5,1,7,2,6,8,3]","[[-0.3,0.2],[0.3,0.2]]","[[0.125,-0.2],[-0.125,-0.2]]",-0.097916667,-0.14375,1,0,0,0.9592,o2_image,468.2066,1,468.7066,468.7067,470.7017,0,0,0,0,1,,,,,,,,,,,,,,,,,,,,,,,,,,,,,,,,,,,,,,,,,,,,,,,,,,
,,6147c5874b61952e42e9b2bd,27,male,2024-04-24_11h32.24.143,stockport_simplified,2022.2.4,Win32,142.8571429,661e456ee6de07e70aa9ef7b,6628df8d2ec4bdf738651ece,,,,,,,,,,,,,,,,,,,,,,,,,,,,,,,,,,,,,,,,,,,,,,,,,,,,,,,,1,29,89,58,1,N,M,D,o2_image,stimuli/out2.png,stimuli/out1.png,stimuli/correct_out2.png,,,,,,,,,,,,,,,,,,,,,,,,,,,,,,,,,,,,,,
,,6147c5874b61952e42e9b2bd,27,male,2024-04-24_11h32.24.143,stockport_simplified,2022.2.4,Win32,142.8571429,661e456ee6de07e70aa9ef7b,6628df8d2ec4bdf738651ece,,,,,,,,,,,,,,,,,,,,,,,,,,,,,,,,,,470.7019,473.2321,"[4,5,1,7,2,6,8,3]","[[-0.3,0.2],[0.3,0.2]]","[[0.125,-0.2],[-0.125,-0.2]]",0.131944444,-0.167361111,1,0,0,2.0297,o1_image,473.2324,1,473.7325,473.7325,475.7275,0,0,0,0,1,,,,,,,,,,,,,,,,,,,,,,,,,,,,,,,,,,,,,,,,,,,,,,,,,,
,,6147c5874b61952e42e9b2bd,27,male,2024-04-24_11h32.24.143,stockport_simplified,2022.2.4,Win32,142.8571429,661e456ee6de07e70aa9ef7b,6628df8d2ec4bdf738651ece,,,,,,,,,,,,,,,,,,,,,,,,,,,,,,,,,,,,,,,,,,,,,,,,,,,,,,,,1,30,90,8,1,A,Y,N,o1_image,stimuli/out1.png,stimuli/correct_out1.png,stimuli/out2.png,,,,,,,,,,,,,,,,,,,,,,,,,,,,,,,,,,,,,,
,,6147c5874b61952e42e9b2bd,27,male,2024-04-24_11h32.24.143,stockport_simplified,2022.2.4,Win32,142.8571429,661e456ee6de07e70aa9ef7b,6628df8d2ec4bdf738651ece,,,,,,,,,,,,,,,,,,,,,,,,,,,,,,,,,,475.7277,478.23,"[4,5,1,7,2,6,8,3]","[[-0.3,0.2],[0.3,0.2]]","[[0.125,-0.2],[-0.125,-0.2]]",0.067361111,-0.175694444,1,0,0,2.0019,o1_image,478.2303,1,478.7305,478.7305,480.7256,0,0,0,0,1,,,,,,,,,,,,,,,,,,,,,,,,,,,,,,,,,,,,,,,,,,,,,,,,,,
,,6147c5874b61952e42e9b2bd,27,male,2024-04-24_11h32.24.143,stockport_simplified,2022.2.4,Win32,142.8571429,661e456ee6de07e70aa9ef7b,6628df8d2ec4bdf738651ece,,,,,,,,,,,,,,,,,,,,,,,,,,,,,,,,,,,,,,,,,,,,,,,,,,,,,,,,1,31,91,7,1,A,Y,N,o1_image,stimuli/out1.png,stimuli/correct_out1.png,stimuli/out2.png,,,,,,,,,,,,,,,,,,,,,,,,,,,,,,,,,,,,,,
,,6147c5874b61952e42e9b2bd,27,male,2024-04-24_11h32.24.143,stockport_simplified,2022.2.4,Win32,142.8571429,661e456ee6de07e70aa9ef7b,6628df8d2ec4bdf738651ece,,,,,,,,,,,,,,,,,,,,,,,,,,,,,,,,,,480.7257,482.6442,"[4,5,1,7,2,6,8,3]","[[0.3,0.2],[-0.3,0.2]]","[[-0.125,-0.2],[0.125,-0.2]]",-0.066666667,-0.1875,1,0,0,1.4179,o1_image,482.6444,1,483.1446,483.1446,485.1397,0,0,0,0,1,,,,,,,,,,,,,,,,,,,,,,,,,,,,,,,,,,,,,,,,,,,,,,,,,,
,,6147c5874b61952e42e9b2bd,27,male,2024-04-24_11h32.24.143,stockport_simplified,2022.2.4,Win32,142.8571429,661e456ee6de07e70aa9ef7b,6628df8d2ec4bdf738651ece,,,,,,,,,,,,,,,,,,,,,,,,,,,,,,,,,,,,,,,,,,,,,,,,,,,,,,,,1,32,92,34,1,A,X,N,o1_image,stimuli/out1.png,stimuli/correct_out1.png,stimuli/out2.png,,,,,,,,,,,,,,,,,,,,,,,,,,,,,,,,,,,,,,
,,6147c5874b61952e42e9b2bd,27,male,2024-04-24_11h32.24.143,stockport_simplified,2022.2.4,Win32,142.8571429,661e456ee6de07e70aa9ef7b,6628df8d2ec4bdf738651ece,,,,,,,,,,,,,,,,,,,,,,,,,,,,,,,,,,485.1399,486.4884,"[4,5,1,7,2,6,8,3]","[[0.3,0.2],[-0.3,0.2]]","[[0.125,-0.2],[-0.125,-0.2]]",-0.16875,-0.164583333,1,0,0,0.848,o2_image,486.4886,1,486.9888,486.9888,488.9838,0,0,0,0,1,,,,,,,,,,,,,,,,,,,,,,,,,,,,,,,,,,,,,,,,,,,,,,,,,,
,,6147c5874b61952e42e9b2bd,27,male,2024-04-24_11h32.24.143,stockport_simplified,2022.2.4,Win32,142.8571429,661e456ee6de07e70aa9ef7b,6628df8d2ec4bdf738651ece,,,,,,,,,,,,,,,,,,,,,,,,,,,,,,,,,,,,,,,,,,,,,,,,,,,,,,,,1,33,93,27,1,N,M,D,o2_image,stimuli/out2.png,stimuli/out1.png,stimuli/correct_out2.png,,,,,,,,,,,,,,,,,,,,,,,,,,,,,,,,,,,,,,
,,6147c5874b61952e42e9b2bd,27,male,2024-04-24_11h32.24.143,stockport_simplified,2022.2.4,Win32,142.8571429,661e456ee6de07e70aa9ef7b,6628df8d2ec4bdf738651ece,,,,,,,,,,,,,,,,,,,,,,,,,,,,,,,,,,488.9839,491.4723,"[4,5,1,7,2,6,8,3]","[[0.3,0.2],[-0.3,0.2]]","[[0.125,-0.2],[-0.125,-0.2]]",-0.088194444,-0.184722222,1,0,0,1.9879,o2_image,491.4726,1,491.9728,491.9728,493.9679,0,0,0,0,1,,,,,,,,,,,,,,,,,,,,,,,,,,,,,,,,,,,,,,,,,,,,,,,,,,
,,6147c5874b61952e42e9b2bd,27,male,2024-04-24_11h32.24.143,stockport_simplified,2022.2.4,Win32,142.8571429,661e456ee6de07e70aa9ef7b,6628df8d2ec4bdf738651ece,,,,,,,,,,,,,,,,,,,,,,,,,,,,,,,,,,,,,,,,,,,,,,,,,,,,,,,,1,34,94,41,1,B,X,N,o2_image,stimuli/out2.png,stimuli/out1.png,stimuli/correct_out2.png,,,,,,,,,,,,,,,,,,,,,,,,,,,,,,,,,,,,,,
,,6147c5874b61952e42e9b2bd,27,male,2024-04-24_11h32.24.143,stockport_simplified,2022.2.4,Win32,142.8571429,661e456ee6de07e70aa9ef7b,6628df8d2ec4bdf738651ece,,,,,,,,,,,,,,,,,,,,,,,,,,,,,,,,,,493.968,496.4773,"[4,5,1,7,2,6,8,3]","[[0.3,0.2],[-0.3,0.2]]","[[-0.125,-0.2],[0.125,-0.2]]",0.063194444,-0.184722222,1,0,0,2.0088,o2_image,496.4776,1,496.9777,496.9777,498.9728,0,0,0,0,1,,,,,,,,,,,,,,,,,,,,,,,,,,,,,,,,,,,,,,,,,,,,,,,,,,
,,6147c5874b61952e42e9b2bd,27,male,2024-04-24_11h32.24.143,stockport_simplified,2022.2.4,Win32,142.8571429,661e456ee6de07e70aa9ef7b,6628df8d2ec4bdf738651ece,,,,,,,,,,,,,,,,,,,,,,,,,,,,,,,,,,,,,,,,,,,,,,,,,,,,,,,,1,35,95,18,1,B,Y,N,o2_image,stimuli/out2.png,stimuli/out1.png,stimuli/correct_out2.png,,,,,,,,,,,,,,,,,,,,,,,,,,,,,,,,,,,,,,
,,6147c5874b61952e42e9b2bd,27,male,2024-04-24_11h32.24.143,stockport_simplified,2022.2.4,Win32,142.8571429,661e456ee6de07e70aa9ef7b,6628df8d2ec4bdf738651ece,,,,,,,,,,,,,,,,,,,,,,,,,,,,,,,,,,498.973,500.7593,"[4,5,1,7,2,6,8,3]","[[-0.3,0.2],[0.3,0.2]]","[[-0.125,-0.2],[0.125,-0.2]]",0.088194444,-0.175694444,1,0,0,1.2859,o2_image,500.7596,1,501.2598,501.2598,503.2548,0,0,0,0,1,,,,,,,,,,,,,,,,,,,,,,,,,,,,,,,,,,,,,,,,,,,,,,,,,,
,,6147c5874b61952e42e9b2bd,27,male,2024-04-24_11h32.24.143,stockport_simplified,2022.2.4,Win32,142.8571429,661e456ee6de07e70aa9ef7b,6628df8d2ec4bdf738651ece,,,,,,,,,,,,,,,,,,,,,,,,,,,,,,,,,,,,,,,,,,,,,,,,,,,,,,,,1,36,96,45,1,B,Y,N,o2_image,stimuli/out2.png,stimuli/out1.png,stimuli/correct_out2.png,,,,,,,,,,,,,,,,,,,,,,,,,,,,,,,,,,,,,,
,,6147c5874b61952e42e9b2bd,27,male,2024-04-24_11h32.24.143,stockport_simplified,2022.2.4,Win32,142.8571429,661e456ee6de07e70aa9ef7b,6628df8d2ec4bdf738651ece,,,,,,,,,,,,,,,,,,,,,,,,,,,,,,,,,,503.2551,504.9927,"[4,5,1,7,2,6,8,3]","[[0.3,0.2],[-0.3,0.2]]","[[0.125,-0.2],[-0.125,-0.2]]",-0.075,-0.168055556,1,0,0,1.2371,o2_image,504.993,1,505.4931,505.4931,507.4882,0,0,0,0,1,,,,,,,,,,,,,,,,,,,,,,,,,,,,,,,,,,,,,,,,,,,,,,,,,,
,,6147c5874b61952e42e9b2bd,27,male,2024-04-24_11h32.24.143,stockport_simplified,2022.2.4,Win32,142.8571429,661e456ee6de07e70aa9ef7b,6628df8d2ec4bdf738651ece,,,,,,,,,,,,,,,,,,,,,,,,,,,,,,,,,,,,,,,,,,,,,,,,,,,,,,,,1,37,97,26,1,N,M,D,o2_image,stimuli/out2.png,stimuli/out1.png,stimuli/correct_out2.png,,,,,,,,,,,,,,,,,,,,,,,,,,,,,,,,,,,,,,
,,6147c5874b61952e42e9b2bd,27,male,2024-04-24_11h32.24.143,stockport_simplified,2022.2.4,Win32,142.8571429,661e456ee6de07e70aa9ef7b,6628df8d2ec4bdf738651ece,,,,,,,,,,,,,,,,,,,,,,,,,,,,,,,,,,507.4883,510.1923,"[4,5,1,7,2,6,8,3]","[[-0.3,0.2],[0.3,0.2]]","[[0.125,-0.2],[-0.125,-0.2]]",0.090972222,-0.190277778,1,0,0,2.2036,o1_image,510.1926,1,510.6928,510.6928,512.6884,0,0,0,0,1,,,,,,,,,,,,,,,,,,,,,,,,,,,,,,,,,,,,,,,,,,,,,,,,,,
,,6147c5874b61952e42e9b2bd,27,male,2024-04-24_11h32.24.143,stockport_simplified,2022.2.4,Win32,142.8571429,661e456ee6de07e70aa9ef7b,6628df8d2ec4bdf738651ece,,,,,,,,,,,,,,,,,,,,,,,,,,,,,,,,,,,,,,,,,,,,,,,,,,,,,,,,1,38,98,32,1,A,X,N,o1_image,stimuli/out1.png,stimuli/correct_out1.png,stimuli/out2.png,,,,,,,,,,,,,,,,,,,,,,,,,,,,,,,,,,,,,,
,,6147c5874b61952e42e9b2bd,27,male,2024-04-24_11h32.24.143,stockport_simplified,2022.2.4,Win32,142.8571429,661e456ee6de07e70aa9ef7b,6628df8d2ec4bdf738651ece,,,,,,,,,,,,,,,,,,,,,,,,,,,,,,,,,,512.6886,514.3362,"[4,5,1,7,2,6,8,3]","[[-0.3,0.2],[0.3,0.2]]","[[0.125,-0.2],[-0.125,-0.2]]",-0.091666667,-0.184722222,1,0,0,1.1471,o2_image,514.3365,1,514.8364,514.8364,516.8377,0,0,0,0,1,,,,,,,,,,,,,,,,,,,,,,,,,,,,,,,,,,,,,,,,,,,,,,,,,,
,,6147c5874b61952e42e9b2bd,27,male,2024-04-24_11h32.24.143,stockport_simplified,2022.2.4,Win32,142.8571429,661e456ee6de07e70aa9ef7b,6628df8d2ec4bdf738651ece,,,,,,,,,,,,,,,,,,,,,,,,,,,,,,,,,,,,,,,,,,,,,,,,,,,,,,,,1,39,99,14,1,B,X,N,o2_image,stimuli/out2.png,stimuli/out1.png,stimuli/correct_out2.png,,,,,,,,,,,,,,,,,,,,,,,,,,,,,,,,,,,,,,
,,6147c5874b61952e42e9b2bd,27,male,2024-04-24_11h32.24.143,stockport_simplified,2022.2.4,Win32,142.8571429,661e456ee6de07e70aa9ef7b,6628df8d2ec4bdf738651ece,,,,,,,,,,,,,,,,,,,,,,,,,,,,,,,,,,516.838,518.5973,"[4,5,1,7,2,6,8,3]","[[0.3,0.2],[-0.3,0.2]]","[[0.125,-0.2],[-0.125,-0.2]]",-0.099305556,-0.138194444,1,0,0,1.2589,o2_image,518.5976,1,519.0977,519.0977,521.0927,0,0,0,0,1,,,,,,,,,,,,,,,,,,,,,,,,,,,,,,,,,,,,,,,,,,,,,,,,,,
,,6147c5874b61952e42e9b2bd,27,male,2024-04-24_11h32.24.143,stockport_simplified,2022.2.4,Win32,142.8571429,661e456ee6de07e70aa9ef7b,6628df8d2ec4bdf738651ece,,,,,,,,,,,,,,,,,,,,,,,,,,,,,,,,,,,,,,,,,,,,,,,,,,,,,,,,1,40,100,49,1,B,Y,N,o2_image,stimuli/out2.png,stimuli/out1.png,stimuli/correct_out2.png,,,,,,,,,,,,,,,,,,,,,,,,,,,,,,,,,,,,,,
,,6147c5874b61952e42e9b2bd,27,male,2024-04-24_11h32.24.143,stockport_simplified,2022.2.4,Win32,142.8571429,661e456ee6de07e70aa9ef7b,6628df8d2ec4bdf738651ece,,,,,,,,,,,,,,,,,,,,,,,,,,,,,,,,,,521.0928,524.2279,"[4,5,1,7,2,6,8,3]","[[0.3,0.2],[-0.3,0.2]]","[[0.125,-0.2],[-0.125,-0.2]]",0.134027778,-0.170833333,1,0,0,2.6284,o1_image,524.2282,1,524.7277,524.7277,526.7295,0,0,0,0,1,,,,,,,,,,,,,,,,,,,,,,,,,,,,,,,,,,,,,,,,,,,,,,,,,,
,,6147c5874b61952e42e9b2bd,27,male,2024-04-24_11h32.24.143,stockport_simplified,2022.2.4,Win32,142.8571429,661e456ee6de07e70aa9ef7b,6628df8d2ec4bdf738651ece,,,,,,,,,,,,,,,,,,,,,,,,,,,,,,,,,,,,,,,,,,,,,,,,,,,,,,,,1,41,101,3,1,A,X,N,o1_image,stimuli/out1.png,stimuli/correct_out1.png,stimuli/out2.png,,,,,,,,,,,,,,,,,,,,,,,,,,,,,,,,,,,,,,
,,6147c5874b61952e42e9b2bd,27,male,2024-04-24_11h32.24.143,stockport_simplified,2022.2.4,Win32,142.8571429,661e456ee6de07e70aa9ef7b,6628df8d2ec4bdf738651ece,,,,,,,,,,,,,,,,,,,,,,,,,,,,,,,,,,526.7298,528.4196,"[4,5,1,7,2,6,8,3]","[[0.3,0.2],[-0.3,0.2]]","[[-0.125,-0.2],[0.125,-0.2]]",-0.078472222,-0.188194444,1,0,0,1.1886,o1_image,528.4198,1,528.9198,528.9198,530.9212,0,0,0,0,1,,,,,,,,,,,,,,,,,,,,,,,,,,,,,,,,,,,,,,,,,,,,,,,,,,
,,6147c5874b61952e42e9b2bd,27,male,2024-04-24_11h32.24.143,stockport_simplified,2022.2.4,Win32,142.8571429,661e456ee6de07e70aa9ef7b,6628df8d2ec4bdf738651ece,,,,,,,,,,,,,,,,,,,,,,,,,,,,,,,,,,,,,,,,,,,,,,,,,,,,,,,,1,42,102,20,1,N,M,C,o1_image,stimuli/out1.png,stimuli/correct_out1.png,stimuli/out2.png,,,,,,,,,,,,,,,,,,,,,,,,,,,,,,,,,,,,,,
,,6147c5874b61952e42e9b2bd,27,male,2024-04-24_11h32.24.143,stockport_simplified,2022.2.4,Win32,142.8571429,661e456ee6de07e70aa9ef7b,6628df8d2ec4bdf738651ece,,,,,,,,,,,,,,,,,,,,,,,,,,,,,,,,,,530.9214,533.2785,"[4,5,1,7,2,6,8,3]","[[-0.3,0.2],[0.3,0.2]]","[[-0.125,-0.2],[0.125,-0.2]]",0.111805556,-0.184722222,1,0,0,1.8565,o2_image,533.2787,0,533.7788,533.7788,535.7738,0,0,0,0,1,,,,,,,,,,,,,,,,,,,,,,,,,,,,,,,,,,,,,,,,,,,,,,,,,,
,,6147c5874b61952e42e9b2bd,27,male,2024-04-24_11h32.24.143,stockport_simplified,2022.2.4,Win32,142.8571429,661e456ee6de07e70aa9ef7b,6628df8d2ec4bdf738651ece,,,,,,,,,,,,,,,,,,,,,,,,,,,,,,,,,,,,,,,,,,,,,,,,,,,,,,,,1,43,103,6,1,A,Y,N,o1_image,stimuli/out1.png,stimuli/correct_out1.png,stimuli/out2.png,,,,,,,,,,,,,,,,,,,,,,,,,,,,,,,,,,,,,,
,,6147c5874b61952e42e9b2bd,27,male,2024-04-24_11h32.24.143,stockport_simplified,2022.2.4,Win32,142.8571429,661e456ee6de07e70aa9ef7b,6628df8d2ec4bdf738651ece,,,,,,,,,,,,,,,,,,,,,,,,,,,,,,,,,,535.774,537.4146,"[4,5,1,7,2,6,8,3]","[[-0.3,0.2],[0.3,0.2]]","[[-0.125,-0.2],[0.125,-0.2]]",-0.106944444,-0.195138889,1,0,0,1.1339,o1_image,537.4149,1,537.9142,537.9143,539.9098,0,0,0,0,1,,,,,,,,,,,,,,,,,,,,,,,,,,,,,,,,,,,,,,,,,,,,,,,,,,
,,6147c5874b61952e42e9b2bd,27,male,2024-04-24_11h32.24.143,stockport_simplified,2022.2.4,Win32,142.8571429,661e456ee6de07e70aa9ef7b,6628df8d2ec4bdf738651ece,,,,,,,,,,,,,,,,,,,,,,,,,,,,,,,,,,,,,,,,,,,,,,,,,,,,,,,,1,44,104,54,1,N,M,C,o1_image,stimuli/out1.png,stimuli/correct_out1.png,stimuli/out2.png,,,,,,,,,,,,,,,,,,,,,,,,,,,,,,,,,,,,,,
,,6147c5874b61952e42e9b2bd,27,male,2024-04-24_11h32.24.143,stockport_simplified,2022.2.4,Win32,142.8571429,661e456ee6de07e70aa9ef7b,6628df8d2ec4bdf738651ece,,,,,,,,,,,,,,,,,,,,,,,,,,,,,,,,,,539.9099,542.7315,"[4,5,1,7,2,6,8,3]","[[-0.3,0.2],[0.3,0.2]]","[[-0.125,-0.2],[0.125,-0.2]]",0.090277778,-0.195138889,1,0,0,2.3209,o2_image,542.7365,0,543.2321,543.2321,545.234,0,0,0,0,1,,,,,,,,,,,,,,,,,,,,,,,,,,,,,,,,,,,,,,,,,,,,,,,,,,
,,6147c5874b61952e42e9b2bd,27,male,2024-04-24_11h32.24.143,stockport_simplified,2022.2.4,Win32,142.8571429,661e456ee6de07e70aa9ef7b,6628df8d2ec4bdf738651ece,,,,,,,,,,,,,,,,,,,,,,,,,,,,,,,,,,,,,,,,,,,,,,,,,,,,,,,,1,45,105,30,1,A,X,N,o1_image,stimuli/out1.png,stimuli/correct_out1.png,stimuli/out2.png,,,,,,,,,,,,,,,,,,,,,,,,,,,,,,,,,,,,,,
,,6147c5874b61952e42e9b2bd,27,male,2024-04-24_11h32.24.143,stockport_simplified,2022.2.4,Win32,142.8571429,661e456ee6de07e70aa9ef7b,6628df8d2ec4bdf738651ece,,,,,,,,,,,,,,,,,,,,,,,,,,,,,,,,,,545.2342,548.376,"[4,5,1,7,2,6,8,3]","[[0.3,0.2],[-0.3,0.2]]","[[0.125,-0.2],[-0.125,-0.2]]",0.122222222,-0.184027778,1,0,0,2.6416,o1_image,548.3763,1,548.8765,548.8765,550.8715,0,0,0,0,1,,,,,,,,,,,,,,,,,,,,,,,,,,,,,,,,,,,,,,,,,,,,,,,,,,
,,6147c5874b61952e42e9b2bd,27,male,2024-04-24_11h32.24.143,stockport_simplified,2022.2.4,Win32,142.8571429,661e456ee6de07e70aa9ef7b,6628df8d2ec4bdf738651ece,,,,,,,,,,,,,,,,,,,,,,,,,,,,,,,,,,,,,,,,,,,,,,,,,,,,,,,,1,46,106,0,1,A,X,N,o1_image,stimuli/out1.png,stimuli/correct_out1.png,stimuli/out2.png,,,,,,,,,,,,,,,,,,,,,,,,,,,,,,,,,,,,,,
,,6147c5874b61952e42e9b2bd,27,male,2024-04-24_11h32.24.143,stockport_simplified,2022.2.4,Win32,142.8571429,661e456ee6de07e70aa9ef7b,6628df8d2ec4bdf738651ece,,,,,,,,,,,,,,,,,,,,,,,,,,,,,,,,,,550.8716,552.8109,"[4,5,1,7,2,6,8,3]","[[-0.3,0.2],[0.3,0.2]]","[[-0.125,-0.2],[0.125,-0.2]]",0.106944444,-0.1625,1,0,0,1.4387,o2_image,552.8112,1,553.3115,553.3115,555.3065,0,0,0,0,1,,,,,,,,,,,,,,,,,,,,,,,,,,,,,,,,,,,,,,,,,,,,,,,,,,
,,6147c5874b61952e42e9b2bd,27,male,2024-04-24_11h32.24.143,stockport_simplified,2022.2.4,Win32,142.8571429,661e456ee6de07e70aa9ef7b,6628df8d2ec4bdf738651ece,,,,,,,,,,,,,,,,,,,,,,,,,,,,,,,,,,,,,,,,,,,,,,,,,,,,,,,,1,47,107,42,1,B,X,N,o2_image,stimuli/out2.png,stimuli/out1.png,stimuli/correct_out2.png,,,,,,,,,,,,,,,,,,,,,,,,,,,,,,,,,,,,,,
,,6147c5874b61952e42e9b2bd,27,male,2024-04-24_11h32.24.143,stockport_simplified,2022.2.4,Win32,142.8571429,661e456ee6de07e70aa9ef7b,6628df8d2ec4bdf738651ece,,,,,,,,,,,,,,,,,,,,,,,,,,,,,,,,,,555.3067,556.9541,"[4,5,1,7,2,6,8,3]","[[-0.3,0.2],[0.3,0.2]]","[[-0.125,-0.2],[0.125,-0.2]]",-0.097222222,-0.171527778,1,0,0,1.1469,o1_image,556.9543,1,557.4546,557.4546,559.4495,0,0,0,0,1,,,,,,,,,,,,,,,,,,,,,,,,,,,,,,,,,,,,,,,,,,,,,,,,,,
,,6147c5874b61952e42e9b2bd,27,male,2024-04-24_11h32.24.143,stockport_simplified,2022.2.4,Win32,142.8571429,661e456ee6de07e70aa9ef7b,6628df8d2ec4bdf738651ece,,,,,,,,,,,,,,,,,,,,,,,,,,,,,,,,,,,,,,,,,,,,,,,,,,,,,,,,1,48,108,53,1,N,M,C,o1_image,stimuli/out1.png,stimuli/correct_out1.png,stimuli/out2.png,,,,,,,,,,,,,,,,,,,,,,,,,,,,,,,,,,,,,,
,,6147c5874b61952e42e9b2bd,27,male,2024-04-24_11h32.24.143,stockport_simplified,2022.2.4,Win32,142.8571429,661e456ee6de07e70aa9ef7b,6628df8d2ec4bdf738651ece,,,,,,,,,,,,,,,,,,,,,,,,,,,,,,,,,,559.4497,561.4029,"[4,5,1,7,2,6,8,3]","[[-0.3,0.2],[0.3,0.2]]","[[-0.125,-0.2],[0.125,-0.2]]",0.111111111,-0.15625,1,0,0,1.4529,o2_image,561.4032,0,561.9033,561.9033,563.8982,0,0,0,0,1,,,,,,,,,,,,,,,,,,,,,,,,,,,,,,,,,,,,,,,,,,,,,,,,,,
,,6147c5874b61952e42e9b2bd,27,male,2024-04-24_11h32.24.143,stockport_simplified,2022.2.4,Win32,142.8571429,661e456ee6de07e70aa9ef7b,6628df8d2ec4bdf738651ece,,,,,,,,,,,,,,,,,,,,,,,,,,,,,,,,,,,,,,,,,,,,,,,,,,,,,,,,1,49,109,37,1,A,Y,N,o1_image,stimuli/out1.png,stimuli/correct_out1.png,stimuli/out2.png,,,,,,,,,,,,,,,,,,,,,,,,,,,,,,,,,,,,,,
,,6147c5874b61952e42e9b2bd,27,male,2024-04-24_11h32.24.143,stockport_simplified,2022.2.4,Win32,142.8571429,661e456ee6de07e70aa9ef7b,6628df8d2ec4bdf738651ece,,,,,,,,,,,,,,,,,,,,,,,,,,,,,,,,,,563.8984,566.2201,"[4,5,1,7,2,6,8,3]","[[-0.3,0.2],[0.3,0.2]]","[[-0.125,-0.2],[0.125,-0.2]]",-0.088888889,-0.190972222,1,0,0,1.8213,o1_image,566.2203,1,566.7205,566.7205,568.7155,0,0,0,0,1,,,,,,,,,,,,,,,,,,,,,,,,,,,,,,,,,,,,,,,,,,,,,,,,,,
,,6147c5874b61952e42e9b2bd,27,male,2024-04-24_11h32.24.143,stockport_simplified,2022.2.4,Win32,142.8571429,661e456ee6de07e70aa9ef7b,6628df8d2ec4bdf738651ece,,,,,,,,,,,,,,,,,,,,,,,,,,,,,,,,,,,,,,,,,,,,,,,,,,,,,,,,1,50,110,36,1,A,Y,N,o1_image,stimuli/out1.png,stimuli/correct_out1.png,stimuli/out2.png,,,,,,,,,,,,,,,,,,,,,,,,,,,,,,,,,,,,,,
,,6147c5874b61952e42e9b2bd,27,male,2024-04-24_11h32.24.143,stockport_simplified,2022.2.4,Win32,142.8571429,661e456ee6de07e70aa9ef7b,6628df8d2ec4bdf738651ece,,,,,,,,,,,,,,,,,,,,,,,,,,,,,,,,,,568.7157,570.3978,"[4,5,1,7,2,6,8,3]","[[-0.3,0.2],[0.3,0.2]]","[[-0.125,-0.2],[0.125,-0.2]]",-0.100694444,-0.154861111,1,0,0,1.1816,o1_image,570.3981,1,570.8983,570.8984,572.9003,0,0,0,0,1,,,,,,,,,,,,,,,,,,,,,,,,,,,,,,,,,,,,,,,,,,,,,,,,,,
,,6147c5874b61952e42e9b2bd,27,male,2024-04-24_11h32.24.143,stockport_simplified,2022.2.4,Win32,142.8571429,661e456ee6de07e70aa9ef7b,6628df8d2ec4bdf738651ece,,,,,,,,,,,,,,,,,,,,,,,,,,,,,,,,,,,,,,,,,,,,,,,,,,,,,,,,1,51,111,51,1,N,M,C,o1_image,stimuli/out1.png,stimuli/correct_out1.png,stimuli/out2.png,,,,,,,,,,,,,,,,,,,,,,,,,,,,,,,,,,,,,,
,,6147c5874b61952e42e9b2bd,27,male,2024-04-24_11h32.24.143,stockport_simplified,2022.2.4,Win32,142.8571429,661e456ee6de07e70aa9ef7b,6628df8d2ec4bdf738651ece,,,,,,,,,,,,,,,,,,,,,,,,,,,,,,,,,,572.9005,575.6948,"[4,5,1,7,2,6,8,3]","[[0.3,0.2],[-0.3,0.2]]","[[-0.125,-0.2],[0.125,-0.2]]",0.127083333,-0.140277778,1,0,0,2.2938,o2_image,575.6951,1,576.1952,576.1952,578.1902,0,0,0,0,1,,,,,,,,,,,,,,,,,,,,,,,,,,,,,,,,,,,,,,,,,,,,,,,,,,
,,6147c5874b61952e42e9b2bd,27,male,2024-04-24_11h32.24.143,stockport_simplified,2022.2.4,Win32,142.8571429,661e456ee6de07e70aa9ef7b,6628df8d2ec4bdf738651ece,,,,,,,,,,,,,,,,,,,,,,,,,,,,,,,,,,,,,,,,,,,,,,,,,,,,,,,,1,52,112,12,1,B,X,N,o2_image,stimuli/out2.png,stimuli/out1.png,stimuli/correct_out2.png,,,,,,,,,,,,,,,,,,,,,,,,,,,,,,,,,,,,,,
,,6147c5874b61952e42e9b2bd,27,male,2024-04-24_11h32.24.143,stockport_simplified,2022.2.4,Win32,142.8571429,661e456ee6de07e70aa9ef7b,6628df8d2ec4bdf738651ece,,,,,,,,,,,,,,,,,,,,,,,,,,,,,,,,,,578.1904,580.2339,"[4,5,1,7,2,6,8,3]","[[-0.3,0.2],[0.3,0.2]]","[[0.125,-0.2],[-0.125,-0.2]]",-0.116666667,-0.175694444,1,0,0,1.5431,o2_image,580.2342,0,580.7344,580.7345,582.7295,0,0,0,0,1,,,,,,,,,,,,,,,,,,,,,,,,,,,,,,,,,,,,,,,,,,,,,,,,,,
,,6147c5874b61952e42e9b2bd,27,male,2024-04-24_11h32.24.143,stockport_simplified,2022.2.4,Win32,142.8571429,661e456ee6de07e70aa9ef7b,6628df8d2ec4bdf738651ece,,,,,,,,,,,,,,,,,,,,,,,,,,,,,,,,,,,,,,,,,,,,,,,,,,,,,,,,1,53,113,22,1,N,M,C,o1_image,stimuli/out1.png,stimuli/correct_out1.png,stimuli/out2.png,,,,,,,,,,,,,,,,,,,,,,,,,,,,,,,,,,,,,,
,,6147c5874b61952e42e9b2bd,27,male,2024-04-24_11h32.24.143,stockport_simplified,2022.2.4,Win32,142.8571429,661e456ee6de07e70aa9ef7b,6628df8d2ec4bdf738651ece,,,,,,,,,,,,,,,,,,,,,,,,,,,,,,,,,,582.7296,584.6203,"[4,5,1,7,2,6,8,3]","[[-0.3,0.2],[0.3,0.2]]","[[-0.125,-0.2],[0.125,-0.2]]",0.088888889,-0.197222222,1,0,0,1.3902,o2_image,584.6205,0,585.1207,585.1207,587.1157,0,0,0,0,1,,,,,,,,,,,,,,,,,,,,,,,,,,,,,,,,,,,,,,,,,,,,,,,,,,
,,6147c5874b61952e42e9b2bd,27,male,2024-04-24_11h32.24.143,stockport_simplified,2022.2.4,Win32,142.8571429,661e456ee6de07e70aa9ef7b,6628df8d2ec4bdf738651ece,,,,,,,,,,,,,,,,,,,,,,,,,,,,,,,,,,,,,,,,,,,,,,,,,,,,,,,,1,54,114,52,1,N,M,C,o1_image,stimuli/out1.png,stimuli/correct_out1.png,stimuli/out2.png,,,,,,,,,,,,,,,,,,,,,,,,,,,,,,,,,,,,,,
,,6147c5874b61952e42e9b2bd,27,male,2024-04-24_11h32.24.143,stockport_simplified,2022.2.4,Win32,142.8571429,661e456ee6de07e70aa9ef7b,6628df8d2ec4bdf738651ece,,,,,,,,,,,,,,,,,,,,,,,,,,,,,,,,,,587.1159,590.0493,"[4,5,1,7,2,6,8,3]","[[0.3,0.2],[-0.3,0.2]]","[[0.125,-0.2],[-0.125,-0.2]]",0.117361111,-0.16875,1,0,0,2.4328,o1_image,590.0495,1,590.5497,590.5497,592.5447,0,0,0,0,1,,,,,,,,,,,,,,,,,,,,,,,,,,,,,,,,,,,,,,,,,,,,,,,,,,
,,6147c5874b61952e42e9b2bd,27,male,2024-04-24_11h32.24.143,stockport_simplified,2022.2.4,Win32,142.8571429,661e456ee6de07e70aa9ef7b,6628df8d2ec4bdf738651ece,,,,,,,,,,,,,,,,,,,,,,,,,,,,,,,,,,,,,,,,,,,,,,,,,,,,,,,,1,55,115,31,1,A,X,N,o1_image,stimuli/out1.png,stimuli/correct_out1.png,stimuli/out2.png,,,,,,,,,,,,,,,,,,,,,,,,,,,,,,,,,,,,,,
,,6147c5874b61952e42e9b2bd,27,male,2024-04-24_11h32.24.143,stockport_simplified,2022.2.4,Win32,142.8571429,661e456ee6de07e70aa9ef7b,6628df8d2ec4bdf738651ece,,,,,,,,,,,,,,,,,,,,,,,,,,,,,,,,,,592.5449,594.234,"[4,5,1,7,2,6,8,3]","[[-0.3,0.2],[0.3,0.2]]","[[-0.125,-0.2],[0.125,-0.2]]",0.140277778,-0.174305556,1,0,0,1.1886,o2_image,594.2343,1,594.7344,594.7344,596.7295,0,0,0,0,1,,,,,,,,,,,,,,,,,,,,,,,,,,,,,,,,,,,,,,,,,,,,,,,,,,
,,6147c5874b61952e42e9b2bd,27,male,2024-04-24_11h32.24.143,stockport_simplified,2022.2.4,Win32,142.8571429,661e456ee6de07e70aa9ef7b,6628df8d2ec4bdf738651ece,,,,,,,,,,,,,,,,,,,,,,,,,,,,,,,,,,,,,,,,,,,,,,,,,,,,,,,,1,56,116,44,1,B,X,N,o2_image,stimuli/out2.png,stimuli/out1.png,stimuli/correct_out2.png,,,,,,,,,,,,,,,,,,,,,,,,,,,,,,,,,,,,,,
,,6147c5874b61952e42e9b2bd,27,male,2024-04-24_11h32.24.143,stockport_simplified,2022.2.4,Win32,142.8571429,661e456ee6de07e70aa9ef7b,6628df8d2ec4bdf738651ece,,,,,,,,,,,,,,,,,,,,,,,,,,,,,,,,,,596.7297,597.9876,"[4,5,1,7,2,6,8,3]","[[-0.3,0.2],[0.3,0.2]]","[[-0.125,-0.2],[0.125,-0.2]]",0.1,-0.179861111,1,0,0,0.7577,o2_image,597.9879,1,598.4881,598.4881,600.4831,0,0,0,0,1,,,,,,,,,,,,,,,,,,,,,,,,,,,,,,,,,,,,,,,,,,,,,,,,,,
,,6147c5874b61952e42e9b2bd,27,male,2024-04-24_11h32.24.143,stockport_simplified,2022.2.4,Win32,142.8571429,661e456ee6de07e70aa9ef7b,6628df8d2ec4bdf738651ece,,,,,,,,,,,,,,,,,,,,,,,,,,,,,,,,,,,,,,,,,,,,,,,,,,,,,,,,1,57,117,11,1,B,X,N,o2_image,stimuli/out2.png,stimuli/out1.png,stimuli/correct_out2.png,,,,,,,,,,,,,,,,,,,,,,,,,,,,,,,,,,,,,,
,,6147c5874b61952e42e9b2bd,27,male,2024-04-24_11h32.24.143,stockport_simplified,2022.2.4,Win32,142.8571429,661e456ee6de07e70aa9ef7b,6628df8d2ec4bdf738651ece,,,,,,,,,,,,,,,,,,,,,,,,,,,,,,,,,,600.4833,601.9151,"[4,5,1,7,2,6,8,3]","[[0.3,0.2],[-0.3,0.2]]","[[-0.125,-0.2],[0.125,-0.2]]",0.1,-0.179861111,1,0,0,0.9315,o2_image,601.9154,1,602.4156,602.4156,604.4106,0,0,0,0,1,,,,,,,,,,,,,,,,,,,,,,,,,,,,,,,,,,,,,,,,,,,,,,,,,,
,,6147c5874b61952e42e9b2bd,27,male,2024-04-24_11h32.24.143,stockport_simplified,2022.2.4,Win32,142.8571429,661e456ee6de07e70aa9ef7b,6628df8d2ec4bdf738651ece,,,,,,,,,,,,,,,,,,,,,,,,,,,,,,,,,,,,,,,,,,,,,,,,,,,,,,,,1,58,118,43,1,B,X,N,o2_image,stimuli/out2.png,stimuli/out1.png,stimuli/correct_out2.png,,,,,,,,,,,,,,,,,,,,,,,,,,,,,,,,,,,,,,
,,6147c5874b61952e42e9b2bd,27,male,2024-04-24_11h32.24.143,stockport_simplified,2022.2.4,Win32,142.8571429,661e456ee6de07e70aa9ef7b,6628df8d2ec4bdf738651ece,,,,,,,,,,,,,,,,,,,,,,,,,,,,,,,,,,604.4108,605.8983,"[4,5,1,7,2,6,8,3]","[[0.3,0.2],[-0.3,0.2]]","[[-0.125,-0.2],[0.125,-0.2]]",0.097222222,-0.18125,1,0,0,0.9869,o2_image,605.8986,1,606.3987,606.3987,608.3937,0,0,0,0,1,,,,,,,,,,,,,,,,,,,,,,,,,,,,,,,,,,,,,,,,,,,,,,,,,,
,,6147c5874b61952e42e9b2bd,27,male,2024-04-24_11h32.24.143,stockport_simplified,2022.2.4,Win32,142.8571429,661e456ee6de07e70aa9ef7b,6628df8d2ec4bdf738651ece,,,,,,,,,,,,,,,,,,,,,,,,,,,,,,,,,,,,,,,,,,,,,,,,,,,,,,,,1,59,119,55,1,N,M,D,o2_image,stimuli/out2.png,stimuli/out1.png,stimuli/correct_out2.png,,,,,,,,,,,,,,,,,,,,,,,,,,,,,,,,,,,,,,
,,6147c5874b61952e42e9b2bd,27,male,2024-04-24_11h32.24.143,stockport_simplified,2022.2.4,Win32,142.8571429,661e456ee6de07e70aa9ef7b,6628df8d2ec4bdf738651ece,,,,,,,,,,,,,,,,,,,,,,,,,,,,,,,,,,608.4011,610.2776,"[4,5,1,7,2,6,8,3]","[[0.3,0.2],[-0.3,0.2]]","[[0.125,-0.2],[-0.125,-0.2]]",0.13125,-0.190972222,1,0,0,1.3762,o1_image,610.278,1,610.7781,610.7781,612.773,,,,,,,,,,,,,,,,,,0,0,0,0,1,,,,,,,,,,,,,,,,,,,,,,,,,,,,,,,,,
,,6147c5874b61952e42e9b2bd,27,male,2024-04-24_11h32.24.143,stockport_simplified,2022.2.4,Win32,142.8571429,661e456ee6de07e70aa9ef7b,6628df8d2ec4bdf738651ece,,,,,,,,,,,,,,,,,,,,,,,,,,,,,,,,,,,,,,,,,,,,,,,,,,,,,,,,,,,,,N,M,C,o1_image,stimuli/out1.png,stimuli/correct_out1.png,stimuli/out2.png,,,,,,0,0,0,41,1,,,,,,,,,,,,,,,,,,,,,,,,,,,,
,,6147c5874b61952e42e9b2bd,27,male,2024-04-24_11h32.24.143,stockport_simplified,2022.2.4,Win32,142.8571429,661e456ee6de07e70aa9ef7b,6628df8d2ec4bdf738651ece,,,,,,,,,,,,,,,,,,,,,,,,,,,,,,,,,,612.7734,614.6082,"[4,5,1,7,2,6,8,3]","[[-0.3,0.2],[0.3,0.2]]","[[0.125,-0.2],[-0.125,-0.2]]",0.102083333,-0.19375,1,0,0,1.3347,o1_image,614.6085,1,615.1087,615.1087,617.1037,,,,,,,,,,,,,,,,,,0,0,0,0,1,,,,,,,,,,,,,,,,,,,,,,,,,,,,,,,,,
,,6147c5874b61952e42e9b2bd,27,male,2024-04-24_11h32.24.143,stockport_simplified,2022.2.4,Win32,142.8571429,661e456ee6de07e70aa9ef7b,6628df8d2ec4bdf738651ece,,,,,,,,,,,,,,,,,,,,,,,,,,,,,,,,,,,,,,,,,,,,,,,,,,,,,,,,,,,,,N,M,C,o1_image,stimuli/out1.png,stimuli/correct_out1.png,stimuli/out2.png,,,,,,0,1,1,42,1,,,,,,,,,,,,,,,,,,,,,,,,,,,,
,,6147c5874b61952e42e9b2bd,27,male,2024-04-24_11h32.24.143,stockport_simplified,2022.2.4,Win32,142.8571429,661e456ee6de07e70aa9ef7b,6628df8d2ec4bdf738651ece,,,,,,,,,,,,,,,,,,,,,,,,,,,,,,,,,,617.104,618.4871,"[4,5,1,7,2,6,8,3]","[[-0.3,0.2],[0.3,0.2]]","[[-0.125,-0.2],[0.125,-0.2]]",0.103472222,-0.19375,1,0,0,0.8828,o2_image,618.4873,1,618.9875,618.9875,620.9826,,,,,,,,,,,,,,,,,,0,0,0,0,1,,,,,,,,,,,,,,,,,,,,,,,,,,,,,,,,,
,,6147c5874b61952e42e9b2bd,27,male,2024-04-24_11h32.24.143,stockport_simplified,2022.2.4,Win32,142.8571429,661e456ee6de07e70aa9ef7b,6628df8d2ec4bdf738651ece,,,,,,,,,,,,,,,,,,,,,,,,,,,,,,,,,,,,,,,,,,,,,,,,,,,,,,,,,,,,,N,M,D,o2_image,stimuli/out2.png,stimuli/out1.png,stimuli/correct_out2.png,,,,,,0,2,2,53,1,,,,,,,,,,,,,,,,,,,,,,,,,,,,
,,6147c5874b61952e42e9b2bd,27,male,2024-04-24_11h32.24.143,stockport_simplified,2022.2.4,Win32,142.8571429,661e456ee6de07e70aa9ef7b,6628df8d2ec4bdf738651ece,,,,,,,,,,,,,,,,,,,,,,,,,,,,,,,,,,620.9828,622.5189,"[4,5,1,7,2,6,8,3]","[[-0.3,0.2],[0.3,0.2]]","[[-0.125,-0.2],[0.125,-0.2]]",-0.090277778,-0.172916667,1,0,0,1.0357,o1_image,622.5191,1,623.0194,623.0194,625.0143,,,,,,,,,,,,,,,,,,0,0,0,0,1,,,,,,,,,,,,,,,,,,,,,,,,,,,,,,,,,
,,6147c5874b61952e42e9b2bd,27,male,2024-04-24_11h32.24.143,stockport_simplified,2022.2.4,Win32,142.8571429,661e456ee6de07e70aa9ef7b,6628df8d2ec4bdf738651ece,,,,,,,,,,,,,,,,,,,,,,,,,,,,,,,,,,,,,,,,,,,,,,,,,,,,,,,,,,,,,N,M,C,o1_image,stimuli/out1.png,stimuli/correct_out1.png,stimuli/out2.png,,,,,,0,3,3,47,1,,,,,,,,,,,,,,,,,,,,,,,,,,,,
,,6147c5874b61952e42e9b2bd,27,male,2024-04-24_11h32.24.143,stockport_simplified,2022.2.4,Win32,142.8571429,661e456ee6de07e70aa9ef7b,6628df8d2ec4bdf738651ece,,,,,,,,,,,,,,,,,,,,,,,,,,,,,,,,,,625.0146,628.1634,"[4,5,1,7,2,6,8,3]","[[0.3,0.2],[-0.3,0.2]]","[[0.125,-0.2],[-0.125,-0.2]]",0.124305556,-0.181944444,1,0,0,2.6484,o1_image,628.1637,0,628.6639,628.6639,630.6589,,,,,,,,,,,,,,,,,,0,0,0,0,1,,,,,,,,,,,,,,,,,,,,,,,,,,,,,,,,,
