counterbalance_2.started,counterbalance_2.stopped,participant,age,gender,date,expName,psychopyVersion,OS,frameRate,STUDY_ID,SESSION_ID,information_2.started,information_2.stopped,information_loop.thisRepN,information_loop.thisTrialN,information_loop.thisN,information_loop.thisIndex,information_loop.ran,information,consent_2.started,consent_2.stopped,slider_1.response,slider_2.response,slider_3.response,slider_4.response,slider_5.response,slider_6.response,instructions.started,instructions.stopped,task1_instr.thisRepN,task1_instr.thisTrialN,task1_instr.thisN,task1_instr.thisIndex,task1_instr.ran,task1,comprehension1_2.started,comprehension1_2.stopped,comp1_mouse.x,comp1_mouse.y,comp1_mouse.leftButton,comp1_mouse.midButton,comp1_mouse.rightButton,comp1_mouse.time,comp1_mouse.clicked_name,cue_o__trial_2.started,cue_o__trial_2.stopped,order,cue_order,out_order,cue_o_mouse.x,cue_o_mouse.y,cue_o_mouse.leftButton,cue_o_mouse.midButton,cue_o_mouse.rightButton,cue_o_mouse.time,cue_o_mouse.clicked_name,cue_selection_2.started,correct_answer,cue_selection_2.stopped,feedback_2.started,feedback_2.stopped,feedback_loop.thisRepN,feedback_loop.thisTrialN,feedback_loop.thisN,feedback_loop.thisIndex,feedback_loop.ran,stage1_trials.thisRepN,stage1_trials.thisTrialN,stage1_trials.thisN,stage1_trials.thisIndex,stage1_trials.ran,cue1,cue2,cue3,outcome,correct_out,o1_feedback,o2_feedback,stage2_feedback_loop.thisRepN,stage2_feedback_loop.thisTrialN,stage2_feedback_loop.thisN,stage2_feedback_loop.thisIndex,stage2_feedback_loop.ran,stage2_trials.thisRepN,stage2_trials.thisTrialN,stage2_trials.thisN,stage2_trials.thisIndex,stage2_trials.ran,stage3_feedback_loop.thisRepN,stage3_feedback_loop.thisTrialN,stage3_feedback_loop.thisN,stage3_feedback_loop.thisIndex,stage3_feedback_loop.ran,stage3_trials.thisRepN,stage3_trials.thisTrialN,stage3_trials.thisN,stage3_trials.thisIndex,stage3_trials.ran,debrief_2.started,debrief_2.stopped,debrief_loop.thisRepN,debrief_loop.thisTrialN,debrief_loop.thisN,debrief_loop.thisIndex,debrief_loop.ran,debrief_img,compr1_completed.thisRepN,compr1_completed.thisTrialN,compr1_completed.thisN,compr1_completed.thisIndex,compr1_completed.ran,consent_loop.thisRepN,consent_loop.thisTrialN,consent_loop.thisN,consent_loop.thisIndex,consent_loop.ran
0.0003,0.0006,61405a0426b9171448bc7de7,24,female,2024-04-24_12h33.13.155,stockport_simplified,2022.2.4,Win32,60.24096386,661e456ee6de07e70aa9ef7b,6628df860698476c2608c3f9,,,,,,,,,,,,,,,,,,,,,,,,,,,,,,,,,,,,,,,,,,,,,,,,,,,,,,,,,,,,,,,,,,,,,,,,,,,,,,,,,,,,,,,,,,,,,,,,,,,,,,,,,
,,61405a0426b9171448bc7de7,24,female,2024-04-24_12h33.13.155,stockport_simplified,2022.2.4,Win32,60.24096386,661e456ee6de07e70aa9ef7b,6628df860698476c2608c3f9,0.0379,56.7926,0,0,0,0,1,instructions/info1.png,,,,,,,,,,,,,,,,,,,,,,,,,,,,,,,,,,,,,,,,,,,,,,,,,,,,,,,,,,,,,,,,,,,,,,,,,,,,,,,,,,,,,,,,,,,,,,,,,
,,61405a0426b9171448bc7de7,24,female,2024-04-24_12h33.13.155,stockport_simplified,2022.2.4,Win32,60.24096386,661e456ee6de07e70aa9ef7b,6628df860698476c2608c3f9,56.7938,72.6206,0,1,1,1,1,instructions/info2.png,,,,,,,,,,,,,,,,,,,,,,,,,,,,,,,,,,,,,,,,,,,,,,,,,,,,,,,,,,,,,,,,,,,,,,,,,,,,,,,,,,,,,,,,,,,,,,,,,
,,61405a0426b9171448bc7de7,24,female,2024-04-24_12h33.13.155,stockport_simplified,2022.2.4,Win32,60.24096386,661e456ee6de07e70aa9ef7b,6628df860698476c2608c3f9,72.6328,89.4004,0,2,2,2,1,instructions/info3.png,,,,,,,,,,,,,,,,,,,,,,,,,,,,,,,,,,,,,,,,,,,,,,,,,,,,,,,,,,,,,,,,,,,,,,,,,,,,,,,,,,,,,,,,,,,,,,,,,
,,61405a0426b9171448bc7de7,24,female,2024-04-24_12h33.13.155,stockport_simplified,2022.2.4,Win32,60.24096386,661e456ee6de07e70aa9ef7b,6628df860698476c2608c3f9,,,,,,,,,89.4215,111.2869,1,1,1,1,1,1,,,,,,,,,,,,,,,,,,,,,,,,,,,,,,,,,,,,,,,,,,,,,,,,,,,,,,,,,,,,,,,,,,,,,,,,,,,,,,,,,,,,,,,,,
,,61405a0426b9171448bc7de7,24,female,2024-04-24_12h33.13.155,stockport_simplified,2022.2.4,Win32,60.24096386,661e456ee6de07e70aa9ef7b,6628df860698476c2608c3f9,,,,,,,,,,,,,,,,,111.3024,145.7771,0,0,0,0,1,instructions/task1_1.png,,,,,,,,,,,,,,,,,,,,,,,,,,,,,,,,,,,,,,,,,,,,,,,,,,,,,,,,,,,,,,,,,,,,,,,,,,,,,,,,,
,,61405a0426b9171448bc7de7,24,female,2024-04-24_12h33.13.155,stockport_simplified,2022.2.4,Win32,60.24096386,661e456ee6de07e70aa9ef7b,6628df860698476c2608c3f9,,,,,,,,,,,,,,,,,145.797,161.6885,0,1,1,1,1,instructions/task1_2.png,,,,,,,,,,,,,,,,,,,,,,,,,,,,,,,,,,,,,,,,,,,,,,,,,,,,,,,,,,,,,,,,,,,,,,,,,,,,,,,,,
,,61405a0426b9171448bc7de7,24,female,2024-04-24_12h33.13.155,stockport_simplified,2022.2.4,Win32,60.24096386,661e456ee6de07e70aa9ef7b,6628df860698476c2608c3f9,,,,,,,,,,,,,,,,,161.7144,185.7319,0,2,2,2,1,instructions/task1_3.png,,,,,,,,,,,,,,,,,,,,,,,,,,,,,,,,,,,,,,,,,,,,,,,,,,,,,,,,,,,,,,,,,,,,,,,,,,,,,,,,,
,,61405a0426b9171448bc7de7,24,female,2024-04-24_12h33.13.155,stockport_simplified,2022.2.4,Win32,60.24096386,661e456ee6de07e70aa9ef7b,6628df860698476c2608c3f9,,,,,,,,,,,,,,,,,,,,,,,,,185.7335,213.8951,0.517592677,-0.324999986,1,0,0,28.1606,comp1_resp1,213.9226,217.3098,"[3,2,5,7,8,6,1,4]","[[0.3,0.2],[-0.3,0.2]]","[[0.125,-0.2],[-0.125,-0.2]]",0.118518547,-0.231481481,1,0,0,2.8698,o1_image,217.313,0,217.8014,217.802,219.8007,0,0,0,0,1,,,,,,,,,,,,,,,,,,,,,,,,,,,,,,,,,,,,,,,,,,,,,,,,,,
,,61405a0426b9171448bc7de7,24,female,2024-04-24_12h33.13.155,stockport_simplified,2022.2.4,Win32,60.24096386,661e456ee6de07e70aa9ef7b,6628df860698476c2608c3f9,,,,,,,,,,,,,,,,,,,,,,,,,,,,,,,,,,,,,,,,,,,,,,,,,,,,,,,,0,0,0,16,1,B,Y,N,o2_image,stimuli/out2.png,stimuli/out1.png,stimuli/correct_out2.png,,,,,,,,,,,,,,,,,,,,,,,,,,,,,,,,,,,,,,
,,61405a0426b9171448bc7de7,24,female,2024-04-24_12h33.13.155,stockport_simplified,2022.2.4,Win32,60.24096386,661e456ee6de07e70aa9ef7b,6628df860698476c2608c3f9,,,,,,,,,,,,,,,,,,,,,,,,,,,,,,,,,,219.8021,222.4963,"[3,2,5,7,8,6,1,4]","[[-0.3,0.2],[0.3,0.2]]","[[-0.125,-0.2],[0.125,-0.2]]",0.118518547,-0.231481481,1,0,0,2.1872,o2_image,222.5091,1,223.0127,223.0129,225.011,0,0,0,0,1,,,,,,,,,,,,,,,,,,,,,,,,,,,,,,,,,,,,,,,,,,,,,,,,,,
,,61405a0426b9171448bc7de7,24,female,2024-04-24_12h33.13.155,stockport_simplified,2022.2.4,Win32,60.24096386,661e456ee6de07e70aa9ef7b,6628df860698476c2608c3f9,,,,,,,,,,,,,,,,,,,,,,,,,,,,,,,,,,,,,,,,,,,,,,,,,,,,,,,,0,1,1,55,1,N,M,D,o2_image,stimuli/out2.png,stimuli/out1.png,stimuli/correct_out2.png,,,,,,,,,,,,,,,,,,,,,,,,,,,,,,,,,,,,,,
,,61405a0426b9171448bc7de7,24,female,2024-04-24_12h33.13.155,stockport_simplified,2022.2.4,Win32,60.24096386,661e456ee6de07e70aa9ef7b,6628df860698476c2608c3f9,,,,,,,,,,,,,,,,,,,,,,,,,,,,,,,,,,225.0122,228.4756,"[3,2,5,7,8,6,1,4]","[[-0.3,0.2],[0.3,0.2]]","[[0.125,-0.2],[-0.125,-0.2]]",0.12962963,-0.202777792,1,0,0,2.9464,o1_image,228.4986,1,228.9911,228.9912,230.982,0,0,0,0,1,,,,,,,,,,,,,,,,,,,,,,,,,,,,,,,,,,,,,,,,,,,,,,,,,,
,,61405a0426b9171448bc7de7,24,female,2024-04-24_12h33.13.155,stockport_simplified,2022.2.4,Win32,60.24096386,661e456ee6de07e70aa9ef7b,6628df860698476c2608c3f9,,,,,,,,,,,,,,,,,,,,,,,,,,,,,,,,,,,,,,,,,,,,,,,,,,,,,,,,0,2,2,32,1,A,X,N,o1_image,stimuli/out1.png,stimuli/correct_out1.png,stimuli/out2.png,,,,,,,,,,,,,,,,,,,,,,,,,,,,,,,,,,,,,,
,,61405a0426b9171448bc7de7,24,female,2024-04-24_12h33.13.155,stockport_simplified,2022.2.4,Win32,60.24096386,661e456ee6de07e70aa9ef7b,6628df860698476c2608c3f9,,,,,,,,,,,,,,,,,,,,,,,,,,,,,,,,,,230.9828,233.1035,"[3,2,5,7,8,6,1,4]","[[0.3,0.2],[-0.3,0.2]]","[[0.125,-0.2],[-0.125,-0.2]]",0.12962963,-0.202777792,1,0,0,1.611,o1_image,233.1043,1,233.6035,233.6036,235.6025,0,0,0,0,1,,,,,,,,,,,,,,,,,,,,,,,,,,,,,,,,,,,,,,,,,,,,,,,,,,
,,61405a0426b9171448bc7de7,24,female,2024-04-24_12h33.13.155,stockport_simplified,2022.2.4,Win32,60.24096386,661e456ee6de07e70aa9ef7b,6628df860698476c2608c3f9,,,,,,,,,,,,,,,,,,,,,,,,,,,,,,,,,,,,,,,,,,,,,,,,,,,,,,,,0,3,3,52,1,N,M,C,o1_image,stimuli/out1.png,stimuli/correct_out1.png,stimuli/out2.png,,,,,,,,,,,,,,,,,,,,,,,,,,,,,,,,,,,,,,
,,61405a0426b9171448bc7de7,24,female,2024-04-24_12h33.13.155,stockport_simplified,2022.2.4,Win32,60.24096386,661e456ee6de07e70aa9ef7b,6628df860698476c2608c3f9,,,,,,,,,,,,,,,,,,,,,,,,,,,,,,,,,,235.6037,237.8008,"[3,2,5,7,8,6,1,4]","[[0.3,0.2],[-0.3,0.2]]","[[-0.125,-0.2],[0.125,-0.2]]",-0.099074046,-0.199074074,1,0,0,1.6816,o1_image,237.8023,0,238.3007,238.3009,240.2991,0,0,0,0,1,,,,,,,,,,,,,,,,,,,,,,,,,,,,,,,,,,,,,,,,,,,,,,,,,,
,,61405a0426b9171448bc7de7,24,female,2024-04-24_12h33.13.155,stockport_simplified,2022.2.4,Win32,60.24096386,661e456ee6de07e70aa9ef7b,6628df860698476c2608c3f9,,,,,,,,,,,,,,,,,,,,,,,,,,,,,,,,,,,,,,,,,,,,,,,,,,,,,,,,0,4,4,59,1,N,M,D,o2_image,stimuli/out2.png,stimuli/out1.png,stimuli/correct_out2.png,,,,,,,,,,,,,,,,,,,,,,,,,,,,,,,,,,,,,,
,,61405a0426b9171448bc7de7,24,female,2024-04-24_12h33.13.155,stockport_simplified,2022.2.4,Win32,60.24096386,661e456ee6de07e70aa9ef7b,6628df860698476c2608c3f9,,,,,,,,,,,,,,,,,,,,,,,,,,,,,,,,,,240.3006,243.0638,"[3,2,5,7,8,6,1,4]","[[0.3,0.2],[-0.3,0.2]]","[[-0.125,-0.2],[0.125,-0.2]]",0.098148134,-0.199999986,1,0,0,2.2574,o2_image,243.0663,0,243.5618,243.5618,245.5596,0,0,0,0,1,,,,,,,,,,,,,,,,,,,,,,,,,,,,,,,,,,,,,,,,,,,,,,,,,,
,,61405a0426b9171448bc7de7,24,female,2024-04-24_12h33.13.155,stockport_simplified,2022.2.4,Win32,60.24096386,661e456ee6de07e70aa9ef7b,6628df860698476c2608c3f9,,,,,,,,,,,,,,,,,,,,,,,,,,,,,,,,,,,,,,,,,,,,,,,,,,,,,,,,0,5,5,36,1,A,Y,N,o1_image,stimuli/out1.png,stimuli/correct_out1.png,stimuli/out2.png,,,,,,,,,,,,,,,,,,,,,,,,,,,,,,,,,,,,,,
,,61405a0426b9171448bc7de7,24,female,2024-04-24_12h33.13.155,stockport_simplified,2022.2.4,Win32,60.24096386,661e456ee6de07e70aa9ef7b,6628df860698476c2608c3f9,,,,,,,,,,,,,,,,,,,,,,,,,,,,,,,,,,245.5601,248.8344,"[3,2,5,7,8,6,1,4]","[[0.3,0.2],[-0.3,0.2]]","[[0.125,-0.2],[-0.125,-0.2]]",0.161111125,-0.214814857,1,0,0,2.7575,o1_image,248.8631,1,249.3563,249.3564,251.3547,0,0,0,0,1,,,,,,,,,,,,,,,,,,,,,,,,,,,,,,,,,,,,,,,,,,,,,,,,,,
,,61405a0426b9171448bc7de7,24,female,2024-04-24_12h33.13.155,stockport_simplified,2022.2.4,Win32,60.24096386,661e456ee6de07e70aa9ef7b,6628df860698476c2608c3f9,,,,,,,,,,,,,,,,,,,,,,,,,,,,,,,,,,,,,,,,,,,,,,,,,,,,,,,,0,6,6,30,1,A,X,N,o1_image,stimuli/out1.png,stimuli/correct_out1.png,stimuli/out2.png,,,,,,,,,,,,,,,,,,,,,,,,,,,,,,,,,,,,,,
,,61405a0426b9171448bc7de7,24,female,2024-04-24_12h33.13.155,stockport_simplified,2022.2.4,Win32,60.24096386,661e456ee6de07e70aa9ef7b,6628df860698476c2608c3f9,,,,,,,,,,,,,,,,,,,,,,,,,,,,,,,,,,251.3564,253.2876,"[3,2,5,7,8,6,1,4]","[[-0.3,0.2],[0.3,0.2]]","[[-0.125,-0.2],[0.125,-0.2]]",0.107407393,-0.180555556,1,0,0,1.4135,o2_image,253.2893,0,253.7858,253.7859,255.7837,0,0,0,0,1,,,,,,,,,,,,,,,,,,,,,,,,,,,,,,,,,,,,,,,,,,,,,,,,,,
,,61405a0426b9171448bc7de7,24,female,2024-04-24_12h33.13.155,stockport_simplified,2022.2.4,Win32,60.24096386,661e456ee6de07e70aa9ef7b,6628df860698476c2608c3f9,,,,,,,,,,,,,,,,,,,,,,,,,,,,,,,,,,,,,,,,,,,,,,,,,,,,,,,,0,7,7,22,1,N,M,C,o1_image,stimuli/out1.png,stimuli/correct_out1.png,stimuli/out2.png,,,,,,,,,,,,,,,,,,,,,,,,,,,,,,,,,,,,,,
,,61405a0426b9171448bc7de7,24,female,2024-04-24_12h33.13.155,stockport_simplified,2022.2.4,Win32,60.24096386,661e456ee6de07e70aa9ef7b,6628df860698476c2608c3f9,,,,,,,,,,,,,,,,,,,,,,,,,,,,,,,,,,255.7842,259.1995,"[3,2,5,7,8,6,1,4]","[[-0.3,0.2],[0.3,0.2]]","[[-0.125,-0.2],[0.125,-0.2]]",0.10555557,-0.196296339,1,0,0,2.8975,o2_image,259.2234,1,259.7137,259.7138,261.7037,0,0,0,0,1,,,,,,,,,,,,,,,,,,,,,,,,,,,,,,,,,,,,,,,,,,,,,,,,,,
,,61405a0426b9171448bc7de7,24,female,2024-04-24_12h33.13.155,stockport_simplified,2022.2.4,Win32,60.24096386,661e456ee6de07e70aa9ef7b,6628df860698476c2608c3f9,,,,,,,,,,,,,,,,,,,,,,,,,,,,,,,,,,,,,,,,,,,,,,,,,,,,,,,,0,8,8,45,1,B,Y,N,o2_image,stimuli/out2.png,stimuli/out1.png,stimuli/correct_out2.png,,,,,,,,,,,,,,,,,,,,,,,,,,,,,,,,,,,,,,
,,61405a0426b9171448bc7de7,24,female,2024-04-24_12h33.13.155,stockport_simplified,2022.2.4,Win32,60.24096386,661e456ee6de07e70aa9ef7b,6628df860698476c2608c3f9,,,,,,,,,,,,,,,,,,,,,,,,,,,,,,,,,,261.7049,263.4774,"[3,2,5,7,8,6,1,4]","[[-0.3,0.2],[0.3,0.2]]","[[-0.125,-0.2],[0.125,-0.2]]",0.10555557,-0.196296339,1,0,0,1.2623,o2_image,263.4787,0,263.9797,263.9799,265.985,0,0,0,0,1,,,,,,,,,,,,,,,,,,,,,,,,,,,,,,,,,,,,,,,,,,,,,,,,,,
,,61405a0426b9171448bc7de7,24,female,2024-04-24_12h33.13.155,stockport_simplified,2022.2.4,Win32,60.24096386,661e456ee6de07e70aa9ef7b,6628df860698476c2608c3f9,,,,,,,,,,,,,,,,,,,,,,,,,,,,,,,,,,,,,,,,,,,,,,,,,,,,,,,,0,9,9,9,1,A,Y,N,o1_image,stimuli/out1.png,stimuli/correct_out1.png,stimuli/out2.png,,,,,,,,,,,,,,,,,,,,,,,,,,,,,,,,,,,,,,
,,61405a0426b9171448bc7de7,24,female,2024-04-24_12h33.13.155,stockport_simplified,2022.2.4,Win32,60.24096386,661e456ee6de07e70aa9ef7b,6628df860698476c2608c3f9,,,,,,,,,,,,,,,,,,,,,,,,,,,,,,,,,,265.9859,268.1661,"[3,2,5,7,8,6,1,4]","[[0.3,0.2],[-0.3,0.2]]","[[-0.125,-0.2],[0.125,-0.2]]",0.10555557,-0.196296339,1,0,0,1.6629,o2_image,268.1679,0,268.6566,268.6566,270.6485,0,0,0,0,1,,,,,,,,,,,,,,,,,,,,,,,,,,,,,,,,,,,,,,,,,,,,,,,,,,
,,61405a0426b9171448bc7de7,24,female,2024-04-24_12h33.13.155,stockport_simplified,2022.2.4,Win32,60.24096386,661e456ee6de07e70aa9ef7b,6628df860698476c2608c3f9,,,,,,,,,,,,,,,,,,,,,,,,,,,,,,,,,,,,,,,,,,,,,,,,,,,,,,,,0,10,10,54,1,N,M,C,o1_image,stimuli/out1.png,stimuli/correct_out1.png,stimuli/out2.png,,,,,,,,,,,,,,,,,,,,,,,,,,,,,,,,,,,,,,
,,61405a0426b9171448bc7de7,24,female,2024-04-24_12h33.13.155,stockport_simplified,2022.2.4,Win32,60.24096386,661e456ee6de07e70aa9ef7b,6628df860698476c2608c3f9,,,,,,,,,,,,,,,,,,,,,,,,,,,,,,,,,,270.6494,272.5746,"[3,2,5,7,8,6,1,4]","[[0.3,0.2],[-0.3,0.2]]","[[0.125,-0.2],[-0.125,-0.2]]",0.10555557,-0.196296339,1,0,0,1.411,o1_image,272.5762,0,273.0694,273.0694,275.0689,0,0,0,0,1,,,,,,,,,,,,,,,,,,,,,,,,,,,,,,,,,,,,,,,,,,,,,,,,,,
,,61405a0426b9171448bc7de7,24,female,2024-04-24_12h33.13.155,stockport_simplified,2022.2.4,Win32,60.24096386,661e456ee6de07e70aa9ef7b,6628df860698476c2608c3f9,,,,,,,,,,,,,,,,,,,,,,,,,,,,,,,,,,,,,,,,,,,,,,,,,,,,,,,,0,11,11,56,1,N,M,D,o2_image,stimuli/out2.png,stimuli/out1.png,stimuli/correct_out2.png,,,,,,,,,,,,,,,,,,,,,,,,,,,,,,,,,,,,,,
,,61405a0426b9171448bc7de7,24,female,2024-04-24_12h33.13.155,stockport_simplified,2022.2.4,Win32,60.24096386,661e456ee6de07e70aa9ef7b,6628df860698476c2608c3f9,,,,,,,,,,,,,,,,,,,,,,,,,,,,,,,,,,275.0699,277.0674,"[3,2,5,7,8,6,1,4]","[[0.3,0.2],[-0.3,0.2]]","[[-0.125,-0.2],[0.125,-0.2]]",0.127777806,-0.164814843,1,0,0,1.4817,o2_image,277.0693,1,277.5678,277.5682,279.5723,0,0,0,0,1,,,,,,,,,,,,,,,,,,,,,,,,,,,,,,,,,,,,,,,,,,,,,,,,,,
,,61405a0426b9171448bc7de7,24,female,2024-04-24_12h33.13.155,stockport_simplified,2022.2.4,Win32,60.24096386,661e456ee6de07e70aa9ef7b,6628df860698476c2608c3f9,,,,,,,,,,,,,,,,,,,,,,,,,,,,,,,,,,,,,,,,,,,,,,,,,,,,,,,,0,12,12,25,1,N,M,D,o2_image,stimuli/out2.png,stimuli/out1.png,stimuli/correct_out2.png,,,,,,,,,,,,,,,,,,,,,,,,,,,,,,,,,,,,,,
,,61405a0426b9171448bc7de7,24,female,2024-04-24_12h33.13.155,stockport_simplified,2022.2.4,Win32,60.24096386,661e456ee6de07e70aa9ef7b,6628df860698476c2608c3f9,,,,,,,,,,,,,,,,,,,,,,,,,,,,,,,,,,279.5733,282.6289,"[3,2,5,7,8,6,1,4]","[[0.3,0.2],[-0.3,0.2]]","[[0.125,-0.2],[-0.125,-0.2]]",0.123148176,-0.190740727,1,0,0,2.5387,o1_image,282.6455,1,283.1438,283.144,285.1436,0,0,0,0,1,,,,,,,,,,,,,,,,,,,,,,,,,,,,,,,,,,,,,,,,,,,,,,,,,,
,,61405a0426b9171448bc7de7,24,female,2024-04-24_12h33.13.155,stockport_simplified,2022.2.4,Win32,60.24096386,661e456ee6de07e70aa9ef7b,6628df860698476c2608c3f9,,,,,,,,,,,,,,,,,,,,,,,,,,,,,,,,,,,,,,,,,,,,,,,,,,,,,,,,0,13,13,1,1,A,X,N,o1_image,stimuli/out1.png,stimuli/correct_out1.png,stimuli/out2.png,,,,,,,,,,,,,,,,,,,,,,,,,,,,,,,,,,,,,,
,,61405a0426b9171448bc7de7,24,female,2024-04-24_12h33.13.155,stockport_simplified,2022.2.4,Win32,60.24096386,661e456ee6de07e70aa9ef7b,6628df860698476c2608c3f9,,,,,,,,,,,,,,,,,,,,,,,,,,,,,,,,,,285.1448,287.4337,"[3,2,5,7,8,6,1,4]","[[-0.3,0.2],[0.3,0.2]]","[[0.125,-0.2],[-0.125,-0.2]]",0.123148176,-0.190740727,1,0,0,1.774,o1_image,287.4353,0,287.923,287.9231,289.9136,0,0,0,0,1,,,,,,,,,,,,,,,,,,,,,,,,,,,,,,,,,,,,,,,,,,,,,,,,,,
,,61405a0426b9171448bc7de7,24,female,2024-04-24_12h33.13.155,stockport_simplified,2022.2.4,Win32,60.24096386,661e456ee6de07e70aa9ef7b,6628df860698476c2608c3f9,,,,,,,,,,,,,,,,,,,,,,,,,,,,,,,,,,,,,,,,,,,,,,,,,,,,,,,,0,14,14,47,1,B,Y,N,o2_image,stimuli/out2.png,stimuli/out1.png,stimuli/correct_out2.png,,,,,,,,,,,,,,,,,,,,,,,,,,,,,,,,,,,,,,
,,61405a0426b9171448bc7de7,24,female,2024-04-24_12h33.13.155,stockport_simplified,2022.2.4,Win32,60.24096386,661e456ee6de07e70aa9ef7b,6628df860698476c2608c3f9,,,,,,,,,,,,,,,,,,,,,,,,,,,,,,,,,,289.9146,292.153,"[3,2,5,7,8,6,1,4]","[[0.3,0.2],[-0.3,0.2]]","[[0.125,-0.2],[-0.125,-0.2]]",-0.076851809,-0.223148134,1,0,0,1.722,o2_image,292.155,0,292.6523,292.6523,294.65,0,0,0,0,1,,,,,,,,,,,,,,,,,,,,,,,,,,,,,,,,,,,,,,,,,,,,,,,,,,
,,61405a0426b9171448bc7de7,24,female,2024-04-24_12h33.13.155,stockport_simplified,2022.2.4,Win32,60.24096386,661e456ee6de07e70aa9ef7b,6628df860698476c2608c3f9,,,,,,,,,,,,,,,,,,,,,,,,,,,,,,,,,,,,,,,,,,,,,,,,,,,,,,,,0,15,15,51,1,N,M,C,o1_image,stimuli/out1.png,stimuli/correct_out1.png,stimuli/out2.png,,,,,,,,,,,,,,,,,,,,,,,,,,,,,,,,,,,,,,
,,61405a0426b9171448bc7de7,24,female,2024-04-24_12h33.13.155,stockport_simplified,2022.2.4,Win32,60.24096386,661e456ee6de07e70aa9ef7b,6628df860698476c2608c3f9,,,,,,,,,,,,,,,,,,,,,,,,,,,,,,,,,,294.6505,296.8815,"[3,2,5,7,8,6,1,4]","[[0.3,0.2],[-0.3,0.2]]","[[-0.125,-0.2],[0.125,-0.2]]",0.124074088,-0.192592621,1,0,0,1.7248,o2_image,296.8836,1,297.3812,297.3814,299.3793,0,0,0,0,1,,,,,,,,,,,,,,,,,,,,,,,,,,,,,,,,,,,,,,,,,,,,,,,,,,
,,61405a0426b9171448bc7de7,24,female,2024-04-24_12h33.13.155,stockport_simplified,2022.2.4,Win32,60.24096386,661e456ee6de07e70aa9ef7b,6628df860698476c2608c3f9,,,,,,,,,,,,,,,,,,,,,,,,,,,,,,,,,,,,,,,,,,,,,,,,,,,,,,,,0,16,16,19,1,B,Y,N,o2_image,stimuli/out2.png,stimuli/out1.png,stimuli/correct_out2.png,,,,,,,,,,,,,,,,,,,,,,,,,,,,,,,,,,,,,,
,,61405a0426b9171448bc7de7,24,female,2024-04-24_12h33.13.155,stockport_simplified,2022.2.4,Win32,60.24096386,661e456ee6de07e70aa9ef7b,6628df860698476c2608c3f9,,,,,,,,,,,,,,,,,,,,,,,,,,,,,,,,,,299.3798,301.5032,"[3,2,5,7,8,6,1,4]","[[0.3,0.2],[-0.3,0.2]]","[[0.125,-0.2],[-0.125,-0.2]]",-0.119444459,-0.183333362,1,0,0,1.6223,o2_image,301.5044,1,301.9954,301.9958,303.9922,0,0,0,0,1,,,,,,,,,,,,,,,,,,,,,,,,,,,,,,,,,,,,,,,,,,,,,,,,,,
,,61405a0426b9171448bc7de7,24,female,2024-04-24_12h33.13.155,stockport_simplified,2022.2.4,Win32,60.24096386,661e456ee6de07e70aa9ef7b,6628df860698476c2608c3f9,,,,,,,,,,,,,,,,,,,,,,,,,,,,,,,,,,,,,,,,,,,,,,,,,,,,,,,,0,17,17,13,1,B,X,N,o2_image,stimuli/out2.png,stimuli/out1.png,stimuli/correct_out2.png,,,,,,,,,,,,,,,,,,,,,,,,,,,,,,,,,,,,,,
,,61405a0426b9171448bc7de7,24,female,2024-04-24_12h33.13.155,stockport_simplified,2022.2.4,Win32,60.24096386,661e456ee6de07e70aa9ef7b,6628df860698476c2608c3f9,,,,,,,,,,,,,,,,,,,,,,,,,,,,,,,,,,303.9934,306.1509,"[3,2,5,7,8,6,1,4]","[[-0.3,0.2],[0.3,0.2]]","[[-0.125,-0.2],[0.125,-0.2]]",0.137962977,-0.202777792,1,0,0,1.6414,o2_image,306.1517,0,306.6402,306.6404,308.6376,0,0,0,0,1,,,,,,,,,,,,,,,,,,,,,,,,,,,,,,,,,,,,,,,,,,,,,,,,,,
,,61405a0426b9171448bc7de7,24,female,2024-04-24_12h33.13.155,stockport_simplified,2022.2.4,Win32,60.24096386,661e456ee6de07e70aa9ef7b,6628df860698476c2608c3f9,,,,,,,,,,,,,,,,,,,,,,,,,,,,,,,,,,,,,,,,,,,,,,,,,,,,,,,,0,18,18,37,1,A,Y,N,o1_image,stimuli/out1.png,stimuli/correct_out1.png,stimuli/out2.png,,,,,,,,,,,,,,,,,,,,,,,,,,,,,,,,,,,,,,
,,61405a0426b9171448bc7de7,24,female,2024-04-24_12h33.13.155,stockport_simplified,2022.2.4,Win32,60.24096386,661e456ee6de07e70aa9ef7b,6628df860698476c2608c3f9,,,,,,,,,,,,,,,,,,,,,,,,,,,,,,,,,,308.638,310.5361,"[3,2,5,7,8,6,1,4]","[[0.3,0.2],[-0.3,0.2]]","[[0.125,-0.2],[-0.125,-0.2]]",0.137962977,-0.202777792,1,0,0,1.382,o1_image,310.537,1,311.0356,311.0356,313.0342,0,0,0,0,1,,,,,,,,,,,,,,,,,,,,,,,,,,,,,,,,,,,,,,,,,,,,,,,,,,
,,61405a0426b9171448bc7de7,24,female,2024-04-24_12h33.13.155,stockport_simplified,2022.2.4,Win32,60.24096386,661e456ee6de07e70aa9ef7b,6628df860698476c2608c3f9,,,,,,,,,,,,,,,,,,,,,,,,,,,,,,,,,,,,,,,,,,,,,,,,,,,,,,,,0,19,19,6,1,A,Y,N,o1_image,stimuli/out1.png,stimuli/correct_out1.png,stimuli/out2.png,,,,,,,,,,,,,,,,,,,,,,,,,,,,,,,,,,,,,,
,,61405a0426b9171448bc7de7,24,female,2024-04-24_12h33.13.155,stockport_simplified,2022.2.4,Win32,60.24096386,661e456ee6de07e70aa9ef7b,6628df860698476c2608c3f9,,,,,,,,,,,,,,,,,,,,,,,,,,,,,,,,,,313.0347,315.4488,"[3,2,5,7,8,6,1,4]","[[-0.3,0.2],[0.3,0.2]]","[[-0.125,-0.2],[0.125,-0.2]]",-0.154629601,-0.181481467,1,0,0,1.8963,o1_image,315.4512,0,315.9485,315.9486,317.9464,0,0,0,0,1,,,,,,,,,,,,,,,,,,,,,,,,,,,,,,,,,,,,,,,,,,,,,,,,,,
,,61405a0426b9171448bc7de7,24,female,2024-04-24_12h33.13.155,stockport_simplified,2022.2.4,Win32,60.24096386,661e456ee6de07e70aa9ef7b,6628df860698476c2608c3f9,,,,,,,,,,,,,,,,,,,,,,,,,,,,,,,,,,,,,,,,,,,,,,,,,,,,,,,,0,20,20,46,1,B,Y,N,o2_image,stimuli/out2.png,stimuli/out1.png,stimuli/correct_out2.png,,,,,,,,,,,,,,,,,,,,,,,,,,,,,,,,,,,,,,
,,61405a0426b9171448bc7de7,24,female,2024-04-24_12h33.13.155,stockport_simplified,2022.2.4,Win32,60.24096386,661e456ee6de07e70aa9ef7b,6628df860698476c2608c3f9,,,,,,,,,,,,,,,,,,,,,,,,,,,,,,,,,,317.9477,319.8121,"[3,2,5,7,8,6,1,4]","[[-0.3,0.2],[0.3,0.2]]","[[0.125,-0.2],[-0.125,-0.2]]",-0.109259217,-0.175925926,1,0,0,1.3486,o2_image,319.8139,1,320.3144,320.3144,322.3106,0,0,0,0,1,,,,,,,,,,,,,,,,,,,,,,,,,,,,,,,,,,,,,,,,,,,,,,,,,,
,,61405a0426b9171448bc7de7,24,female,2024-04-24_12h33.13.155,stockport_simplified,2022.2.4,Win32,60.24096386,661e456ee6de07e70aa9ef7b,6628df860698476c2608c3f9,,,,,,,,,,,,,,,,,,,,,,,,,,,,,,,,,,,,,,,,,,,,,,,,,,,,,,,,0,21,21,17,1,B,Y,N,o2_image,stimuli/out2.png,stimuli/out1.png,stimuli/correct_out2.png,,,,,,,,,,,,,,,,,,,,,,,,,,,,,,,,,,,,,,
,,61405a0426b9171448bc7de7,24,female,2024-04-24_12h33.13.155,stockport_simplified,2022.2.4,Win32,60.24096386,661e456ee6de07e70aa9ef7b,6628df860698476c2608c3f9,,,,,,,,,,,,,,,,,,,,,,,,,,,,,,,,,,322.3119,325.0733,"[3,2,5,7,8,6,1,4]","[[0.3,0.2],[-0.3,0.2]]","[[0.125,-0.2],[-0.125,-0.2]]",0.124074088,-0.180555556,1,0,0,2.2467,o1_image,325.0861,1,325.5901,325.5901,327.588,0,0,0,0,1,,,,,,,,,,,,,,,,,,,,,,,,,,,,,,,,,,,,,,,,,,,,,,,,,,
,,61405a0426b9171448bc7de7,24,female,2024-04-24_12h33.13.155,stockport_simplified,2022.2.4,Win32,60.24096386,661e456ee6de07e70aa9ef7b,6628df860698476c2608c3f9,,,,,,,,,,,,,,,,,,,,,,,,,,,,,,,,,,,,,,,,,,,,,,,,,,,,,,,,0,22,22,31,1,A,X,N,o1_image,stimuli/out1.png,stimuli/correct_out1.png,stimuli/out2.png,,,,,,,,,,,,,,,,,,,,,,,,,,,,,,,,,,,,,,
,,61405a0426b9171448bc7de7,24,female,2024-04-24_12h33.13.155,stockport_simplified,2022.2.4,Win32,60.24096386,661e456ee6de07e70aa9ef7b,6628df860698476c2608c3f9,,,,,,,,,,,,,,,,,,,,,,,,,,,,,,,,,,327.5893,330.0226,"[3,2,5,7,8,6,1,4]","[[-0.3,0.2],[0.3,0.2]]","[[0.125,-0.2],[-0.125,-0.2]]",-0.099074046,-0.183333362,1,0,0,1.9316,o2_image,330.0234,0,330.5116,330.5116,332.5172,0,0,0,0,1,,,,,,,,,,,,,,,,,,,,,,,,,,,,,,,,,,,,,,,,,,,,,,,,,,
,,61405a0426b9171448bc7de7,24,female,2024-04-24_12h33.13.155,stockport_simplified,2022.2.4,Win32,60.24096386,661e456ee6de07e70aa9ef7b,6628df860698476c2608c3f9,,,,,,,,,,,,,,,,,,,,,,,,,,,,,,,,,,,,,,,,,,,,,,,,,,,,,,,,0,23,23,35,1,A,Y,N,o1_image,stimuli/out1.png,stimuli/correct_out1.png,stimuli/out2.png,,,,,,,,,,,,,,,,,,,,,,,,,,,,,,,,,,,,,,
,,61405a0426b9171448bc7de7,24,female,2024-04-24_12h33.13.155,stockport_simplified,2022.2.4,Win32,60.24096386,661e456ee6de07e70aa9ef7b,6628df860698476c2608c3f9,,,,,,,,,,,,,,,,,,,,,,,,,,,,,,,,,,332.5176,335.0483,"[3,2,5,7,8,6,1,4]","[[-0.3,0.2],[0.3,0.2]]","[[0.125,-0.2],[-0.125,-0.2]]",-0.099074046,-0.212962963,1,0,0,1.9977,o2_image,335.0589,1,335.5476,335.5476,337.546,0,0,0,0,1,,,,,,,,,,,,,,,,,,,,,,,,,,,,,,,,,,,,,,,,,,,,,,,,,,
,,61405a0426b9171448bc7de7,24,female,2024-04-24_12h33.13.155,stockport_simplified,2022.2.4,Win32,60.24096386,661e456ee6de07e70aa9ef7b,6628df860698476c2608c3f9,,,,,,,,,,,,,,,,,,,,,,,,,,,,,,,,,,,,,,,,,,,,,,,,,,,,,,,,0,24,24,58,1,N,M,D,o2_image,stimuli/out2.png,stimuli/out1.png,stimuli/correct_out2.png,,,,,,,,,,,,,,,,,,,,,,,,,,,,,,,,,,,,,,
,,61405a0426b9171448bc7de7,24,female,2024-04-24_12h33.13.155,stockport_simplified,2022.2.4,Win32,60.24096386,661e456ee6de07e70aa9ef7b,6628df860698476c2608c3f9,,,,,,,,,,,,,,,,,,,,,,,,,,,,,,,,,,337.5465,339.7114,"[3,2,5,7,8,6,1,4]","[[-0.3,0.2],[0.3,0.2]]","[[-0.125,-0.2],[0.125,-0.2]]",-0.099074046,-0.212962963,1,0,0,1.6317,o1_image,339.7131,0,340.2109,340.211,342.2094,0,0,0,0,1,,,,,,,,,,,,,,,,,,,,,,,,,,,,,,,,,,,,,,,,,,,,,,,,,,
,,61405a0426b9171448bc7de7,24,female,2024-04-24_12h33.13.155,stockport_simplified,2022.2.4,Win32,60.24096386,661e456ee6de07e70aa9ef7b,6628df860698476c2608c3f9,,,,,,,,,,,,,,,,,,,,,,,,,,,,,,,,,,,,,,,,,,,,,,,,,,,,,,,,0,25,25,48,1,B,Y,N,o2_image,stimuli/out2.png,stimuli/out1.png,stimuli/correct_out2.png,,,,,,,,,,,,,,,,,,,,,,,,,,,,,,,,,,,,,,
,,61405a0426b9171448bc7de7,24,female,2024-04-24_12h33.13.155,stockport_simplified,2022.2.4,Win32,60.24096386,661e456ee6de07e70aa9ef7b,6628df860698476c2608c3f9,,,,,,,,,,,,,,,,,,,,,,,,,,,,,,,,,,342.2105,343.974,"[3,2,5,7,8,6,1,4]","[[-0.3,0.2],[0.3,0.2]]","[[-0.125,-0.2],[0.125,-0.2]]",-0.099074046,-0.212962963,1,0,0,1.2312,o1_image,343.9757,0,344.4746,344.4746,346.4728,0,0,0,0,1,,,,,,,,,,,,,,,,,,,,,,,,,,,,,,,,,,,,,,,,,,,,,,,,,,
,,61405a0426b9171448bc7de7,24,female,2024-04-24_12h33.13.155,stockport_simplified,2022.2.4,Win32,60.24096386,661e456ee6de07e70aa9ef7b,6628df860698476c2608c3f9,,,,,,,,,,,,,,,,,,,,,,,,,,,,,,,,,,,,,,,,,,,,,,,,,,,,,,,,0,26,26,57,1,N,M,D,o2_image,stimuli/out2.png,stimuli/out1.png,stimuli/correct_out2.png,,,,,,,,,,,,,,,,,,,,,,,,,,,,,,,,,,,,,,
,,61405a0426b9171448bc7de7,24,female,2024-04-24_12h33.13.155,stockport_simplified,2022.2.4,Win32,60.24096386,661e456ee6de07e70aa9ef7b,6628df860698476c2608c3f9,,,,,,,,,,,,,,,,,,,,,,,,,,,,,,,,,,346.4739,348.5704,"[3,2,5,7,8,6,1,4]","[[0.3,0.2],[-0.3,0.2]]","[[-0.125,-0.2],[0.125,-0.2]]",0.134259259,-0.17777782,1,0,0,1.5652,o2_image,348.5722,1,349.0699,349.07,351.0682,0,0,0,0,1,,,,,,,,,,,,,,,,,,,,,,,,,,,,,,,,,,,,,,,,,,,,,,,,,,
,,61405a0426b9171448bc7de7,24,female,2024-04-24_12h33.13.155,stockport_simplified,2022.2.4,Win32,60.24096386,661e456ee6de07e70aa9ef7b,6628df860698476c2608c3f9,,,,,,,,,,,,,,,,,,,,,,,,,,,,,,,,,,,,,,,,,,,,,,,,,,,,,,,,0,27,27,49,1,B,Y,N,o2_image,stimuli/out2.png,stimuli/out1.png,stimuli/correct_out2.png,,,,,,,,,,,,,,,,,,,,,,,,,,,,,,,,,,,,,,
,,61405a0426b9171448bc7de7,24,female,2024-04-24_12h33.13.155,stockport_simplified,2022.2.4,Win32,60.24096386,661e456ee6de07e70aa9ef7b,6628df860698476c2608c3f9,,,,,,,,,,,,,,,,,,,,,,,,,,,,,,,,,,351.0692,352.6669,"[3,2,5,7,8,6,1,4]","[[0.3,0.2],[-0.3,0.2]]","[[-0.125,-0.2],[0.125,-0.2]]",0.134259259,-0.17777782,1,0,0,1.0648,o2_image,352.6688,0,353.1661,353.1662,355.1648,0,0,0,0,1,,,,,,,,,,,,,,,,,,,,,,,,,,,,,,,,,,,,,,,,,,,,,,,,,,
,,61405a0426b9171448bc7de7,24,female,2024-04-24_12h33.13.155,stockport_simplified,2022.2.4,Win32,60.24096386,661e456ee6de07e70aa9ef7b,6628df860698476c2608c3f9,,,,,,,,,,,,,,,,,,,,,,,,,,,,,,,,,,,,,,,,,,,,,,,,,,,,,,,,0,28,28,38,1,A,Y,N,o1_image,stimuli/out1.png,stimuli/correct_out1.png,stimuli/out2.png,,,,,,,,,,,,,,,,,,,,,,,,,,,,,,,,,,,,,,
,,61405a0426b9171448bc7de7,24,female,2024-04-24_12h33.13.155,stockport_simplified,2022.2.4,Win32,60.24096386,661e456ee6de07e70aa9ef7b,6628df860698476c2608c3f9,,,,,,,,,,,,,,,,,,,,,,,,,,,,,,,,,,355.1658,357.2631,"[3,2,5,7,8,6,1,4]","[[0.3,0.2],[-0.3,0.2]]","[[-0.125,-0.2],[0.125,-0.2]]",-0.137036995,-0.208333333,1,0,0,1.564,o1_image,357.2652,0,357.7625,357.7626,359.7608,0,0,0,0,1,,,,,,,,,,,,,,,,,,,,,,,,,,,,,,,,,,,,,,,,,,,,,,,,,,
,,61405a0426b9171448bc7de7,24,female,2024-04-24_12h33.13.155,stockport_simplified,2022.2.4,Win32,60.24096386,661e456ee6de07e70aa9ef7b,6628df860698476c2608c3f9,,,,,,,,,,,,,,,,,,,,,,,,,,,,,,,,,,,,,,,,,,,,,,,,,,,,,,,,0,29,29,41,1,B,X,N,o2_image,stimuli/out2.png,stimuli/out1.png,stimuli/correct_out2.png,,,,,,,,,,,,,,,,,,,,,,,,,,,,,,,,,,,,,,
,,61405a0426b9171448bc7de7,24,female,2024-04-24_12h33.13.155,stockport_simplified,2022.2.4,Win32,60.24096386,661e456ee6de07e70aa9ef7b,6628df860698476c2608c3f9,,,,,,,,,,,,,,,,,,,,,,,,,,,,,,,,,,359.762,362.1577,"[3,2,5,7,8,6,1,4]","[[0.3,0.2],[-0.3,0.2]]","[[0.125,-0.2],[-0.125,-0.2]]",0.157407407,-0.176851838,1,0,0,1.864,o1_image,362.1585,0,362.6583,362.6584,364.6568,0,0,0,0,1,,,,,,,,,,,,,,,,,,,,,,,,,,,,,,,,,,,,,,,,,,,,,,,,,,
,,61405a0426b9171448bc7de7,24,female,2024-04-24_12h33.13.155,stockport_simplified,2022.2.4,Win32,60.24096386,661e456ee6de07e70aa9ef7b,6628df860698476c2608c3f9,,,,,,,,,,,,,,,,,,,,,,,,,,,,,,,,,,,,,,,,,,,,,,,,,,,,,,,,0,30,30,44,1,B,X,N,o2_image,stimuli/out2.png,stimuli/out1.png,stimuli/correct_out2.png,,,,,,,,,,,,,,,,,,,,,,,,,,,,,,,,,,,,,,
,,61405a0426b9171448bc7de7,24,female,2024-04-24_12h33.13.155,stockport_simplified,2022.2.4,Win32,60.24096386,661e456ee6de07e70aa9ef7b,6628df860698476c2608c3f9,,,,,,,,,,,,,,,,,,,,,,,,,,,,,,,,,,364.6578,367.3873,"[3,2,5,7,8,6,1,4]","[[-0.3,0.2],[0.3,0.2]]","[[-0.125,-0.2],[0.125,-0.2]]",0.138888889,-0.185185185,1,0,0,2.1973,o2_image,367.4121,0,367.9202,367.9204,369.9185,0,0,0,0,1,,,,,,,,,,,,,,,,,,,,,,,,,,,,,,,,,,,,,,,,,,,,,,,,,,
,,61405a0426b9171448bc7de7,24,female,2024-04-24_12h33.13.155,stockport_simplified,2022.2.4,Win32,60.24096386,661e456ee6de07e70aa9ef7b,6628df860698476c2608c3f9,,,,,,,,,,,,,,,,,,,,,,,,,,,,,,,,,,,,,,,,,,,,,,,,,,,,,,,,0,31,31,33,1,A,X,N,o1_image,stimuli/out1.png,stimuli/correct_out1.png,stimuli/out2.png,,,,,,,,,,,,,,,,,,,,,,,,,,,,,,,,,,,,,,
,,61405a0426b9171448bc7de7,24,female,2024-04-24_12h33.13.155,stockport_simplified,2022.2.4,Win32,60.24096386,661e456ee6de07e70aa9ef7b,6628df860698476c2608c3f9,,,,,,,,,,,,,,,,,,,,,,,,,,,,,,,,,,369.9196,371.9503,"[3,2,5,7,8,6,1,4]","[[0.3,0.2],[-0.3,0.2]]","[[-0.125,-0.2],[0.125,-0.2]]",0.138888889,-0.185185185,1,0,0,1.4977,o2_image,371.9521,0,372.4515,372.4516,374.448,0,0,0,0,1,,,,,,,,,,,,,,,,,,,,,,,,,,,,,,,,,,,,,,,,,,,,,,,,,,
,,61405a0426b9171448bc7de7,24,female,2024-04-24_12h33.13.155,stockport_simplified,2022.2.4,Win32,60.24096386,661e456ee6de07e70aa9ef7b,6628df860698476c2608c3f9,,,,,,,,,,,,,,,,,,,,,,,,,,,,,,,,,,,,,,,,,,,,,,,,,,,,,,,,0,32,32,50,1,N,M,C,o1_image,stimuli/out1.png,stimuli/correct_out1.png,stimuli/out2.png,,,,,,,,,,,,,,,,,,,,,,,,,,,,,,,,,,,,,,
,,61405a0426b9171448bc7de7,24,female,2024-04-24_12h33.13.155,stockport_simplified,2022.2.4,Win32,60.24096386,661e456ee6de07e70aa9ef7b,6628df860698476c2608c3f9,,,,,,,,,,,,,,,,,,,,,,,,,,,,,,,,,,374.4491,376.8126,"[3,2,5,7,8,6,1,4]","[[-0.3,0.2],[0.3,0.2]]","[[0.125,-0.2],[-0.125,-0.2]]",0.138888889,-0.185185185,1,0,0,1.8295,o1_image,376.835,1,377.3117,377.3118,379.3102,0,0,0,0,1,,,,,,,,,,,,,,,,,,,,,,,,,,,,,,,,,,,,,,,,,,,,,,,,,,
,,61405a0426b9171448bc7de7,24,female,2024-04-24_12h33.13.155,stockport_simplified,2022.2.4,Win32,60.24096386,661e456ee6de07e70aa9ef7b,6628df860698476c2608c3f9,,,,,,,,,,,,,,,,,,,,,,,,,,,,,,,,,,,,,,,,,,,,,,,,,,,,,,,,0,33,33,4,1,A,X,N,o1_image,stimuli/out1.png,stimuli/correct_out1.png,stimuli/out2.png,,,,,,,,,,,,,,,,,,,,,,,,,,,,,,,,,,,,,,
,,61405a0426b9171448bc7de7,24,female,2024-04-24_12h33.13.155,stockport_simplified,2022.2.4,Win32,60.24096386,661e456ee6de07e70aa9ef7b,6628df860698476c2608c3f9,,,,,,,,,,,,,,,,,,,,,,,,,,,,,,,,,,379.3111,381.7422,"[3,2,5,7,8,6,1,4]","[[-0.3,0.2],[0.3,0.2]]","[[-0.125,-0.2],[0.125,-0.2]]",0.117592635,-0.184259273,1,0,0,1.8981,o2_image,381.7439,1,382.2414,382.2414,384.2393,0,0,0,0,1,,,,,,,,,,,,,,,,,,,,,,,,,,,,,,,,,,,,,,,,,,,,,,,,,,
,,61405a0426b9171448bc7de7,24,female,2024-04-24_12h33.13.155,stockport_simplified,2022.2.4,Win32,60.24096386,661e456ee6de07e70aa9ef7b,6628df860698476c2608c3f9,,,,,,,,,,,,,,,,,,,,,,,,,,,,,,,,,,,,,,,,,,,,,,,,,,,,,,,,0,34,34,42,1,B,X,N,o2_image,stimuli/out2.png,stimuli/out1.png,stimuli/correct_out2.png,,,,,,,,,,,,,,,,,,,,,,,,,,,,,,,,,,,,,,
,,61405a0426b9171448bc7de7,24,female,2024-04-24_12h33.13.155,stockport_simplified,2022.2.4,Win32,60.24096386,661e456ee6de07e70aa9ef7b,6628df860698476c2608c3f9,,,,,,,,,,,,,,,,,,,,,,,,,,,,,,,,,,384.2403,386.4112,"[3,2,5,7,8,6,1,4]","[[0.3,0.2],[-0.3,0.2]]","[[0.125,-0.2],[-0.125,-0.2]]",-0.099999958,-0.19722225,1,0,0,1.6377,o2_image,386.4127,1,386.9035,386.9036,388.902,0,0,0,0,1,,,,,,,,,,,,,,,,,,,,,,,,,,,,,,,,,,,,,,,,,,,,,,,,,,
,,61405a0426b9171448bc7de7,24,female,2024-04-24_12h33.13.155,stockport_simplified,2022.2.4,Win32,60.24096386,661e456ee6de07e70aa9ef7b,6628df860698476c2608c3f9,,,,,,,,,,,,,,,,,,,,,,,,,,,,,,,,,,,,,,,,,,,,,,,,,,,,,,,,0,35,35,27,1,N,M,D,o2_image,stimuli/out2.png,stimuli/out1.png,stimuli/correct_out2.png,,,,,,,,,,,,,,,,,,,,,,,,,,,,,,,,,,,,,,
,,61405a0426b9171448bc7de7,24,female,2024-04-24_12h33.13.155,stockport_simplified,2022.2.4,Win32,60.24096386,661e456ee6de07e70aa9ef7b,6628df860698476c2608c3f9,,,,,,,,,,,,,,,,,,,,,,,,,,,,,,,,,,388.903,391.0002,"[3,2,5,7,8,6,1,4]","[[0.3,0.2],[-0.3,0.2]]","[[0.125,-0.2],[-0.125,-0.2]]",0.142592607,-0.195370356,1,0,0,1.5639,o1_image,391.002,1,391.4997,391.4998,393.498,0,0,0,0,1,,,,,,,,,,,,,,,,,,,,,,,,,,,,,,,,,,,,,,,,,,,,,,,,,,
,,61405a0426b9171448bc7de7,24,female,2024-04-24_12h33.13.155,stockport_simplified,2022.2.4,Win32,60.24096386,661e456ee6de07e70aa9ef7b,6628df860698476c2608c3f9,,,,,,,,,,,,,,,,,,,,,,,,,,,,,,,,,,,,,,,,,,,,,,,,,,,,,,,,0,36,36,39,1,A,Y,N,o1_image,stimuli/out1.png,stimuli/correct_out1.png,stimuli/out2.png,,,,,,,,,,,,,,,,,,,,,,,,,,,,,,,,,,,,,,
,,61405a0426b9171448bc7de7,24,female,2024-04-24_12h33.13.155,stockport_simplified,2022.2.4,Win32,60.24096386,661e456ee6de07e70aa9ef7b,6628df860698476c2608c3f9,,,,,,,,,,,,,,,,,,,,,,,,,,,,,,,,,,393.4991,395.6952,"[3,2,5,7,8,6,1,4]","[[-0.3,0.2],[0.3,0.2]]","[[0.125,-0.2],[-0.125,-0.2]]",0.142592607,-0.195370356,1,0,0,1.6638,o1_image,395.6961,1,396.1957,396.1958,398.1939,0,0,0,0,1,,,,,,,,,,,,,,,,,,,,,,,,,,,,,,,,,,,,,,,,,,,,,,,,,,
,,61405a0426b9171448bc7de7,24,female,2024-04-24_12h33.13.155,stockport_simplified,2022.2.4,Win32,60.24096386,661e456ee6de07e70aa9ef7b,6628df860698476c2608c3f9,,,,,,,,,,,,,,,,,,,,,,,,,,,,,,,,,,,,,,,,,,,,,,,,,,,,,,,,0,37,37,34,1,A,X,N,o1_image,stimuli/out1.png,stimuli/correct_out1.png,stimuli/out2.png,,,,,,,,,,,,,,,,,,,,,,,,,,,,,,,,,,,,,,
,,61405a0426b9171448bc7de7,24,female,2024-04-24_12h33.13.155,stockport_simplified,2022.2.4,Win32,60.24096386,661e456ee6de07e70aa9ef7b,6628df860698476c2608c3f9,,,,,,,,,,,,,,,,,,,,,,,,,,,,,,,,,,398.1951,400.192,"[3,2,5,7,8,6,1,4]","[[-0.3,0.2],[0.3,0.2]]","[[0.125,-0.2],[-0.125,-0.2]]",-0.086111069,-0.199999986,1,0,0,1.4644,o2_image,400.1935,1,400.6916,400.6917,402.6895,0,0,0,0,1,,,,,,,,,,,,,,,,,,,,,,,,,,,,,,,,,,,,,,,,,,,,,,,,,,
,,61405a0426b9171448bc7de7,24,female,2024-04-24_12h33.13.155,stockport_simplified,2022.2.4,Win32,60.24096386,661e456ee6de07e70aa9ef7b,6628df860698476c2608c3f9,,,,,,,,,,,,,,,,,,,,,,,,,,,,,,,,,,,,,,,,,,,,,,,,,,,,,,,,0,38,38,11,1,B,X,N,o2_image,stimuli/out2.png,stimuli/out1.png,stimuli/correct_out2.png,,,,,,,,,,,,,,,,,,,,,,,,,,,,,,,,,,,,,,
,,61405a0426b9171448bc7de7,24,female,2024-04-24_12h33.13.155,stockport_simplified,2022.2.4,Win32,60.24096386,661e456ee6de07e70aa9ef7b,6628df860698476c2608c3f9,,,,,,,,,,,,,,,,,,,,,,,,,,,,,,,,,,402.6905,404.588,"[3,2,5,7,8,6,1,4]","[[-0.3,0.2],[0.3,0.2]]","[[-0.125,-0.2],[0.125,-0.2]]",-0.086111069,-0.199999986,1,0,0,1.3646,o1_image,404.5904,0,405.0871,405.0872,407.0863,0,0,0,0,1,,,,,,,,,,,,,,,,,,,,,,,,,,,,,,,,,,,,,,,,,,,,,,,,,,
,,61405a0426b9171448bc7de7,24,female,2024-04-24_12h33.13.155,stockport_simplified,2022.2.4,Win32,60.24096386,661e456ee6de07e70aa9ef7b,6628df860698476c2608c3f9,,,,,,,,,,,,,,,,,,,,,,,,,,,,,,,,,,,,,,,,,,,,,,,,,,,,,,,,0,39,39,15,1,B,Y,N,o2_image,stimuli/out2.png,stimuli/out1.png,stimuli/correct_out2.png,,,,,,,,,,,,,,,,,,,,,,,,,,,,,,,,,,,,,,
,,61405a0426b9171448bc7de7,24,female,2024-04-24_12h33.13.155,stockport_simplified,2022.2.4,Win32,60.24096386,661e456ee6de07e70aa9ef7b,6628df860698476c2608c3f9,,,,,,,,,,,,,,,,,,,,,,,,,,,,,,,,,,407.088,409.1849,"[3,2,5,7,8,6,1,4]","[[0.3,0.2],[-0.3,0.2]]","[[0.125,-0.2],[-0.125,-0.2]]",-0.101851852,-0.175925926,1,0,0,1.5637,o2_image,409.187,0,409.6912,409.6913,411.6831,0,0,0,0,1,,,,,,,,,,,,,,,,,,,,,,,,,,,,,,,,,,,,,,,,,,,,,,,,,,
,,61405a0426b9171448bc7de7,24,female,2024-04-24_12h33.13.155,stockport_simplified,2022.2.4,Win32,60.24096386,661e456ee6de07e70aa9ef7b,6628df860698476c2608c3f9,,,,,,,,,,,,,,,,,,,,,,,,,,,,,,,,,,,,,,,,,,,,,,,,,,,,,,,,0,40,40,0,1,A,X,N,o1_image,stimuli/out1.png,stimuli/correct_out1.png,stimuli/out2.png,,,,,,,,,,,,,,,,,,,,,,,,,,,,,,,,,,,,,,
,,61405a0426b9171448bc7de7,24,female,2024-04-24_12h33.13.155,stockport_simplified,2022.2.4,Win32,60.24096386,661e456ee6de07e70aa9ef7b,6628df860698476c2608c3f9,,,,,,,,,,,,,,,,,,,,,,,,,,,,,,,,,,411.6843,413.8474,"[3,2,5,7,8,6,1,4]","[[-0.3,0.2],[0.3,0.2]]","[[0.125,-0.2],[-0.125,-0.2]]",0.118518547,-0.17777782,1,0,0,1.6301,o1_image,413.8492,1,414.3479,414.348,416.3451,0,0,0,0,1,,,,,,,,,,,,,,,,,,,,,,,,,,,,,,,,,,,,,,,,,,,,,,,,,,
,,61405a0426b9171448bc7de7,24,female,2024-04-24_12h33.13.155,stockport_simplified,2022.2.4,Win32,60.24096386,661e456ee6de07e70aa9ef7b,6628df860698476c2608c3f9,,,,,,,,,,,,,,,,,,,,,,,,,,,,,,,,,,,,,,,,,,,,,,,,,,,,,,,,0,41,41,7,1,A,Y,N,o1_image,stimuli/out1.png,stimuli/correct_out1.png,stimuli/out2.png,,,,,,,,,,,,,,,,,,,,,,,,,,,,,,,,,,,,,,
,,61405a0426b9171448bc7de7,24,female,2024-04-24_12h33.13.155,stockport_simplified,2022.2.4,Win32,60.24096386,661e456ee6de07e70aa9ef7b,6628df860698476c2608c3f9,,,,,,,,,,,,,,,,,,,,,,,,,,,,,,,,,,416.3461,418.3441,"[3,2,5,7,8,6,1,4]","[[0.3,0.2],[-0.3,0.2]]","[[0.125,-0.2],[-0.125,-0.2]]",-0.086111069,-0.183333362,1,0,0,1.4649,o2_image,418.347,1,418.8427,418.8428,420.8413,0,0,0,0,1,,,,,,,,,,,,,,,,,,,,,,,,,,,,,,,,,,,,,,,,,,,,,,,,,,
,,61405a0426b9171448bc7de7,24,female,2024-04-24_12h33.13.155,stockport_simplified,2022.2.4,Win32,60.24096386,661e456ee6de07e70aa9ef7b,6628df860698476c2608c3f9,,,,,,,,,,,,,,,,,,,,,,,,,,,,,,,,,,,,,,,,,,,,,,,,,,,,,,,,0,42,42,18,1,B,Y,N,o2_image,stimuli/out2.png,stimuli/out1.png,stimuli/correct_out2.png,,,,,,,,,,,,,,,,,,,,,,,,,,,,,,,,,,,,,,
,,61405a0426b9171448bc7de7,24,female,2024-04-24_12h33.13.155,stockport_simplified,2022.2.4,Win32,60.24096386,661e456ee6de07e70aa9ef7b,6628df860698476c2608c3f9,,,,,,,,,,,,,,,,,,,,,,,,,,,,,,,,,,420.8426,423.0067,"[3,2,5,7,8,6,1,4]","[[-0.3,0.2],[0.3,0.2]]","[[-0.125,-0.2],[0.125,-0.2]]",0.141666695,-0.210185228,1,0,0,1.631,o2_image,423.009,1,423.5057,423.5057,425.5032,0,0,0,0,1,,,,,,,,,,,,,,,,,,,,,,,,,,,,,,,,,,,,,,,,,,,,,,,,,,
,,61405a0426b9171448bc7de7,24,female,2024-04-24_12h33.13.155,stockport_simplified,2022.2.4,Win32,60.24096386,661e456ee6de07e70aa9ef7b,6628df860698476c2608c3f9,,,,,,,,,,,,,,,,,,,,,,,,,,,,,,,,,,,,,,,,,,,,,,,,,,,,,,,,0,43,43,12,1,B,X,N,o2_image,stimuli/out2.png,stimuli/out1.png,stimuli/correct_out2.png,,,,,,,,,,,,,,,,,,,,,,,,,,,,,,,,,,,,,,
,,61405a0426b9171448bc7de7,24,female,2024-04-24_12h33.13.155,stockport_simplified,2022.2.4,Win32,60.24096386,661e456ee6de07e70aa9ef7b,6628df860698476c2608c3f9,,,,,,,,,,,,,,,,,,,,,,,,,,,,,,,,,,425.5047,427.2687,"[3,2,5,7,8,6,1,4]","[[0.3,0.2],[-0.3,0.2]]","[[0.125,-0.2],[-0.125,-0.2]]",-0.076851809,-0.213888875,1,0,0,1.2312,o2_image,427.2708,0,427.7684,427.7685,429.7666,0,0,0,0,1,,,,,,,,,,,,,,,,,,,,,,,,,,,,,,,,,,,,,,,,,,,,,,,,,,
,,61405a0426b9171448bc7de7,24,female,2024-04-24_12h33.13.155,stockport_simplified,2022.2.4,Win32,60.24096386,661e456ee6de07e70aa9ef7b,6628df860698476c2608c3f9,,,,,,,,,,,,,,,,,,,,,,,,,,,,,,,,,,,,,,,,,,,,,,,,,,,,,,,,0,44,44,20,1,N,M,C,o1_image,stimuli/out1.png,stimuli/correct_out1.png,stimuli/out2.png,,,,,,,,,,,,,,,,,,,,,,,,,,,,,,,,,,,,,,
,,61405a0426b9171448bc7de7,24,female,2024-04-24_12h33.13.155,stockport_simplified,2022.2.4,Win32,60.24096386,661e456ee6de07e70aa9ef7b,6628df860698476c2608c3f9,,,,,,,,,,,,,,,,,,,,,,,,,,,,,,,,,,429.7676,431.8314,"[3,2,5,7,8,6,1,4]","[[0.3,0.2],[-0.3,0.2]]","[[0.125,-0.2],[-0.125,-0.2]]",0.116666653,-0.187037079,1,0,0,1.5324,o1_image,431.8341,1,432.3309,432.3309,434.3294,0,0,0,0,1,,,,,,,,,,,,,,,,,,,,,,,,,,,,,,,,,,,,,,,,,,,,,,,,,,
,,61405a0426b9171448bc7de7,24,female,2024-04-24_12h33.13.155,stockport_simplified,2022.2.4,Win32,60.24096386,661e456ee6de07e70aa9ef7b,6628df860698476c2608c3f9,,,,,,,,,,,,,,,,,,,,,,,,,,,,,,,,,,,,,,,,,,,,,,,,,,,,,,,,0,45,45,2,1,A,X,N,o1_image,stimuli/out1.png,stimuli/correct_out1.png,stimuli/out2.png,,,,,,,,,,,,,,,,,,,,,,,,,,,,,,,,,,,,,,
,,61405a0426b9171448bc7de7,24,female,2024-04-24_12h33.13.155,stockport_simplified,2022.2.4,Win32,60.24096386,661e456ee6de07e70aa9ef7b,6628df860698476c2608c3f9,,,,,,,,,,,,,,,,,,,,,,,,,,,,,,,,,,434.3303,436.3611,"[3,2,5,7,8,6,1,4]","[[-0.3,0.2],[0.3,0.2]]","[[-0.125,-0.2],[0.125,-0.2]]",0.095370399,-0.161111125,1,0,0,1.4977,o2_image,436.3646,0,436.8598,436.8598,438.8584,0,0,0,0,1,,,,,,,,,,,,,,,,,,,,,,,,,,,,,,,,,,,,,,,,,,,,,,,,,,
,,61405a0426b9171448bc7de7,24,female,2024-04-24_12h33.13.155,stockport_simplified,2022.2.4,Win32,60.24096386,661e456ee6de07e70aa9ef7b,6628df860698476c2608c3f9,,,,,,,,,,,,,,,,,,,,,,,,,,,,,,,,,,,,,,,,,,,,,,,,,,,,,,,,0,46,46,5,1,A,Y,N,o1_image,stimuli/out1.png,stimuli/correct_out1.png,stimuli/out2.png,,,,,,,,,,,,,,,,,,,,,,,,,,,,,,,,,,,,,,
,,61405a0426b9171448bc7de7,24,female,2024-04-24_12h33.13.155,stockport_simplified,2022.2.4,Win32,60.24096386,661e456ee6de07e70aa9ef7b,6628df860698476c2608c3f9,,,,,,,,,,,,,,,,,,,,,,,,,,,,,,,,,,438.86,441.857,"[3,2,5,7,8,6,1,4]","[[0.3,0.2],[-0.3,0.2]]","[[0.125,-0.2],[-0.125,-0.2]]",-0.073148162,-0.174074102,1,0,0,2.4641,o2_image,441.8794,1,442.3572,442.3573,444.3547,0,0,0,0,1,,,,,,,,,,,,,,,,,,,,,,,,,,,,,,,,,,,,,,,,,,,,,,,,,,
,,61405a0426b9171448bc7de7,24,female,2024-04-24_12h33.13.155,stockport_simplified,2022.2.4,Win32,60.24096386,661e456ee6de07e70aa9ef7b,6628df860698476c2608c3f9,,,,,,,,,,,,,,,,,,,,,,,,,,,,,,,,,,,,,,,,,,,,,,,,,,,,,,,,0,47,47,29,1,N,M,D,o2_image,stimuli/out2.png,stimuli/out1.png,stimuli/correct_out2.png,,,,,,,,,,,,,,,,,,,,,,,,,,,,,,,,,,,,,,
,,61405a0426b9171448bc7de7,24,female,2024-04-24_12h33.13.155,stockport_simplified,2022.2.4,Win32,60.24096386,661e456ee6de07e70aa9ef7b,6628df860698476c2608c3f9,,,,,,,,,,,,,,,,,,,,,,,,,,,,,,,,,,444.3555,446.9183,"[3,2,5,7,8,6,1,4]","[[-0.3,0.2],[0.3,0.2]]","[[0.125,-0.2],[-0.125,-0.2]]",0.178703732,-0.223148134,1,0,0,2.0315,o1_image,446.9201,1,447.4188,447.4188,449.4158,0,0,0,0,1,,,,,,,,,,,,,,,,,,,,,,,,,,,,,,,,,,,,,,,,,,,,,,,,,,
,,61405a0426b9171448bc7de7,24,female,2024-04-24_12h33.13.155,stockport_simplified,2022.2.4,Win32,60.24096386,661e456ee6de07e70aa9ef7b,6628df860698476c2608c3f9,,,,,,,,,,,,,,,,,,,,,,,,,,,,,,,,,,,,,,,,,,,,,,,,,,,,,,,,0,48,48,53,1,N,M,C,o1_image,stimuli/out1.png,stimuli/correct_out1.png,stimuli/out2.png,,,,,,,,,,,,,,,,,,,,,,,,,,,,,,,,,,,,,,
,,61405a0426b9171448bc7de7,24,female,2024-04-24_12h33.13.155,stockport_simplified,2022.2.4,Win32,60.24096386,661e456ee6de07e70aa9ef7b,6628df860698476c2608c3f9,,,,,,,,,,,,,,,,,,,,,,,,,,,,,,,,,,449.4173,451.5971,"[3,2,5,7,8,6,1,4]","[[0.3,0.2],[-0.3,0.2]]","[[-0.125,-0.2],[0.125,-0.2]]",-0.093518504,-0.20185188,1,0,0,1.6462,o1_image,451.599,1,452.0972,452.0973,454.0956,0,0,0,0,1,,,,,,,,,,,,,,,,,,,,,,,,,,,,,,,,,,,,,,,,,,,,,,,,,,
,,61405a0426b9171448bc7de7,24,female,2024-04-24_12h33.13.155,stockport_simplified,2022.2.4,Win32,60.24096386,661e456ee6de07e70aa9ef7b,6628df860698476c2608c3f9,,,,,,,,,,,,,,,,,,,,,,,,,,,,,,,,,,,,,,,,,,,,,,,,,,,,,,,,0,49,49,3,1,A,X,N,o1_image,stimuli/out1.png,stimuli/correct_out1.png,stimuli/out2.png,,,,,,,,,,,,,,,,,,,,,,,,,,,,,,,,,,,,,,
,,61405a0426b9171448bc7de7,24,female,2024-04-24_12h33.13.155,stockport_simplified,2022.2.4,Win32,60.24096386,661e456ee6de07e70aa9ef7b,6628df860698476c2608c3f9,,,,,,,,,,,,,,,,,,,,,,,,,,,,,,,,,,454.0969,455.5947,"[3,2,5,7,8,6,1,4]","[[0.3,0.2],[-0.3,0.2]]","[[0.125,-0.2],[-0.125,-0.2]]",-0.093518504,-0.20185188,1,0,0,0.9646,o2_image,455.5976,1,456.0936,456.0937,458.0928,0,0,0,0,1,,,,,,,,,,,,,,,,,,,,,,,,,,,,,,,,,,,,,,,,,,,,,,,,,,
,,61405a0426b9171448bc7de7,24,female,2024-04-24_12h33.13.155,stockport_simplified,2022.2.4,Win32,60.24096386,661e456ee6de07e70aa9ef7b,6628df860698476c2608c3f9,,,,,,,,,,,,,,,,,,,,,,,,,,,,,,,,,,,,,,,,,,,,,,,,,,,,,,,,0,50,50,14,1,B,X,N,o2_image,stimuli/out2.png,stimuli/out1.png,stimuli/correct_out2.png,,,,,,,,,,,,,,,,,,,,,,,,,,,,,,,,,,,,,,
,,61405a0426b9171448bc7de7,24,female,2024-04-24_12h33.13.155,stockport_simplified,2022.2.4,Win32,60.24096386,661e456ee6de07e70aa9ef7b,6628df860698476c2608c3f9,,,,,,,,,,,,,,,,,,,,,,,,,,,,,,,,,,458.0942,460.158,"[3,2,5,7,8,6,1,4]","[[-0.3,0.2],[0.3,0.2]]","[[-0.125,-0.2],[0.125,-0.2]]",0.167592578,-0.191666709,1,0,0,1.5318,o2_image,460.1618,0,460.6568,460.6568,462.6552,0,0,0,0,1,,,,,,,,,,,,,,,,,,,,,,,,,,,,,,,,,,,,,,,,,,,,,,,,,,
,,61405a0426b9171448bc7de7,24,female,2024-04-24_12h33.13.155,stockport_simplified,2022.2.4,Win32,60.24096386,661e456ee6de07e70aa9ef7b,6628df860698476c2608c3f9,,,,,,,,,,,,,,,,,,,,,,,,,,,,,,,,,,,,,,,,,,,,,,,,,,,,,,,,0,51,51,21,1,N,M,C,o1_image,stimuli/out1.png,stimuli/correct_out1.png,stimuli/out2.png,,,,,,,,,,,,,,,,,,,,,,,,,,,,,,,,,,,,,,
,,61405a0426b9171448bc7de7,24,female,2024-04-24_12h33.13.155,stockport_simplified,2022.2.4,Win32,60.24096386,661e456ee6de07e70aa9ef7b,6628df860698476c2608c3f9,,,,,,,,,,,,,,,,,,,,,,,,,,,,,,,,,,462.6563,465.1861,"[3,2,5,7,8,6,1,4]","[[-0.3,0.2],[0.3,0.2]]","[[-0.125,-0.2],[0.125,-0.2]]",0.126851894,-0.193518533,1,0,0,1.9972,o2_image,465.1999,1,465.6851,465.6852,467.6831,0,0,0,0,1,,,,,,,,,,,,,,,,,,,,,,,,,,,,,,,,,,,,,,,,,,,,,,,,,,
,,61405a0426b9171448bc7de7,24,female,2024-04-24_12h33.13.155,stockport_simplified,2022.2.4,Win32,60.24096386,661e456ee6de07e70aa9ef7b,6628df860698476c2608c3f9,,,,,,,,,,,,,,,,,,,,,,,,,,,,,,,,,,,,,,,,,,,,,,,,,,,,,,,,0,52,52,26,1,N,M,D,o2_image,stimuli/out2.png,stimuli/out1.png,stimuli/correct_out2.png,,,,,,,,,,,,,,,,,,,,,,,,,,,,,,,,,,,,,,
,,61405a0426b9171448bc7de7,24,female,2024-04-24_12h33.13.155,stockport_simplified,2022.2.4,Win32,60.24096386,661e456ee6de07e70aa9ef7b,6628df860698476c2608c3f9,,,,,,,,,,,,,,,,,,,,,,,,,,,,,,,,,,467.6841,469.2165,"[3,2,5,7,8,6,1,4]","[[-0.3,0.2],[0.3,0.2]]","[[-0.125,-0.2],[0.125,-0.2]]",0.126851894,-0.193518533,1,0,0,1.0007,o2_image,469.2197,1,469.7155,469.7156,471.7135,0,0,0,0,1,,,,,,,,,,,,,,,,,,,,,,,,,,,,,,,,,,,,,,,,,,,,,,,,,,
,,61405a0426b9171448bc7de7,24,female,2024-04-24_12h33.13.155,stockport_simplified,2022.2.4,Win32,60.24096386,661e456ee6de07e70aa9ef7b,6628df860698476c2608c3f9,,,,,,,,,,,,,,,,,,,,,,,,,,,,,,,,,,,,,,,,,,,,,,,,,,,,,,,,0,53,53,28,1,N,M,D,o2_image,stimuli/out2.png,stimuli/out1.png,stimuli/correct_out2.png,,,,,,,,,,,,,,,,,,,,,,,,,,,,,,,,,,,,,,
,,61405a0426b9171448bc7de7,24,female,2024-04-24_12h33.13.155,stockport_simplified,2022.2.4,Win32,60.24096386,661e456ee6de07e70aa9ef7b,6628df860698476c2608c3f9,,,,,,,,,,,,,,,,,,,,,,,,,,,,,,,,,,471.7145,474.0446,"[3,2,5,7,8,6,1,4]","[[-0.3,0.2],[0.3,0.2]]","[[0.125,-0.2],[-0.125,-0.2]]",0.112963005,-0.203703704,1,0,0,1.7946,o1_image,474.0465,0,474.5447,474.5447,476.5443,0,0,0,0,1,,,,,,,,,,,,,,,,,,,,,,,,,,,,,,,,,,,,,,,,,,,,,,,,,,
,,61405a0426b9171448bc7de7,24,female,2024-04-24_12h33.13.155,stockport_simplified,2022.2.4,Win32,60.24096386,661e456ee6de07e70aa9ef7b,6628df860698476c2608c3f9,,,,,,,,,,,,,,,,,,,,,,,,,,,,,,,,,,,,,,,,,,,,,,,,,,,,,,,,0,54,54,40,1,B,X,N,o2_image,stimuli/out2.png,stimuli/out1.png,stimuli/correct_out2.png,,,,,,,,,,,,,,,,,,,,,,,,,,,,,,,,,,,,,,
,,61405a0426b9171448bc7de7,24,female,2024-04-24_12h33.13.155,stockport_simplified,2022.2.4,Win32,60.24096386,661e456ee6de07e70aa9ef7b,6628df860698476c2608c3f9,,,,,,,,,,,,,,,,,,,,,,,,,,,,,,,,,,476.5455,478.7763,"[3,2,5,7,8,6,1,4]","[[0.3,0.2],[-0.3,0.2]]","[[-0.125,-0.2],[0.125,-0.2]]",-0.114814829,-0.200925968,1,0,0,1.6996,o1_image,478.7785,1,479.2741,479.2741,481.2723,0,0,0,0,1,,,,,,,,,,,,,,,,,,,,,,,,,,,,,,,,,,,,,,,,,,,,,,,,,,
,,61405a0426b9171448bc7de7,24,female,2024-04-24_12h33.13.155,stockport_simplified,2022.2.4,Win32,60.24096386,661e456ee6de07e70aa9ef7b,6628df860698476c2608c3f9,,,,,,,,,,,,,,,,,,,,,,,,,,,,,,,,,,,,,,,,,,,,,,,,,,,,,,,,0,55,55,23,1,N,M,C,o1_image,stimuli/out1.png,stimuli/correct_out1.png,stimuli/out2.png,,,,,,,,,,,,,,,,,,,,,,,,,,,,,,,,,,,,,,
,,61405a0426b9171448bc7de7,24,female,2024-04-24_12h33.13.155,stockport_simplified,2022.2.4,Win32,60.24096386,661e456ee6de07e70aa9ef7b,6628df860698476c2608c3f9,,,,,,,,,,,,,,,,,,,,,,,,,,,,,,,,,,481.273,483.1753,"[3,2,5,7,8,6,1,4]","[[-0.3,0.2],[0.3,0.2]]","[[-0.125,-0.2],[0.125,-0.2]]",-0.114814829,-0.200925968,1,0,0,1.3708,o1_image,483.1776,0,483.6697,483.6698,485.6684,0,0,0,0,1,,,,,,,,,,,,,,,,,,,,,,,,,,,,,,,,,,,,,,,,,,,,,,,,,,
,,61405a0426b9171448bc7de7,24,female,2024-04-24_12h33.13.155,stockport_simplified,2022.2.4,Win32,60.24096386,661e456ee6de07e70aa9ef7b,6628df860698476c2608c3f9,,,,,,,,,,,,,,,,,,,,,,,,,,,,,,,,,,,,,,,,,,,,,,,,,,,,,,,,0,56,56,43,1,B,X,N,o2_image,stimuli/out2.png,stimuli/out1.png,stimuli/correct_out2.png,,,,,,,,,,,,,,,,,,,,,,,,,,,,,,,,,,,,,,
,,61405a0426b9171448bc7de7,24,female,2024-04-24_12h33.13.155,stockport_simplified,2022.2.4,Win32,60.24096386,661e456ee6de07e70aa9ef7b,6628df860698476c2608c3f9,,,,,,,,,,,,,,,,,,,,,,,,,,,,,,,,,,485.6698,488.4986,"[3,2,5,7,8,6,1,4]","[[0.3,0.2],[-0.3,0.2]]","[[0.125,-0.2],[-0.125,-0.2]]",0.100000028,-0.236111111,1,0,0,2.2952,o1_image,488.5014,1,488.9991,488.9991,490.9981,0,0,0,0,1,,,,,,,,,,,,,,,,,,,,,,,,,,,,,,,,,,,,,,,,,,,,,,,,,,
,,61405a0426b9171448bc7de7,24,female,2024-04-24_12h33.13.155,stockport_simplified,2022.2.4,Win32,60.24096386,661e456ee6de07e70aa9ef7b,6628df860698476c2608c3f9,,,,,,,,,,,,,,,,,,,,,,,,,,,,,,,,,,,,,,,,,,,,,,,,,,,,,,,,0,57,57,8,1,A,Y,N,o1_image,stimuli/out1.png,stimuli/correct_out1.png,stimuli/out2.png,,,,,,,,,,,,,,,,,,,,,,,,,,,,,,,,,,,,,,
,,61405a0426b9171448bc7de7,24,female,2024-04-24_12h33.13.155,stockport_simplified,2022.2.4,Win32,60.24096386,661e456ee6de07e70aa9ef7b,6628df860698476c2608c3f9,,,,,,,,,,,,,,,,,,,,,,,,,,,,,,,,,,490.9997,493.2616,"[3,2,5,7,8,6,1,4]","[[0.3,0.2],[-0.3,0.2]]","[[-0.125,-0.2],[0.125,-0.2]]",-0.101851852,-0.210185228,1,0,0,1.7308,o1_image,493.284,1,493.7615,493.7616,495.7608,0,0,0,0,1,,,,,,,,,,,,,,,,,,,,,,,,,,,,,,,,,,,,,,,,,,,,,,,,,,
,,61405a0426b9171448bc7de7,24,female,2024-04-24_12h33.13.155,stockport_simplified,2022.2.4,Win32,60.24096386,661e456ee6de07e70aa9ef7b,6628df860698476c2608c3f9,,,,,,,,,,,,,,,,,,,,,,,,,,,,,,,,,,,,,,,,,,,,,,,,,,,,,,,,0,58,58,24,1,N,M,C,o1_image,stimuli/out1.png,stimuli/correct_out1.png,stimuli/out2.png,,,,,,,,,,,,,,,,,,,,,,,,,,,,,,,,,,,,,,
,,61405a0426b9171448bc7de7,24,female,2024-04-24_12h33.13.155,stockport_simplified,2022.2.4,Win32,60.24096386,661e456ee6de07e70aa9ef7b,6628df860698476c2608c3f9,,,,,,,,,,,,,,,,,,,,,,,,,,,,,,,,,,495.7617,497.9598,"[3,2,5,7,8,6,1,4]","[[0.3,0.2],[-0.3,0.2]]","[[0.125,-0.2],[-0.125,-0.2]]",-0.092592593,-0.212037051,1,0,0,1.6667,o2_image,497.9613,1,498.4567,498.4569,500.4554,0,0,0,0,1,,,,,,,,,,,,,,,,,,,,,,,,,,,,,,,,,,,,,,,,,,,,,,,,,,
,,61405a0426b9171448bc7de7,24,female,2024-04-24_12h33.13.155,stockport_simplified,2022.2.4,Win32,60.24096386,661e456ee6de07e70aa9ef7b,6628df860698476c2608c3f9,,,,,,,,,,,,,,,,,,,,,,,,,,,,,,,,,,,,,,,,,,,,,,,,,,,,,,,,0,59,59,10,1,B,X,N,o2_image,stimuli/out2.png,stimuli/out1.png,stimuli/correct_out2.png,,,,,,,,,,,,,,,,,,,,,,,,,,,,,,,,,,,,,,
,,61405a0426b9171448bc7de7,24,female,2024-04-24_12h33.13.155,stockport_simplified,2022.2.4,Win32,60.24096386,661e456ee6de07e70aa9ef7b,6628df860698476c2608c3f9,,,,,,,,,,,,,,,,,,,,,,,,,,,,,,,,,,500.4564,501.8869,"[3,2,5,7,8,6,1,4]","[[0.3,0.2],[-0.3,0.2]]","[[0.125,-0.2],[-0.125,-0.2]]",-0.092592593,-0.212037051,1,0,0,0.8959,o2_image,501.8892,1,502.3875,502.3875,504.3861,0,0,0,0,1,,,,,,,,,,,,,,,,,,,,,,,,,,,,,,,,,,,,,,,,,,,,,,,,,,
,,61405a0426b9171448bc7de7,24,female,2024-04-24_12h33.13.155,stockport_simplified,2022.2.4,Win32,60.24096386,661e456ee6de07e70aa9ef7b,6628df860698476c2608c3f9,,,,,,,,,,,,,,,,,,,,,,,,,,,,,,,,,,,,,,,,,,,,,,,,,,,,,,,,1,0,60,40,1,B,X,N,o2_image,stimuli/out2.png,stimuli/out1.png,stimuli/correct_out2.png,,,,,,,,,,,,,,,,,,,,,,,,,,,,,,,,,,,,,,
,,61405a0426b9171448bc7de7,24,female,2024-04-24_12h33.13.155,stockport_simplified,2022.2.4,Win32,60.24096386,661e456ee6de07e70aa9ef7b,6628df860698476c2608c3f9,,,,,,,,,,,,,,,,,,,,,,,,,,,,,,,,,,504.3871,506.784,"[3,2,5,7,8,6,1,4]","[[0.3,0.2],[-0.3,0.2]]","[[-0.125,-0.2],[0.125,-0.2]]",-0.110185199,-0.210185228,1,0,0,1.8663,o1_image,506.787,0,507.2822,507.2822,509.2805,0,0,0,0,1,,,,,,,,,,,,,,,,,,,,,,,,,,,,,,,,,,,,,,,,,,,,,,,,,,
,,61405a0426b9171448bc7de7,24,female,2024-04-24_12h33.13.155,stockport_simplified,2022.2.4,Win32,60.24096386,661e456ee6de07e70aa9ef7b,6628df860698476c2608c3f9,,,,,,,,,,,,,,,,,,,,,,,,,,,,,,,,,,,,,,,,,,,,,,,,,,,,,,,,1,1,61,45,1,B,Y,N,o2_image,stimuli/out2.png,stimuli/out1.png,stimuli/correct_out2.png,,,,,,,,,,,,,,,,,,,,,,,,,,,,,,,,,,,,,,
,,61405a0426b9171448bc7de7,24,female,2024-04-24_12h33.13.155,stockport_simplified,2022.2.4,Win32,60.24096386,661e456ee6de07e70aa9ef7b,6628df860698476c2608c3f9,,,,,,,,,,,,,,,,,,,,,,,,,,,,,,,,,,509.2819,511.2795,"[3,2,5,7,8,6,1,4]","[[-0.3,0.2],[0.3,0.2]]","[[0.125,-0.2],[-0.125,-0.2]]",-0.110185199,-0.210185228,1,0,0,1.4635,o2_image,511.2807,0,511.7789,511.7789,513.7773,0,0,0,0,1,,,,,,,,,,,,,,,,,,,,,,,,,,,,,,,,,,,,,,,,,,,,,,,,,,
,,61405a0426b9171448bc7de7,24,female,2024-04-24_12h33.13.155,stockport_simplified,2022.2.4,Win32,60.24096386,661e456ee6de07e70aa9ef7b,6628df860698476c2608c3f9,,,,,,,,,,,,,,,,,,,,,,,,,,,,,,,,,,,,,,,,,,,,,,,,,,,,,,,,1,2,62,23,1,N,M,C,o1_image,stimuli/out1.png,stimuli/correct_out1.png,stimuli/out2.png,,,,,,,,,,,,,,,,,,,,,,,,,,,,,,,,,,,,,,
,,61405a0426b9171448bc7de7,24,female,2024-04-24_12h33.13.155,stockport_simplified,2022.2.4,Win32,60.24096386,661e456ee6de07e70aa9ef7b,6628df860698476c2608c3f9,,,,,,,,,,,,,,,,,,,,,,,,,,,,,,,,,,513.7787,515.4418,"[3,2,5,7,8,6,1,4]","[[0.3,0.2],[-0.3,0.2]]","[[0.125,-0.2],[-0.125,-0.2]]",-0.110185199,-0.210185228,1,0,0,1.1318,o2_image,515.4436,1,515.9415,515.9415,517.94,0,0,0,0,1,,,,,,,,,,,,,,,,,,,,,,,,,,,,,,,,,,,,,,,,,,,,,,,,,,
,,61405a0426b9171448bc7de7,24,female,2024-04-24_12h33.13.155,stockport_simplified,2022.2.4,Win32,60.24096386,661e456ee6de07e70aa9ef7b,6628df860698476c2608c3f9,,,,,,,,,,,,,,,,,,,,,,,,,,,,,,,,,,,,,,,,,,,,,,,,,,,,,,,,1,3,63,29,1,N,M,D,o2_image,stimuli/out2.png,stimuli/out1.png,stimuli/correct_out2.png,,,,,,,,,,,,,,,,,,,,,,,,,,,,,,,,,,,,,,
,,61405a0426b9171448bc7de7,24,female,2024-04-24_12h33.13.155,stockport_simplified,2022.2.4,Win32,60.24096386,661e456ee6de07e70aa9ef7b,6628df860698476c2608c3f9,,,,,,,,,,,,,,,,,,,,,,,,,,,,,,,,,,517.9412,521.0048,"[3,2,5,7,8,6,1,4]","[[-0.3,0.2],[0.3,0.2]]","[[-0.125,-0.2],[0.125,-0.2]]",-0.044444402,-0.217592593,1,0,0,1.9307,o1_image,521.0083,0,521.503,521.503,523.5013,0,0,0,0,1,,,,,,,,,,,,,,,,,,,,,,,,,,,,,,,,,,,,,,,,,,,,,,,,,,
,,61405a0426b9171448bc7de7,24,female,2024-04-24_12h33.13.155,stockport_simplified,2022.2.4,Win32,60.24096386,661e456ee6de07e70aa9ef7b,6628df860698476c2608c3f9,,,,,,,,,,,,,,,,,,,,,,,,,,,,,,,,,,,,,,,,,,,,,,,,,,,,,,,,1,4,64,15,1,B,Y,N,o2_image,stimuli/out2.png,stimuli/out1.png,stimuli/correct_out2.png,,,,,,,,,,,,,,,,,,,,,,,,,,,,,,,,,,,,,,
,,61405a0426b9171448bc7de7,24,female,2024-04-24_12h33.13.155,stockport_simplified,2022.2.4,Win32,60.24096386,661e456ee6de07e70aa9ef7b,6628df860698476c2608c3f9,,,,,,,,,,,,,,,,,,,,,,,,,,,,,,,,,,523.502,526.2998,"[3,2,5,7,8,6,1,4]","[[0.3,0.2],[-0.3,0.2]]","[[-0.125,-0.2],[0.125,-0.2]]",0.172222208,-0.174074102,1,0,0,2.2646,o2_image,526.303,1,526.7978,526.7978,528.7976,0,0,0,0,1,,,,,,,,,,,,,,,,,,,,,,,,,,,,,,,,,,,,,,,,,,,,,,,,,,
,,61405a0426b9171448bc7de7,24,female,2024-04-24_12h33.13.155,stockport_simplified,2022.2.4,Win32,60.24096386,661e456ee6de07e70aa9ef7b,6628df860698476c2608c3f9,,,,,,,,,,,,,,,,,,,,,,,,,,,,,,,,,,,,,,,,,,,,,,,,,,,,,,,,1,5,65,57,1,N,M,D,o2_image,stimuli/out2.png,stimuli/out1.png,stimuli/correct_out2.png,,,,,,,,,,,,,,,,,,,,,,,,,,,,,,,,,,,,,,
,,61405a0426b9171448bc7de7,24,female,2024-04-24_12h33.13.155,stockport_simplified,2022.2.4,Win32,60.24096386,661e456ee6de07e70aa9ef7b,6628df860698476c2608c3f9,,,,,,,,,,,,,,,,,,,,,,,,,,,,,,,,,,528.799,530.7639,"[3,2,5,7,8,6,1,4]","[[0.3,0.2],[-0.3,0.2]]","[[-0.125,-0.2],[0.125,-0.2]]",-0.113888847,-0.199999986,1,0,0,1.4323,o1_image,530.7675,1,531.2621,531.2621,533.2602,0,0,0,0,1,,,,,,,,,,,,,,,,,,,,,,,,,,,,,,,,,,,,,,,,,,,,,,,,,,
,,61405a0426b9171448bc7de7,24,female,2024-04-24_12h33.13.155,stockport_simplified,2022.2.4,Win32,60.24096386,661e456ee6de07e70aa9ef7b,6628df860698476c2608c3f9,,,,,,,,,,,,,,,,,,,,,,,,,,,,,,,,,,,,,,,,,,,,,,,,,,,,,,,,1,6,66,34,1,A,X,N,o1_image,stimuli/out1.png,stimuli/correct_out1.png,stimuli/out2.png,,,,,,,,,,,,,,,,,,,,,,,,,,,,,,,,,,,,,,
,,61405a0426b9171448bc7de7,24,female,2024-04-24_12h33.13.155,stockport_simplified,2022.2.4,Win32,60.24096386,661e456ee6de07e70aa9ef7b,6628df860698476c2608c3f9,,,,,,,,,,,,,,,,,,,,,,,,,,,,,,,,,,533.2616,535.7254,"[3,2,5,7,8,6,1,4]","[[-0.3,0.2],[0.3,0.2]]","[[0.125,-0.2],[-0.125,-0.2]]",0.137962977,-0.192592621,1,0,0,1.9317,o1_image,535.7269,1,536.2241,536.2242,538.2221,0,0,0,0,1,,,,,,,,,,,,,,,,,,,,,,,,,,,,,,,,,,,,,,,,,,,,,,,,,,
,,61405a0426b9171448bc7de7,24,female,2024-04-24_12h33.13.155,stockport_simplified,2022.2.4,Win32,60.24096386,661e456ee6de07e70aa9ef7b,6628df860698476c2608c3f9,,,,,,,,,,,,,,,,,,,,,,,,,,,,,,,,,,,,,,,,,,,,,,,,,,,,,,,,1,7,67,2,1,A,X,N,o1_image,stimuli/out1.png,stimuli/correct_out1.png,stimuli/out2.png,,,,,,,,,,,,,,,,,,,,,,,,,,,,,,,,,,,,,,
,,61405a0426b9171448bc7de7,24,female,2024-04-24_12h33.13.155,stockport_simplified,2022.2.4,Win32,60.24096386,661e456ee6de07e70aa9ef7b,6628df860698476c2608c3f9,,,,,,,,,,,,,,,,,,,,,,,,,,,,,,,,,,538.2234,540.7865,"[3,2,5,7,8,6,1,4]","[[-0.3,0.2],[0.3,0.2]]","[[-0.125,-0.2],[0.125,-0.2]]",0.121296282,-0.188888903,1,0,0,2.0302,o2_image,540.7878,1,541.2857,541.2857,543.2837,0,0,0,0,1,,,,,,,,,,,,,,,,,,,,,,,,,,,,,,,,,,,,,,,,,,,,,,,,,,
,,61405a0426b9171448bc7de7,24,female,2024-04-24_12h33.13.155,stockport_simplified,2022.2.4,Win32,60.24096386,661e456ee6de07e70aa9ef7b,6628df860698476c2608c3f9,,,,,,,,,,,,,,,,,,,,,,,,,,,,,,,,,,,,,,,,,,,,,,,,,,,,,,,,1,8,68,48,1,B,Y,N,o2_image,stimuli/out2.png,stimuli/out1.png,stimuli/correct_out2.png,,,,,,,,,,,,,,,,,,,,,,,,,,,,,,,,,,,,,,
,,61405a0426b9171448bc7de7,24,female,2024-04-24_12h33.13.155,stockport_simplified,2022.2.4,Win32,60.24096386,661e456ee6de07e70aa9ef7b,6628df860698476c2608c3f9,,,,,,,,,,,,,,,,,,,,,,,,,,,,,,,,,,543.285,545.483,"[3,2,5,7,8,6,1,4]","[[0.3,0.2],[-0.3,0.2]]","[[0.125,-0.2],[-0.125,-0.2]]",-0.118518476,-0.207407422,1,0,0,1.6636,o2_image,545.4852,1,545.9816,545.9817,547.9799,0,0,0,0,1,,,,,,,,,,,,,,,,,,,,,,,,,,,,,,,,,,,,,,,,,,,,,,,,,,
,,61405a0426b9171448bc7de7,24,female,2024-04-24_12h33.13.155,stockport_simplified,2022.2.4,Win32,60.24096386,661e456ee6de07e70aa9ef7b,6628df860698476c2608c3f9,,,,,,,,,,,,,,,,,,,,,,,,,,,,,,,,,,,,,,,,,,,,,,,,,,,,,,,,1,9,69,47,1,B,Y,N,o2_image,stimuli/out2.png,stimuli/out1.png,stimuli/correct_out2.png,,,,,,,,,,,,,,,,,,,,,,,,,,,,,,,,,,,,,,
,,61405a0426b9171448bc7de7,24,female,2024-04-24_12h33.13.155,stockport_simplified,2022.2.4,Win32,60.24096386,661e456ee6de07e70aa9ef7b,6628df860698476c2608c3f9,,,,,,,,,,,,,,,,,,,,,,,,,,,,,,,,,,547.981,550.1794,"[3,2,5,7,8,6,1,4]","[[0.3,0.2],[-0.3,0.2]]","[[-0.125,-0.2],[0.125,-0.2]]",0.125925912,-0.23055557,1,0,0,1.6655,o2_image,550.1814,1,550.6785,550.6786,552.675,0,0,0,0,1,,,,,,,,,,,,,,,,,,,,,,,,,,,,,,,,,,,,,,,,,,,,,,,,,,
,,61405a0426b9171448bc7de7,24,female,2024-04-24_12h33.13.155,stockport_simplified,2022.2.4,Win32,60.24096386,661e456ee6de07e70aa9ef7b,6628df860698476c2608c3f9,,,,,,,,,,,,,,,,,,,,,,,,,,,,,,,,,,,,,,,,,,,,,,,,,,,,,,,,1,10,70,17,1,B,Y,N,o2_image,stimuli/out2.png,stimuli/out1.png,stimuli/correct_out2.png,,,,,,,,,,,,,,,,,,,,,,,,,,,,,,,,,,,,,,
,,61405a0426b9171448bc7de7,24,female,2024-04-24_12h33.13.155,stockport_simplified,2022.2.4,Win32,60.24096386,661e456ee6de07e70aa9ef7b,6628df860698476c2608c3f9,,,,,,,,,,,,,,,,,,,,,,,,,,,,,,,,,,552.6755,555.2736,"[3,2,5,7,8,6,1,4]","[[0.3,0.2],[-0.3,0.2]]","[[-0.125,-0.2],[0.125,-0.2]]",-0.09629631,-0.22129631,1,0,0,2.0947,o1_image,555.2755,1,555.7734,555.7734,557.7729,0,0,0,0,1,,,,,,,,,,,,,,,,,,,,,,,,,,,,,,,,,,,,,,,,,,,,,,,,,,
,,61405a0426b9171448bc7de7,24,female,2024-04-24_12h33.13.155,stockport_simplified,2022.2.4,Win32,60.24096386,661e456ee6de07e70aa9ef7b,6628df860698476c2608c3f9,,,,,,,,,,,,,,,,,,,,,,,,,,,,,,,,,,,,,,,,,,,,,,,,,,,,,,,,1,11,71,53,1,N,M,C,o1_image,stimuli/out1.png,stimuli/correct_out1.png,stimuli/out2.png,,,,,,,,,,,,,,,,,,,,,,,,,,,,,,,,,,,,,,
,,61405a0426b9171448bc7de7,24,female,2024-04-24_12h33.13.155,stockport_simplified,2022.2.4,Win32,60.24096386,661e456ee6de07e70aa9ef7b,6628df860698476c2608c3f9,,,,,,,,,,,,,,,,,,,,,,,,,,,,,,,,,,557.7745,560.105,"[3,2,5,7,8,6,1,4]","[[-0.3,0.2],[0.3,0.2]]","[[-0.125,-0.2],[0.125,-0.2]]",-0.09629631,-0.22129631,1,0,0,1.7988,o1_image,560.1081,0,560.6034,560.6034,562.5998,0,0,0,0,1,,,,,,,,,,,,,,,,,,,,,,,,,,,,,,,,,,,,,,,,,,,,,,,,,,
,,61405a0426b9171448bc7de7,24,female,2024-04-24_12h33.13.155,stockport_simplified,2022.2.4,Win32,60.24096386,661e456ee6de07e70aa9ef7b,6628df860698476c2608c3f9,,,,,,,,,,,,,,,,,,,,,,,,,,,,,,,,,,,,,,,,,,,,,,,,,,,,,,,,1,12,72,42,1,B,X,N,o2_image,stimuli/out2.png,stimuli/out1.png,stimuli/correct_out2.png,,,,,,,,,,,,,,,,,,,,,,,,,,,,,,,,,,,,,,
,,61405a0426b9171448bc7de7,24,female,2024-04-24_12h33.13.155,stockport_simplified,2022.2.4,Win32,60.24096386,661e456ee6de07e70aa9ef7b,6628df860698476c2608c3f9,,,,,,,,,,,,,,,,,,,,,,,,,,,,,,,,,,562.6003,564.5338,"[3,2,5,7,8,6,1,4]","[[0.3,0.2],[-0.3,0.2]]","[[-0.125,-0.2],[0.125,-0.2]]",0.065740727,-0.198148162,1,0,0,1.4317,o2_image,564.5356,0,565.0325,565.0325,567.0302,0,0,0,0,1,,,,,,,,,,,,,,,,,,,,,,,,,,,,,,,,,,,,,,,,,,,,,,,,,,
,,61405a0426b9171448bc7de7,24,female,2024-04-24_12h33.13.155,stockport_simplified,2022.2.4,Win32,60.24096386,661e456ee6de07e70aa9ef7b,6628df860698476c2608c3f9,,,,,,,,,,,,,,,,,,,,,,,,,,,,,,,,,,,,,,,,,,,,,,,,,,,,,,,,1,13,73,37,1,A,Y,N,o1_image,stimuli/out1.png,stimuli/correct_out1.png,stimuli/out2.png,,,,,,,,,,,,,,,,,,,,,,,,,,,,,,,,,,,,,,
,,61405a0426b9171448bc7de7,24,female,2024-04-24_12h33.13.155,stockport_simplified,2022.2.4,Win32,60.24096386,661e456ee6de07e70aa9ef7b,6628df860698476c2608c3f9,,,,,,,,,,,,,,,,,,,,,,,,,,,,,,,,,,567.0312,569.063,"[3,2,5,7,8,6,1,4]","[[0.3,0.2],[-0.3,0.2]]","[[0.125,-0.2],[-0.125,-0.2]]",-0.147222236,-0.200925968,1,0,0,1.497,o2_image,569.0662,1,569.5622,569.5623,571.5599,0,0,0,0,1,,,,,,,,,,,,,,,,,,,,,,,,,,,,,,,,,,,,,,,,,,,,,,,,,,
,,61405a0426b9171448bc7de7,24,female,2024-04-24_12h33.13.155,stockport_simplified,2022.2.4,Win32,60.24096386,661e456ee6de07e70aa9ef7b,6628df860698476c2608c3f9,,,,,,,,,,,,,,,,,,,,,,,,,,,,,,,,,,,,,,,,,,,,,,,,,,,,,,,,1,14,74,16,1,B,Y,N,o2_image,stimuli/out2.png,stimuli/out1.png,stimuli/correct_out2.png,,,,,,,,,,,,,,,,,,,,,,,,,,,,,,,,,,,,,,
,,61405a0426b9171448bc7de7,24,female,2024-04-24_12h33.13.155,stockport_simplified,2022.2.4,Win32,60.24096386,661e456ee6de07e70aa9ef7b,6628df860698476c2608c3f9,,,,,,,,,,,,,,,,,,,,,,,,,,,,,,,,,,571.5608,573.4924,"[3,2,5,7,8,6,1,4]","[[0.3,0.2],[-0.3,0.2]]","[[0.125,-0.2],[-0.125,-0.2]]",0.134259259,-0.196296339,1,0,0,1.3993,o1_image,573.4948,1,573.9916,573.9917,575.9903,0,0,0,0,1,,,,,,,,,,,,,,,,,,,,,,,,,,,,,,,,,,,,,,,,,,,,,,,,,,
,,61405a0426b9171448bc7de7,24,female,2024-04-24_12h33.13.155,stockport_simplified,2022.2.4,Win32,60.24096386,661e456ee6de07e70aa9ef7b,6628df860698476c2608c3f9,,,,,,,,,,,,,,,,,,,,,,,,,,,,,,,,,,,,,,,,,,,,,,,,,,,,,,,,1,15,75,32,1,A,X,N,o1_image,stimuli/out1.png,stimuli/correct_out1.png,stimuli/out2.png,,,,,,,,,,,,,,,,,,,,,,,,,,,,,,,,,,,,,,
,,61405a0426b9171448bc7de7,24,female,2024-04-24_12h33.13.155,stockport_simplified,2022.2.4,Win32,60.24096386,661e456ee6de07e70aa9ef7b,6628df860698476c2608c3f9,,,,,,,,,,,,,,,,,,,,,,,,,,,,,,,,,,575.9918,577.9553,"[3,2,5,7,8,6,1,4]","[[-0.3,0.2],[0.3,0.2]]","[[-0.125,-0.2],[0.125,-0.2]]",-0.102777764,-0.202777792,1,0,0,1.4326,o1_image,577.9576,1,578.4547,578.4548,580.4523,0,0,0,0,1,,,,,,,,,,,,,,,,,,,,,,,,,,,,,,,,,,,,,,,,,,,,,,,,,,
,,61405a0426b9171448bc7de7,24,female,2024-04-24_12h33.13.155,stockport_simplified,2022.2.4,Win32,60.24096386,661e456ee6de07e70aa9ef7b,6628df860698476c2608c3f9,,,,,,,,,,,,,,,,,,,,,,,,,,,,,,,,,,,,,,,,,,,,,,,,,,,,,,,,1,16,76,5,1,A,Y,N,o1_image,stimuli/out1.png,stimuli/correct_out1.png,stimuli/out2.png,,,,,,,,,,,,,,,,,,,,,,,,,,,,,,,,,,,,,,
,,61405a0426b9171448bc7de7,24,female,2024-04-24_12h33.13.155,stockport_simplified,2022.2.4,Win32,60.24096386,661e456ee6de07e70aa9ef7b,6628df860698476c2608c3f9,,,,,,,,,,,,,,,,,,,,,,,,,,,,,,,,,,580.4541,582.3173,"[3,2,5,7,8,6,1,4]","[[0.3,0.2],[-0.3,0.2]]","[[0.125,-0.2],[-0.125,-0.2]]",-0.102777764,-0.202777792,1,0,0,1.331,o2_image,582.32,1,582.8168,582.817,584.8151,0,0,0,0,1,,,,,,,,,,,,,,,,,,,,,,,,,,,,,,,,,,,,,,,,,,,,,,,,,,
,,61405a0426b9171448bc7de7,24,female,2024-04-24_12h33.13.155,stockport_simplified,2022.2.4,Win32,60.24096386,661e456ee6de07e70aa9ef7b,6628df860698476c2608c3f9,,,,,,,,,,,,,,,,,,,,,,,,,,,,,,,,,,,,,,,,,,,,,,,,,,,,,,,,1,17,77,10,1,B,X,N,o2_image,stimuli/out2.png,stimuli/out1.png,stimuli/correct_out2.png,,,,,,,,,,,,,,,,,,,,,,,,,,,,,,,,,,,,,,
,,61405a0426b9171448bc7de7,24,female,2024-04-24_12h33.13.155,stockport_simplified,2022.2.4,Win32,60.24096386,661e456ee6de07e70aa9ef7b,6628df860698476c2608c3f9,,,,,,,,,,,,,,,,,,,,,,,,,,,,,,,,,,584.8163,586.6477,"[3,2,5,7,8,6,1,4]","[[0.3,0.2],[-0.3,0.2]]","[[-0.125,-0.2],[0.125,-0.2]]",-0.102777764,-0.202777792,1,0,0,1.2982,o1_image,586.6509,0,587.1453,587.1454,589.1451,0,0,0,0,1,,,,,,,,,,,,,,,,,,,,,,,,,,,,,,,,,,,,,,,,,,,,,,,,,,
,,61405a0426b9171448bc7de7,24,female,2024-04-24_12h33.13.155,stockport_simplified,2022.2.4,Win32,60.24096386,661e456ee6de07e70aa9ef7b,6628df860698476c2608c3f9,,,,,,,,,,,,,,,,,,,,,,,,,,,,,,,,,,,,,,,,,,,,,,,,,,,,,,,,1,18,78,56,1,N,M,D,o2_image,stimuli/out2.png,stimuli/out1.png,stimuli/correct_out2.png,,,,,,,,,,,,,,,,,,,,,,,,,,,,,,,,,,,,,,
,,61405a0426b9171448bc7de7,24,female,2024-04-24_12h33.13.155,stockport_simplified,2022.2.4,Win32,60.24096386,661e456ee6de07e70aa9ef7b,6628df860698476c2608c3f9,,,,,,,,,,,,,,,,,,,,,,,,,,,,,,,,,,589.1462,591.0756,"[3,2,5,7,8,6,1,4]","[[-0.3,0.2],[0.3,0.2]]","[[0.125,-0.2],[-0.125,-0.2]]",-0.088888875,-0.207407422,1,0,0,1.397,o2_image,591.0784,1,591.5755,591.5756,593.5739,0,0,0,0,1,,,,,,,,,,,,,,,,,,,,,,,,,,,,,,,,,,,,,,,,,,,,,,,,,,
,,61405a0426b9171448bc7de7,24,female,2024-04-24_12h33.13.155,stockport_simplified,2022.2.4,Win32,60.24096386,661e456ee6de07e70aa9ef7b,6628df860698476c2608c3f9,,,,,,,,,,,,,,,,,,,,,,,,,,,,,,,,,,,,,,,,,,,,,,,,,,,,,,,,1,19,79,13,1,B,X,N,o2_image,stimuli/out2.png,stimuli/out1.png,stimuli/correct_out2.png,,,,,,,,,,,,,,,,,,,,,,,,,,,,,,,,,,,,,,
,,61405a0426b9171448bc7de7,24,female,2024-04-24_12h33.13.155,stockport_simplified,2022.2.4,Win32,60.24096386,661e456ee6de07e70aa9ef7b,6628df860698476c2608c3f9,,,,,,,,,,,,,,,,,,,,,,,,,,,,,,,,,,593.5753,596.2419,"[3,2,5,7,8,6,1,4]","[[0.3,0.2],[-0.3,0.2]]","[[0.125,-0.2],[-0.125,-0.2]]",0.141666695,-0.172222208,1,0,0,2.1331,o1_image,596.2435,0,596.7383,596.7383,598.7377,0,0,0,0,1,,,,,,,,,,,,,,,,,,,,,,,,,,,,,,,,,,,,,,,,,,,,,,,,,,
,,61405a0426b9171448bc7de7,24,female,2024-04-24_12h33.13.155,stockport_simplified,2022.2.4,Win32,60.24096386,661e456ee6de07e70aa9ef7b,6628df860698476c2608c3f9,,,,,,,,,,,,,,,,,,,,,,,,,,,,,,,,,,,,,,,,,,,,,,,,,,,,,,,,1,20,80,55,1,N,M,D,o2_image,stimuli/out2.png,stimuli/out1.png,stimuli/correct_out2.png,,,,,,,,,,,,,,,,,,,,,,,,,,,,,,,,,,,,,,
,,61405a0426b9171448bc7de7,24,female,2024-04-24_12h33.13.155,stockport_simplified,2022.2.4,Win32,60.24096386,661e456ee6de07e70aa9ef7b,6628df860698476c2608c3f9,,,,,,,,,,,,,,,,,,,,,,,,,,,,,,,,,,598.7384,601.0011,"[3,2,5,7,8,6,1,4]","[[0.3,0.2],[-0.3,0.2]]","[[0.125,-0.2],[-0.125,-0.2]]",-0.101851852,-0.187037079,1,0,0,1.7309,o2_image,601.0034,0,601.501,601.501,603.5001,0,0,0,0,1,,,,,,,,,,,,,,,,,,,,,,,,,,,,,,,,,,,,,,,,,,,,,,,,,,
,,61405a0426b9171448bc7de7,24,female,2024-04-24_12h33.13.155,stockport_simplified,2022.2.4,Win32,60.24096386,661e456ee6de07e70aa9ef7b,6628df860698476c2608c3f9,,,,,,,,,,,,,,,,,,,,,,,,,,,,,,,,,,,,,,,,,,,,,,,,,,,,,,,,1,21,81,36,1,A,Y,N,o1_image,stimuli/out1.png,stimuli/correct_out1.png,stimuli/out2.png,,,,,,,,,,,,,,,,,,,,,,,,,,,,,,,,,,,,,,
,,61405a0426b9171448bc7de7,24,female,2024-04-24_12h33.13.155,stockport_simplified,2022.2.4,Win32,60.24096386,661e456ee6de07e70aa9ef7b,6628df860698476c2608c3f9,,,,,,,,,,,,,,,,,,,,,,,,,,,,,,,,,,603.5009,605.5643,"[3,2,5,7,8,6,1,4]","[[0.3,0.2],[-0.3,0.2]]","[[-0.125,-0.2],[0.125,-0.2]]",-0.125925912,-0.194444444,1,0,0,1.5314,o1_image,605.5665,0,606.0642,606.0642,608.0601,0,0,0,0,1,,,,,,,,,,,,,,,,,,,,,,,,,,,,,,,,,,,,,,,,,,,,,,,,,,
,,61405a0426b9171448bc7de7,24,female,2024-04-24_12h33.13.155,stockport_simplified,2022.2.4,Win32,60.24096386,661e456ee6de07e70aa9ef7b,6628df860698476c2608c3f9,,,,,,,,,,,,,,,,,,,,,,,,,,,,,,,,,,,,,,,,,,,,,,,,,,,,,,,,1,22,82,14,1,B,X,N,o2_image,stimuli/out2.png,stimuli/out1.png,stimuli/correct_out2.png,,,,,,,,,,,,,,,,,,,,,,,,,,,,,,,,,,,,,,
,,61405a0426b9171448bc7de7,24,female,2024-04-24_12h33.13.155,stockport_simplified,2022.2.4,Win32,60.24096386,661e456ee6de07e70aa9ef7b,6628df860698476c2608c3f9,,,,,,,,,,,,,,,,,,,,,,,,,,,,,,,,,,608.0606,610.5919,"[3,2,5,7,8,6,1,4]","[[-0.3,0.2],[0.3,0.2]]","[[-0.125,-0.2],[0.125,-0.2]]",0.119444459,-0.194444444,1,0,0,1.9986,o2_image,610.5937,1,611.093,611.093,613.0911,0,0,0,0,1,,,,,,,,,,,,,,,,,,,,,,,,,,,,,,,,,,,,,,,,,,,,,,,,,,
,,61405a0426b9171448bc7de7,24,female,2024-04-24_12h33.13.155,stockport_simplified,2022.2.4,Win32,60.24096386,661e456ee6de07e70aa9ef7b,6628df860698476c2608c3f9,,,,,,,,,,,,,,,,,,,,,,,,,,,,,,,,,,,,,,,,,,,,,,,,,,,,,,,,1,23,83,18,1,B,Y,N,o2_image,stimuli/out2.png,stimuli/out1.png,stimuli/correct_out2.png,,,,,,,,,,,,,,,,,,,,,,,,,,,,,,,,,,,,,,
,,61405a0426b9171448bc7de7,24,female,2024-04-24_12h33.13.155,stockport_simplified,2022.2.4,Win32,60.24096386,661e456ee6de07e70aa9ef7b,6628df860698476c2608c3f9,,,,,,,,,,,,,,,,,,,,,,,,,,,,,,,,,,613.0928,615.3888,"[3,2,5,7,8,6,1,4]","[[0.3,0.2],[-0.3,0.2]]","[[0.125,-0.2],[-0.125,-0.2]]",0.147222236,-0.191666709,1,0,0,1.7647,o1_image,615.3907,1,615.8873,615.8875,617.8859,0,0,0,0,1,,,,,,,,,,,,,,,,,,,,,,,,,,,,,,,,,,,,,,,,,,,,,,,,,,
,,61405a0426b9171448bc7de7,24,female,2024-04-24_12h33.13.155,stockport_simplified,2022.2.4,Win32,60.24096386,661e456ee6de07e70aa9ef7b,6628df860698476c2608c3f9,,,,,,,,,,,,,,,,,,,,,,,,,,,,,,,,,,,,,,,,,,,,,,,,,,,,,,,,1,24,84,22,1,N,M,C,o1_image,stimuli/out1.png,stimuli/correct_out1.png,stimuli/out2.png,,,,,,,,,,,,,,,,,,,,,,,,,,,,,,,,,,,,,,
,,61405a0426b9171448bc7de7,24,female,2024-04-24_12h33.13.155,stockport_simplified,2022.2.4,Win32,60.24096386,661e456ee6de07e70aa9ef7b,6628df860698476c2608c3f9,,,,,,,,,,,,,,,,,,,,,,,,,,,,,,,,,,617.8867,620.2506,"[3,2,5,7,8,6,1,4]","[[-0.3,0.2],[0.3,0.2]]","[[-0.125,-0.2],[0.125,-0.2]]",0.137037065,-0.188888903,1,0,0,1.8288,o2_image,620.2529,1,620.7503,620.7503,622.7494,0,0,0,0,1,,,,,,,,,,,,,,,,,,,,,,,,,,,,,,,,,,,,,,,,,,,,,,,,,,
,,61405a0426b9171448bc7de7,24,female,2024-04-24_12h33.13.155,stockport_simplified,2022.2.4,Win32,60.24096386,661e456ee6de07e70aa9ef7b,6628df860698476c2608c3f9,,,,,,,,,,,,,,,,,,,,,,,,,,,,,,,,,,,,,,,,,,,,,,,,,,,,,,,,1,25,85,46,1,B,Y,N,o2_image,stimuli/out2.png,stimuli/out1.png,stimuli/correct_out2.png,,,,,,,,,,,,,,,,,,,,,,,,,,,,,,,,,,,,,,
,,61405a0426b9171448bc7de7,24,female,2024-04-24_12h33.13.155,stockport_simplified,2022.2.4,Win32,60.24096386,661e456ee6de07e70aa9ef7b,6628df860698476c2608c3f9,,,,,,,,,,,,,,,,,,,,,,,,,,,,,,,,,,622.7507,624.7797,"[3,2,5,7,8,6,1,4]","[[0.3,0.2],[-0.3,0.2]]","[[0.125,-0.2],[-0.125,-0.2]]",0.122222265,-0.198148162,1,0,0,1.4969,o1_image,624.7821,1,625.2797,625.2798,627.2781,0,0,0,0,1,,,,,,,,,,,,,,,,,,,,,,,,,,,,,,,,,,,,,,,,,,,,,,,,,,
,,61405a0426b9171448bc7de7,24,female,2024-04-24_12h33.13.155,stockport_simplified,2022.2.4,Win32,60.24096386,661e456ee6de07e70aa9ef7b,6628df860698476c2608c3f9,,,,,,,,,,,,,,,,,,,,,,,,,,,,,,,,,,,,,,,,,,,,,,,,,,,,,,,,1,26,86,50,1,N,M,C,o1_image,stimuli/out1.png,stimuli/correct_out1.png,stimuli/out2.png,,,,,,,,,,,,,,,,,,,,,,,,,,,,,,,,,,,,,,
,,61405a0426b9171448bc7de7,24,female,2024-04-24_12h33.13.155,stockport_simplified,2022.2.4,Win32,60.24096386,661e456ee6de07e70aa9ef7b,6628df860698476c2608c3f9,,,,,,,,,,,,,,,,,,,,,,,,,,,,,,,,,,627.2791,630.0418,"[3,2,5,7,8,6,1,4]","[[0.3,0.2],[-0.3,0.2]]","[[-0.125,-0.2],[0.125,-0.2]]",0.116666653,-0.187962991,1,0,0,2.2296,o2_image,630.0685,0,630.5746,630.5747,632.5739,0,0,0,0,1,,,,,,,,,,,,,,,,,,,,,,,,,,,,,,,,,,,,,,,,,,,,,,,,,,
,,61405a0426b9171448bc7de7,24,female,2024-04-24_12h33.13.155,stockport_simplified,2022.2.4,Win32,60.24096386,661e456ee6de07e70aa9ef7b,6628df860698476c2608c3f9,,,,,,,,,,,,,,,,,,,,,,,,,,,,,,,,,,,,,,,,,,,,,,,,,,,,,,,,1,27,87,6,1,A,Y,N,o1_image,stimuli/out1.png,stimuli/correct_out1.png,stimuli/out2.png,,,,,,,,,,,,,,,,,,,,,,,,,,,,,,,,,,,,,,
,,61405a0426b9171448bc7de7,24,female,2024-04-24_12h33.13.155,stockport_simplified,2022.2.4,Win32,60.24096386,661e456ee6de07e70aa9ef7b,6628df860698476c2608c3f9,,,,,,,,,,,,,,,,,,,,,,,,,,,,,,,,,,632.575,634.5711,"[3,2,5,7,8,6,1,4]","[[0.3,0.2],[-0.3,0.2]]","[[-0.125,-0.2],[0.125,-0.2]]",-0.125925912,-0.185185185,1,0,0,1.4642,o1_image,634.573,1,635.071,635.071,637.0699,0,0,0,0,1,,,,,,,,,,,,,,,,,,,,,,,,,,,,,,,,,,,,,,,,,,,,,,,,,,
,,61405a0426b9171448bc7de7,24,female,2024-04-24_12h33.13.155,stockport_simplified,2022.2.4,Win32,60.24096386,661e456ee6de07e70aa9ef7b,6628df860698476c2608c3f9,,,,,,,,,,,,,,,,,,,,,,,,,,,,,,,,,,,,,,,,,,,,,,,,,,,,,,,,1,28,88,20,1,N,M,C,o1_image,stimuli/out1.png,stimuli/correct_out1.png,stimuli/out2.png,,,,,,,,,,,,,,,,,,,,,,,,,,,,,,,,,,,,,,
,,61405a0426b9171448bc7de7,24,female,2024-04-24_12h33.13.155,stockport_simplified,2022.2.4,Win32,60.24096386,661e456ee6de07e70aa9ef7b,6628df860698476c2608c3f9,,,,,,,,,,,,,,,,,,,,,,,,,,,,,,,,,,637.071,639.3676,"[3,2,5,7,8,6,1,4]","[[-0.3,0.2],[0.3,0.2]]","[[-0.125,-0.2],[0.125,-0.2]]",0.095370399,-0.223148134,1,0,0,1.7638,o2_image,639.3698,0,639.8668,639.8668,641.8657,0,0,0,0,1,,,,,,,,,,,,,,,,,,,,,,,,,,,,,,,,,,,,,,,,,,,,,,,,,,
,,61405a0426b9171448bc7de7,24,female,2024-04-24_12h33.13.155,stockport_simplified,2022.2.4,Win32,60.24096386,661e456ee6de07e70aa9ef7b,6628df860698476c2608c3f9,,,,,,,,,,,,,,,,,,,,,,,,,,,,,,,,,,,,,,,,,,,,,,,,,,,,,,,,1,29,89,3,1,A,X,N,o1_image,stimuli/out1.png,stimuli/correct_out1.png,stimuli/out2.png,,,,,,,,,,,,,,,,,,,,,,,,,,,,,,,,,,,,,,
,,61405a0426b9171448bc7de7,24,female,2024-04-24_12h33.13.155,stockport_simplified,2022.2.4,Win32,60.24096386,661e456ee6de07e70aa9ef7b,6628df860698476c2608c3f9,,,,,,,,,,,,,,,,,,,,,,,,,,,,,,,,,,641.8666,643.8628,"[3,2,5,7,8,6,1,4]","[[0.3,0.2],[-0.3,0.2]]","[[0.125,-0.2],[-0.125,-0.2]]",-0.156481496,-0.207407422,1,0,0,1.4637,o2_image,643.8643,0,644.3629,644.3629,646.3617,0,0,0,0,1,,,,,,,,,,,,,,,,,,,,,,,,,,,,,,,,,,,,,,,,,,,,,,,,,,
,,61405a0426b9171448bc7de7,24,female,2024-04-24_12h33.13.155,stockport_simplified,2022.2.4,Win32,60.24096386,661e456ee6de07e70aa9ef7b,6628df860698476c2608c3f9,,,,,,,,,,,,,,,,,,,,,,,,,,,,,,,,,,,,,,,,,,,,,,,,,,,,,,,,1,30,90,38,1,A,Y,N,o1_image,stimuli/out1.png,stimuli/correct_out1.png,stimuli/out2.png,,,,,,,,,,,,,,,,,,,,,,,,,,,,,,,,,,,,,,
,,61405a0426b9171448bc7de7,24,female,2024-04-24_12h33.13.155,stockport_simplified,2022.2.4,Win32,60.24096386,661e456ee6de07e70aa9ef7b,6628df860698476c2608c3f9,,,,,,,,,,,,,,,,,,,,,,,,,,,,,,,,,,646.3629,648.5255,"[3,2,5,7,8,6,1,4]","[[0.3,0.2],[-0.3,0.2]]","[[-0.125,-0.2],[0.125,-0.2]]",0.113888917,-0.229629658,1,0,0,1.6293,o2_image,648.5274,1,649.0268,649.0268,651.0231,0,0,0,0,1,,,,,,,,,,,,,,,,,,,,,,,,,,,,,,,,,,,,,,,,,,,,,,,,,,
,,61405a0426b9171448bc7de7,24,female,2024-04-24_12h33.13.155,stockport_simplified,2022.2.4,Win32,60.24096386,661e456ee6de07e70aa9ef7b,6628df860698476c2608c3f9,,,,,,,,,,,,,,,,,,,,,,,,,,,,,,,,,,,,,,,,,,,,,,,,,,,,,,,,1,31,91,43,1,B,X,N,o2_image,stimuli/out2.png,stimuli/out1.png,stimuli/correct_out2.png,,,,,,,,,,,,,,,,,,,,,,,,,,,,,,,,,,,,,,
,,61405a0426b9171448bc7de7,24,female,2024-04-24_12h33.13.155,stockport_simplified,2022.2.4,Win32,60.24096386,661e456ee6de07e70aa9ef7b,6628df860698476c2608c3f9,,,,,,,,,,,,,,,,,,,,,,,,,,,,,,,,,,651.0236,653.2574,"[3,2,5,7,8,6,1,4]","[[0.3,0.2],[-0.3,0.2]]","[[-0.125,-0.2],[0.125,-0.2]]",0.108333376,-0.183333362,1,0,0,1.7002,o2_image,653.2596,0,653.7547,653.7547,655.7522,0,0,0,0,1,,,,,,,,,,,,,,,,,,,,,,,,,,,,,,,,,,,,,,,,,,,,,,,,,,
,,61405a0426b9171448bc7de7,24,female,2024-04-24_12h33.13.155,stockport_simplified,2022.2.4,Win32,60.24096386,661e456ee6de07e70aa9ef7b,6628df860698476c2608c3f9,,,,,,,,,,,,,,,,,,,,,,,,,,,,,,,,,,,,,,,,,,,,,,,,,,,,,,,,1,32,92,8,1,A,Y,N,o1_image,stimuli/out1.png,stimuli/correct_out1.png,stimuli/out2.png,,,,,,,,,,,,,,,,,,,,,,,,,,,,,,,,,,,,,,
,,61405a0426b9171448bc7de7,24,female,2024-04-24_12h33.13.155,stockport_simplified,2022.2.4,Win32,60.24096386,661e456ee6de07e70aa9ef7b,6628df860698476c2608c3f9,,,,,,,,,,,,,,,,,,,,,,,,,,,,,,,,,,655.7528,657.4513,"[3,2,5,7,8,6,1,4]","[[0.3,0.2],[-0.3,0.2]]","[[-0.125,-0.2],[0.125,-0.2]]",-0.141666624,-0.162962949,1,0,0,1.197,o1_image,657.4537,1,657.9505,657.9506,659.9498,0,0,0,0,1,,,,,,,,,,,,,,,,,,,,,,,,,,,,,,,,,,,,,,,,,,,,,,,,,,
,,61405a0426b9171448bc7de7,24,female,2024-04-24_12h33.13.155,stockport_simplified,2022.2.4,Win32,60.24096386,661e456ee6de07e70aa9ef7b,6628df860698476c2608c3f9,,,,,,,,,,,,,,,,,,,,,,,,,,,,,,,,,,,,,,,,,,,,,,,,,,,,,,,,1,33,93,7,1,A,Y,N,o1_image,stimuli/out1.png,stimuli/correct_out1.png,stimuli/out2.png,,,,,,,,,,,,,,,,,,,,,,,,,,,,,,,,,,,,,,
,,61405a0426b9171448bc7de7,24,female,2024-04-24_12h33.13.155,stockport_simplified,2022.2.4,Win32,60.24096386,661e456ee6de07e70aa9ef7b,6628df860698476c2608c3f9,,,,,,,,,,,,,,,,,,,,,,,,,,,,,,,,,,659.9509,662.1143,"[3,2,5,7,8,6,1,4]","[[-0.3,0.2],[0.3,0.2]]","[[-0.125,-0.2],[0.125,-0.2]]",0.126851894,-0.220370399,1,0,0,1.6305,o2_image,662.1162,1,662.6138,662.6139,664.6127,0,0,0,0,1,,,,,,,,,,,,,,,,,,,,,,,,,,,,,,,,,,,,,,,,,,,,,,,,,,
,,61405a0426b9171448bc7de7,24,female,2024-04-24_12h33.13.155,stockport_simplified,2022.2.4,Win32,60.24096386,661e456ee6de07e70aa9ef7b,6628df860698476c2608c3f9,,,,,,,,,,,,,,,,,,,,,,,,,,,,,,,,,,,,,,,,,,,,,,,,,,,,,,,,1,34,94,59,1,N,M,D,o2_image,stimuli/out2.png,stimuli/out1.png,stimuli/correct_out2.png,,,,,,,,,,,,,,,,,,,,,,,,,,,,,,,,,,,,,,
,,61405a0426b9171448bc7de7,24,female,2024-04-24_12h33.13.155,stockport_simplified,2022.2.4,Win32,60.24096386,661e456ee6de07e70aa9ef7b,6628df860698476c2608c3f9,,,,,,,,,,,,,,,,,,,,,,,,,,,,,,,,,,664.6138,666.5098,"[3,2,5,7,8,6,1,4]","[[0.3,0.2],[-0.3,0.2]]","[[-0.125,-0.2],[0.125,-0.2]]",-0.125,-0.215740769,1,0,0,1.3641,o1_image,666.5118,1,667.0118,667.0118,669.0089,0,0,0,0,1,,,,,,,,,,,,,,,,,,,,,,,,,,,,,,,,,,,,,,,,,,,,,,,,,,
,,61405a0426b9171448bc7de7,24,female,2024-04-24_12h33.13.155,stockport_simplified,2022.2.4,Win32,60.24096386,661e456ee6de07e70aa9ef7b,6628df860698476c2608c3f9,,,,,,,,,,,,,,,,,,,,,,,,,,,,,,,,,,,,,,,,,,,,,,,,,,,,,,,,1,35,95,33,1,A,X,N,o1_image,stimuli/out1.png,stimuli/correct_out1.png,stimuli/out2.png,,,,,,,,,,,,,,,,,,,,,,,,,,,,,,,,,,,,,,
,,61405a0426b9171448bc7de7,24,female,2024-04-24_12h33.13.155,stockport_simplified,2022.2.4,Win32,60.24096386,661e456ee6de07e70aa9ef7b,6628df860698476c2608c3f9,,,,,,,,,,,,,,,,,,,,,,,,,,,,,,,,,,669.0104,670.3739,"[3,2,5,7,8,6,1,4]","[[0.3,0.2],[-0.3,0.2]]","[[-0.125,-0.2],[0.125,-0.2]]",-0.125,-0.215740769,1,0,0,0.8318,o1_image,670.3754,0,670.8733,670.8733,672.873,0,0,0,0,1,,,,,,,,,,,,,,,,,,,,,,,,,,,,,,,,,,,,,,,,,,,,,,,,,,
,,61405a0426b9171448bc7de7,24,female,2024-04-24_12h33.13.155,stockport_simplified,2022.2.4,Win32,60.24096386,661e456ee6de07e70aa9ef7b,6628df860698476c2608c3f9,,,,,,,,,,,,,,,,,,,,,,,,,,,,,,,,,,,,,,,,,,,,,,,,,,,,,,,,1,36,96,11,1,B,X,N,o2_image,stimuli/out2.png,stimuli/out1.png,stimuli/correct_out2.png,,,,,,,,,,,,,,,,,,,,,,,,,,,,,,,,,,,,,,
,,61405a0426b9171448bc7de7,24,female,2024-04-24_12h33.13.155,stockport_simplified,2022.2.4,Win32,60.24096386,661e456ee6de07e70aa9ef7b,6628df860698476c2608c3f9,,,,,,,,,,,,,,,,,,,,,,,,,,,,,,,,,,672.8743,674.7378,"[3,2,5,7,8,6,1,4]","[[0.3,0.2],[-0.3,0.2]]","[[-0.125,-0.2],[0.125,-0.2]]",0.112963005,-0.23055557,1,0,0,1.3326,o2_image,674.7408,0,675.2381,675.2382,677.2352,0,0,0,0,1,,,,,,,,,,,,,,,,,,,,,,,,,,,,,,,,,,,,,,,,,,,,,,,,,,
,,61405a0426b9171448bc7de7,24,female,2024-04-24_12h33.13.155,stockport_simplified,2022.2.4,Win32,60.24096386,661e456ee6de07e70aa9ef7b,6628df860698476c2608c3f9,,,,,,,,,,,,,,,,,,,,,,,,,,,,,,,,,,,,,,,,,,,,,,,,,,,,,,,,1,37,97,9,1,A,Y,N,o1_image,stimuli/out1.png,stimuli/correct_out1.png,stimuli/out2.png,,,,,,,,,,,,,,,,,,,,,,,,,,,,,,,,,,,,,,
,,61405a0426b9171448bc7de7,24,female,2024-04-24_12h33.13.155,stockport_simplified,2022.2.4,Win32,60.24096386,661e456ee6de07e70aa9ef7b,6628df860698476c2608c3f9,,,,,,,,,,,,,,,,,,,,,,,,,,,,,,,,,,677.2362,678.9999,"[3,2,5,7,8,6,1,4]","[[-0.3,0.2],[0.3,0.2]]","[[-0.125,-0.2],[0.125,-0.2]]",-0.136111083,-0.20648151,1,0,0,1.2304,o1_image,679.0018,1,679.4994,679.4994,681.4972,0,0,0,0,1,,,,,,,,,,,,,,,,,,,,,,,,,,,,,,,,,,,,,,,,,,,,,,,,,,
,,61405a0426b9171448bc7de7,24,female,2024-04-24_12h33.13.155,stockport_simplified,2022.2.4,Win32,60.24096386,661e456ee6de07e70aa9ef7b,6628df860698476c2608c3f9,,,,,,,,,,,,,,,,,,,,,,,,,,,,,,,,,,,,,,,,,,,,,,,,,,,,,,,,1,38,98,54,1,N,M,C,o1_image,stimuli/out1.png,stimuli/correct_out1.png,stimuli/out2.png,,,,,,,,,,,,,,,,,,,,,,,,,,,,,,,,,,,,,,
,,61405a0426b9171448bc7de7,24,female,2024-04-24_12h33.13.155,stockport_simplified,2022.2.4,Win32,60.24096386,661e456ee6de07e70aa9ef7b,6628df860698476c2608c3f9,,,,,,,,,,,,,,,,,,,,,,,,,,,,,,,,,,681.4984,683.1298,"[3,2,5,7,8,6,1,4]","[[0.3,0.2],[-0.3,0.2]]","[[0.125,-0.2],[-0.125,-0.2]]",-0.136111083,-0.20648151,1,0,0,1.0983,o2_image,683.1322,0,683.629,683.629,685.6275,0,0,0,0,1,,,,,,,,,,,,,,,,,,,,,,,,,,,,,,,,,,,,,,,,,,,,,,,,,,
,,61405a0426b9171448bc7de7,24,female,2024-04-24_12h33.13.155,stockport_simplified,2022.2.4,Win32,60.24096386,661e456ee6de07e70aa9ef7b,6628df860698476c2608c3f9,,,,,,,,,,,,,,,,,,,,,,,,,,,,,,,,,,,,,,,,,,,,,,,,,,,,,,,,1,39,99,35,1,A,Y,N,o1_image,stimuli/out1.png,stimuli/correct_out1.png,stimuli/out2.png,,,,,,,,,,,,,,,,,,,,,,,,,,,,,,,,,,,,,,
,,61405a0426b9171448bc7de7,24,female,2024-04-24_12h33.13.155,stockport_simplified,2022.2.4,Win32,60.24096386,661e456ee6de07e70aa9ef7b,6628df860698476c2608c3f9,,,,,,,,,,,,,,,,,,,,,,,,,,,,,,,,,,685.6285,687.3955,"[3,2,5,7,8,6,1,4]","[[-0.3,0.2],[0.3,0.2]]","[[-0.125,-0.2],[0.125,-0.2]]",0.140740783,-0.20185188,1,0,0,1.2353,o2_image,687.3978,1,687.8912,687.8913,689.8899,0,0,0,0,1,,,,,,,,,,,,,,,,,,,,,,,,,,,,,,,,,,,,,,,,,,,,,,,,,,
,,61405a0426b9171448bc7de7,24,female,2024-04-24_12h33.13.155,stockport_simplified,2022.2.4,Win32,60.24096386,661e456ee6de07e70aa9ef7b,6628df860698476c2608c3f9,,,,,,,,,,,,,,,,,,,,,,,,,,,,,,,,,,,,,,,,,,,,,,,,,,,,,,,,1,40,100,19,1,B,Y,N,o2_image,stimuli/out2.png,stimuli/out1.png,stimuli/correct_out2.png,,,,,,,,,,,,,,,,,,,,,,,,,,,,,,,,,,,,,,
,,61405a0426b9171448bc7de7,24,female,2024-04-24_12h33.13.155,stockport_simplified,2022.2.4,Win32,60.24096386,661e456ee6de07e70aa9ef7b,6628df860698476c2608c3f9,,,,,,,,,,,,,,,,,,,,,,,,,,,,,,,,,,689.8912,691.7894,"[3,2,5,7,8,6,1,4]","[[-0.3,0.2],[0.3,0.2]]","[[-0.125,-0.2],[0.125,-0.2]]",-0.104629587,-0.194444444,1,0,0,1.3652,o1_image,691.7928,1,692.2873,692.2874,694.2865,0,0,0,0,1,,,,,,,,,,,,,,,,,,,,,,,,,,,,,,,,,,,,,,,,,,,,,,,,,,
,,61405a0426b9171448bc7de7,24,female,2024-04-24_12h33.13.155,stockport_simplified,2022.2.4,Win32,60.24096386,661e456ee6de07e70aa9ef7b,6628df860698476c2608c3f9,,,,,,,,,,,,,,,,,,,,,,,,,,,,,,,,,,,,,,,,,,,,,,,,,,,,,,,,1,41,101,1,1,A,X,N,o1_image,stimuli/out1.png,stimuli/correct_out1.png,stimuli/out2.png,,,,,,,,,,,,,,,,,,,,,,,,,,,,,,,,,,,,,,
,,61405a0426b9171448bc7de7,24,female,2024-04-24_12h33.13.155,stockport_simplified,2022.2.4,Win32,60.24096386,661e456ee6de07e70aa9ef7b,6628df860698476c2608c3f9,,,,,,,,,,,,,,,,,,,,,,,,,,,,,,,,,,694.2883,696.6852,"[3,2,5,7,8,6,1,4]","[[-0.3,0.2],[0.3,0.2]]","[[-0.125,-0.2],[0.125,-0.2]]",-0.117592564,-0.195370356,1,0,0,1.8643,o1_image,696.6884,1,697.1835,697.1835,699.1823,0,0,0,0,1,,,,,,,,,,,,,,,,,,,,,,,,,,,,,,,,,,,,,,,,,,,,,,,,,,
,,61405a0426b9171448bc7de7,24,female,2024-04-24_12h33.13.155,stockport_simplified,2022.2.4,Win32,60.24096386,661e456ee6de07e70aa9ef7b,6628df860698476c2608c3f9,,,,,,,,,,,,,,,,,,,,,,,,,,,,,,,,,,,,,,,,,,,,,,,,,,,,,,,,1,42,102,52,1,N,M,C,o1_image,stimuli/out1.png,stimuli/correct_out1.png,stimuli/out2.png,,,,,,,,,,,,,,,,,,,,,,,,,,,,,,,,,,,,,,
,,61405a0426b9171448bc7de7,24,female,2024-04-24_12h33.13.155,stockport_simplified,2022.2.4,Win32,60.24096386,661e456ee6de07e70aa9ef7b,6628df860698476c2608c3f9,,,,,,,,,,,,,,,,,,,,,,,,,,,,,,,,,,699.1831,701.2134,"[3,2,5,7,8,6,1,4]","[[-0.3,0.2],[0.3,0.2]]","[[0.125,-0.2],[-0.125,-0.2]]",-0.117592564,-0.208333333,1,0,0,1.4971,o2_image,701.2154,1,701.7131,701.7133,703.7114,0,0,0,0,1,,,,,,,,,,,,,,,,,,,,,,,,,,,,,,,,,,,,,,,,,,,,,,,,,,
,,61405a0426b9171448bc7de7,24,female,2024-04-24_12h33.13.155,stockport_simplified,2022.2.4,Win32,60.24096386,661e456ee6de07e70aa9ef7b,6628df860698476c2608c3f9,,,,,,,,,,,,,,,,,,,,,,,,,,,,,,,,,,,,,,,,,,,,,,,,,,,,,,,,1,43,103,28,1,N,M,D,o2_image,stimuli/out2.png,stimuli/out1.png,stimuli/correct_out2.png,,,,,,,,,,,,,,,,,,,,,,,,,,,,,,,,,,,,,,
,,61405a0426b9171448bc7de7,24,female,2024-04-24_12h33.13.155,stockport_simplified,2022.2.4,Win32,60.24096386,661e456ee6de07e70aa9ef7b,6628df860698476c2608c3f9,,,,,,,,,,,,,,,,,,,,,,,,,,,,,,,,,,703.7129,706.3412,"[3,2,5,7,8,6,1,4]","[[-0.3,0.2],[0.3,0.2]]","[[0.125,-0.2],[-0.125,-0.2]]",-0.113888847,-0.191666709,1,0,0,2.0964,o2_image,706.3522,1,706.8413,706.8413,708.8412,0,0,0,0,1,,,,,,,,,,,,,,,,,,,,,,,,,,,,,,,,,,,,,,,,,,,,,,,,,,
,,61405a0426b9171448bc7de7,24,female,2024-04-24_12h33.13.155,stockport_simplified,2022.2.4,Win32,60.24096386,661e456ee6de07e70aa9ef7b,6628df860698476c2608c3f9,,,,,,,,,,,,,,,,,,,,,,,,,,,,,,,,,,,,,,,,,,,,,,,,,,,,,,,,1,44,104,26,1,N,M,D,o2_image,stimuli/out2.png,stimuli/out1.png,stimuli/correct_out2.png,,,,,,,,,,,,,,,,,,,,,,,,,,,,,,,,,,,,,,
,,61405a0426b9171448bc7de7,24,female,2024-04-24_12h33.13.155,stockport_simplified,2022.2.4,Win32,60.24096386,661e456ee6de07e70aa9ef7b,6628df860698476c2608c3f9,,,,,,,,,,,,,,,,,,,,,,,,,,,,,,,,,,708.8441,710.1737,"[3,2,5,7,8,6,1,4]","[[-0.3,0.2],[0.3,0.2]]","[[0.125,-0.2],[-0.125,-0.2]]",-0.113888847,-0.191666709,1,0,0,0.8015,o2_image,710.1752,1,710.6721,710.6722,712.6714,0,0,0,0,1,,,,,,,,,,,,,,,,,,,,,,,,,,,,,,,,,,,,,,,,,,,,,,,,,,
,,61405a0426b9171448bc7de7,24,female,2024-04-24_12h33.13.155,stockport_simplified,2022.2.4,Win32,60.24096386,661e456ee6de07e70aa9ef7b,6628df860698476c2608c3f9,,,,,,,,,,,,,,,,,,,,,,,,,,,,,,,,,,,,,,,,,,,,,,,,,,,,,,,,1,45,105,25,1,N,M,D,o2_image,stimuli/out2.png,stimuli/out1.png,stimuli/correct_out2.png,,,,,,,,,,,,,,,,,,,,,,,,,,,,,,,,,,,,,,
,,61405a0426b9171448bc7de7,24,female,2024-04-24_12h33.13.155,stockport_simplified,2022.2.4,Win32,60.24096386,661e456ee6de07e70aa9ef7b,6628df860698476c2608c3f9,,,,,,,,,,,,,,,,,,,,,,,,,,,,,,,,,,712.6741,714.8674,"[3,2,5,7,8,6,1,4]","[[-0.3,0.2],[0.3,0.2]]","[[0.125,-0.2],[-0.125,-0.2]]",0.135185171,-0.22592594,1,0,0,1.6632,o1_image,714.8687,0,715.3677,715.3677,717.3664,0,0,0,0,1,,,,,,,,,,,,,,,,,,,,,,,,,,,,,,,,,,,,,,,,,,,,,,,,,,
,,61405a0426b9171448bc7de7,24,female,2024-04-24_12h33.13.155,stockport_simplified,2022.2.4,Win32,60.24096386,661e456ee6de07e70aa9ef7b,6628df860698476c2608c3f9,,,,,,,,,,,,,,,,,,,,,,,,,,,,,,,,,,,,,,,,,,,,,,,,,,,,,,,,1,46,106,12,1,B,X,N,o2_image,stimuli/out2.png,stimuli/out1.png,stimuli/correct_out2.png,,,,,,,,,,,,,,,,,,,,,,,,,,,,,,,,,,,,,,
,,61405a0426b9171448bc7de7,24,female,2024-04-24_12h33.13.155,stockport_simplified,2022.2.4,Win32,60.24096386,661e456ee6de07e70aa9ef7b,6628df860698476c2608c3f9,,,,,,,,,,,,,,,,,,,,,,,,,,,,,,,,,,717.3675,719.1308,"[3,2,5,7,8,6,1,4]","[[-0.3,0.2],[0.3,0.2]]","[[0.125,-0.2],[-0.125,-0.2]]",-0.084259245,-0.223148134,1,0,0,1.2325,o2_image,719.1327,1,719.6306,719.6306,721.629,0,0,0,0,1,,,,,,,,,,,,,,,,,,,,,,,,,,,,,,,,,,,,,,,,,,,,,,,,,,
,,61405a0426b9171448bc7de7,24,female,2024-04-24_12h33.13.155,stockport_simplified,2022.2.4,Win32,60.24096386,661e456ee6de07e70aa9ef7b,6628df860698476c2608c3f9,,,,,,,,,,,,,,,,,,,,,,,,,,,,,,,,,,,,,,,,,,,,,,,,,,,,,,,,1,47,107,41,1,B,X,N,o2_image,stimuli/out2.png,stimuli/out1.png,stimuli/correct_out2.png,,,,,,,,,,,,,,,,,,,,,,,,,,,,,,,,,,,,,,
,,61405a0426b9171448bc7de7,24,female,2024-04-24_12h33.13.155,stockport_simplified,2022.2.4,Win32,60.24096386,661e456ee6de07e70aa9ef7b,6628df860698476c2608c3f9,,,,,,,,,,,,,,,,,,,,,,,,,,,,,,,,,,721.6301,723.1612,"[3,2,5,7,8,6,1,4]","[[0.3,0.2],[-0.3,0.2]]","[[-0.125,-0.2],[0.125,-0.2]]",-0.084259245,-0.223148134,1,0,0,0.998,o1_image,723.163,1,723.6607,723.6608,725.6594,0,0,0,0,1,,,,,,,,,,,,,,,,,,,,,,,,,,,,,,,,,,,,,,,,,,,,,,,,,,
,,61405a0426b9171448bc7de7,24,female,2024-04-24_12h33.13.155,stockport_simplified,2022.2.4,Win32,60.24096386,661e456ee6de07e70aa9ef7b,6628df860698476c2608c3f9,,,,,,,,,,,,,,,,,,,,,,,,,,,,,,,,,,,,,,,,,,,,,,,,,,,,,,,,1,48,108,0,1,A,X,N,o1_image,stimuli/out1.png,stimuli/correct_out1.png,stimuli/out2.png,,,,,,,,,,,,,,,,,,,,,,,,,,,,,,,,,,,,,,
,,61405a0426b9171448bc7de7,24,female,2024-04-24_12h33.13.155,stockport_simplified,2022.2.4,Win32,60.24096386,661e456ee6de07e70aa9ef7b,6628df860698476c2608c3f9,,,,,,,,,,,,,,,,,,,,,,,,,,,,,,,,,,725.6605,727.2911,"[3,2,5,7,8,6,1,4]","[[0.3,0.2],[-0.3,0.2]]","[[-0.125,-0.2],[0.125,-0.2]]",-0.084259245,-0.223148134,1,0,0,1.0981,o1_image,727.2932,1,727.7911,727.7912,729.7879,0,0,0,0,1,,,,,,,,,,,,,,,,,,,,,,,,,,,,,,,,,,,,,,,,,,,,,,,,,,
,,61405a0426b9171448bc7de7,24,female,2024-04-24_12h33.13.155,stockport_simplified,2022.2.4,Win32,60.24096386,661e456ee6de07e70aa9ef7b,6628df860698476c2608c3f9,,,,,,,,,,,,,,,,,,,,,,,,,,,,,,,,,,,,,,,,,,,,,,,,,,,,,,,,1,49,109,24,1,N,M,C,o1_image,stimuli/out1.png,stimuli/correct_out1.png,stimuli/out2.png,,,,,,,,,,,,,,,,,,,,,,,,,,,,,,,,,,,,,,
,,61405a0426b9171448bc7de7,24,female,2024-04-24_12h33.13.155,stockport_simplified,2022.2.4,Win32,60.24096386,661e456ee6de07e70aa9ef7b,6628df860698476c2608c3f9,,,,,,,,,,,,,,,,,,,,,,,,,,,,,,,,,,729.7891,731.4533,"[3,2,5,7,8,6,1,4]","[[-0.3,0.2],[0.3,0.2]]","[[-0.125,-0.2],[0.125,-0.2]]",-0.084259245,-0.223148134,1,0,0,1.1305,o1_image,731.4557,1,731.9537,731.9539,733.9514,0,0,0,0,1,,,,,,,,,,,,,,,,,,,,,,,,,,,,,,,,,,,,,,,,,,,,,,,,,,
,,61405a0426b9171448bc7de7,24,female,2024-04-24_12h33.13.155,stockport_simplified,2022.2.4,Win32,60.24096386,661e456ee6de07e70aa9ef7b,6628df860698476c2608c3f9,,,,,,,,,,,,,,,,,,,,,,,,,,,,,,,,,,,,,,,,,,,,,,,,,,,,,,,,1,50,110,31,1,A,X,N,o1_image,stimuli/out1.png,stimuli/correct_out1.png,stimuli/out2.png,,,,,,,,,,,,,,,,,,,,,,,,,,,,,,,,,,,,,,
,,61405a0426b9171448bc7de7,24,female,2024-04-24_12h33.13.155,stockport_simplified,2022.2.4,Win32,60.24096386,661e456ee6de07e70aa9ef7b,6628df860698476c2608c3f9,,,,,,,,,,,,,,,,,,,,,,,,,,,,,,,,,,733.9526,735.3174,"[3,2,5,7,8,6,1,4]","[[0.3,0.2],[-0.3,0.2]]","[[-0.125,-0.2],[0.125,-0.2]]",-0.084259245,-0.223148134,1,0,0,0.8311,o1_image,735.3193,1,735.8164,735.8164,737.8155,0,0,0,0,1,,,,,,,,,,,,,,,,,,,,,,,,,,,,,,,,,,,,,,,,,,,,,,,,,,
,,61405a0426b9171448bc7de7,24,female,2024-04-24_12h33.13.155,stockport_simplified,2022.2.4,Win32,60.24096386,661e456ee6de07e70aa9ef7b,6628df860698476c2608c3f9,,,,,,,,,,,,,,,,,,,,,,,,,,,,,,,,,,,,,,,,,,,,,,,,,,,,,,,,1,51,111,4,1,A,X,N,o1_image,stimuli/out1.png,stimuli/correct_out1.png,stimuli/out2.png,,,,,,,,,,,,,,,,,,,,,,,,,,,,,,,,,,,,,,
,,61405a0426b9171448bc7de7,24,female,2024-04-24_12h33.13.155,stockport_simplified,2022.2.4,Win32,60.24096386,661e456ee6de07e70aa9ef7b,6628df860698476c2608c3f9,,,,,,,,,,,,,,,,,,,,,,,,,,,,,,,,,,737.8166,739.6805,"[3,2,5,7,8,6,1,4]","[[0.3,0.2],[-0.3,0.2]]","[[0.125,-0.2],[-0.125,-0.2]]",0.163888931,-0.252777806,1,0,0,1.3298,o1_image,739.6826,0,740.1789,740.179,742.1776,0,0,0,0,1,,,,,,,,,,,,,,,,,,,,,,,,,,,,,,,,,,,,,,,,,,,,,,,,,,
,,61405a0426b9171448bc7de7,24,female,2024-04-24_12h33.13.155,stockport_simplified,2022.2.4,Win32,60.24096386,661e456ee6de07e70aa9ef7b,6628df860698476c2608c3f9,,,,,,,,,,,,,,,,,,,,,,,,,,,,,,,,,,,,,,,,,,,,,,,,,,,,,,,,1,52,112,27,1,N,M,D,o2_image,stimuli/out2.png,stimuli/out1.png,stimuli/correct_out2.png,,,,,,,,,,,,,,,,,,,,,,,,,,,,,,,,,,,,,,
,,61405a0426b9171448bc7de7,24,female,2024-04-24_12h33.13.155,stockport_simplified,2022.2.4,Win32,60.24096386,661e456ee6de07e70aa9ef7b,6628df860698476c2608c3f9,,,,,,,,,,,,,,,,,,,,,,,,,,,,,,,,,,742.1786,744.009,"[3,2,5,7,8,6,1,4]","[[-0.3,0.2],[0.3,0.2]]","[[0.125,-0.2],[-0.125,-0.2]]",-0.099999958,-0.199074074,1,0,0,1.2983,o2_image,744.0125,1,744.5095,744.5095,746.5078,0,0,0,0,1,,,,,,,,,,,,,,,,,,,,,,,,,,,,,,,,,,,,,,,,,,,,,,,,,,
,,61405a0426b9171448bc7de7,24,female,2024-04-24_12h33.13.155,stockport_simplified,2022.2.4,Win32,60.24096386,661e456ee6de07e70aa9ef7b,6628df860698476c2608c3f9,,,,,,,,,,,,,,,,,,,,,,,,,,,,,,,,,,,,,,,,,,,,,,,,,,,,,,,,1,53,113,58,1,N,M,D,o2_image,stimuli/out2.png,stimuli/out1.png,stimuli/correct_out2.png,,,,,,,,,,,,,,,,,,,,,,,,,,,,,,,,,,,,,,
,,61405a0426b9171448bc7de7,24,female,2024-04-24_12h33.13.155,stockport_simplified,2022.2.4,Win32,60.24096386,661e456ee6de07e70aa9ef7b,6628df860698476c2608c3f9,,,,,,,,,,,,,,,,,,,,,,,,,,,,,,,,,,746.5097,748.306,"[3,2,5,7,8,6,1,4]","[[0.3,0.2],[-0.3,0.2]]","[[0.125,-0.2],[-0.125,-0.2]]",-0.081481439,-0.19722225,1,0,0,1.2648,o2_image,748.3081,0,748.8057,748.8058,750.8046,0,0,0,0,1,,,,,,,,,,,,,,,,,,,,,,,,,,,,,,,,,,,,,,,,,,,,,,,,,,
,,61405a0426b9171448bc7de7,24,female,2024-04-24_12h33.13.155,stockport_simplified,2022.2.4,Win32,60.24096386,661e456ee6de07e70aa9ef7b,6628df860698476c2608c3f9,,,,,,,,,,,,,,,,,,,,,,,,,,,,,,,,,,,,,,,,,,,,,,,,,,,,,,,,1,54,114,21,1,N,M,C,o1_image,stimuli/out1.png,stimuli/correct_out1.png,stimuli/out2.png,,,,,,,,,,,,,,,,,,,,,,,,,,,,,,,,,,,,,,
,,61405a0426b9171448bc7de7,24,female,2024-04-24_12h33.13.155,stockport_simplified,2022.2.4,Win32,60.24096386,661e456ee6de07e70aa9ef7b,6628df860698476c2608c3f9,,,,,,,,,,,,,,,,,,,,,,,,,,,,,,,,,,750.8069,753.035,"[3,2,5,7,8,6,1,4]","[[-0.3,0.2],[0.3,0.2]]","[[0.125,-0.2],[-0.125,-0.2]]",-0.081481439,-0.19722225,1,0,0,1.6973,o2_image,753.0373,1,753.5361,753.5361,755.533,0,0,0,0,1,,,,,,,,,,,,,,,,,,,,,,,,,,,,,,,,,,,,,,,,,,,,,,,,,,
,,61405a0426b9171448bc7de7,24,female,2024-04-24_12h33.13.155,stockport_simplified,2022.2.4,Win32,60.24096386,661e456ee6de07e70aa9ef7b,6628df860698476c2608c3f9,,,,,,,,,,,,,,,,,,,,,,,,,,,,,,,,,,,,,,,,,,,,,,,,,,,,,,,,1,55,115,49,1,B,Y,N,o2_image,stimuli/out2.png,stimuli/out1.png,stimuli/correct_out2.png,,,,,,,,,,,,,,,,,,,,,,,,,,,,,,,,,,,,,,
,,61405a0426b9171448bc7de7,24,female,2024-04-24_12h33.13.155,stockport_simplified,2022.2.4,Win32,60.24096386,661e456ee6de07e70aa9ef7b,6628df860698476c2608c3f9,,,,,,,,,,,,,,,,,,,,,,,,,,,,,,,,,,755.5341,757.9309,"[3,2,5,7,8,6,1,4]","[[0.3,0.2],[-0.3,0.2]]","[[-0.125,-0.2],[0.125,-0.2]]",0.147222236,-0.205555598,1,0,0,1.8648,o2_image,757.9344,0,758.4304,758.4304,760.4292,0,0,0,0,1,,,,,,,,,,,,,,,,,,,,,,,,,,,,,,,,,,,,,,,,,,,,,,,,,,
,,61405a0426b9171448bc7de7,24,female,2024-04-24_12h33.13.155,stockport_simplified,2022.2.4,Win32,60.24096386,661e456ee6de07e70aa9ef7b,6628df860698476c2608c3f9,,,,,,,,,,,,,,,,,,,,,,,,,,,,,,,,,,,,,,,,,,,,,,,,,,,,,,,,1,56,116,51,1,N,M,C,o1_image,stimuli/out1.png,stimuli/correct_out1.png,stimuli/out2.png,,,,,,,,,,,,,,,,,,,,,,,,,,,,,,,,,,,,,,
,,61405a0426b9171448bc7de7,24,female,2024-04-24_12h33.13.155,stockport_simplified,2022.2.4,Win32,60.24096386,661e456ee6de07e70aa9ef7b,6628df860698476c2608c3f9,,,,,,,,,,,,,,,,,,,,,,,,,,,,,,,,,,760.4298,762.8926,"[3,2,5,7,8,6,1,4]","[[0.3,0.2],[-0.3,0.2]]","[[0.125,-0.2],[-0.125,-0.2]]",0.137962977,-0.20185188,1,0,0,1.9299,o1_image,762.8947,0,763.3929,763.393,765.3909,0,0,0,0,1,,,,,,,,,,,,,,,,,,,,,,,,,,,,,,,,,,,,,,,,,,,,,,,,,,
,,61405a0426b9171448bc7de7,24,female,2024-04-24_12h33.13.155,stockport_simplified,2022.2.4,Win32,60.24096386,661e456ee6de07e70aa9ef7b,6628df860698476c2608c3f9,,,,,,,,,,,,,,,,,,,,,,,,,,,,,,,,,,,,,,,,,,,,,,,,,,,,,,,,1,57,117,44,1,B,X,N,o2_image,stimuli/out2.png,stimuli/out1.png,stimuli/correct_out2.png,,,,,,,,,,,,,,,,,,,,,,,,,,,,,,,,,,,,,,
,,61405a0426b9171448bc7de7,24,female,2024-04-24_12h33.13.155,stockport_simplified,2022.2.4,Win32,60.24096386,661e456ee6de07e70aa9ef7b,6628df860698476c2608c3f9,,,,,,,,,,,,,,,,,,,,,,,,,,,,,,,,,,765.3919,767.3572,"[3,2,5,7,8,6,1,4]","[[0.3,0.2],[-0.3,0.2]]","[[0.125,-0.2],[-0.125,-0.2]]",-0.076851809,-0.210185228,1,0,0,1.4332,o2_image,767.3605,0,767.8547,767.8547,769.8548,0,0,0,0,1,,,,,,,,,,,,,,,,,,,,,,,,,,,,,,,,,,,,,,,,,,,,,,,,,,
,,61405a0426b9171448bc7de7,24,female,2024-04-24_12h33.13.155,stockport_simplified,2022.2.4,Win32,60.24096386,661e456ee6de07e70aa9ef7b,6628df860698476c2608c3f9,,,,,,,,,,,,,,,,,,,,,,,,,,,,,,,,,,,,,,,,,,,,,,,,,,,,,,,,1,58,118,39,1,A,Y,N,o1_image,stimuli/out1.png,stimuli/correct_out1.png,stimuli/out2.png,,,,,,,,,,,,,,,,,,,,,,,,,,,,,,,,,,,,,,
,,61405a0426b9171448bc7de7,24,female,2024-04-24_12h33.13.155,stockport_simplified,2022.2.4,Win32,60.24096386,661e456ee6de07e70aa9ef7b,6628df860698476c2608c3f9,,,,,,,,,,,,,,,,,,,,,,,,,,,,,,,,,,769.8558,771.6848,"[3,2,5,7,8,6,1,4]","[[-0.3,0.2],[0.3,0.2]]","[[0.125,-0.2],[-0.125,-0.2]]",0.084259245,-0.209259245,1,0,0,1.2974,o1_image,771.6863,1,772.1846,772.1847,774.1845,0,0,0,0,1,,,,,,,,,,,,,,,,,,,,,,,,,,,,,,,,,,,,,,,,,,,,,,,,,,
,,61405a0426b9171448bc7de7,24,female,2024-04-24_12h33.13.155,stockport_simplified,2022.2.4,Win32,60.24096386,661e456ee6de07e70aa9ef7b,6628df860698476c2608c3f9,,,,,,,,,,,,,,,,,,,,,,,,,,,,,,,,,,,,,,,,,,,,,,,,,,,,,,,,1,59,119,30,1,A,X,N,o1_image,stimuli/out1.png,stimuli/correct_out1.png,stimuli/out2.png,,,,,,,,,,,,,,,,,,,,,,,,,,,,,,,,,,,,,,
,,61405a0426b9171448bc7de7,24,female,2024-04-24_12h33.13.155,stockport_simplified,2022.2.4,Win32,60.24096386,661e456ee6de07e70aa9ef7b,6628df860698476c2608c3f9,,,,,,,,,,,,,,,,,,,,,,,,,,,,,,,,,,774.2297,776.649,"[3,2,5,7,8,6,1,4]","[[0.3,0.2],[-0.3,0.2]]","[[-0.125,-0.2],[0.125,-0.2]]",-0.099999958,-0.218518504,1,0,0,1.8982,o1_image,776.6735,1,777.181,777.1811,779.1784,,,,,,,,,,,,,,,,,,0,0,0,0,1,,,,,,,,,,,,,,,,,,,,,,,,,,,,,,,,,
,,61405a0426b9171448bc7de7,24,female,2024-04-24_12h33.13.155,stockport_simplified,2022.2.4,Win32,60.24096386,661e456ee6de07e70aa9ef7b,6628df860698476c2608c3f9,,,,,,,,,,,,,,,,,,,,,,,,,,,,,,,,,,,,,,,,,,,,,,,,,,,,,,,,,,,,,A,Y,N,o1_image,stimuli/out1.png,stimuli/correct_out1.png,stimuli/out2.png,,,,,,0,0,0,14,1,,,,,,,,,,,,,,,,,,,,,,,,,,,,
,,61405a0426b9171448bc7de7,24,female,2024-04-24_12h33.13.155,stockport_simplified,2022.2.4,Win32,60.24096386,661e456ee6de07e70aa9ef7b,6628df860698476c2608c3f9,,,,,,,,,,,,,,,,,,,,,,,,,,,,,,,,,,779.1799,780.6113,"[3,2,5,7,8,6,1,4]","[[-0.3,0.2],[0.3,0.2]]","[[-0.125,-0.2],[0.125,-0.2]]",-0.099999958,-0.218518504,1,0,0,0.9,o1_image,780.614,1,781.1102,781.1103,783.1091,,,,,,,,,,,,,,,,,,0,0,0,0,1,,,,,,,,,,,,,,,,,,,,,,,,,,,,,,,,,
,,61405a0426b9171448bc7de7,24,female,2024-04-24_12h33.13.155,stockport_simplified,2022.2.4,Win32,60.24096386,661e456ee6de07e70aa9ef7b,6628df860698476c2608c3f9,,,,,,,,,,,,,,,,,,,,,,,,,,,,,,,,,,,,,,,,,,,,,,,,,,,,,,,,,,,,,A,Y,N,o1_image,stimuli/out1.png,stimuli/correct_out1.png,stimuli/out2.png,,,,,,0,1,1,16,1,,,,,,,,,,,,,,,,,,,,,,,,,,,,
,,61405a0426b9171448bc7de7,24,female,2024-04-24_12h33.13.155,stockport_simplified,2022.2.4,Win32,60.24096386,661e456ee6de07e70aa9ef7b,6628df860698476c2608c3f9,,,,,,,,,,,,,,,,,,,,,,,,,,,,,,,,,,783.1102,785.1064,"[3,2,5,7,8,6,1,4]","[[0.3,0.2],[-0.3,0.2]]","[[-0.125,-0.2],[0.125,-0.2]]",0.05740745,-0.216666681,1,0,0,1.4632,o2_image,785.1079,1,785.607,785.6071,787.605,,,,,,,,,,,,,,,,,,0,0,0,0,1,,,,,,,,,,,,,,,,,,,,,,,,,,,,,,,,,
,,61405a0426b9171448bc7de7,24,female,2024-04-24_12h33.13.155,stockport_simplified,2022.2.4,Win32,60.24096386,661e456ee6de07e70aa9ef7b,6628df860698476c2608c3f9,,,,,,,,,,,,,,,,,,,,,,,,,,,,,,,,,,,,,,,,,,,,,,,,,,,,,,,,,,,,,B,Y,N,o2_image,stimuli/out2.png,stimuli/out1.png,stimuli/correct_out2.png,,,,,,0,2,2,31,1,,,,,,,,,,,,,,,,,,,,,,,,,,,,
,,61405a0426b9171448bc7de7,24,female,2024-04-24_12h33.13.155,stockport_simplified,2022.2.4,Win32,60.24096386,661e456ee6de07e70aa9ef7b,6628df860698476c2608c3f9,,,,,,,,,,,,,,,,,,,,,,,,,,,,,,,,,,787.6061,789.6026,"[3,2,5,7,8,6,1,4]","[[-0.3,0.2],[0.3,0.2]]","[[0.125,-0.2],[-0.125,-0.2]]",-0.116666653,-0.222222222,1,0,0,1.4626,o2_image,789.6046,1,790.1047,790.1047,792.1016,,,,,,,,,,,,,,,,,,0,0,0,0,1,,,,,,,,,,,,,,,,,,,,,,,,,,,,,,,,,
