counterbalance_2.started,counterbalance_2.stopped,participant,age,gender,date,expName,psychopyVersion,OS,frameRate,STUDY_ID,SESSION_ID,information_2.started,information_2.stopped,information_loop.thisRepN,information_loop.thisTrialN,information_loop.thisN,information_loop.thisIndex,information_loop.ran,information,consent_2.started,consent_2.stopped,slider_1.response,slider_2.response,slider_3.response,slider_4.response,slider_5.response,slider_6.response,instructions.started,instructions.stopped,task1_instr.thisRepN,task1_instr.thisTrialN,task1_instr.thisN,task1_instr.thisIndex,task1_instr.ran,task1,comprehension1_2.started,comprehension1_2.stopped,comp1_mouse.x,comp1_mouse.y,comp1_mouse.leftButton,comp1_mouse.midButton,comp1_mouse.rightButton,comp1_mouse.time,comp1_mouse.clicked_name,cue_o__trial_2.started,cue_o__trial_2.stopped,order,cue_order,out_order,cue_o_mouse.x,cue_o_mouse.y,cue_o_mouse.leftButton,cue_o_mouse.midButton,cue_o_mouse.rightButton,cue_o_mouse.time,cue_o_mouse.clicked_name,cue_selection_2.started,correct_answer,cue_selection_2.stopped,feedback_2.started,feedback_2.stopped,feedback_loop.thisRepN,feedback_loop.thisTrialN,feedback_loop.thisN,feedback_loop.thisIndex,feedback_loop.ran,stage1_trials.thisRepN,stage1_trials.thisTrialN,stage1_trials.thisN,stage1_trials.thisIndex,stage1_trials.ran,cue1,cue2,cue3,outcome,correct_out,o1_feedback,o2_feedback,stage2_feedback_loop.thisRepN,stage2_feedback_loop.thisTrialN,stage2_feedback_loop.thisN,stage2_feedback_loop.thisIndex,stage2_feedback_loop.ran,stage2_trials.thisRepN,stage2_trials.thisTrialN,stage2_trials.thisN,stage2_trials.thisIndex,stage2_trials.ran,stage3_feedback_loop.thisRepN,stage3_feedback_loop.thisTrialN,stage3_feedback_loop.thisN,stage3_feedback_loop.thisIndex,stage3_feedback_loop.ran,stage3_trials.thisRepN,stage3_trials.thisTrialN,stage3_trials.thisN,stage3_trials.thisIndex,stage3_trials.ran,debrief_2.started,debrief_2.stopped,debrief_loop.thisRepN,debrief_loop.thisTrialN,debrief_loop.thisN,debrief_loop.thisIndex,debrief_loop.ran,debrief_img,compr1_completed.thisRepN,compr1_completed.thisTrialN,compr1_completed.thisN,compr1_completed.thisIndex,compr1_completed.ran,consent_loop.thisRepN,consent_loop.thisTrialN,consent_loop.thisN,consent_loop.thisIndex,consent_loop.ran
0.0001,0.0003,5fdbd8a82fbe510db8935564,,male,2024-04-19_17h38.31.777,stockport_simplified,2022.2.4,Win32,60.24096386,661e456ee6de07e70aa9ef7b,66229da3b3478e60a989b99a,,,,,,,,,,,,,,,,,,,,,,,,,,,,,,,,,,,,,,,,,,,,,,,,,,,,,,,,,,,,,,,,,,,,,,,,,,,,,,,,,,,,,,,,,,,,,,,,,,,,,,,,,
,,5fdbd8a82fbe510db8935564,,male,2024-04-19_17h38.31.777,stockport_simplified,2022.2.4,Win32,60.24096386,661e456ee6de07e70aa9ef7b,66229da3b3478e60a989b99a,0.013,59.3707,0,0,0,0,1,instructions/info1.png,,,,,,,,,,,,,,,,,,,,,,,,,,,,,,,,,,,,,,,,,,,,,,,,,,,,,,,,,,,,,,,,,,,,,,,,,,,,,,,,,,,,,,,,,,,,,,,,,
,,5fdbd8a82fbe510db8935564,,male,2024-04-19_17h38.31.777,stockport_simplified,2022.2.4,Win32,60.24096386,661e456ee6de07e70aa9ef7b,66229da3b3478e60a989b99a,59.3711,67.8612,0,1,1,1,1,instructions/info2.png,,,,,,,,,,,,,,,,,,,,,,,,,,,,,,,,,,,,,,,,,,,,,,,,,,,,,,,,,,,,,,,,,,,,,,,,,,,,,,,,,,,,,,,,,,,,,,,,,
,,5fdbd8a82fbe510db8935564,,male,2024-04-19_17h38.31.777,stockport_simplified,2022.2.4,Win32,60.24096386,661e456ee6de07e70aa9ef7b,66229da3b3478e60a989b99a,67.8673,69.3033,0,2,2,2,1,instructions/info3.png,,,,,,,,,,,,,,,,,,,,,,,,,,,,,,,,,,,,,,,,,,,,,,,,,,,,,,,,,,,,,,,,,,,,,,,,,,,,,,,,,,,,,,,,,,,,,,,,,
,,5fdbd8a82fbe510db8935564,,male,2024-04-19_17h38.31.777,stockport_simplified,2022.2.4,Win32,60.24096386,661e456ee6de07e70aa9ef7b,66229da3b3478e60a989b99a,,,,,,,,,69.3037,95.1037,1,1,1,1,1,1,,,,,,,,,,,,,,,,,,,,,,,,,,,,,,,,,,,,,,,,,,,,,,,,,,,,,,,,,,,,,,,,,,,,,,,,,,,,,,,,,,,,,,,,,
,,5fdbd8a82fbe510db8935564,,male,2024-04-19_17h38.31.777,stockport_simplified,2022.2.4,Win32,60.24096386,661e456ee6de07e70aa9ef7b,66229da3b3478e60a989b99a,,,,,,,,,,,,,,,,,95.1136,137.5706,0,0,0,0,1,instructions/task1_1.png,,,,,,,,,,,,,,,,,,,,,,,,,,,,,,,,,,,,,,,,,,,,,,,,,,,,,,,,,,,,,,,,,,,,,,,,,,,,,,,,,
,,5fdbd8a82fbe510db8935564,,male,2024-04-19_17h38.31.777,stockport_simplified,2022.2.4,Win32,60.24096386,661e456ee6de07e70aa9ef7b,66229da3b3478e60a989b99a,,,,,,,,,,,,,,,,,137.5762,184.7873,0,1,1,1,1,instructions/task1_2.png,,,,,,,,,,,,,,,,,,,,,,,,,,,,,,,,,,,,,,,,,,,,,,,,,,,,,,,,,,,,,,,,,,,,,,,,,,,,,,,,,
,,5fdbd8a82fbe510db8935564,,male,2024-04-19_17h38.31.777,stockport_simplified,2022.2.4,Win32,60.24096386,661e456ee6de07e70aa9ef7b,66229da3b3478e60a989b99a,,,,,,,,,,,,,,,,,184.7874,230.3707,0,2,2,2,1,instructions/task1_3.png,,,,,,,,,,,,,,,,,,,,,,,,,,,,,,,,,,,,,,,,,,,,,,,,,,,,,,,,,,,,,,,,,,,,,,,,,,,,,,,,,
,,5fdbd8a82fbe510db8935564,,male,2024-04-19_17h38.31.777,stockport_simplified,2022.2.4,Win32,60.24096386,661e456ee6de07e70aa9ef7b,66229da3b3478e60a989b99a,,,,,,,,,,,,,,,,,,,,,,,,,230.3711,253.7045,-0.088888875,-0.323148162,1,0,0,23.3331,comp1_resp1,253.7177,259.5379,"[2,5,1,8,3,6,4,7]","[[-0.3,0.2],[0.3,0.2]]","[[0.125,-0.2],[-0.125,-0.2]]",0.119444459,-0.202777792,1,0,0,5.3145,o1_image,259.544,1,260.0378,260.0378,262.0379,0,0,0,0,1,,,,,,,,,,,,,,,,,,,,,,,,,,,,,,,,,,,,,,,,,,,,,,,,,,
,,5fdbd8a82fbe510db8935564,,male,2024-04-19_17h38.31.777,stockport_simplified,2022.2.4,Win32,60.24096386,661e456ee6de07e70aa9ef7b,66229da3b3478e60a989b99a,,,,,,,,,,,,,,,,,,,,,,,,,,,,,,,,,,,,,,,,,,,,,,,,,,,,,,,,0,0,0,30,1,A,X,N,o1_image,stimuli/out1.png,stimuli/correct_out1.png,stimuli/out2.png,,,,,,,,,,,,,,,,,,,,,,,,,,,,,,,,,,,,,,
,,5fdbd8a82fbe510db8935564,,male,2024-04-19_17h38.31.777,stockport_simplified,2022.2.4,Win32,60.24096386,661e456ee6de07e70aa9ef7b,66229da3b3478e60a989b99a,,,,,,,,,,,,,,,,,,,,,,,,,,,,,,,,,,262.0383,264.3599,"[2,5,1,8,3,6,4,7]","[[0.3,0.2],[-0.3,0.2]]","[[0.125,-0.2],[-0.125,-0.2]]",-0.132407365,-0.226851852,1,0,0,1.8038,o2_image,264.3602,0,264.8543,264.8543,266.8544,0,0,0,0,1,,,,,,,,,,,,,,,,,,,,,,,,,,,,,,,,,,,,,,,,,,,,,,,,,,
,,5fdbd8a82fbe510db8935564,,male,2024-04-19_17h38.31.777,stockport_simplified,2022.2.4,Win32,60.24096386,661e456ee6de07e70aa9ef7b,66229da3b3478e60a989b99a,,,,,,,,,,,,,,,,,,,,,,,,,,,,,,,,,,,,,,,,,,,,,,,,,,,,,,,,0,1,1,50,1,N,M,C,o1_image,stimuli/out1.png,stimuli/correct_out1.png,stimuli/out2.png,,,,,,,,,,,,,,,,,,,,,,,,,,,,,,,,,,,,,,
,,5fdbd8a82fbe510db8935564,,male,2024-04-19_17h38.31.777,stockport_simplified,2022.2.4,Win32,60.24096386,661e456ee6de07e70aa9ef7b,66229da3b3478e60a989b99a,,,,,,,,,,,,,,,,,,,,,,,,,,,,,,,,,,266.8546,270.3545,"[2,5,1,8,3,6,4,7]","[[0.3,0.2],[-0.3,0.2]]","[[0.125,-0.2],[-0.125,-0.2]]",0.117592635,-0.202777792,1,0,0,2.9834,o1_image,270.3605,1,270.8546,270.8547,272.8551,0,0,0,0,1,,,,,,,,,,,,,,,,,,,,,,,,,,,,,,,,,,,,,,,,,,,,,,,,,,
,,5fdbd8a82fbe510db8935564,,male,2024-04-19_17h38.31.777,stockport_simplified,2022.2.4,Win32,60.24096386,661e456ee6de07e70aa9ef7b,66229da3b3478e60a989b99a,,,,,,,,,,,,,,,,,,,,,,,,,,,,,,,,,,,,,,,,,,,,,,,,,,,,,,,,0,2,2,53,1,N,M,C,o1_image,stimuli/out1.png,stimuli/correct_out1.png,stimuli/out2.png,,,,,,,,,,,,,,,,,,,,,,,,,,,,,,,,,,,,,,
,,5fdbd8a82fbe510db8935564,,male,2024-04-19_17h38.31.777,stockport_simplified,2022.2.4,Win32,60.24096386,661e456ee6de07e70aa9ef7b,66229da3b3478e60a989b99a,,,,,,,,,,,,,,,,,,,,,,,,,,,,,,,,,,272.8557,275.6711,"[2,5,1,8,3,6,4,7]","[[-0.3,0.2],[0.3,0.2]]","[[0.125,-0.2],[-0.125,-0.2]]",-0.10092594,-0.157407407,1,0,0,2.2989,o2_image,275.6717,1,276.171,276.1711,278.171,0,0,0,0,1,,,,,,,,,,,,,,,,,,,,,,,,,,,,,,,,,,,,,,,,,,,,,,,,,,
,,5fdbd8a82fbe510db8935564,,male,2024-04-19_17h38.31.777,stockport_simplified,2022.2.4,Win32,60.24096386,661e456ee6de07e70aa9ef7b,66229da3b3478e60a989b99a,,,,,,,,,,,,,,,,,,,,,,,,,,,,,,,,,,,,,,,,,,,,,,,,,,,,,,,,0,3,3,56,1,N,M,D,o2_image,stimuli/out2.png,stimuli/out1.png,stimuli/correct_out2.png,,,,,,,,,,,,,,,,,,,,,,,,,,,,,,,,,,,,,,
,,5fdbd8a82fbe510db8935564,,male,2024-04-19_17h38.31.777,stockport_simplified,2022.2.4,Win32,60.24096386,661e456ee6de07e70aa9ef7b,66229da3b3478e60a989b99a,,,,,,,,,,,,,,,,,,,,,,,,,,,,,,,,,,278.1713,282.321,"[2,5,1,8,3,6,4,7]","[[0.3,0.2],[-0.3,0.2]]","[[0.125,-0.2],[-0.125,-0.2]]",-0.074999986,-0.175000014,1,0,0,3.633,o2_image,282.3269,0,282.8215,282.8215,284.8244,0,0,0,0,1,,,,,,,,,,,,,,,,,,,,,,,,,,,,,,,,,,,,,,,,,,,,,,,,,,
,,5fdbd8a82fbe510db8935564,,male,2024-04-19_17h38.31.777,stockport_simplified,2022.2.4,Win32,60.24096386,661e456ee6de07e70aa9ef7b,66229da3b3478e60a989b99a,,,,,,,,,,,,,,,,,,,,,,,,,,,,,,,,,,,,,,,,,,,,,,,,,,,,,,,,0,4,4,36,1,A,Y,N,o1_image,stimuli/out1.png,stimuli/correct_out1.png,stimuli/out2.png,,,,,,,,,,,,,,,,,,,,,,,,,,,,,,,,,,,,,,
,,5fdbd8a82fbe510db8935564,,male,2024-04-19_17h38.31.777,stockport_simplified,2022.2.4,Win32,60.24096386,661e456ee6de07e70aa9ef7b,66229da3b3478e60a989b99a,,,,,,,,,,,,,,,,,,,,,,,,,,,,,,,,,,284.8246,288.5377,"[2,5,1,8,3,6,4,7]","[[0.3,0.2],[-0.3,0.2]]","[[0.125,-0.2],[-0.125,-0.2]]",0.097222222,-0.208333333,1,0,0,3.1998,o1_image,288.5439,1,289.0383,289.0383,291.0421,0,0,0,0,1,,,,,,,,,,,,,,,,,,,,,,,,,,,,,,,,,,,,,,,,,,,,,,,,,,
,,5fdbd8a82fbe510db8935564,,male,2024-04-19_17h38.31.777,stockport_simplified,2022.2.4,Win32,60.24096386,661e456ee6de07e70aa9ef7b,66229da3b3478e60a989b99a,,,,,,,,,,,,,,,,,,,,,,,,,,,,,,,,,,,,,,,,,,,,,,,,,,,,,,,,0,5,5,5,1,A,Y,N,o1_image,stimuli/out1.png,stimuli/correct_out1.png,stimuli/out2.png,,,,,,,,,,,,,,,,,,,,,,,,,,,,,,,,,,,,,,
,,5fdbd8a82fbe510db8935564,,male,2024-04-19_17h38.31.777,stockport_simplified,2022.2.4,Win32,60.24096386,661e456ee6de07e70aa9ef7b,66229da3b3478e60a989b99a,,,,,,,,,,,,,,,,,,,,,,,,,,,,,,,,,,291.0426,296.3379,"[2,5,1,8,3,6,4,7]","[[-0.3,0.2],[0.3,0.2]]","[[-0.125,-0.2],[0.125,-0.2]]",-0.138888889,-0.18240745,1,0,0,4.7831,o1_image,296.3439,1,296.8384,296.8386,298.8386,0,0,0,0,1,,,,,,,,,,,,,,,,,,,,,,,,,,,,,,,,,,,,,,,,,,,,,,,,,,
,,5fdbd8a82fbe510db8935564,,male,2024-04-19_17h38.31.777,stockport_simplified,2022.2.4,Win32,60.24096386,661e456ee6de07e70aa9ef7b,66229da3b3478e60a989b99a,,,,,,,,,,,,,,,,,,,,,,,,,,,,,,,,,,,,,,,,,,,,,,,,,,,,,,,,0,6,6,22,1,N,M,C,o1_image,stimuli/out1.png,stimuli/correct_out1.png,stimuli/out2.png,,,,,,,,,,,,,,,,,,,,,,,,,,,,,,,,,,,,,,
,,5fdbd8a82fbe510db8935564,,male,2024-04-19_17h38.31.777,stockport_simplified,2022.2.4,Win32,60.24096386,661e456ee6de07e70aa9ef7b,66229da3b3478e60a989b99a,,,,,,,,,,,,,,,,,,,,,,,,,,,,,,,,,,298.8392,303.3211,"[2,5,1,8,3,6,4,7]","[[-0.3,0.2],[0.3,0.2]]","[[0.125,-0.2],[-0.125,-0.2]]",-0.116666653,-0.189814815,1,0,0,3.9654,o2_image,303.3268,1,303.822,303.822,305.8218,0,0,0,0,1,,,,,,,,,,,,,,,,,,,,,,,,,,,,,,,,,,,,,,,,,,,,,,,,,,
,,5fdbd8a82fbe510db8935564,,male,2024-04-19_17h38.31.777,stockport_simplified,2022.2.4,Win32,60.24096386,661e456ee6de07e70aa9ef7b,66229da3b3478e60a989b99a,,,,,,,,,,,,,,,,,,,,,,,,,,,,,,,,,,,,,,,,,,,,,,,,,,,,,,,,0,7,7,59,1,N,M,D,o2_image,stimuli/out2.png,stimuli/out1.png,stimuli/correct_out2.png,,,,,,,,,,,,,,,,,,,,,,,,,,,,,,,,,,,,,,
,,5fdbd8a82fbe510db8935564,,male,2024-04-19_17h38.31.777,stockport_simplified,2022.2.4,Win32,60.24096386,661e456ee6de07e70aa9ef7b,66229da3b3478e60a989b99a,,,,,,,,,,,,,,,,,,,,,,,,,,,,,,,,,,305.8225,312.1879,"[2,5,1,8,3,6,4,7]","[[0.3,0.2],[-0.3,0.2]]","[[-0.125,-0.2],[0.125,-0.2]]",-0.109259217,-0.20648151,1,0,0,5.8494,o1_image,312.1938,1,312.6887,312.6888,314.6887,0,0,0,0,1,,,,,,,,,,,,,,,,,,,,,,,,,,,,,,,,,,,,,,,,,,,,,,,,,,
,,5fdbd8a82fbe510db8935564,,male,2024-04-19_17h38.31.777,stockport_simplified,2022.2.4,Win32,60.24096386,661e456ee6de07e70aa9ef7b,66229da3b3478e60a989b99a,,,,,,,,,,,,,,,,,,,,,,,,,,,,,,,,,,,,,,,,,,,,,,,,,,,,,,,,0,8,8,2,1,A,X,N,o1_image,stimuli/out1.png,stimuli/correct_out1.png,stimuli/out2.png,,,,,,,,,,,,,,,,,,,,,,,,,,,,,,,,,,,,,,
,,5fdbd8a82fbe510db8935564,,male,2024-04-19_17h38.31.777,stockport_simplified,2022.2.4,Win32,60.24096386,661e456ee6de07e70aa9ef7b,66229da3b3478e60a989b99a,,,,,,,,,,,,,,,,,,,,,,,,,,,,,,,,,,314.6893,319.6713,"[2,5,1,8,3,6,4,7]","[[0.3,0.2],[-0.3,0.2]]","[[0.125,-0.2],[-0.125,-0.2]]",-0.134259259,-0.216666681,1,0,0,4.4656,o2_image,319.6775,1,320.1719,320.172,322.16,0,0,0,0,1,,,,,,,,,,,,,,,,,,,,,,,,,,,,,,,,,,,,,,,,,,,,,,,,,,
,,5fdbd8a82fbe510db8935564,,male,2024-04-19_17h38.31.777,stockport_simplified,2022.2.4,Win32,60.24096386,661e456ee6de07e70aa9ef7b,66229da3b3478e60a989b99a,,,,,,,,,,,,,,,,,,,,,,,,,,,,,,,,,,,,,,,,,,,,,,,,,,,,,,,,0,9,9,40,1,B,X,N,o2_image,stimuli/out2.png,stimuli/out1.png,stimuli/correct_out2.png,,,,,,,,,,,,,,,,,,,,,,,,,,,,,,,,,,,,,,
,,5fdbd8a82fbe510db8935564,,male,2024-04-19_17h38.31.777,stockport_simplified,2022.2.4,Win32,60.24096386,661e456ee6de07e70aa9ef7b,66229da3b3478e60a989b99a,,,,,,,,,,,,,,,,,,,,,,,,,,,,,,,,,,322.1603,325.172,"[2,5,1,8,3,6,4,7]","[[-0.3,0.2],[0.3,0.2]]","[[0.125,-0.2],[-0.125,-0.2]]",0.097222222,-0.135185171,1,0,0,2.5003,o1_image,325.1909,1,325.6886,325.6886,327.6945,0,0,0,0,1,,,,,,,,,,,,,,,,,,,,,,,,,,,,,,,,,,,,,,,,,,,,,,,,,,
,,5fdbd8a82fbe510db8935564,,male,2024-04-19_17h38.31.777,stockport_simplified,2022.2.4,Win32,60.24096386,661e456ee6de07e70aa9ef7b,66229da3b3478e60a989b99a,,,,,,,,,,,,,,,,,,,,,,,,,,,,,,,,,,,,,,,,,,,,,,,,,,,,,,,,0,10,10,35,1,A,Y,N,o1_image,stimuli/out1.png,stimuli/correct_out1.png,stimuli/out2.png,,,,,,,,,,,,,,,,,,,,,,,,,,,,,,,,,,,,,,
,,5fdbd8a82fbe510db8935564,,male,2024-04-19_17h38.31.777,stockport_simplified,2022.2.4,Win32,60.24096386,661e456ee6de07e70aa9ef7b,66229da3b3478e60a989b99a,,,,,,,,,,,,,,,,,,,,,,,,,,,,,,,,,,327.6951,329.6881,"[2,5,1,8,3,6,4,7]","[[-0.3,0.2],[0.3,0.2]]","[[0.125,-0.2],[-0.125,-0.2]]",-0.076851809,-0.176851838,1,0,0,1.483,o2_image,329.6884,1,330.1887,330.1887,332.189,0,0,0,0,1,,,,,,,,,,,,,,,,,,,,,,,,,,,,,,,,,,,,,,,,,,,,,,,,,,
,,5fdbd8a82fbe510db8935564,,male,2024-04-19_17h38.31.777,stockport_simplified,2022.2.4,Win32,60.24096386,661e456ee6de07e70aa9ef7b,66229da3b3478e60a989b99a,,,,,,,,,,,,,,,,,,,,,,,,,,,,,,,,,,,,,,,,,,,,,,,,,,,,,,,,0,11,11,57,1,N,M,D,o2_image,stimuli/out2.png,stimuli/out1.png,stimuli/correct_out2.png,,,,,,,,,,,,,,,,,,,,,,,,,,,,,,,,,,,,,,
,,5fdbd8a82fbe510db8935564,,male,2024-04-19_17h38.31.777,stockport_simplified,2022.2.4,Win32,60.24096386,661e456ee6de07e70aa9ef7b,66229da3b3478e60a989b99a,,,,,,,,,,,,,,,,,,,,,,,,,,,,,,,,,,332.1897,336.1213,"[2,5,1,8,3,6,4,7]","[[0.3,0.2],[-0.3,0.2]]","[[0.125,-0.2],[-0.125,-0.2]]",0.146296325,-0.181481467,1,0,0,3.4165,o1_image,336.1268,1,336.622,336.622,338.6216,0,0,0,0,1,,,,,,,,,,,,,,,,,,,,,,,,,,,,,,,,,,,,,,,,,,,,,,,,,,
,,5fdbd8a82fbe510db8935564,,male,2024-04-19_17h38.31.777,stockport_simplified,2022.2.4,Win32,60.24096386,661e456ee6de07e70aa9ef7b,66229da3b3478e60a989b99a,,,,,,,,,,,,,,,,,,,,,,,,,,,,,,,,,,,,,,,,,,,,,,,,,,,,,,,,0,12,12,3,1,A,X,N,o1_image,stimuli/out1.png,stimuli/correct_out1.png,stimuli/out2.png,,,,,,,,,,,,,,,,,,,,,,,,,,,,,,,,,,,,,,
,,5fdbd8a82fbe510db8935564,,male,2024-04-19_17h38.31.777,stockport_simplified,2022.2.4,Win32,60.24096386,661e456ee6de07e70aa9ef7b,66229da3b3478e60a989b99a,,,,,,,,,,,,,,,,,,,,,,,,,,,,,,,,,,338.6219,342.2547,"[2,5,1,8,3,6,4,7]","[[-0.3,0.2],[0.3,0.2]]","[[-0.125,-0.2],[0.125,-0.2]]",-0.116666653,-0.146296325,1,0,0,3.1165,o1_image,342.2549,1,342.7556,342.7556,344.7557,0,0,0,0,1,,,,,,,,,,,,,,,,,,,,,,,,,,,,,,,,,,,,,,,,,,,,,,,,,,
,,5fdbd8a82fbe510db8935564,,male,2024-04-19_17h38.31.777,stockport_simplified,2022.2.4,Win32,60.24096386,661e456ee6de07e70aa9ef7b,66229da3b3478e60a989b99a,,,,,,,,,,,,,,,,,,,,,,,,,,,,,,,,,,,,,,,,,,,,,,,,,,,,,,,,0,13,13,1,1,A,X,N,o1_image,stimuli/out1.png,stimuli/correct_out1.png,stimuli/out2.png,,,,,,,,,,,,,,,,,,,,,,,,,,,,,,,,,,,,,,
,,5fdbd8a82fbe510db8935564,,male,2024-04-19_17h38.31.777,stockport_simplified,2022.2.4,Win32,60.24096386,661e456ee6de07e70aa9ef7b,66229da3b3478e60a989b99a,,,,,,,,,,,,,,,,,,,,,,,,,,,,,,,,,,344.7561,346.9714,"[2,5,1,8,3,6,4,7]","[[0.3,0.2],[-0.3,0.2]]","[[-0.125,-0.2],[0.125,-0.2]]",-0.124074088,-0.215740769,1,0,0,1.6997,o1_image,346.9716,1,347.4722,347.4723,349.4716,0,0,0,0,1,,,,,,,,,,,,,,,,,,,,,,,,,,,,,,,,,,,,,,,,,,,,,,,,,,
,,5fdbd8a82fbe510db8935564,,male,2024-04-19_17h38.31.777,stockport_simplified,2022.2.4,Win32,60.24096386,661e456ee6de07e70aa9ef7b,66229da3b3478e60a989b99a,,,,,,,,,,,,,,,,,,,,,,,,,,,,,,,,,,,,,,,,,,,,,,,,,,,,,,,,0,14,14,52,1,N,M,C,o1_image,stimuli/out1.png,stimuli/correct_out1.png,stimuli/out2.png,,,,,,,,,,,,,,,,,,,,,,,,,,,,,,,,,,,,,,
,,5fdbd8a82fbe510db8935564,,male,2024-04-19_17h38.31.777,stockport_simplified,2022.2.4,Win32,60.24096386,661e456ee6de07e70aa9ef7b,66229da3b3478e60a989b99a,,,,,,,,,,,,,,,,,,,,,,,,,,,,,,,,,,349.4717,353.5715,"[2,5,1,8,3,6,4,7]","[[0.3,0.2],[-0.3,0.2]]","[[0.125,-0.2],[-0.125,-0.2]]",-0.090740698,-0.179629644,1,0,0,3.599,o2_image,353.577,1,354.0722,354.0723,356.0714,0,0,0,0,1,,,,,,,,,,,,,,,,,,,,,,,,,,,,,,,,,,,,,,,,,,,,,,,,,,
,,5fdbd8a82fbe510db8935564,,male,2024-04-19_17h38.31.777,stockport_simplified,2022.2.4,Win32,60.24096386,661e456ee6de07e70aa9ef7b,66229da3b3478e60a989b99a,,,,,,,,,,,,,,,,,,,,,,,,,,,,,,,,,,,,,,,,,,,,,,,,,,,,,,,,0,15,15,55,1,N,M,D,o2_image,stimuli/out2.png,stimuli/out1.png,stimuli/correct_out2.png,,,,,,,,,,,,,,,,,,,,,,,,,,,,,,,,,,,,,,
,,5fdbd8a82fbe510db8935564,,male,2024-04-19_17h38.31.777,stockport_simplified,2022.2.4,Win32,60.24096386,661e456ee6de07e70aa9ef7b,66229da3b3478e60a989b99a,,,,,,,,,,,,,,,,,,,,,,,,,,,,,,,,,,356.0717,358.1881,"[2,5,1,8,3,6,4,7]","[[-0.3,0.2],[0.3,0.2]]","[[0.125,-0.2],[-0.125,-0.2]]",0.09629631,-0.198148162,1,0,0,1.6154,o1_image,358.1885,1,358.6889,358.6889,360.6889,0,0,0,0,1,,,,,,,,,,,,,,,,,,,,,,,,,,,,,,,,,,,,,,,,,,,,,,,,,,
,,5fdbd8a82fbe510db8935564,,male,2024-04-19_17h38.31.777,stockport_simplified,2022.2.4,Win32,60.24096386,661e456ee6de07e70aa9ef7b,66229da3b3478e60a989b99a,,,,,,,,,,,,,,,,,,,,,,,,,,,,,,,,,,,,,,,,,,,,,,,,,,,,,,,,0,16,16,37,1,A,Y,N,o1_image,stimuli/out1.png,stimuli/correct_out1.png,stimuli/out2.png,,,,,,,,,,,,,,,,,,,,,,,,,,,,,,,,,,,,,,
,,5fdbd8a82fbe510db8935564,,male,2024-04-19_17h38.31.777,stockport_simplified,2022.2.4,Win32,60.24096386,661e456ee6de07e70aa9ef7b,66229da3b3478e60a989b99a,,,,,,,,,,,,,,,,,,,,,,,,,,,,,,,,,,360.6894,366.5214,"[2,5,1,8,3,6,4,7]","[[-0.3,0.2],[0.3,0.2]]","[[-0.125,-0.2],[0.125,-0.2]]",0.100000028,-0.207407422,1,0,0,5.3165,o2_image,366.527,1,367.0223,367.0223,369.0224,0,0,0,0,1,,,,,,,,,,,,,,,,,,,,,,,,,,,,,,,,,,,,,,,,,,,,,,,,,,
,,5fdbd8a82fbe510db8935564,,male,2024-04-19_17h38.31.777,stockport_simplified,2022.2.4,Win32,60.24096386,661e456ee6de07e70aa9ef7b,66229da3b3478e60a989b99a,,,,,,,,,,,,,,,,,,,,,,,,,,,,,,,,,,,,,,,,,,,,,,,,,,,,,,,,0,17,17,46,1,B,Y,N,o2_image,stimuli/out2.png,stimuli/out1.png,stimuli/correct_out2.png,,,,,,,,,,,,,,,,,,,,,,,,,,,,,,,,,,,,,,
,,5fdbd8a82fbe510db8935564,,male,2024-04-19_17h38.31.777,stockport_simplified,2022.2.4,Win32,60.24096386,661e456ee6de07e70aa9ef7b,66229da3b3478e60a989b99a,,,,,,,,,,,,,,,,,,,,,,,,,,,,,,,,,,369.023,372.889,"[2,5,1,8,3,6,4,7]","[[0.3,0.2],[-0.3,0.2]]","[[-0.125,-0.2],[0.125,-0.2]]",-0.093518504,-0.18240745,1,0,0,3.3499,o1_image,372.9068,1,373.4052,373.4053,375.405,0,0,0,0,1,,,,,,,,,,,,,,,,,,,,,,,,,,,,,,,,,,,,,,,,,,,,,,,,,,
,,5fdbd8a82fbe510db8935564,,male,2024-04-19_17h38.31.777,stockport_simplified,2022.2.4,Win32,60.24096386,661e456ee6de07e70aa9ef7b,66229da3b3478e60a989b99a,,,,,,,,,,,,,,,,,,,,,,,,,,,,,,,,,,,,,,,,,,,,,,,,,,,,,,,,0,18,18,31,1,A,X,N,o1_image,stimuli/out1.png,stimuli/correct_out1.png,stimuli/out2.png,,,,,,,,,,,,,,,,,,,,,,,,,,,,,,,,,,,,,,
,,5fdbd8a82fbe510db8935564,,male,2024-04-19_17h38.31.777,stockport_simplified,2022.2.4,Win32,60.24096386,661e456ee6de07e70aa9ef7b,66229da3b3478e60a989b99a,,,,,,,,,,,,,,,,,,,,,,,,,,,,,,,,,,375.4054,377.4381,"[2,5,1,8,3,6,4,7]","[[-0.3,0.2],[0.3,0.2]]","[[-0.125,-0.2],[0.125,-0.2]]",0.093518504,-0.22129631,1,0,0,1.5316,o2_image,377.4385,1,377.9387,377.9388,379.9386,0,0,0,0,1,,,,,,,,,,,,,,,,,,,,,,,,,,,,,,,,,,,,,,,,,,,,,,,,,,
,,5fdbd8a82fbe510db8935564,,male,2024-04-19_17h38.31.777,stockport_simplified,2022.2.4,Win32,60.24096386,661e456ee6de07e70aa9ef7b,66229da3b3478e60a989b99a,,,,,,,,,,,,,,,,,,,,,,,,,,,,,,,,,,,,,,,,,,,,,,,,,,,,,,,,0,19,19,25,1,N,M,D,o2_image,stimuli/out2.png,stimuli/out1.png,stimuli/correct_out2.png,,,,,,,,,,,,,,,,,,,,,,,,,,,,,,,,,,,,,,
,,5fdbd8a82fbe510db8935564,,male,2024-04-19_17h38.31.777,stockport_simplified,2022.2.4,Win32,60.24096386,661e456ee6de07e70aa9ef7b,66229da3b3478e60a989b99a,,,,,,,,,,,,,,,,,,,,,,,,,,,,,,,,,,379.9388,383.5882,"[2,5,1,8,3,6,4,7]","[[-0.3,0.2],[0.3,0.2]]","[[0.125,-0.2],[-0.125,-0.2]]",-0.110185199,-0.184259273,1,0,0,3.1327,o2_image,383.5937,1,384.0886,384.0886,386.0883,0,0,0,0,1,,,,,,,,,,,,,,,,,,,,,,,,,,,,,,,,,,,,,,,,,,,,,,,,,,
,,5fdbd8a82fbe510db8935564,,male,2024-04-19_17h38.31.777,stockport_simplified,2022.2.4,Win32,60.24096386,661e456ee6de07e70aa9ef7b,66229da3b3478e60a989b99a,,,,,,,,,,,,,,,,,,,,,,,,,,,,,,,,,,,,,,,,,,,,,,,,,,,,,,,,0,20,20,16,1,B,Y,N,o2_image,stimuli/out2.png,stimuli/out1.png,stimuli/correct_out2.png,,,,,,,,,,,,,,,,,,,,,,,,,,,,,,,,,,,,,,
,,5fdbd8a82fbe510db8935564,,male,2024-04-19_17h38.31.777,stockport_simplified,2022.2.4,Win32,60.24096386,661e456ee6de07e70aa9ef7b,66229da3b3478e60a989b99a,,,,,,,,,,,,,,,,,,,,,,,,,,,,,,,,,,386.0885,390.089,"[2,5,1,8,3,6,4,7]","[[-0.3,0.2],[0.3,0.2]]","[[-0.125,-0.2],[0.125,-0.2]]",0.110185199,-0.173148191,1,0,0,3.4956,o2_image,390.1027,1,390.6057,390.6057,392.6057,0,0,0,0,1,,,,,,,,,,,,,,,,,,,,,,,,,,,,,,,,,,,,,,,,,,,,,,,,,,
,,5fdbd8a82fbe510db8935564,,male,2024-04-19_17h38.31.777,stockport_simplified,2022.2.4,Win32,60.24096386,661e456ee6de07e70aa9ef7b,66229da3b3478e60a989b99a,,,,,,,,,,,,,,,,,,,,,,,,,,,,,,,,,,,,,,,,,,,,,,,,,,,,,,,,0,21,21,19,1,B,Y,N,o2_image,stimuli/out2.png,stimuli/out1.png,stimuli/correct_out2.png,,,,,,,,,,,,,,,,,,,,,,,,,,,,,,,,,,,,,,
,,5fdbd8a82fbe510db8935564,,male,2024-04-19_17h38.31.777,stockport_simplified,2022.2.4,Win32,60.24096386,661e456ee6de07e70aa9ef7b,66229da3b3478e60a989b99a,,,,,,,,,,,,,,,,,,,,,,,,,,,,,,,,,,392.6062,394.9929,"[2,5,1,8,3,6,4,7]","[[0.3,0.2],[-0.3,0.2]]","[[0.125,-0.2],[-0.125,-0.2]]",0.193518533,-0.175925926,1,0,0,1.8705,o1_image,394.9932,1,395.4888,395.4889,397.4884,0,0,0,0,1,,,,,,,,,,,,,,,,,,,,,,,,,,,,,,,,,,,,,,,,,,,,,,,,,,
,,5fdbd8a82fbe510db8935564,,male,2024-04-19_17h38.31.777,stockport_simplified,2022.2.4,Win32,60.24096386,661e456ee6de07e70aa9ef7b,66229da3b3478e60a989b99a,,,,,,,,,,,,,,,,,,,,,,,,,,,,,,,,,,,,,,,,,,,,,,,,,,,,,,,,0,22,22,34,1,A,X,N,o1_image,stimuli/out1.png,stimuli/correct_out1.png,stimuli/out2.png,,,,,,,,,,,,,,,,,,,,,,,,,,,,,,,,,,,,,,
,,5fdbd8a82fbe510db8935564,,male,2024-04-19_17h38.31.777,stockport_simplified,2022.2.4,Win32,60.24096386,661e456ee6de07e70aa9ef7b,66229da3b3478e60a989b99a,,,,,,,,,,,,,,,,,,,,,,,,,,,,,,,,,,397.4886,400.7717,"[2,5,1,8,3,6,4,7]","[[0.3,0.2],[-0.3,0.2]]","[[-0.125,-0.2],[0.125,-0.2]]",0.124074088,-0.17777782,1,0,0,2.7664,o2_image,400.7774,1,401.2724,401.2724,403.2719,0,0,0,0,1,,,,,,,,,,,,,,,,,,,,,,,,,,,,,,,,,,,,,,,,,,,,,,,,,,
,,5fdbd8a82fbe510db8935564,,male,2024-04-19_17h38.31.777,stockport_simplified,2022.2.4,Win32,60.24096386,661e456ee6de07e70aa9ef7b,66229da3b3478e60a989b99a,,,,,,,,,,,,,,,,,,,,,,,,,,,,,,,,,,,,,,,,,,,,,,,,,,,,,,,,0,23,23,10,1,B,X,N,o2_image,stimuli/out2.png,stimuli/out1.png,stimuli/correct_out2.png,,,,,,,,,,,,,,,,,,,,,,,,,,,,,,,,,,,,,,
,,5fdbd8a82fbe510db8935564,,male,2024-04-19_17h38.31.777,stockport_simplified,2022.2.4,Win32,60.24096386,661e456ee6de07e70aa9ef7b,66229da3b3478e60a989b99a,,,,,,,,,,,,,,,,,,,,,,,,,,,,,,,,,,403.2722,405.9217,"[2,5,1,8,3,6,4,7]","[[0.3,0.2],[-0.3,0.2]]","[[0.125,-0.2],[-0.125,-0.2]]",0.111111111,-0.165740755,1,0,0,2.1331,o1_image,405.922,1,406.4224,406.4225,408.4219,0,0,0,0,1,,,,,,,,,,,,,,,,,,,,,,,,,,,,,,,,,,,,,,,,,,,,,,,,,,
,,5fdbd8a82fbe510db8935564,,male,2024-04-19_17h38.31.777,stockport_simplified,2022.2.4,Win32,60.24096386,661e456ee6de07e70aa9ef7b,66229da3b3478e60a989b99a,,,,,,,,,,,,,,,,,,,,,,,,,,,,,,,,,,,,,,,,,,,,,,,,,,,,,,,,0,24,24,8,1,A,Y,N,o1_image,stimuli/out1.png,stimuli/correct_out1.png,stimuli/out2.png,,,,,,,,,,,,,,,,,,,,,,,,,,,,,,,,,,,,,,
,,5fdbd8a82fbe510db8935564,,male,2024-04-19_17h38.31.777,stockport_simplified,2022.2.4,Win32,60.24096386,661e456ee6de07e70aa9ef7b,66229da3b3478e60a989b99a,,,,,,,,,,,,,,,,,,,,,,,,,,,,,,,,,,408.4221,410.9885,"[2,5,1,8,3,6,4,7]","[[0.3,0.2],[-0.3,0.2]]","[[0.125,-0.2],[-0.125,-0.2]]",-0.099999958,-0.19722225,1,0,0,2.0493,o2_image,410.989,1,411.4887,411.4887,413.4892,0,0,0,0,1,,,,,,,,,,,,,,,,,,,,,,,,,,,,,,,,,,,,,,,,,,,,,,,,,,
,,5fdbd8a82fbe510db8935564,,male,2024-04-19_17h38.31.777,stockport_simplified,2022.2.4,Win32,60.24096386,661e456ee6de07e70aa9ef7b,66229da3b3478e60a989b99a,,,,,,,,,,,,,,,,,,,,,,,,,,,,,,,,,,,,,,,,,,,,,,,,,,,,,,,,0,25,25,49,1,B,Y,N,o2_image,stimuli/out2.png,stimuli/out1.png,stimuli/correct_out2.png,,,,,,,,,,,,,,,,,,,,,,,,,,,,,,,,,,,,,,
,,5fdbd8a82fbe510db8935564,,male,2024-04-19_17h38.31.777,stockport_simplified,2022.2.4,Win32,60.24096386,661e456ee6de07e70aa9ef7b,66229da3b3478e60a989b99a,,,,,,,,,,,,,,,,,,,,,,,,,,,,,,,,,,413.4897,419.422,"[2,5,1,8,3,6,4,7]","[[0.3,0.2],[-0.3,0.2]]","[[0.125,-0.2],[-0.125,-0.2]]",-0.117592564,-0.214814857,1,0,0,5.4158,o2_image,419.4275,1,419.9221,419.9221,421.9224,0,0,0,0,1,,,,,,,,,,,,,,,,,,,,,,,,,,,,,,,,,,,,,,,,,,,,,,,,,,
,,5fdbd8a82fbe510db8935564,,male,2024-04-19_17h38.31.777,stockport_simplified,2022.2.4,Win32,60.24096386,661e456ee6de07e70aa9ef7b,66229da3b3478e60a989b99a,,,,,,,,,,,,,,,,,,,,,,,,,,,,,,,,,,,,,,,,,,,,,,,,,,,,,,,,0,26,26,11,1,B,X,N,o2_image,stimuli/out2.png,stimuli/out1.png,stimuli/correct_out2.png,,,,,,,,,,,,,,,,,,,,,,,,,,,,,,,,,,,,,,
,,5fdbd8a82fbe510db8935564,,male,2024-04-19_17h38.31.777,stockport_simplified,2022.2.4,Win32,60.24096386,661e456ee6de07e70aa9ef7b,66229da3b3478e60a989b99a,,,,,,,,,,,,,,,,,,,,,,,,,,,,,,,,,,421.9233,423.6551,"[2,5,1,8,3,6,4,7]","[[0.3,0.2],[-0.3,0.2]]","[[0.125,-0.2],[-0.125,-0.2]]",-0.110185199,-0.178703732,1,0,0,1.2165,o2_image,423.6554,1,424.1551,424.1551,426.1552,0,0,0,0,1,,,,,,,,,,,,,,,,,,,,,,,,,,,,,,,,,,,,,,,,,,,,,,,,,,
,,5fdbd8a82fbe510db8935564,,male,2024-04-19_17h38.31.777,stockport_simplified,2022.2.4,Win32,60.24096386,661e456ee6de07e70aa9ef7b,66229da3b3478e60a989b99a,,,,,,,,,,,,,,,,,,,,,,,,,,,,,,,,,,,,,,,,,,,,,,,,,,,,,,,,0,27,27,58,1,N,M,D,o2_image,stimuli/out2.png,stimuli/out1.png,stimuli/correct_out2.png,,,,,,,,,,,,,,,,,,,,,,,,,,,,,,,,,,,,,,
,,5fdbd8a82fbe510db8935564,,male,2024-04-19_17h38.31.777,stockport_simplified,2022.2.4,Win32,60.24096386,661e456ee6de07e70aa9ef7b,66229da3b3478e60a989b99a,,,,,,,,,,,,,,,,,,,,,,,,,,,,,,,,,,426.1554,427.8884,"[2,5,1,8,3,6,4,7]","[[-0.3,0.2],[0.3,0.2]]","[[0.125,-0.2],[-0.125,-0.2]]",0.108333376,-0.175925926,1,0,0,1.2319,o1_image,427.8886,1,428.3892,428.3892,430.3891,0,0,0,0,1,,,,,,,,,,,,,,,,,,,,,,,,,,,,,,,,,,,,,,,,,,,,,,,,,,
,,5fdbd8a82fbe510db8935564,,male,2024-04-19_17h38.31.777,stockport_simplified,2022.2.4,Win32,60.24096386,661e456ee6de07e70aa9ef7b,66229da3b3478e60a989b99a,,,,,,,,,,,,,,,,,,,,,,,,,,,,,,,,,,,,,,,,,,,,,,,,,,,,,,,,0,28,28,23,1,N,M,C,o1_image,stimuli/out1.png,stimuli/correct_out1.png,stimuli/out2.png,,,,,,,,,,,,,,,,,,,,,,,,,,,,,,,,,,,,,,
,,5fdbd8a82fbe510db8935564,,male,2024-04-19_17h38.31.777,stockport_simplified,2022.2.4,Win32,60.24096386,661e456ee6de07e70aa9ef7b,66229da3b3478e60a989b99a,,,,,,,,,,,,,,,,,,,,,,,,,,,,,,,,,,430.3895,432.3553,"[2,5,1,8,3,6,4,7]","[[0.3,0.2],[-0.3,0.2]]","[[0.125,-0.2],[-0.125,-0.2]]",0.080555598,-0.178703732,1,0,0,1.45,o1_image,432.3558,1,432.8556,432.8557,434.8559,0,0,0,0,1,,,,,,,,,,,,,,,,,,,,,,,,,,,,,,,,,,,,,,,,,,,,,,,,,,
,,5fdbd8a82fbe510db8935564,,male,2024-04-19_17h38.31.777,stockport_simplified,2022.2.4,Win32,60.24096386,661e456ee6de07e70aa9ef7b,66229da3b3478e60a989b99a,,,,,,,,,,,,,,,,,,,,,,,,,,,,,,,,,,,,,,,,,,,,,,,,,,,,,,,,0,29,29,51,1,N,M,C,o1_image,stimuli/out1.png,stimuli/correct_out1.png,stimuli/out2.png,,,,,,,,,,,,,,,,,,,,,,,,,,,,,,,,,,,,,,
,,5fdbd8a82fbe510db8935564,,male,2024-04-19_17h38.31.777,stockport_simplified,2022.2.4,Win32,60.24096386,661e456ee6de07e70aa9ef7b,66229da3b3478e60a989b99a,,,,,,,,,,,,,,,,,,,,,,,,,,,,,,,,,,434.8565,438.4719,"[2,5,1,8,3,6,4,7]","[[0.3,0.2],[-0.3,0.2]]","[[0.125,-0.2],[-0.125,-0.2]]",-0.10092594,-0.223148134,1,0,0,3.0987,o2_image,438.4774,1,438.9726,438.9727,440.9724,0,0,0,0,1,,,,,,,,,,,,,,,,,,,,,,,,,,,,,,,,,,,,,,,,,,,,,,,,,,
,,5fdbd8a82fbe510db8935564,,male,2024-04-19_17h38.31.777,stockport_simplified,2022.2.4,Win32,60.24096386,661e456ee6de07e70aa9ef7b,66229da3b3478e60a989b99a,,,,,,,,,,,,,,,,,,,,,,,,,,,,,,,,,,,,,,,,,,,,,,,,,,,,,,,,0,30,30,17,1,B,Y,N,o2_image,stimuli/out2.png,stimuli/out1.png,stimuli/correct_out2.png,,,,,,,,,,,,,,,,,,,,,,,,,,,,,,,,,,,,,,
,,5fdbd8a82fbe510db8935564,,male,2024-04-19_17h38.31.777,stockport_simplified,2022.2.4,Win32,60.24096386,661e456ee6de07e70aa9ef7b,66229da3b3478e60a989b99a,,,,,,,,,,,,,,,,,,,,,,,,,,,,,,,,,,440.9728,444.3219,"[2,5,1,8,3,6,4,7]","[[0.3,0.2],[-0.3,0.2]]","[[-0.125,-0.2],[0.125,-0.2]]",-0.10555557,-0.211111139,1,0,0,2.8326,o1_image,444.3222,0,444.8226,444.8226,446.8221,0,0,0,0,1,,,,,,,,,,,,,,,,,,,,,,,,,,,,,,,,,,,,,,,,,,,,,,,,,,
,,5fdbd8a82fbe510db8935564,,male,2024-04-19_17h38.31.777,stockport_simplified,2022.2.4,Win32,60.24096386,661e456ee6de07e70aa9ef7b,66229da3b3478e60a989b99a,,,,,,,,,,,,,,,,,,,,,,,,,,,,,,,,,,,,,,,,,,,,,,,,,,,,,,,,0,31,31,41,1,B,X,N,o2_image,stimuli/out2.png,stimuli/out1.png,stimuli/correct_out2.png,,,,,,,,,,,,,,,,,,,,,,,,,,,,,,,,,,,,,,
,,5fdbd8a82fbe510db8935564,,male,2024-04-19_17h38.31.777,stockport_simplified,2022.2.4,Win32,60.24096386,661e456ee6de07e70aa9ef7b,66229da3b3478e60a989b99a,,,,,,,,,,,,,,,,,,,,,,,,,,,,,,,,,,446.8224,449.8893,"[2,5,1,8,3,6,4,7]","[[0.3,0.2],[-0.3,0.2]]","[[-0.125,-0.2],[0.125,-0.2]]",0.09629631,-0.216666681,1,0,0,2.5469,o2_image,449.8907,1,450.3894,450.3895,452.3895,0,0,0,0,1,,,,,,,,,,,,,,,,,,,,,,,,,,,,,,,,,,,,,,,,,,,,,,,,,,
,,5fdbd8a82fbe510db8935564,,male,2024-04-19_17h38.31.777,stockport_simplified,2022.2.4,Win32,60.24096386,661e456ee6de07e70aa9ef7b,66229da3b3478e60a989b99a,,,,,,,,,,,,,,,,,,,,,,,,,,,,,,,,,,,,,,,,,,,,,,,,,,,,,,,,0,32,32,44,1,B,X,N,o2_image,stimuli/out2.png,stimuli/out1.png,stimuli/correct_out2.png,,,,,,,,,,,,,,,,,,,,,,,,,,,,,,,,,,,,,,
,,5fdbd8a82fbe510db8935564,,male,2024-04-19_17h38.31.777,stockport_simplified,2022.2.4,Win32,60.24096386,661e456ee6de07e70aa9ef7b,66229da3b3478e60a989b99a,,,,,,,,,,,,,,,,,,,,,,,,,,,,,,,,,,452.3902,454.9053,"[2,5,1,8,3,6,4,7]","[[-0.3,0.2],[0.3,0.2]]","[[0.125,-0.2],[-0.125,-0.2]]",-0.082407422,-0.20648151,1,0,0,1.999,o2_image,454.9109,1,455.4055,455.4056,457.3941,0,0,0,0,1,,,,,,,,,,,,,,,,,,,,,,,,,,,,,,,,,,,,,,,,,,,,,,,,,,
,,5fdbd8a82fbe510db8935564,,male,2024-04-19_17h38.31.777,stockport_simplified,2022.2.4,Win32,60.24096386,661e456ee6de07e70aa9ef7b,66229da3b3478e60a989b99a,,,,,,,,,,,,,,,,,,,,,,,,,,,,,,,,,,,,,,,,,,,,,,,,,,,,,,,,0,33,33,48,1,B,Y,N,o2_image,stimuli/out2.png,stimuli/out1.png,stimuli/correct_out2.png,,,,,,,,,,,,,,,,,,,,,,,,,,,,,,,,,,,,,,
,,5fdbd8a82fbe510db8935564,,male,2024-04-19_17h38.31.777,stockport_simplified,2022.2.4,Win32,60.24096386,661e456ee6de07e70aa9ef7b,66229da3b3478e60a989b99a,,,,,,,,,,,,,,,,,,,,,,,,,,,,,,,,,,457.3942,459.572,"[2,5,1,8,3,6,4,7]","[[0.3,0.2],[-0.3,0.2]]","[[0.125,-0.2],[-0.125,-0.2]]",-0.133333347,-0.183333362,1,0,0,1.6666,o2_image,459.5723,1,460.0727,460.0727,462.0729,0,0,0,0,1,,,,,,,,,,,,,,,,,,,,,,,,,,,,,,,,,,,,,,,,,,,,,,,,,,
,,5fdbd8a82fbe510db8935564,,male,2024-04-19_17h38.31.777,stockport_simplified,2022.2.4,Win32,60.24096386,661e456ee6de07e70aa9ef7b,66229da3b3478e60a989b99a,,,,,,,,,,,,,,,,,,,,,,,,,,,,,,,,,,,,,,,,,,,,,,,,,,,,,,,,0,34,34,47,1,B,Y,N,o2_image,stimuli/out2.png,stimuli/out1.png,stimuli/correct_out2.png,,,,,,,,,,,,,,,,,,,,,,,,,,,,,,,,,,,,,,
,,5fdbd8a82fbe510db8935564,,male,2024-04-19_17h38.31.777,stockport_simplified,2022.2.4,Win32,60.24096386,661e456ee6de07e70aa9ef7b,66229da3b3478e60a989b99a,,,,,,,,,,,,,,,,,,,,,,,,,,,,,,,,,,462.0734,463.7219,"[2,5,1,8,3,6,4,7]","[[0.3,0.2],[-0.3,0.2]]","[[-0.125,-0.2],[0.125,-0.2]]",-0.097222222,-0.195370356,1,0,0,1.133,o1_image,463.7223,0,464.2227,464.2228,466.2111,0,0,0,0,1,,,,,,,,,,,,,,,,,,,,,,,,,,,,,,,,,,,,,,,,,,,,,,,,,,
,,5fdbd8a82fbe510db8935564,,male,2024-04-19_17h38.31.777,stockport_simplified,2022.2.4,Win32,60.24096386,661e456ee6de07e70aa9ef7b,66229da3b3478e60a989b99a,,,,,,,,,,,,,,,,,,,,,,,,,,,,,,,,,,,,,,,,,,,,,,,,,,,,,,,,0,35,35,43,1,B,X,N,o2_image,stimuli/out2.png,stimuli/out1.png,stimuli/correct_out2.png,,,,,,,,,,,,,,,,,,,,,,,,,,,,,,,,,,,,,,
,,5fdbd8a82fbe510db8935564,,male,2024-04-19_17h38.31.777,stockport_simplified,2022.2.4,Win32,60.24096386,661e456ee6de07e70aa9ef7b,66229da3b3478e60a989b99a,,,,,,,,,,,,,,,,,,,,,,,,,,,,,,,,,,466.2113,467.822,"[2,5,1,8,3,6,4,7]","[[0.3,0.2],[-0.3,0.2]]","[[0.125,-0.2],[-0.125,-0.2]]",0.092592593,-0.212962963,1,0,0,1.0986,o1_image,467.8224,1,468.3226,468.3227,470.3227,0,0,0,0,1,,,,,,,,,,,,,,,,,,,,,,,,,,,,,,,,,,,,,,,,,,,,,,,,,,
,,5fdbd8a82fbe510db8935564,,male,2024-04-19_17h38.31.777,stockport_simplified,2022.2.4,Win32,60.24096386,661e456ee6de07e70aa9ef7b,66229da3b3478e60a989b99a,,,,,,,,,,,,,,,,,,,,,,,,,,,,,,,,,,,,,,,,,,,,,,,,,,,,,,,,0,36,36,20,1,N,M,C,o1_image,stimuli/out1.png,stimuli/correct_out1.png,stimuli/out2.png,,,,,,,,,,,,,,,,,,,,,,,,,,,,,,,,,,,,,,
,,5fdbd8a82fbe510db8935564,,male,2024-04-19_17h38.31.777,stockport_simplified,2022.2.4,Win32,60.24096386,661e456ee6de07e70aa9ef7b,66229da3b3478e60a989b99a,,,,,,,,,,,,,,,,,,,,,,,,,,,,,,,,,,470.3233,472.222,"[2,5,1,8,3,6,4,7]","[[0.3,0.2],[-0.3,0.2]]","[[0.125,-0.2],[-0.125,-0.2]]",0.107407393,-0.212962963,1,0,0,1.3828,o1_image,472.2223,1,472.7222,472.7222,474.7227,0,0,0,0,1,,,,,,,,,,,,,,,,,,,,,,,,,,,,,,,,,,,,,,,,,,,,,,,,,,
,,5fdbd8a82fbe510db8935564,,male,2024-04-19_17h38.31.777,stockport_simplified,2022.2.4,Win32,60.24096386,661e456ee6de07e70aa9ef7b,66229da3b3478e60a989b99a,,,,,,,,,,,,,,,,,,,,,,,,,,,,,,,,,,,,,,,,,,,,,,,,,,,,,,,,0,37,37,0,1,A,X,N,o1_image,stimuli/out1.png,stimuli/correct_out1.png,stimuli/out2.png,,,,,,,,,,,,,,,,,,,,,,,,,,,,,,,,,,,,,,
,,5fdbd8a82fbe510db8935564,,male,2024-04-19_17h38.31.777,stockport_simplified,2022.2.4,Win32,60.24096386,661e456ee6de07e70aa9ef7b,66229da3b3478e60a989b99a,,,,,,,,,,,,,,,,,,,,,,,,,,,,,,,,,,474.7233,477.0888,"[2,5,1,8,3,6,4,7]","[[0.3,0.2],[-0.3,0.2]]","[[0.125,-0.2],[-0.125,-0.2]]",-0.097222222,-0.213888875,1,0,0,1.8491,o2_image,477.0891,1,477.5889,477.5889,479.5888,0,0,0,0,1,,,,,,,,,,,,,,,,,,,,,,,,,,,,,,,,,,,,,,,,,,,,,,,,,,
,,5fdbd8a82fbe510db8935564,,male,2024-04-19_17h38.31.777,stockport_simplified,2022.2.4,Win32,60.24096386,661e456ee6de07e70aa9ef7b,66229da3b3478e60a989b99a,,,,,,,,,,,,,,,,,,,,,,,,,,,,,,,,,,,,,,,,,,,,,,,,,,,,,,,,0,38,38,18,1,B,Y,N,o2_image,stimuli/out2.png,stimuli/out1.png,stimuli/correct_out2.png,,,,,,,,,,,,,,,,,,,,,,,,,,,,,,,,,,,,,,
,,5fdbd8a82fbe510db8935564,,male,2024-04-19_17h38.31.777,stockport_simplified,2022.2.4,Win32,60.24096386,661e456ee6de07e70aa9ef7b,66229da3b3478e60a989b99a,,,,,,,,,,,,,,,,,,,,,,,,,,,,,,,,,,479.589,482.1887,"[2,5,1,8,3,6,4,7]","[[0.3,0.2],[-0.3,0.2]]","[[-0.125,-0.2],[0.125,-0.2]]",0.124074088,-0.187037079,1,0,0,2.0831,o2_image,482.1891,1,482.6894,482.6895,484.6895,0,0,0,0,1,,,,,,,,,,,,,,,,,,,,,,,,,,,,,,,,,,,,,,,,,,,,,,,,,,
,,5fdbd8a82fbe510db8935564,,male,2024-04-19_17h38.31.777,stockport_simplified,2022.2.4,Win32,60.24096386,661e456ee6de07e70aa9ef7b,66229da3b3478e60a989b99a,,,,,,,,,,,,,,,,,,,,,,,,,,,,,,,,,,,,,,,,,,,,,,,,,,,,,,,,0,39,39,29,1,N,M,D,o2_image,stimuli/out2.png,stimuli/out1.png,stimuli/correct_out2.png,,,,,,,,,,,,,,,,,,,,,,,,,,,,,,,,,,,,,,
,,5fdbd8a82fbe510db8935564,,male,2024-04-19_17h38.31.777,stockport_simplified,2022.2.4,Win32,60.24096386,661e456ee6de07e70aa9ef7b,66229da3b3478e60a989b99a,,,,,,,,,,,,,,,,,,,,,,,,,,,,,,,,,,484.69,487.8055,"[2,5,1,8,3,6,4,7]","[[0.3,0.2],[-0.3,0.2]]","[[-0.125,-0.2],[0.125,-0.2]]",0.124074088,-0.187037079,1,0,0,2.5987,o2_image,487.8059,1,488.3063,488.3063,490.3058,0,0,0,0,1,,,,,,,,,,,,,,,,,,,,,,,,,,,,,,,,,,,,,,,,,,,,,,,,,,
,,5fdbd8a82fbe510db8935564,,male,2024-04-19_17h38.31.777,stockport_simplified,2022.2.4,Win32,60.24096386,661e456ee6de07e70aa9ef7b,66229da3b3478e60a989b99a,,,,,,,,,,,,,,,,,,,,,,,,,,,,,,,,,,,,,,,,,,,,,,,,,,,,,,,,0,40,40,42,1,B,X,N,o2_image,stimuli/out2.png,stimuli/out1.png,stimuli/correct_out2.png,,,,,,,,,,,,,,,,,,,,,,,,,,,,,,,,,,,,,,
,,5fdbd8a82fbe510db8935564,,male,2024-04-19_17h38.31.777,stockport_simplified,2022.2.4,Win32,60.24096386,661e456ee6de07e70aa9ef7b,66229da3b3478e60a989b99a,,,,,,,,,,,,,,,,,,,,,,,,,,,,,,,,,,490.306,491.8395,"[2,5,1,8,3,6,4,7]","[[0.3,0.2],[-0.3,0.2]]","[[-0.125,-0.2],[0.125,-0.2]]",0.124074088,-0.187037079,1,0,0,1.0167,o2_image,491.8404,1,492.3395,492.3396,494.3389,0,0,0,0,1,,,,,,,,,,,,,,,,,,,,,,,,,,,,,,,,,,,,,,,,,,,,,,,,,,
,,5fdbd8a82fbe510db8935564,,male,2024-04-19_17h38.31.777,stockport_simplified,2022.2.4,Win32,60.24096386,661e456ee6de07e70aa9ef7b,66229da3b3478e60a989b99a,,,,,,,,,,,,,,,,,,,,,,,,,,,,,,,,,,,,,,,,,,,,,,,,,,,,,,,,0,41,41,27,1,N,M,D,o2_image,stimuli/out2.png,stimuli/out1.png,stimuli/correct_out2.png,,,,,,,,,,,,,,,,,,,,,,,,,,,,,,,,,,,,,,
,,5fdbd8a82fbe510db8935564,,male,2024-04-19_17h38.31.777,stockport_simplified,2022.2.4,Win32,60.24096386,661e456ee6de07e70aa9ef7b,66229da3b3478e60a989b99a,,,,,,,,,,,,,,,,,,,,,,,,,,,,,,,,,,494.3393,496.222,"[2,5,1,8,3,6,4,7]","[[-0.3,0.2],[0.3,0.2]]","[[-0.125,-0.2],[0.125,-0.2]]",-0.084259245,-0.187037079,1,0,0,1.3657,o1_image,496.2225,1,496.711,496.7111,498.7063,0,0,0,0,1,,,,,,,,,,,,,,,,,,,,,,,,,,,,,,,,,,,,,,,,,,,,,,,,,,
,,5fdbd8a82fbe510db8935564,,male,2024-04-19_17h38.31.777,stockport_simplified,2022.2.4,Win32,60.24096386,661e456ee6de07e70aa9ef7b,66229da3b3478e60a989b99a,,,,,,,,,,,,,,,,,,,,,,,,,,,,,,,,,,,,,,,,,,,,,,,,,,,,,,,,0,42,42,7,1,A,Y,N,o1_image,stimuli/out1.png,stimuli/correct_out1.png,stimuli/out2.png,,,,,,,,,,,,,,,,,,,,,,,,,,,,,,,,,,,,,,
,,5fdbd8a82fbe510db8935564,,male,2024-04-19_17h38.31.777,stockport_simplified,2022.2.4,Win32,60.24096386,661e456ee6de07e70aa9ef7b,66229da3b3478e60a989b99a,,,,,,,,,,,,,,,,,,,,,,,,,,,,,,,,,,498.7069,500.2223,"[2,5,1,8,3,6,4,7]","[[0.3,0.2],[-0.3,0.2]]","[[0.125,-0.2],[-0.125,-0.2]]",-0.102777764,-0.224074116,1,0,0,0.9952,o2_image,500.2226,0,500.7108,500.7108,502.71,0,0,0,0,1,,,,,,,,,,,,,,,,,,,,,,,,,,,,,,,,,,,,,,,,,,,,,,,,,,
,,5fdbd8a82fbe510db8935564,,male,2024-04-19_17h38.31.777,stockport_simplified,2022.2.4,Win32,60.24096386,661e456ee6de07e70aa9ef7b,66229da3b3478e60a989b99a,,,,,,,,,,,,,,,,,,,,,,,,,,,,,,,,,,,,,,,,,,,,,,,,,,,,,,,,0,43,43,38,1,A,Y,N,o1_image,stimuli/out1.png,stimuli/correct_out1.png,stimuli/out2.png,,,,,,,,,,,,,,,,,,,,,,,,,,,,,,,,,,,,,,
,,5fdbd8a82fbe510db8935564,,male,2024-04-19_17h38.31.777,stockport_simplified,2022.2.4,Win32,60.24096386,661e456ee6de07e70aa9ef7b,66229da3b3478e60a989b99a,,,,,,,,,,,,,,,,,,,,,,,,,,,,,,,,,,502.7102,506.8888,"[2,5,1,8,3,6,4,7]","[[-0.3,0.2],[0.3,0.2]]","[[-0.125,-0.2],[0.125,-0.2]]",0.10092594,-0.172222208,1,0,0,3.6662,o2_image,506.895,1,507.3891,507.3891,509.3776,0,0,0,0,1,,,,,,,,,,,,,,,,,,,,,,,,,,,,,,,,,,,,,,,,,,,,,,,,,,
,,5fdbd8a82fbe510db8935564,,male,2024-04-19_17h38.31.777,stockport_simplified,2022.2.4,Win32,60.24096386,661e456ee6de07e70aa9ef7b,66229da3b3478e60a989b99a,,,,,,,,,,,,,,,,,,,,,,,,,,,,,,,,,,,,,,,,,,,,,,,,,,,,,,,,0,44,44,12,1,B,X,N,o2_image,stimuli/out2.png,stimuli/out1.png,stimuli/correct_out2.png,,,,,,,,,,,,,,,,,,,,,,,,,,,,,,,,,,,,,,
,,5fdbd8a82fbe510db8935564,,male,2024-04-19_17h38.31.777,stockport_simplified,2022.2.4,Win32,60.24096386,661e456ee6de07e70aa9ef7b,66229da3b3478e60a989b99a,,,,,,,,,,,,,,,,,,,,,,,,,,,,,,,,,,509.3779,511.2388,"[2,5,1,8,3,6,4,7]","[[-0.3,0.2],[0.3,0.2]]","[[0.125,-0.2],[-0.125,-0.2]]",0.102777764,-0.178703732,1,0,0,1.3495,o1_image,511.2393,1,511.7393,511.7393,513.7393,0,0,0,0,1,,,,,,,,,,,,,,,,,,,,,,,,,,,,,,,,,,,,,,,,,,,,,,,,,,
,,5fdbd8a82fbe510db8935564,,male,2024-04-19_17h38.31.777,stockport_simplified,2022.2.4,Win32,60.24096386,661e456ee6de07e70aa9ef7b,66229da3b3478e60a989b99a,,,,,,,,,,,,,,,,,,,,,,,,,,,,,,,,,,,,,,,,,,,,,,,,,,,,,,,,0,45,45,24,1,N,M,C,o1_image,stimuli/out1.png,stimuli/correct_out1.png,stimuli/out2.png,,,,,,,,,,,,,,,,,,,,,,,,,,,,,,,,,,,,,,
,,5fdbd8a82fbe510db8935564,,male,2024-04-19_17h38.31.777,stockport_simplified,2022.2.4,Win32,60.24096386,661e456ee6de07e70aa9ef7b,66229da3b3478e60a989b99a,,,,,,,,,,,,,,,,,,,,,,,,,,,,,,,,,,513.7399,516.6725,"[2,5,1,8,3,6,4,7]","[[0.3,0.2],[-0.3,0.2]]","[[-0.125,-0.2],[0.125,-0.2]]",0.08148151,-0.178703732,1,0,0,2.4166,o2_image,516.6784,1,517.1729,517.1729,519.1726,0,0,0,0,1,,,,,,,,,,,,,,,,,,,,,,,,,,,,,,,,,,,,,,,,,,,,,,,,,,
,,5fdbd8a82fbe510db8935564,,male,2024-04-19_17h38.31.777,stockport_simplified,2022.2.4,Win32,60.24096386,661e456ee6de07e70aa9ef7b,66229da3b3478e60a989b99a,,,,,,,,,,,,,,,,,,,,,,,,,,,,,,,,,,,,,,,,,,,,,,,,,,,,,,,,0,46,46,45,1,B,Y,N,o2_image,stimuli/out2.png,stimuli/out1.png,stimuli/correct_out2.png,,,,,,,,,,,,,,,,,,,,,,,,,,,,,,,,,,,,,,
,,5fdbd8a82fbe510db8935564,,male,2024-04-19_17h38.31.777,stockport_simplified,2022.2.4,Win32,60.24096386,661e456ee6de07e70aa9ef7b,66229da3b3478e60a989b99a,,,,,,,,,,,,,,,,,,,,,,,,,,,,,,,,,,519.1729,521.4223,"[2,5,1,8,3,6,4,7]","[[0.3,0.2],[-0.3,0.2]]","[[0.125,-0.2],[-0.125,-0.2]]",0.127777806,-0.190740727,1,0,0,1.7324,o1_image,521.4226,1,521.9228,521.9229,523.9222,0,0,0,0,1,,,,,,,,,,,,,,,,,,,,,,,,,,,,,,,,,,,,,,,,,,,,,,,,,,
,,5fdbd8a82fbe510db8935564,,male,2024-04-19_17h38.31.777,stockport_simplified,2022.2.4,Win32,60.24096386,661e456ee6de07e70aa9ef7b,66229da3b3478e60a989b99a,,,,,,,,,,,,,,,,,,,,,,,,,,,,,,,,,,,,,,,,,,,,,,,,,,,,,,,,0,47,47,39,1,A,Y,N,o1_image,stimuli/out1.png,stimuli/correct_out1.png,stimuli/out2.png,,,,,,,,,,,,,,,,,,,,,,,,,,,,,,,,,,,,,,
,,5fdbd8a82fbe510db8935564,,male,2024-04-19_17h38.31.777,stockport_simplified,2022.2.4,Win32,60.24096386,661e456ee6de07e70aa9ef7b,66229da3b3478e60a989b99a,,,,,,,,,,,,,,,,,,,,,,,,,,,,,,,,,,523.9224,525.5892,"[2,5,1,8,3,6,4,7]","[[0.3,0.2],[-0.3,0.2]]","[[0.125,-0.2],[-0.125,-0.2]]",0.14444443,-0.187037079,1,0,0,1.1664,o1_image,525.5896,1,526.0891,526.0891,528.0891,0,0,0,0,1,,,,,,,,,,,,,,,,,,,,,,,,,,,,,,,,,,,,,,,,,,,,,,,,,,
,,5fdbd8a82fbe510db8935564,,male,2024-04-19_17h38.31.777,stockport_simplified,2022.2.4,Win32,60.24096386,661e456ee6de07e70aa9ef7b,66229da3b3478e60a989b99a,,,,,,,,,,,,,,,,,,,,,,,,,,,,,,,,,,,,,,,,,,,,,,,,,,,,,,,,0,48,48,32,1,A,X,N,o1_image,stimuli/out1.png,stimuli/correct_out1.png,stimuli/out2.png,,,,,,,,,,,,,,,,,,,,,,,,,,,,,,,,,,,,,,
,,5fdbd8a82fbe510db8935564,,male,2024-04-19_17h38.31.777,stockport_simplified,2022.2.4,Win32,60.24096386,661e456ee6de07e70aa9ef7b,66229da3b3478e60a989b99a,,,,,,,,,,,,,,,,,,,,,,,,,,,,,,,,,,528.0894,529.689,"[2,5,1,8,3,6,4,7]","[[-0.3,0.2],[0.3,0.2]]","[[0.125,-0.2],[-0.125,-0.2]]",-0.076851809,-0.165740755,1,0,0,1.083,o2_image,529.6893,1,530.1891,530.1891,532.1892,0,0,0,0,1,,,,,,,,,,,,,,,,,,,,,,,,,,,,,,,,,,,,,,,,,,,,,,,,,,
,,5fdbd8a82fbe510db8935564,,male,2024-04-19_17h38.31.777,stockport_simplified,2022.2.4,Win32,60.24096386,661e456ee6de07e70aa9ef7b,66229da3b3478e60a989b99a,,,,,,,,,,,,,,,,,,,,,,,,,,,,,,,,,,,,,,,,,,,,,,,,,,,,,,,,0,49,49,26,1,N,M,D,o2_image,stimuli/out2.png,stimuli/out1.png,stimuli/correct_out2.png,,,,,,,,,,,,,,,,,,,,,,,,,,,,,,,,,,,,,,
,,5fdbd8a82fbe510db8935564,,male,2024-04-19_17h38.31.777,stockport_simplified,2022.2.4,Win32,60.24096386,661e456ee6de07e70aa9ef7b,66229da3b3478e60a989b99a,,,,,,,,,,,,,,,,,,,,,,,,,,,,,,,,,,532.1895,534.0891,"[2,5,1,8,3,6,4,7]","[[0.3,0.2],[-0.3,0.2]]","[[-0.125,-0.2],[0.125,-0.2]]",-0.125925912,-0.157407407,1,0,0,1.3987,o1_image,534.0895,1,534.5897,534.5898,536.5895,0,0,0,0,1,,,,,,,,,,,,,,,,,,,,,,,,,,,,,,,,,,,,,,,,,,,,,,,,,,
,,5fdbd8a82fbe510db8935564,,male,2024-04-19_17h38.31.777,stockport_simplified,2022.2.4,Win32,60.24096386,661e456ee6de07e70aa9ef7b,66229da3b3478e60a989b99a,,,,,,,,,,,,,,,,,,,,,,,,,,,,,,,,,,,,,,,,,,,,,,,,,,,,,,,,0,50,50,33,1,A,X,N,o1_image,stimuli/out1.png,stimuli/correct_out1.png,stimuli/out2.png,,,,,,,,,,,,,,,,,,,,,,,,,,,,,,,,,,,,,,
,,5fdbd8a82fbe510db8935564,,male,2024-04-19_17h38.31.777,stockport_simplified,2022.2.4,Win32,60.24096386,661e456ee6de07e70aa9ef7b,66229da3b3478e60a989b99a,,,,,,,,,,,,,,,,,,,,,,,,,,,,,,,,,,536.5901,539.9892,"[2,5,1,8,3,6,4,7]","[[0.3,0.2],[-0.3,0.2]]","[[0.125,-0.2],[-0.125,-0.2]]",-0.084259245,-0.204629616,1,0,0,2.8822,o2_image,539.9898,1,540.4782,540.4782,542.4731,0,0,0,0,1,,,,,,,,,,,,,,,,,,,,,,,,,,,,,,,,,,,,,,,,,,,,,,,,,,
,,5fdbd8a82fbe510db8935564,,male,2024-04-19_17h38.31.777,stockport_simplified,2022.2.4,Win32,60.24096386,661e456ee6de07e70aa9ef7b,66229da3b3478e60a989b99a,,,,,,,,,,,,,,,,,,,,,,,,,,,,,,,,,,,,,,,,,,,,,,,,,,,,,,,,0,51,51,15,1,B,Y,N,o2_image,stimuli/out2.png,stimuli/out1.png,stimuli/correct_out2.png,,,,,,,,,,,,,,,,,,,,,,,,,,,,,,,,,,,,,,
,,5fdbd8a82fbe510db8935564,,male,2024-04-19_17h38.31.777,stockport_simplified,2022.2.4,Win32,60.24096386,661e456ee6de07e70aa9ef7b,66229da3b3478e60a989b99a,,,,,,,,,,,,,,,,,,,,,,,,,,,,,,,,,,542.4737,545.3558,"[2,5,1,8,3,6,4,7]","[[-0.3,0.2],[0.3,0.2]]","[[-0.125,-0.2],[0.125,-0.2]]",0.065740727,-0.204629616,1,0,0,2.363,o2_image,545.3614,1,545.8566,545.8567,547.8564,0,0,0,0,1,,,,,,,,,,,,,,,,,,,,,,,,,,,,,,,,,,,,,,,,,,,,,,,,,,
,,5fdbd8a82fbe510db8935564,,male,2024-04-19_17h38.31.777,stockport_simplified,2022.2.4,Win32,60.24096386,661e456ee6de07e70aa9ef7b,66229da3b3478e60a989b99a,,,,,,,,,,,,,,,,,,,,,,,,,,,,,,,,,,,,,,,,,,,,,,,,,,,,,,,,0,52,52,13,1,B,X,N,o2_image,stimuli/out2.png,stimuli/out1.png,stimuli/correct_out2.png,,,,,,,,,,,,,,,,,,,,,,,,,,,,,,,,,,,,,,
,,5fdbd8a82fbe510db8935564,,male,2024-04-19_17h38.31.777,stockport_simplified,2022.2.4,Win32,60.24096386,661e456ee6de07e70aa9ef7b,66229da3b3478e60a989b99a,,,,,,,,,,,,,,,,,,,,,,,,,,,,,,,,,,547.8569,550.0891,"[2,5,1,8,3,6,4,7]","[[-0.3,0.2],[0.3,0.2]]","[[0.125,-0.2],[-0.125,-0.2]]",-0.114814829,-0.169444473,1,0,0,1.7163,o2_image,550.0895,1,550.5956,550.5956,552.5891,0,0,0,0,1,,,,,,,,,,,,,,,,,,,,,,,,,,,,,,,,,,,,,,,,,,,,,,,,,,
,,5fdbd8a82fbe510db8935564,,male,2024-04-19_17h38.31.777,stockport_simplified,2022.2.4,Win32,60.24096386,661e456ee6de07e70aa9ef7b,66229da3b3478e60a989b99a,,,,,,,,,,,,,,,,,,,,,,,,,,,,,,,,,,,,,,,,,,,,,,,,,,,,,,,,0,53,53,28,1,N,M,D,o2_image,stimuli/out2.png,stimuli/out1.png,stimuli/correct_out2.png,,,,,,,,,,,,,,,,,,,,,,,,,,,,,,,,,,,,,,
,,5fdbd8a82fbe510db8935564,,male,2024-04-19_17h38.31.777,stockport_simplified,2022.2.4,Win32,60.24096386,661e456ee6de07e70aa9ef7b,66229da3b3478e60a989b99a,,,,,,,,,,,,,,,,,,,,,,,,,,,,,,,,,,552.5892,555.6899,"[2,5,1,8,3,6,4,7]","[[-0.3,0.2],[0.3,0.2]]","[[0.125,-0.2],[-0.125,-0.2]]",0.118518547,-0.208333333,1,0,0,2.5836,o1_image,555.7078,1,556.2068,556.2068,558.206,0,0,0,0,1,,,,,,,,,,,,,,,,,,,,,,,,,,,,,,,,,,,,,,,,,,,,,,,,,,
,,5fdbd8a82fbe510db8935564,,male,2024-04-19_17h38.31.777,stockport_simplified,2022.2.4,Win32,60.24096386,661e456ee6de07e70aa9ef7b,66229da3b3478e60a989b99a,,,,,,,,,,,,,,,,,,,,,,,,,,,,,,,,,,,,,,,,,,,,,,,,,,,,,,,,0,54,54,4,1,A,X,N,o1_image,stimuli/out1.png,stimuli/correct_out1.png,stimuli/out2.png,,,,,,,,,,,,,,,,,,,,,,,,,,,,,,,,,,,,,,
,,5fdbd8a82fbe510db8935564,,male,2024-04-19_17h38.31.777,stockport_simplified,2022.2.4,Win32,60.24096386,661e456ee6de07e70aa9ef7b,66229da3b3478e60a989b99a,,,,,,,,,,,,,,,,,,,,,,,,,,,,,,,,,,558.2061,562.1725,"[2,5,1,8,3,6,4,7]","[[-0.3,0.2],[0.3,0.2]]","[[-0.125,-0.2],[0.125,-0.2]]",0.114814829,-0.192592621,1,0,0,3.4448,o2_image,562.1786,1,562.6729,562.673,564.6732,0,0,0,0,1,,,,,,,,,,,,,,,,,,,,,,,,,,,,,,,,,,,,,,,,,,,,,,,,,,
,,5fdbd8a82fbe510db8935564,,male,2024-04-19_17h38.31.777,stockport_simplified,2022.2.4,Win32,60.24096386,661e456ee6de07e70aa9ef7b,66229da3b3478e60a989b99a,,,,,,,,,,,,,,,,,,,,,,,,,,,,,,,,,,,,,,,,,,,,,,,,,,,,,,,,0,55,55,14,1,B,X,N,o2_image,stimuli/out2.png,stimuli/out1.png,stimuli/correct_out2.png,,,,,,,,,,,,,,,,,,,,,,,,,,,,,,,,,,,,,,
,,5fdbd8a82fbe510db8935564,,male,2024-04-19_17h38.31.777,stockport_simplified,2022.2.4,Win32,60.24096386,661e456ee6de07e70aa9ef7b,66229da3b3478e60a989b99a,,,,,,,,,,,,,,,,,,,,,,,,,,,,,,,,,,564.6737,566.9725,"[2,5,1,8,3,6,4,7]","[[-0.3,0.2],[0.3,0.2]]","[[0.125,-0.2],[-0.125,-0.2]]",0.116666653,-0.189814815,1,0,0,1.7821,o1_image,566.9728,1,567.4732,567.4733,569.4732,0,0,0,0,1,,,,,,,,,,,,,,,,,,,,,,,,,,,,,,,,,,,,,,,,,,,,,,,,,,
,,5fdbd8a82fbe510db8935564,,male,2024-04-19_17h38.31.777,stockport_simplified,2022.2.4,Win32,60.24096386,661e456ee6de07e70aa9ef7b,66229da3b3478e60a989b99a,,,,,,,,,,,,,,,,,,,,,,,,,,,,,,,,,,,,,,,,,,,,,,,,,,,,,,,,0,56,56,21,1,N,M,C,o1_image,stimuli/out1.png,stimuli/correct_out1.png,stimuli/out2.png,,,,,,,,,,,,,,,,,,,,,,,,,,,,,,,,,,,,,,
,,5fdbd8a82fbe510db8935564,,male,2024-04-19_17h38.31.777,stockport_simplified,2022.2.4,Win32,60.24096386,661e456ee6de07e70aa9ef7b,66229da3b3478e60a989b99a,,,,,,,,,,,,,,,,,,,,,,,,,,,,,,,,,,569.4738,571.3226,"[2,5,1,8,3,6,4,7]","[[0.3,0.2],[-0.3,0.2]]","[[0.125,-0.2],[-0.125,-0.2]]",0.137962977,-0.164814843,1,0,0,1.3328,o1_image,571.3229,1,571.8233,571.8234,573.8226,0,0,0,0,1,,,,,,,,,,,,,,,,,,,,,,,,,,,,,,,,,,,,,,,,,,,,,,,,,,
,,5fdbd8a82fbe510db8935564,,male,2024-04-19_17h38.31.777,stockport_simplified,2022.2.4,Win32,60.24096386,661e456ee6de07e70aa9ef7b,66229da3b3478e60a989b99a,,,,,,,,,,,,,,,,,,,,,,,,,,,,,,,,,,,,,,,,,,,,,,,,,,,,,,,,0,57,57,54,1,N,M,C,o1_image,stimuli/out1.png,stimuli/correct_out1.png,stimuli/out2.png,,,,,,,,,,,,,,,,,,,,,,,,,,,,,,,,,,,,,,
,,5fdbd8a82fbe510db8935564,,male,2024-04-19_17h38.31.777,stockport_simplified,2022.2.4,Win32,60.24096386,661e456ee6de07e70aa9ef7b,66229da3b3478e60a989b99a,,,,,,,,,,,,,,,,,,,,,,,,,,,,,,,,,,573.8228,575.7225,"[2,5,1,8,3,6,4,7]","[[-0.3,0.2],[0.3,0.2]]","[[-0.125,-0.2],[0.125,-0.2]]",-0.112962935,-0.169444473,1,0,0,1.3984,o1_image,575.7229,1,576.2232,576.2233,578.2232,0,0,0,0,1,,,,,,,,,,,,,,,,,,,,,,,,,,,,,,,,,,,,,,,,,,,,,,,,,,
,,5fdbd8a82fbe510db8935564,,male,2024-04-19_17h38.31.777,stockport_simplified,2022.2.4,Win32,60.24096386,661e456ee6de07e70aa9ef7b,66229da3b3478e60a989b99a,,,,,,,,,,,,,,,,,,,,,,,,,,,,,,,,,,,,,,,,,,,,,,,,,,,,,,,,0,58,58,9,1,A,Y,N,o1_image,stimuli/out1.png,stimuli/correct_out1.png,stimuli/out2.png,,,,,,,,,,,,,,,,,,,,,,,,,,,,,,,,,,,,,,
,,5fdbd8a82fbe510db8935564,,male,2024-04-19_17h38.31.777,stockport_simplified,2022.2.4,Win32,60.24096386,661e456ee6de07e70aa9ef7b,66229da3b3478e60a989b99a,,,,,,,,,,,,,,,,,,,,,,,,,,,,,,,,,,578.2238,580.4229,"[2,5,1,8,3,6,4,7]","[[-0.3,0.2],[0.3,0.2]]","[[-0.125,-0.2],[0.125,-0.2]]",-0.150925884,-0.158333319,1,0,0,1.6835,o1_image,580.4235,1,580.9234,580.9234,582.9233,0,0,0,0,1,,,,,,,,,,,,,,,,,,,,,,,,,,,,,,,,,,,,,,,,,,,,,,,,,,
,,5fdbd8a82fbe510db8935564,,male,2024-04-19_17h38.31.777,stockport_simplified,2022.2.4,Win32,60.24096386,661e456ee6de07e70aa9ef7b,66229da3b3478e60a989b99a,,,,,,,,,,,,,,,,,,,,,,,,,,,,,,,,,,,,,,,,,,,,,,,,,,,,,,,,0,59,59,6,1,A,Y,N,o1_image,stimuli/out1.png,stimuli/correct_out1.png,stimuli/out2.png,,,,,,,,,,,,,,,,,,,,,,,,,,,,,,,,,,,,,,
,,5fdbd8a82fbe510db8935564,,male,2024-04-19_17h38.31.777,stockport_simplified,2022.2.4,Win32,60.24096386,661e456ee6de07e70aa9ef7b,66229da3b3478e60a989b99a,,,,,,,,,,,,,,,,,,,,,,,,,,,,,,,,,,582.9239,584.8906,"[2,5,1,8,3,6,4,7]","[[-0.3,0.2],[0.3,0.2]]","[[0.125,-0.2],[-0.125,-0.2]]",0.188888903,-0.191666709,1,0,0,1.4503,o1_image,584.8912,1,585.3897,585.3898,587.3893,0,0,0,0,1,,,,,,,,,,,,,,,,,,,,,,,,,,,,,,,,,,,,,,,,,,,,,,,,,,
,,5fdbd8a82fbe510db8935564,,male,2024-04-19_17h38.31.777,stockport_simplified,2022.2.4,Win32,60.24096386,661e456ee6de07e70aa9ef7b,66229da3b3478e60a989b99a,,,,,,,,,,,,,,,,,,,,,,,,,,,,,,,,,,,,,,,,,,,,,,,,,,,,,,,,1,0,60,52,1,N,M,C,o1_image,stimuli/out1.png,stimuli/correct_out1.png,stimuli/out2.png,,,,,,,,,,,,,,,,,,,,,,,,,,,,,,,,,,,,,,
,,5fdbd8a82fbe510db8935564,,male,2024-04-19_17h38.31.777,stockport_simplified,2022.2.4,Win32,60.24096386,661e456ee6de07e70aa9ef7b,66229da3b3478e60a989b99a,,,,,,,,,,,,,,,,,,,,,,,,,,,,,,,,,,587.3896,589.256,"[2,5,1,8,3,6,4,7]","[[-0.3,0.2],[0.3,0.2]]","[[-0.125,-0.2],[0.125,-0.2]]",0.111111111,-0.138888889,1,0,0,1.3658,o2_image,589.2563,1,589.7565,589.7565,591.7559,0,0,0,0,1,,,,,,,,,,,,,,,,,,,,,,,,,,,,,,,,,,,,,,,,,,,,,,,,,,
,,5fdbd8a82fbe510db8935564,,male,2024-04-19_17h38.31.777,stockport_simplified,2022.2.4,Win32,60.24096386,661e456ee6de07e70aa9ef7b,66229da3b3478e60a989b99a,,,,,,,,,,,,,,,,,,,,,,,,,,,,,,,,,,,,,,,,,,,,,,,,,,,,,,,,1,1,61,58,1,N,M,D,o2_image,stimuli/out2.png,stimuli/out1.png,stimuli/correct_out2.png,,,,,,,,,,,,,,,,,,,,,,,,,,,,,,,,,,,,,,
,,5fdbd8a82fbe510db8935564,,male,2024-04-19_17h38.31.777,stockport_simplified,2022.2.4,Win32,60.24096386,661e456ee6de07e70aa9ef7b,66229da3b3478e60a989b99a,,,,,,,,,,,,,,,,,,,,,,,,,,,,,,,,,,591.7561,593.5393,"[2,5,1,8,3,6,4,7]","[[-0.3,0.2],[0.3,0.2]]","[[0.125,-0.2],[-0.125,-0.2]]",-0.103703675,-0.170370384,1,0,0,1.2828,o2_image,593.5396,1,594.0398,594.0399,596.04,0,0,0,0,1,,,,,,,,,,,,,,,,,,,,,,,,,,,,,,,,,,,,,,,,,,,,,,,,,,
,,5fdbd8a82fbe510db8935564,,male,2024-04-19_17h38.31.777,stockport_simplified,2022.2.4,Win32,60.24096386,661e456ee6de07e70aa9ef7b,66229da3b3478e60a989b99a,,,,,,,,,,,,,,,,,,,,,,,,,,,,,,,,,,,,,,,,,,,,,,,,,,,,,,,,1,2,62,27,1,N,M,D,o2_image,stimuli/out2.png,stimuli/out1.png,stimuli/correct_out2.png,,,,,,,,,,,,,,,,,,,,,,,,,,,,,,,,,,,,,,
,,5fdbd8a82fbe510db8935564,,male,2024-04-19_17h38.31.777,stockport_simplified,2022.2.4,Win32,60.24096386,661e456ee6de07e70aa9ef7b,66229da3b3478e60a989b99a,,,,,,,,,,,,,,,,,,,,,,,,,,,,,,,,,,596.0405,598.056,"[2,5,1,8,3,6,4,7]","[[-0.3,0.2],[0.3,0.2]]","[[-0.125,-0.2],[0.125,-0.2]]",-0.138888889,-0.17777782,1,0,0,1.4993,o1_image,598.0563,1,598.5568,598.5568,600.557,0,0,0,0,1,,,,,,,,,,,,,,,,,,,,,,,,,,,,,,,,,,,,,,,,,,,,,,,,,,
,,5fdbd8a82fbe510db8935564,,male,2024-04-19_17h38.31.777,stockport_simplified,2022.2.4,Win32,60.24096386,661e456ee6de07e70aa9ef7b,66229da3b3478e60a989b99a,,,,,,,,,,,,,,,,,,,,,,,,,,,,,,,,,,,,,,,,,,,,,,,,,,,,,,,,1,3,63,0,1,A,X,N,o1_image,stimuli/out1.png,stimuli/correct_out1.png,stimuli/out2.png,,,,,,,,,,,,,,,,,,,,,,,,,,,,,,,,,,,,,,
,,5fdbd8a82fbe510db8935564,,male,2024-04-19_17h38.31.777,stockport_simplified,2022.2.4,Win32,60.24096386,661e456ee6de07e70aa9ef7b,66229da3b3478e60a989b99a,,,,,,,,,,,,,,,,,,,,,,,,,,,,,,,,,,600.5575,602.3896,"[2,5,1,8,3,6,4,7]","[[-0.3,0.2],[0.3,0.2]]","[[0.125,-0.2],[-0.125,-0.2]]",0.093518504,-0.181481467,1,0,0,1.3162,o1_image,602.3901,1,602.8898,602.8899,604.8894,0,0,0,0,1,,,,,,,,,,,,,,,,,,,,,,,,,,,,,,,,,,,,,,,,,,,,,,,,,,
,,5fdbd8a82fbe510db8935564,,male,2024-04-19_17h38.31.777,stockport_simplified,2022.2.4,Win32,60.24096386,661e456ee6de07e70aa9ef7b,66229da3b3478e60a989b99a,,,,,,,,,,,,,,,,,,,,,,,,,,,,,,,,,,,,,,,,,,,,,,,,,,,,,,,,1,4,64,4,1,A,X,N,o1_image,stimuli/out1.png,stimuli/correct_out1.png,stimuli/out2.png,,,,,,,,,,,,,,,,,,,,,,,,,,,,,,,,,,,,,,
,,5fdbd8a82fbe510db8935564,,male,2024-04-19_17h38.31.777,stockport_simplified,2022.2.4,Win32,60.24096386,661e456ee6de07e70aa9ef7b,66229da3b3478e60a989b99a,,,,,,,,,,,,,,,,,,,,,,,,,,,,,,,,,,604.8896,607.3233,"[2,5,1,8,3,6,4,7]","[[-0.3,0.2],[0.3,0.2]]","[[-0.125,-0.2],[0.125,-0.2]]",-0.108333305,-0.137037065,1,0,0,1.9332,o1_image,607.3242,1,607.8232,607.8232,609.8236,0,0,0,0,1,,,,,,,,,,,,,,,,,,,,,,,,,,,,,,,,,,,,,,,,,,,,,,,,,,
,,5fdbd8a82fbe510db8935564,,male,2024-04-19_17h38.31.777,stockport_simplified,2022.2.4,Win32,60.24096386,661e456ee6de07e70aa9ef7b,66229da3b3478e60a989b99a,,,,,,,,,,,,,,,,,,,,,,,,,,,,,,,,,,,,,,,,,,,,,,,,,,,,,,,,1,5,65,32,1,A,X,N,o1_image,stimuli/out1.png,stimuli/correct_out1.png,stimuli/out2.png,,,,,,,,,,,,,,,,,,,,,,,,,,,,,,,,,,,,,,
,,5fdbd8a82fbe510db8935564,,male,2024-04-19_17h38.31.777,stockport_simplified,2022.2.4,Win32,60.24096386,661e456ee6de07e70aa9ef7b,66229da3b3478e60a989b99a,,,,,,,,,,,,,,,,,,,,,,,,,,,,,,,,,,609.8241,611.7062,"[2,5,1,8,3,6,4,7]","[[0.3,0.2],[-0.3,0.2]]","[[0.125,-0.2],[-0.125,-0.2]]",-0.14907406,-0.178703732,1,0,0,1.3664,o2_image,611.7067,1,612.2066,612.2067,614.2069,0,0,0,0,1,,,,,,,,,,,,,,,,,,,,,,,,,,,,,,,,,,,,,,,,,,,,,,,,,,
,,5fdbd8a82fbe510db8935564,,male,2024-04-19_17h38.31.777,stockport_simplified,2022.2.4,Win32,60.24096386,661e456ee6de07e70aa9ef7b,66229da3b3478e60a989b99a,,,,,,,,,,,,,,,,,,,,,,,,,,,,,,,,,,,,,,,,,,,,,,,,,,,,,,,,1,6,66,29,1,N,M,D,o2_image,stimuli/out2.png,stimuli/out1.png,stimuli/correct_out2.png,,,,,,,,,,,,,,,,,,,,,,,,,,,,,,,,,,,,,,
,,5fdbd8a82fbe510db8935564,,male,2024-04-19_17h38.31.777,stockport_simplified,2022.2.4,Win32,60.24096386,661e456ee6de07e70aa9ef7b,66229da3b3478e60a989b99a,,,,,,,,,,,,,,,,,,,,,,,,,,,,,,,,,,614.2074,618.656,"[2,5,1,8,3,6,4,7]","[[-0.3,0.2],[0.3,0.2]]","[[0.125,-0.2],[-0.125,-0.2]]",-0.108333305,-0.17777782,1,0,0,3.9323,o2_image,618.6619,1,619.1567,619.1567,621.1568,0,0,0,0,1,,,,,,,,,,,,,,,,,,,,,,,,,,,,,,,,,,,,,,,,,,,,,,,,,,
,,5fdbd8a82fbe510db8935564,,male,2024-04-19_17h38.31.777,stockport_simplified,2022.2.4,Win32,60.24096386,661e456ee6de07e70aa9ef7b,66229da3b3478e60a989b99a,,,,,,,,,,,,,,,,,,,,,,,,,,,,,,,,,,,,,,,,,,,,,,,,,,,,,,,,1,7,67,47,1,B,Y,N,o2_image,stimuli/out2.png,stimuli/out1.png,stimuli/correct_out2.png,,,,,,,,,,,,,,,,,,,,,,,,,,,,,,,,,,,,,,
,,5fdbd8a82fbe510db8935564,,male,2024-04-19_17h38.31.777,stockport_simplified,2022.2.4,Win32,60.24096386,661e456ee6de07e70aa9ef7b,66229da3b3478e60a989b99a,,,,,,,,,,,,,,,,,,,,,,,,,,,,,,,,,,621.1573,625.3896,"[2,5,1,8,3,6,4,7]","[[0.3,0.2],[-0.3,0.2]]","[[-0.125,-0.2],[0.125,-0.2]]",0.097222222,-0.214814857,1,0,0,3.7163,o2_image,625.3951,1,625.8903,625.8903,627.89,0,0,0,0,1,,,,,,,,,,,,,,,,,,,,,,,,,,,,,,,,,,,,,,,,,,,,,,,,,,
,,5fdbd8a82fbe510db8935564,,male,2024-04-19_17h38.31.777,stockport_simplified,2022.2.4,Win32,60.24096386,661e456ee6de07e70aa9ef7b,66229da3b3478e60a989b99a,,,,,,,,,,,,,,,,,,,,,,,,,,,,,,,,,,,,,,,,,,,,,,,,,,,,,,,,1,8,68,17,1,B,Y,N,o2_image,stimuli/out2.png,stimuli/out1.png,stimuli/correct_out2.png,,,,,,,,,,,,,,,,,,,,,,,,,,,,,,,,,,,,,,
,,5fdbd8a82fbe510db8935564,,male,2024-04-19_17h38.31.777,stockport_simplified,2022.2.4,Win32,60.24096386,661e456ee6de07e70aa9ef7b,66229da3b3478e60a989b99a,,,,,,,,,,,,,,,,,,,,,,,,,,,,,,,,,,627.8908,631.0395,"[2,5,1,8,3,6,4,7]","[[0.3,0.2],[-0.3,0.2]]","[[0.125,-0.2],[-0.125,-0.2]]",0.156481496,-0.132407436,1,0,0,2.6331,o1_image,631.045,1,631.5397,631.5397,633.5402,0,0,0,0,1,,,,,,,,,,,,,,,,,,,,,,,,,,,,,,,,,,,,,,,,,,,,,,,,,,
,,5fdbd8a82fbe510db8935564,,male,2024-04-19_17h38.31.777,stockport_simplified,2022.2.4,Win32,60.24096386,661e456ee6de07e70aa9ef7b,66229da3b3478e60a989b99a,,,,,,,,,,,,,,,,,,,,,,,,,,,,,,,,,,,,,,,,,,,,,,,,,,,,,,,,1,9,69,33,1,A,X,N,o1_image,stimuli/out1.png,stimuli/correct_out1.png,stimuli/out2.png,,,,,,,,,,,,,,,,,,,,,,,,,,,,,,,,,,,,,,
,,5fdbd8a82fbe510db8935564,,male,2024-04-19_17h38.31.777,stockport_simplified,2022.2.4,Win32,60.24096386,661e456ee6de07e70aa9ef7b,66229da3b3478e60a989b99a,,,,,,,,,,,,,,,,,,,,,,,,,,,,,,,,,,633.5406,639.5895,"[2,5,1,8,3,6,4,7]","[[-0.3,0.2],[0.3,0.2]]","[[0.125,-0.2],[-0.125,-0.2]]",-0.106481481,-0.192592621,1,0,0,5.5322,o2_image,639.5951,1,640.0902,640.0903,642.0902,0,0,0,0,1,,,,,,,,,,,,,,,,,,,,,,,,,,,,,,,,,,,,,,,,,,,,,,,,,,
,,5fdbd8a82fbe510db8935564,,male,2024-04-19_17h38.31.777,stockport_simplified,2022.2.4,Win32,60.24096386,661e456ee6de07e70aa9ef7b,66229da3b3478e60a989b99a,,,,,,,,,,,,,,,,,,,,,,,,,,,,,,,,,,,,,,,,,,,,,,,,,,,,,,,,1,10,70,41,1,B,X,N,o2_image,stimuli/out2.png,stimuli/out1.png,stimuli/correct_out2.png,,,,,,,,,,,,,,,,,,,,,,,,,,,,,,,,,,,,,,
,,5fdbd8a82fbe510db8935564,,male,2024-04-19_17h38.31.777,stockport_simplified,2022.2.4,Win32,60.24096386,661e456ee6de07e70aa9ef7b,66229da3b3478e60a989b99a,,,,,,,,,,,,,,,,,,,,,,,,,,,,,,,,,,642.0908,647.2562,"[2,5,1,8,3,6,4,7]","[[0.3,0.2],[-0.3,0.2]]","[[0.125,-0.2],[-0.125,-0.2]]",-0.128703718,-0.184259273,1,0,0,4.649,o2_image,647.2618,1,647.7574,647.7574,649.7565,0,0,0,0,1,,,,,,,,,,,,,,,,,,,,,,,,,,,,,,,,,,,,,,,,,,,,,,,,,,
,,5fdbd8a82fbe510db8935564,,male,2024-04-19_17h38.31.777,stockport_simplified,2022.2.4,Win32,60.24096386,661e456ee6de07e70aa9ef7b,66229da3b3478e60a989b99a,,,,,,,,,,,,,,,,,,,,,,,,,,,,,,,,,,,,,,,,,,,,,,,,,,,,,,,,1,11,71,15,1,B,Y,N,o2_image,stimuli/out2.png,stimuli/out1.png,stimuli/correct_out2.png,,,,,,,,,,,,,,,,,,,,,,,,,,,,,,,,,,,,,,
,,5fdbd8a82fbe510db8935564,,male,2024-04-19_17h38.31.777,stockport_simplified,2022.2.4,Win32,60.24096386,661e456ee6de07e70aa9ef7b,66229da3b3478e60a989b99a,,,,,,,,,,,,,,,,,,,,,,,,,,,,,,,,,,649.7569,653.6564,"[2,5,1,8,3,6,4,7]","[[0.3,0.2],[-0.3,0.2]]","[[-0.125,-0.2],[0.125,-0.2]]",0.128703718,-0.19722225,1,0,0,3.3821,o2_image,653.6622,1,654.1572,654.1572,656.157,0,0,0,0,1,,,,,,,,,,,,,,,,,,,,,,,,,,,,,,,,,,,,,,,,,,,,,,,,,,
,,5fdbd8a82fbe510db8935564,,male,2024-04-19_17h38.31.777,stockport_simplified,2022.2.4,Win32,60.24096386,661e456ee6de07e70aa9ef7b,66229da3b3478e60a989b99a,,,,,,,,,,,,,,,,,,,,,,,,,,,,,,,,,,,,,,,,,,,,,,,,,,,,,,,,1,12,72,56,1,N,M,D,o2_image,stimuli/out2.png,stimuli/out1.png,stimuli/correct_out2.png,,,,,,,,,,,,,,,,,,,,,,,,,,,,,,,,,,,,,,
,,5fdbd8a82fbe510db8935564,,male,2024-04-19_17h38.31.777,stockport_simplified,2022.2.4,Win32,60.24096386,661e456ee6de07e70aa9ef7b,66229da3b3478e60a989b99a,,,,,,,,,,,,,,,,,,,,,,,,,,,,,,,,,,656.158,658.2068,"[2,5,1,8,3,6,4,7]","[[-0.3,0.2],[0.3,0.2]]","[[0.125,-0.2],[-0.125,-0.2]]",0.125,-0.163888931,1,0,0,1.5323,o1_image,658.2079,1,658.707,658.707,660.7069,0,0,0,0,1,,,,,,,,,,,,,,,,,,,,,,,,,,,,,,,,,,,,,,,,,,,,,,,,,,
,,5fdbd8a82fbe510db8935564,,male,2024-04-19_17h38.31.777,stockport_simplified,2022.2.4,Win32,60.24096386,661e456ee6de07e70aa9ef7b,66229da3b3478e60a989b99a,,,,,,,,,,,,,,,,,,,,,,,,,,,,,,,,,,,,,,,,,,,,,,,,,,,,,,,,1,13,73,31,1,A,X,N,o1_image,stimuli/out1.png,stimuli/correct_out1.png,stimuli/out2.png,,,,,,,,,,,,,,,,,,,,,,,,,,,,,,,,,,,,,,
,,5fdbd8a82fbe510db8935564,,male,2024-04-19_17h38.31.777,stockport_simplified,2022.2.4,Win32,60.24096386,661e456ee6de07e70aa9ef7b,66229da3b3478e60a989b99a,,,,,,,,,,,,,,,,,,,,,,,,,,,,,,,,,,660.7074,664.2063,"[2,5,1,8,3,6,4,7]","[[-0.3,0.2],[0.3,0.2]]","[[-0.125,-0.2],[0.125,-0.2]]",0.118518547,-0.18240745,1,0,0,2.9829,o2_image,664.2119,1,664.7071,664.7071,666.7071,0,0,0,0,1,,,,,,,,,,,,,,,,,,,,,,,,,,,,,,,,,,,,,,,,,,,,,,,,,,
,,5fdbd8a82fbe510db8935564,,male,2024-04-19_17h38.31.777,stockport_simplified,2022.2.4,Win32,60.24096386,661e456ee6de07e70aa9ef7b,66229da3b3478e60a989b99a,,,,,,,,,,,,,,,,,,,,,,,,,,,,,,,,,,,,,,,,,,,,,,,,,,,,,,,,1,14,74,13,1,B,X,N,o2_image,stimuli/out2.png,stimuli/out1.png,stimuli/correct_out2.png,,,,,,,,,,,,,,,,,,,,,,,,,,,,,,,,,,,,,,
,,5fdbd8a82fbe510db8935564,,male,2024-04-19_17h38.31.777,stockport_simplified,2022.2.4,Win32,60.24096386,661e456ee6de07e70aa9ef7b,66229da3b3478e60a989b99a,,,,,,,,,,,,,,,,,,,,,,,,,,,,,,,,,,666.7077,668.6453,"[2,5,1,8,3,6,4,7]","[[-0.3,0.2],[0.3,0.2]]","[[0.125,-0.2],[-0.125,-0.2]]",0.101851852,-0.208333333,1,0,0,1.4212,o1_image,668.646,1,669.1404,669.1405,671.1399,0,0,0,0,1,,,,,,,,,,,,,,,,,,,,,,,,,,,,,,,,,,,,,,,,,,,,,,,,,,
,,5fdbd8a82fbe510db8935564,,male,2024-04-19_17h38.31.777,stockport_simplified,2022.2.4,Win32,60.24096386,661e456ee6de07e70aa9ef7b,66229da3b3478e60a989b99a,,,,,,,,,,,,,,,,,,,,,,,,,,,,,,,,,,,,,,,,,,,,,,,,,,,,,,,,1,15,75,9,1,A,Y,N,o1_image,stimuli/out1.png,stimuli/correct_out1.png,stimuli/out2.png,,,,,,,,,,,,,,,,,,,,,,,,,,,,,,,,,,,,,,
,,5fdbd8a82fbe510db8935564,,male,2024-04-19_17h38.31.777,stockport_simplified,2022.2.4,Win32,60.24096386,661e456ee6de07e70aa9ef7b,66229da3b3478e60a989b99a,,,,,,,,,,,,,,,,,,,,,,,,,,,,,,,,,,671.1402,672.873,"[2,5,1,8,3,6,4,7]","[[-0.3,0.2],[0.3,0.2]]","[[-0.125,-0.2],[0.125,-0.2]]",0.100000028,-0.171296296,1,0,0,1.2153,o2_image,672.8733,1,673.374,673.374,675.3731,0,0,0,0,1,,,,,,,,,,,,,,,,,,,,,,,,,,,,,,,,,,,,,,,,,,,,,,,,,,
,,5fdbd8a82fbe510db8935564,,male,2024-04-19_17h38.31.777,stockport_simplified,2022.2.4,Win32,60.24096386,661e456ee6de07e70aa9ef7b,66229da3b3478e60a989b99a,,,,,,,,,,,,,,,,,,,,,,,,,,,,,,,,,,,,,,,,,,,,,,,,,,,,,,,,1,16,76,28,1,N,M,D,o2_image,stimuli/out2.png,stimuli/out1.png,stimuli/correct_out2.png,,,,,,,,,,,,,,,,,,,,,,,,,,,,,,,,,,,,,,
,,5fdbd8a82fbe510db8935564,,male,2024-04-19_17h38.31.777,stockport_simplified,2022.2.4,Win32,60.24096386,661e456ee6de07e70aa9ef7b,66229da3b3478e60a989b99a,,,,,,,,,,,,,,,,,,,,,,,,,,,,,,,,,,675.3732,678.173,"[2,5,1,8,3,6,4,7]","[[0.3,0.2],[-0.3,0.2]]","[[0.125,-0.2],[-0.125,-0.2]]",0.135185171,-0.196296339,1,0,0,2.299,o1_image,678.1734,1,678.6739,678.674,680.6737,0,0,0,0,1,,,,,,,,,,,,,,,,,,,,,,,,,,,,,,,,,,,,,,,,,,,,,,,,,,
,,5fdbd8a82fbe510db8935564,,male,2024-04-19_17h38.31.777,stockport_simplified,2022.2.4,Win32,60.24096386,661e456ee6de07e70aa9ef7b,66229da3b3478e60a989b99a,,,,,,,,,,,,,,,,,,,,,,,,,,,,,,,,,,,,,,,,,,,,,,,,,,,,,,,,1,17,77,51,1,N,M,C,o1_image,stimuli/out1.png,stimuli/correct_out1.png,stimuli/out2.png,,,,,,,,,,,,,,,,,,,,,,,,,,,,,,,,,,,,,,
,,5fdbd8a82fbe510db8935564,,male,2024-04-19_17h38.31.777,stockport_simplified,2022.2.4,Win32,60.24096386,661e456ee6de07e70aa9ef7b,66229da3b3478e60a989b99a,,,,,,,,,,,,,,,,,,,,,,,,,,,,,,,,,,680.6742,683.9232,"[2,5,1,8,3,6,4,7]","[[-0.3,0.2],[0.3,0.2]]","[[0.125,-0.2],[-0.125,-0.2]]",-0.10092594,-0.155555584,1,0,0,2.7319,o2_image,683.9289,1,684.4239,684.424,686.4239,0,0,0,0,1,,,,,,,,,,,,,,,,,,,,,,,,,,,,,,,,,,,,,,,,,,,,,,,,,,
,,5fdbd8a82fbe510db8935564,,male,2024-04-19_17h38.31.777,stockport_simplified,2022.2.4,Win32,60.24096386,661e456ee6de07e70aa9ef7b,66229da3b3478e60a989b99a,,,,,,,,,,,,,,,,,,,,,,,,,,,,,,,,,,,,,,,,,,,,,,,,,,,,,,,,1,18,78,11,1,B,X,N,o2_image,stimuli/out2.png,stimuli/out1.png,stimuli/correct_out2.png,,,,,,,,,,,,,,,,,,,,,,,,,,,,,,,,,,,,,,
,,5fdbd8a82fbe510db8935564,,male,2024-04-19_17h38.31.777,stockport_simplified,2022.2.4,Win32,60.24096386,661e456ee6de07e70aa9ef7b,66229da3b3478e60a989b99a,,,,,,,,,,,,,,,,,,,,,,,,,,,,,,,,,,686.4245,688.5398,"[2,5,1,8,3,6,4,7]","[[-0.3,0.2],[0.3,0.2]]","[[-0.125,-0.2],[0.125,-0.2]]",-0.097222222,-0.167592578,1,0,0,1.5992,o1_image,688.5402,1,689.0404,689.0405,691.0402,0,0,0,0,1,,,,,,,,,,,,,,,,,,,,,,,,,,,,,,,,,,,,,,,,,,,,,,,,,,
,,5fdbd8a82fbe510db8935564,,male,2024-04-19_17h38.31.777,stockport_simplified,2022.2.4,Win32,60.24096386,661e456ee6de07e70aa9ef7b,66229da3b3478e60a989b99a,,,,,,,,,,,,,,,,,,,,,,,,,,,,,,,,,,,,,,,,,,,,,,,,,,,,,,,,1,19,79,2,1,A,X,N,o1_image,stimuli/out1.png,stimuli/correct_out1.png,stimuli/out2.png,,,,,,,,,,,,,,,,,,,,,,,,,,,,,,,,,,,,,,
,,5fdbd8a82fbe510db8935564,,male,2024-04-19_17h38.31.777,stockport_simplified,2022.2.4,Win32,60.24096386,661e456ee6de07e70aa9ef7b,66229da3b3478e60a989b99a,,,,,,,,,,,,,,,,,,,,,,,,,,,,,,,,,,691.0405,695.8236,"[2,5,1,8,3,6,4,7]","[[-0.3,0.2],[0.3,0.2]]","[[-0.125,-0.2],[0.125,-0.2]]",-0.117592564,-0.20648151,1,0,0,4.2667,o1_image,695.841,1,696.3299,696.3299,698.3231,0,0,0,0,1,,,,,,,,,,,,,,,,,,,,,,,,,,,,,,,,,,,,,,,,,,,,,,,,,,
,,5fdbd8a82fbe510db8935564,,male,2024-04-19_17h38.31.777,stockport_simplified,2022.2.4,Win32,60.24096386,661e456ee6de07e70aa9ef7b,66229da3b3478e60a989b99a,,,,,,,,,,,,,,,,,,,,,,,,,,,,,,,,,,,,,,,,,,,,,,,,,,,,,,,,1,20,80,7,1,A,Y,N,o1_image,stimuli/out1.png,stimuli/correct_out1.png,stimuli/out2.png,,,,,,,,,,,,,,,,,,,,,,,,,,,,,,,,,,,,,,
,,5fdbd8a82fbe510db8935564,,male,2024-04-19_17h38.31.777,stockport_simplified,2022.2.4,Win32,60.24096386,661e456ee6de07e70aa9ef7b,66229da3b3478e60a989b99a,,,,,,,,,,,,,,,,,,,,,,,,,,,,,,,,,,698.3233,700.9232,"[2,5,1,8,3,6,4,7]","[[-0.3,0.2],[0.3,0.2]]","[[0.125,-0.2],[-0.125,-0.2]]",0.111111111,-0.194444444,1,0,0,2.0989,o1_image,700.9286,1,701.4238,701.4239,703.4233,0,0,0,0,1,,,,,,,,,,,,,,,,,,,,,,,,,,,,,,,,,,,,,,,,,,,,,,,,,,
,,5fdbd8a82fbe510db8935564,,male,2024-04-19_17h38.31.777,stockport_simplified,2022.2.4,Win32,60.24096386,661e456ee6de07e70aa9ef7b,66229da3b3478e60a989b99a,,,,,,,,,,,,,,,,,,,,,,,,,,,,,,,,,,,,,,,,,,,,,,,,,,,,,,,,1,21,81,54,1,N,M,C,o1_image,stimuli/out1.png,stimuli/correct_out1.png,stimuli/out2.png,,,,,,,,,,,,,,,,,,,,,,,,,,,,,,,,,,,,,,
,,5fdbd8a82fbe510db8935564,,male,2024-04-19_17h38.31.777,stockport_simplified,2022.2.4,Win32,60.24096386,661e456ee6de07e70aa9ef7b,66229da3b3478e60a989b99a,,,,,,,,,,,,,,,,,,,,,,,,,,,,,,,,,,703.4235,705.9568,"[2,5,1,8,3,6,4,7]","[[-0.3,0.2],[0.3,0.2]]","[[-0.125,-0.2],[0.125,-0.2]]",0.101851852,-0.17777782,1,0,0,2.0162,o2_image,705.9573,1,706.4572,706.4572,708.4567,0,0,0,0,1,,,,,,,,,,,,,,,,,,,,,,,,,,,,,,,,,,,,,,,,,,,,,,,,,,
,,5fdbd8a82fbe510db8935564,,male,2024-04-19_17h38.31.777,stockport_simplified,2022.2.4,Win32,60.24096386,661e456ee6de07e70aa9ef7b,66229da3b3478e60a989b99a,,,,,,,,,,,,,,,,,,,,,,,,,,,,,,,,,,,,,,,,,,,,,,,,,,,,,,,,1,22,82,18,1,B,Y,N,o2_image,stimuli/out2.png,stimuli/out1.png,stimuli/correct_out2.png,,,,,,,,,,,,,,,,,,,,,,,,,,,,,,,,,,,,,,
,,5fdbd8a82fbe510db8935564,,male,2024-04-19_17h38.31.777,stockport_simplified,2022.2.4,Win32,60.24096386,661e456ee6de07e70aa9ef7b,66229da3b3478e60a989b99a,,,,,,,,,,,,,,,,,,,,,,,,,,,,,,,,,,708.4569,710.7066,"[2,5,1,8,3,6,4,7]","[[0.3,0.2],[-0.3,0.2]]","[[-0.125,-0.2],[0.125,-0.2]]",0.10092594,-0.189814815,1,0,0,1.733,o2_image,710.7069,1,711.2073,711.2073,713.2075,0,0,0,0,1,,,,,,,,,,,,,,,,,,,,,,,,,,,,,,,,,,,,,,,,,,,,,,,,,,
,,5fdbd8a82fbe510db8935564,,male,2024-04-19_17h38.31.777,stockport_simplified,2022.2.4,Win32,60.24096386,661e456ee6de07e70aa9ef7b,66229da3b3478e60a989b99a,,,,,,,,,,,,,,,,,,,,,,,,,,,,,,,,,,,,,,,,,,,,,,,,,,,,,,,,1,23,83,10,1,B,X,N,o2_image,stimuli/out2.png,stimuli/out1.png,stimuli/correct_out2.png,,,,,,,,,,,,,,,,,,,,,,,,,,,,,,,,,,,,,,
,,5fdbd8a82fbe510db8935564,,male,2024-04-19_17h38.31.777,stockport_simplified,2022.2.4,Win32,60.24096386,661e456ee6de07e70aa9ef7b,66229da3b3478e60a989b99a,,,,,,,,,,,,,,,,,,,,,,,,,,,,,,,,,,713.2084,715.8733,"[2,5,1,8,3,6,4,7]","[[0.3,0.2],[-0.3,0.2]]","[[-0.125,-0.2],[0.125,-0.2]]",0.09629631,-0.205555598,1,0,0,2.1493,o2_image,715.8736,1,716.374,716.3741,718.3742,0,0,0,0,1,,,,,,,,,,,,,,,,,,,,,,,,,,,,,,,,,,,,,,,,,,,,,,,,,,
,,5fdbd8a82fbe510db8935564,,male,2024-04-19_17h38.31.777,stockport_simplified,2022.2.4,Win32,60.24096386,661e456ee6de07e70aa9ef7b,66229da3b3478e60a989b99a,,,,,,,,,,,,,,,,,,,,,,,,,,,,,,,,,,,,,,,,,,,,,,,,,,,,,,,,1,24,84,14,1,B,X,N,o2_image,stimuli/out2.png,stimuli/out1.png,stimuli/correct_out2.png,,,,,,,,,,,,,,,,,,,,,,,,,,,,,,,,,,,,,,
,,5fdbd8a82fbe510db8935564,,male,2024-04-19_17h38.31.777,stockport_simplified,2022.2.4,Win32,60.24096386,661e456ee6de07e70aa9ef7b,66229da3b3478e60a989b99a,,,,,,,,,,,,,,,,,,,,,,,,,,,,,,,,,,718.3748,720.8399,"[2,5,1,8,3,6,4,7]","[[-0.3,0.2],[0.3,0.2]]","[[-0.125,-0.2],[0.125,-0.2]]",-0.107407393,-0.175000014,1,0,0,1.9494,o1_image,720.8455,1,721.3406,721.3407,723.3406,0,0,0,0,1,,,,,,,,,,,,,,,,,,,,,,,,,,,,,,,,,,,,,,,,,,,,,,,,,,
,,5fdbd8a82fbe510db8935564,,male,2024-04-19_17h38.31.777,stockport_simplified,2022.2.4,Win32,60.24096386,661e456ee6de07e70aa9ef7b,66229da3b3478e60a989b99a,,,,,,,,,,,,,,,,,,,,,,,,,,,,,,,,,,,,,,,,,,,,,,,,,,,,,,,,1,25,85,36,1,A,Y,N,o1_image,stimuli/out1.png,stimuli/correct_out1.png,stimuli/out2.png,,,,,,,,,,,,,,,,,,,,,,,,,,,,,,,,,,,,,,
,,5fdbd8a82fbe510db8935564,,male,2024-04-19_17h38.31.777,stockport_simplified,2022.2.4,Win32,60.24096386,661e456ee6de07e70aa9ef7b,66229da3b3478e60a989b99a,,,,,,,,,,,,,,,,,,,,,,,,,,,,,,,,,,723.341,725.2734,"[2,5,1,8,3,6,4,7]","[[-0.3,0.2],[0.3,0.2]]","[[-0.125,-0.2],[0.125,-0.2]]",-0.107407393,-0.175000014,1,0,0,1.4159,o1_image,725.2737,1,725.7741,725.7741,727.7743,0,0,0,0,1,,,,,,,,,,,,,,,,,,,,,,,,,,,,,,,,,,,,,,,,,,,,,,,,,,
,,5fdbd8a82fbe510db8935564,,male,2024-04-19_17h38.31.777,stockport_simplified,2022.2.4,Win32,60.24096386,661e456ee6de07e70aa9ef7b,66229da3b3478e60a989b99a,,,,,,,,,,,,,,,,,,,,,,,,,,,,,,,,,,,,,,,,,,,,,,,,,,,,,,,,1,26,86,39,1,A,Y,N,o1_image,stimuli/out1.png,stimuli/correct_out1.png,stimuli/out2.png,,,,,,,,,,,,,,,,,,,,,,,,,,,,,,,,,,,,,,
,,5fdbd8a82fbe510db8935564,,male,2024-04-19_17h38.31.777,stockport_simplified,2022.2.4,Win32,60.24096386,661e456ee6de07e70aa9ef7b,66229da3b3478e60a989b99a,,,,,,,,,,,,,,,,,,,,,,,,,,,,,,,,,,727.7749,730.0734,"[2,5,1,8,3,6,4,7]","[[0.3,0.2],[-0.3,0.2]]","[[-0.125,-0.2],[0.125,-0.2]]",-0.085185157,-0.207407422,1,0,0,1.7824,o1_image,730.0737,1,730.5741,730.5742,732.5734,0,0,0,0,1,,,,,,,,,,,,,,,,,,,,,,,,,,,,,,,,,,,,,,,,,,,,,,,,,,
,,5fdbd8a82fbe510db8935564,,male,2024-04-19_17h38.31.777,stockport_simplified,2022.2.4,Win32,60.24096386,661e456ee6de07e70aa9ef7b,66229da3b3478e60a989b99a,,,,,,,,,,,,,,,,,,,,,,,,,,,,,,,,,,,,,,,,,,,,,,,,,,,,,,,,1,27,87,35,1,A,Y,N,o1_image,stimuli/out1.png,stimuli/correct_out1.png,stimuli/out2.png,,,,,,,,,,,,,,,,,,,,,,,,,,,,,,,,,,,,,,
,,5fdbd8a82fbe510db8935564,,male,2024-04-19_17h38.31.777,stockport_simplified,2022.2.4,Win32,60.24096386,661e456ee6de07e70aa9ef7b,66229da3b3478e60a989b99a,,,,,,,,,,,,,,,,,,,,,,,,,,,,,,,,,,732.5736,735.0575,"[2,5,1,8,3,6,4,7]","[[0.3,0.2],[-0.3,0.2]]","[[-0.125,-0.2],[0.125,-0.2]]",0.087962963,-0.22592594,1,0,0,1.9668,o2_image,735.075,1,735.5739,735.5741,737.5736,0,0,0,0,1,,,,,,,,,,,,,,,,,,,,,,,,,,,,,,,,,,,,,,,,,,,,,,,,,,
,,5fdbd8a82fbe510db8935564,,male,2024-04-19_17h38.31.777,stockport_simplified,2022.2.4,Win32,60.24096386,661e456ee6de07e70aa9ef7b,66229da3b3478e60a989b99a,,,,,,,,,,,,,,,,,,,,,,,,,,,,,,,,,,,,,,,,,,,,,,,,,,,,,,,,1,28,88,43,1,B,X,N,o2_image,stimuli/out2.png,stimuli/out1.png,stimuli/correct_out2.png,,,,,,,,,,,,,,,,,,,,,,,,,,,,,,,,,,,,,,
,,5fdbd8a82fbe510db8935564,,male,2024-04-19_17h38.31.777,stockport_simplified,2022.2.4,Win32,60.24096386,661e456ee6de07e70aa9ef7b,66229da3b3478e60a989b99a,,,,,,,,,,,,,,,,,,,,,,,,,,,,,,,,,,737.5738,740.8903,"[2,5,1,8,3,6,4,7]","[[-0.3,0.2],[0.3,0.2]]","[[0.125,-0.2],[-0.125,-0.2]]",-0.123148106,-0.189814815,1,0,0,2.8117,o2_image,740.896,1,741.3908,741.3909,743.3908,0,0,0,0,1,,,,,,,,,,,,,,,,,,,,,,,,,,,,,,,,,,,,,,,,,,,,,,,,,,
,,5fdbd8a82fbe510db8935564,,male,2024-04-19_17h38.31.777,stockport_simplified,2022.2.4,Win32,60.24096386,661e456ee6de07e70aa9ef7b,66229da3b3478e60a989b99a,,,,,,,,,,,,,,,,,,,,,,,,,,,,,,,,,,,,,,,,,,,,,,,,,,,,,,,,1,29,89,46,1,B,Y,N,o2_image,stimuli/out2.png,stimuli/out1.png,stimuli/correct_out2.png,,,,,,,,,,,,,,,,,,,,,,,,,,,,,,,,,,,,,,
,,5fdbd8a82fbe510db8935564,,male,2024-04-19_17h38.31.777,stockport_simplified,2022.2.4,Win32,60.24096386,661e456ee6de07e70aa9ef7b,66229da3b3478e60a989b99a,,,,,,,,,,,,,,,,,,,,,,,,,,,,,,,,,,743.3914,745.3571,"[2,5,1,8,3,6,4,7]","[[0.3,0.2],[-0.3,0.2]]","[[-0.125,-0.2],[0.125,-0.2]]",-0.114814829,-0.17777782,1,0,0,1.4491,o1_image,745.3576,1,745.8572,745.8572,747.8569,0,0,0,0,1,,,,,,,,,,,,,,,,,,,,,,,,,,,,,,,,,,,,,,,,,,,,,,,,,,
,,5fdbd8a82fbe510db8935564,,male,2024-04-19_17h38.31.777,stockport_simplified,2022.2.4,Win32,60.24096386,661e456ee6de07e70aa9ef7b,66229da3b3478e60a989b99a,,,,,,,,,,,,,,,,,,,,,,,,,,,,,,,,,,,,,,,,,,,,,,,,,,,,,,,,1,30,90,23,1,N,M,C,o1_image,stimuli/out1.png,stimuli/correct_out1.png,stimuli/out2.png,,,,,,,,,,,,,,,,,,,,,,,,,,,,,,,,,,,,,,
,,5fdbd8a82fbe510db8935564,,male,2024-04-19_17h38.31.777,stockport_simplified,2022.2.4,Win32,60.24096386,661e456ee6de07e70aa9ef7b,66229da3b3478e60a989b99a,,,,,,,,,,,,,,,,,,,,,,,,,,,,,,,,,,747.857,749.7236,"[2,5,1,8,3,6,4,7]","[[-0.3,0.2],[0.3,0.2]]","[[0.125,-0.2],[-0.125,-0.2]]",0.131481524,-0.199999986,1,0,0,1.3497,o1_image,749.7239,1,750.224,750.224,752.2243,0,0,0,0,1,,,,,,,,,,,,,,,,,,,,,,,,,,,,,,,,,,,,,,,,,,,,,,,,,,
,,5fdbd8a82fbe510db8935564,,male,2024-04-19_17h38.31.777,stockport_simplified,2022.2.4,Win32,60.24096386,661e456ee6de07e70aa9ef7b,66229da3b3478e60a989b99a,,,,,,,,,,,,,,,,,,,,,,,,,,,,,,,,,,,,,,,,,,,,,,,,,,,,,,,,1,31,91,53,1,N,M,C,o1_image,stimuli/out1.png,stimuli/correct_out1.png,stimuli/out2.png,,,,,,,,,,,,,,,,,,,,,,,,,,,,,,,,,,,,,,
,,5fdbd8a82fbe510db8935564,,male,2024-04-19_17h38.31.777,stockport_simplified,2022.2.4,Win32,60.24096386,661e456ee6de07e70aa9ef7b,66229da3b3478e60a989b99a,,,,,,,,,,,,,,,,,,,,,,,,,,,,,,,,,,752.2248,754.3069,"[2,5,1,8,3,6,4,7]","[[0.3,0.2],[-0.3,0.2]]","[[-0.125,-0.2],[0.125,-0.2]]",-0.107407393,-0.150000042,1,0,0,1.5655,o1_image,754.3072,1,754.8076,754.8077,756.807,0,0,0,0,1,,,,,,,,,,,,,,,,,,,,,,,,,,,,,,,,,,,,,,,,,,,,,,,,,,
,,5fdbd8a82fbe510db8935564,,male,2024-04-19_17h38.31.777,stockport_simplified,2022.2.4,Win32,60.24096386,661e456ee6de07e70aa9ef7b,66229da3b3478e60a989b99a,,,,,,,,,,,,,,,,,,,,,,,,,,,,,,,,,,,,,,,,,,,,,,,,,,,,,,,,1,32,92,6,1,A,Y,N,o1_image,stimuli/out1.png,stimuli/correct_out1.png,stimuli/out2.png,,,,,,,,,,,,,,,,,,,,,,,,,,,,,,,,,,,,,,
,,5fdbd8a82fbe510db8935564,,male,2024-04-19_17h38.31.777,stockport_simplified,2022.2.4,Win32,60.24096386,661e456ee6de07e70aa9ef7b,66229da3b3478e60a989b99a,,,,,,,,,,,,,,,,,,,,,,,,,,,,,,,,,,756.8071,761.2739,"[2,5,1,8,3,6,4,7]","[[-0.3,0.2],[0.3,0.2]]","[[0.125,-0.2],[-0.125,-0.2]]",-0.134259259,-0.151851866,1,0,0,3.9502,o2_image,761.2802,1,761.7738,761.7738,763.7743,0,0,0,0,1,,,,,,,,,,,,,,,,,,,,,,,,,,,,,,,,,,,,,,,,,,,,,,,,,,
,,5fdbd8a82fbe510db8935564,,male,2024-04-19_17h38.31.777,stockport_simplified,2022.2.4,Win32,60.24096386,661e456ee6de07e70aa9ef7b,66229da3b3478e60a989b99a,,,,,,,,,,,,,,,,,,,,,,,,,,,,,,,,,,,,,,,,,,,,,,,,,,,,,,,,1,33,93,25,1,N,M,D,o2_image,stimuli/out2.png,stimuli/out1.png,stimuli/correct_out2.png,,,,,,,,,,,,,,,,,,,,,,,,,,,,,,,,,,,,,,
,,5fdbd8a82fbe510db8935564,,male,2024-04-19_17h38.31.777,stockport_simplified,2022.2.4,Win32,60.24096386,661e456ee6de07e70aa9ef7b,66229da3b3478e60a989b99a,,,,,,,,,,,,,,,,,,,,,,,,,,,,,,,,,,763.7748,766.5735,"[2,5,1,8,3,6,4,7]","[[-0.3,0.2],[0.3,0.2]]","[[0.125,-0.2],[-0.125,-0.2]]",-0.126851824,-0.155555584,1,0,0,2.2826,o2_image,766.5738,1,767.0743,767.0744,769.0742,0,0,0,0,1,,,,,,,,,,,,,,,,,,,,,,,,,,,,,,,,,,,,,,,,,,,,,,,,,,
,,5fdbd8a82fbe510db8935564,,male,2024-04-19_17h38.31.777,stockport_simplified,2022.2.4,Win32,60.24096386,661e456ee6de07e70aa9ef7b,66229da3b3478e60a989b99a,,,,,,,,,,,,,,,,,,,,,,,,,,,,,,,,,,,,,,,,,,,,,,,,,,,,,,,,1,34,94,59,1,N,M,D,o2_image,stimuli/out2.png,stimuli/out1.png,stimuli/correct_out2.png,,,,,,,,,,,,,,,,,,,,,,,,,,,,,,,,,,,,,,
,,5fdbd8a82fbe510db8935564,,male,2024-04-19_17h38.31.777,stockport_simplified,2022.2.4,Win32,60.24096386,661e456ee6de07e70aa9ef7b,66229da3b3478e60a989b99a,,,,,,,,,,,,,,,,,,,,,,,,,,,,,,,,,,769.0748,771.5736,"[2,5,1,8,3,6,4,7]","[[0.3,0.2],[-0.3,0.2]]","[[0.125,-0.2],[-0.125,-0.2]]",0.102777764,-0.132407436,1,0,0,1.9829,o1_image,771.5739,1,772.0744,772.0744,774.0744,0,0,0,0,1,,,,,,,,,,,,,,,,,,,,,,,,,,,,,,,,,,,,,,,,,,,,,,,,,,
,,5fdbd8a82fbe510db8935564,,male,2024-04-19_17h38.31.777,stockport_simplified,2022.2.4,Win32,60.24096386,661e456ee6de07e70aa9ef7b,66229da3b3478e60a989b99a,,,,,,,,,,,,,,,,,,,,,,,,,,,,,,,,,,,,,,,,,,,,,,,,,,,,,,,,1,35,95,3,1,A,X,N,o1_image,stimuli/out1.png,stimuli/correct_out1.png,stimuli/out2.png,,,,,,,,,,,,,,,,,,,,,,,,,,,,,,,,,,,,,,
,,5fdbd8a82fbe510db8935564,,male,2024-04-19_17h38.31.777,stockport_simplified,2022.2.4,Win32,60.24096386,661e456ee6de07e70aa9ef7b,66229da3b3478e60a989b99a,,,,,,,,,,,,,,,,,,,,,,,,,,,,,,,,,,774.0749,776.0571,"[2,5,1,8,3,6,4,7]","[[0.3,0.2],[-0.3,0.2]]","[[0.125,-0.2],[-0.125,-0.2]]",0.102777764,-0.132407436,1,0,0,1.4658,o1_image,776.0574,1,776.5575,776.5576,778.5577,0,0,0,0,1,,,,,,,,,,,,,,,,,,,,,,,,,,,,,,,,,,,,,,,,,,,,,,,,,,
,,5fdbd8a82fbe510db8935564,,male,2024-04-19_17h38.31.777,stockport_simplified,2022.2.4,Win32,60.24096386,661e456ee6de07e70aa9ef7b,66229da3b3478e60a989b99a,,,,,,,,,,,,,,,,,,,,,,,,,,,,,,,,,,,,,,,,,,,,,,,,,,,,,,,,1,36,96,5,1,A,Y,N,o1_image,stimuli/out1.png,stimuli/correct_out1.png,stimuli/out2.png,,,,,,,,,,,,,,,,,,,,,,,,,,,,,,,,,,,,,,
,,5fdbd8a82fbe510db8935564,,male,2024-04-19_17h38.31.777,stockport_simplified,2022.2.4,Win32,60.24096386,661e456ee6de07e70aa9ef7b,66229da3b3478e60a989b99a,,,,,,,,,,,,,,,,,,,,,,,,,,,,,,,,,,778.5582,780.3736,"[2,5,1,8,3,6,4,7]","[[-0.3,0.2],[0.3,0.2]]","[[0.125,-0.2],[-0.125,-0.2]]",0.079629616,-0.164814843,1,0,0,1.2999,o1_image,780.374,1,780.8746,780.8746,782.8745,0,0,0,0,1,,,,,,,,,,,,,,,,,,,,,,,,,,,,,,,,,,,,,,,,,,,,,,,,,,
,,5fdbd8a82fbe510db8935564,,male,2024-04-19_17h38.31.777,stockport_simplified,2022.2.4,Win32,60.24096386,661e456ee6de07e70aa9ef7b,66229da3b3478e60a989b99a,,,,,,,,,,,,,,,,,,,,,,,,,,,,,,,,,,,,,,,,,,,,,,,,,,,,,,,,1,37,97,8,1,A,Y,N,o1_image,stimuli/out1.png,stimuli/correct_out1.png,stimuli/out2.png,,,,,,,,,,,,,,,,,,,,,,,,,,,,,,,,,,,,,,
,,5fdbd8a82fbe510db8935564,,male,2024-04-19_17h38.31.777,stockport_simplified,2022.2.4,Win32,60.24096386,661e456ee6de07e70aa9ef7b,66229da3b3478e60a989b99a,,,,,,,,,,,,,,,,,,,,,,,,,,,,,,,,,,782.8752,787.0904,"[2,5,1,8,3,6,4,7]","[[-0.3,0.2],[0.3,0.2]]","[[0.125,-0.2],[-0.125,-0.2]]",-0.15370369,-0.202777792,1,0,0,3.6991,o2_image,787.0959,1,787.5909,787.5909,789.5911,0,0,0,0,1,,,,,,,,,,,,,,,,,,,,,,,,,,,,,,,,,,,,,,,,,,,,,,,,,,
,,5fdbd8a82fbe510db8935564,,male,2024-04-19_17h38.31.777,stockport_simplified,2022.2.4,Win32,60.24096386,661e456ee6de07e70aa9ef7b,66229da3b3478e60a989b99a,,,,,,,,,,,,,,,,,,,,,,,,,,,,,,,,,,,,,,,,,,,,,,,,,,,,,,,,1,38,98,57,1,N,M,D,o2_image,stimuli/out2.png,stimuli/out1.png,stimuli/correct_out2.png,,,,,,,,,,,,,,,,,,,,,,,,,,,,,,,,,,,,,,
,,5fdbd8a82fbe510db8935564,,male,2024-04-19_17h38.31.777,stockport_simplified,2022.2.4,Win32,60.24096386,661e456ee6de07e70aa9ef7b,66229da3b3478e60a989b99a,,,,,,,,,,,,,,,,,,,,,,,,,,,,,,,,,,789.5917,792.8237,"[2,5,1,8,3,6,4,7]","[[0.3,0.2],[-0.3,0.2]]","[[0.125,-0.2],[-0.125,-0.2]]",-0.141666624,-0.160185213,1,0,0,2.7164,o2_image,792.8241,1,793.3245,793.3245,795.3245,0,0,0,0,1,,,,,,,,,,,,,,,,,,,,,,,,,,,,,,,,,,,,,,,,,,,,,,,,,,
,,5fdbd8a82fbe510db8935564,,male,2024-04-19_17h38.31.777,stockport_simplified,2022.2.4,Win32,60.24096386,661e456ee6de07e70aa9ef7b,66229da3b3478e60a989b99a,,,,,,,,,,,,,,,,,,,,,,,,,,,,,,,,,,,,,,,,,,,,,,,,,,,,,,,,1,39,99,40,1,B,X,N,o2_image,stimuli/out2.png,stimuli/out1.png,stimuli/correct_out2.png,,,,,,,,,,,,,,,,,,,,,,,,,,,,,,,,,,,,,,
,,5fdbd8a82fbe510db8935564,,male,2024-04-19_17h38.31.777,stockport_simplified,2022.2.4,Win32,60.24096386,661e456ee6de07e70aa9ef7b,66229da3b3478e60a989b99a,,,,,,,,,,,,,,,,,,,,,,,,,,,,,,,,,,795.325,797.3739,"[2,5,1,8,3,6,4,7]","[[-0.3,0.2],[0.3,0.2]]","[[0.125,-0.2],[-0.125,-0.2]]",-0.143518519,-0.212962963,1,0,0,1.5332,o2_image,797.3742,1,797.8739,797.8739,799.874,0,0,0,0,1,,,,,,,,,,,,,,,,,,,,,,,,,,,,,,,,,,,,,,,,,,,,,,,,,,
,,5fdbd8a82fbe510db8935564,,male,2024-04-19_17h38.31.777,stockport_simplified,2022.2.4,Win32,60.24096386,661e456ee6de07e70aa9ef7b,66229da3b3478e60a989b99a,,,,,,,,,,,,,,,,,,,,,,,,,,,,,,,,,,,,,,,,,,,,,,,,,,,,,,,,1,40,100,42,1,B,X,N,o2_image,stimuli/out2.png,stimuli/out1.png,stimuli/correct_out2.png,,,,,,,,,,,,,,,,,,,,,,,,,,,,,,,,,,,,,,
,,5fdbd8a82fbe510db8935564,,male,2024-04-19_17h38.31.777,stockport_simplified,2022.2.4,Win32,60.24096386,661e456ee6de07e70aa9ef7b,66229da3b3478e60a989b99a,,,,,,,,,,,,,,,,,,,,,,,,,,,,,,,,,,799.8743,802.1408,"[2,5,1,8,3,6,4,7]","[[0.3,0.2],[-0.3,0.2]]","[[0.125,-0.2],[-0.125,-0.2]]",0.090740769,-0.136111153,1,0,0,1.7497,o1_image,802.1414,1,802.641,802.6411,804.6411,0,0,0,0,1,,,,,,,,,,,,,,,,,,,,,,,,,,,,,,,,,,,,,,,,,,,,,,,,,,
,,5fdbd8a82fbe510db8935564,,male,2024-04-19_17h38.31.777,stockport_simplified,2022.2.4,Win32,60.24096386,661e456ee6de07e70aa9ef7b,66229da3b3478e60a989b99a,,,,,,,,,,,,,,,,,,,,,,,,,,,,,,,,,,,,,,,,,,,,,,,,,,,,,,,,1,41,101,1,1,A,X,N,o1_image,stimuli/out1.png,stimuli/correct_out1.png,stimuli/out2.png,,,,,,,,,,,,,,,,,,,,,,,,,,,,,,,,,,,,,,
,,5fdbd8a82fbe510db8935564,,male,2024-04-19_17h38.31.777,stockport_simplified,2022.2.4,Win32,60.24096386,661e456ee6de07e70aa9ef7b,66229da3b3478e60a989b99a,,,,,,,,,,,,,,,,,,,,,,,,,,,,,,,,,,804.6418,808.2241,"[2,5,1,8,3,6,4,7]","[[-0.3,0.2],[0.3,0.2]]","[[0.125,-0.2],[-0.125,-0.2]]",-0.101851852,-0.184259273,1,0,0,3.0656,o2_image,808.2297,1,808.7245,808.7246,810.7238,0,0,0,0,1,,,,,,,,,,,,,,,,,,,,,,,,,,,,,,,,,,,,,,,,,,,,,,,,,,
,,5fdbd8a82fbe510db8935564,,male,2024-04-19_17h38.31.777,stockport_simplified,2022.2.4,Win32,60.24096386,661e456ee6de07e70aa9ef7b,66229da3b3478e60a989b99a,,,,,,,,,,,,,,,,,,,,,,,,,,,,,,,,,,,,,,,,,,,,,,,,,,,,,,,,1,42,102,26,1,N,M,D,o2_image,stimuli/out2.png,stimuli/out1.png,stimuli/correct_out2.png,,,,,,,,,,,,,,,,,,,,,,,,,,,,,,,,,,,,,,
,,5fdbd8a82fbe510db8935564,,male,2024-04-19_17h38.31.777,stockport_simplified,2022.2.4,Win32,60.24096386,661e456ee6de07e70aa9ef7b,66229da3b3478e60a989b99a,,,,,,,,,,,,,,,,,,,,,,,,,,,,,,,,,,810.724,812.8748,"[2,5,1,8,3,6,4,7]","[[-0.3,0.2],[0.3,0.2]]","[[0.125,-0.2],[-0.125,-0.2]]",-0.101851852,-0.184259273,1,0,0,1.6336,o2_image,812.8757,1,813.3743,813.3743,815.3745,0,0,0,0,1,,,,,,,,,,,,,,,,,,,,,,,,,,,,,,,,,,,,,,,,,,,,,,,,,,
,,5fdbd8a82fbe510db8935564,,male,2024-04-19_17h38.31.777,stockport_simplified,2022.2.4,Win32,60.24096386,661e456ee6de07e70aa9ef7b,66229da3b3478e60a989b99a,,,,,,,,,,,,,,,,,,,,,,,,,,,,,,,,,,,,,,,,,,,,,,,,,,,,,,,,1,43,103,48,1,B,Y,N,o2_image,stimuli/out2.png,stimuli/out1.png,stimuli/correct_out2.png,,,,,,,,,,,,,,,,,,,,,,,,,,,,,,,,,,,,,,
,,5fdbd8a82fbe510db8935564,,male,2024-04-19_17h38.31.777,stockport_simplified,2022.2.4,Win32,60.24096386,661e456ee6de07e70aa9ef7b,66229da3b3478e60a989b99a,,,,,,,,,,,,,,,,,,,,,,,,,,,,,,,,,,815.3752,817.1073,"[2,5,1,8,3,6,4,7]","[[0.3,0.2],[-0.3,0.2]]","[[-0.125,-0.2],[0.125,-0.2]]",-0.101851852,-0.184259273,1,0,0,1.216,o1_image,817.1078,1,817.6079,817.608,819.608,0,0,0,0,1,,,,,,,,,,,,,,,,,,,,,,,,,,,,,,,,,,,,,,,,,,,,,,,,,,
,,5fdbd8a82fbe510db8935564,,male,2024-04-19_17h38.31.777,stockport_simplified,2022.2.4,Win32,60.24096386,661e456ee6de07e70aa9ef7b,66229da3b3478e60a989b99a,,,,,,,,,,,,,,,,,,,,,,,,,,,,,,,,,,,,,,,,,,,,,,,,,,,,,,,,1,44,104,50,1,N,M,C,o1_image,stimuli/out1.png,stimuli/correct_out1.png,stimuli/out2.png,,,,,,,,,,,,,,,,,,,,,,,,,,,,,,,,,,,,,,
,,5fdbd8a82fbe510db8935564,,male,2024-04-19_17h38.31.777,stockport_simplified,2022.2.4,Win32,60.24096386,661e456ee6de07e70aa9ef7b,66229da3b3478e60a989b99a,,,,,,,,,,,,,,,,,,,,,,,,,,,,,,,,,,819.6085,823.6905,"[2,5,1,8,3,6,4,7]","[[-0.3,0.2],[0.3,0.2]]","[[0.125,-0.2],[-0.125,-0.2]]",-0.107407393,-0.184259273,1,0,0,3.5661,o2_image,823.6959,1,824.191,824.191,826.1912,0,0,0,0,1,,,,,,,,,,,,,,,,,,,,,,,,,,,,,,,,,,,,,,,,,,,,,,,,,,
,,5fdbd8a82fbe510db8935564,,male,2024-04-19_17h38.31.777,stockport_simplified,2022.2.4,Win32,60.24096386,661e456ee6de07e70aa9ef7b,66229da3b3478e60a989b99a,,,,,,,,,,,,,,,,,,,,,,,,,,,,,,,,,,,,,,,,,,,,,,,,,,,,,,,,1,45,105,16,1,B,Y,N,o2_image,stimuli/out2.png,stimuli/out1.png,stimuli/correct_out2.png,,,,,,,,,,,,,,,,,,,,,,,,,,,,,,,,,,,,,,
,,5fdbd8a82fbe510db8935564,,male,2024-04-19_17h38.31.777,stockport_simplified,2022.2.4,Win32,60.24096386,661e456ee6de07e70aa9ef7b,66229da3b3478e60a989b99a,,,,,,,,,,,,,,,,,,,,,,,,,,,,,,,,,,826.1918,829.7239,"[2,5,1,8,3,6,4,7]","[[-0.3,0.2],[0.3,0.2]]","[[-0.125,-0.2],[0.125,-0.2]]",0.116666653,-0.208333333,1,0,0,3.0158,o2_image,829.7294,1,830.2248,830.2248,832.2239,0,0,0,0,1,,,,,,,,,,,,,,,,,,,,,,,,,,,,,,,,,,,,,,,,,,,,,,,,,,
,,5fdbd8a82fbe510db8935564,,male,2024-04-19_17h38.31.777,stockport_simplified,2022.2.4,Win32,60.24096386,661e456ee6de07e70aa9ef7b,66229da3b3478e60a989b99a,,,,,,,,,,,,,,,,,,,,,,,,,,,,,,,,,,,,,,,,,,,,,,,,,,,,,,,,1,46,106,19,1,B,Y,N,o2_image,stimuli/out2.png,stimuli/out1.png,stimuli/correct_out2.png,,,,,,,,,,,,,,,,,,,,,,,,,,,,,,,,,,,,,,
,,5fdbd8a82fbe510db8935564,,male,2024-04-19_17h38.31.777,stockport_simplified,2022.2.4,Win32,60.24096386,661e456ee6de07e70aa9ef7b,66229da3b3478e60a989b99a,,,,,,,,,,,,,,,,,,,,,,,,,,,,,,,,,,832.2241,834.5411,"[2,5,1,8,3,6,4,7]","[[0.3,0.2],[-0.3,0.2]]","[[-0.125,-0.2],[0.125,-0.2]]",0.113888917,-0.210185228,1,0,0,1.8161,o2_image,834.542,1,835.041,835.041,837.0407,0,0,0,0,1,,,,,,,,,,,,,,,,,,,,,,,,,,,,,,,,,,,,,,,,,,,,,,,,,,
,,5fdbd8a82fbe510db8935564,,male,2024-04-19_17h38.31.777,stockport_simplified,2022.2.4,Win32,60.24096386,661e456ee6de07e70aa9ef7b,66229da3b3478e60a989b99a,,,,,,,,,,,,,,,,,,,,,,,,,,,,,,,,,,,,,,,,,,,,,,,,,,,,,,,,1,47,107,49,1,B,Y,N,o2_image,stimuli/out2.png,stimuli/out1.png,stimuli/correct_out2.png,,,,,,,,,,,,,,,,,,,,,,,,,,,,,,,,,,,,,,
,,5fdbd8a82fbe510db8935564,,male,2024-04-19_17h38.31.777,stockport_simplified,2022.2.4,Win32,60.24096386,661e456ee6de07e70aa9ef7b,66229da3b3478e60a989b99a,,,,,,,,,,,,,,,,,,,,,,,,,,,,,,,,,,837.0408,839.7079,"[2,5,1,8,3,6,4,7]","[[0.3,0.2],[-0.3,0.2]]","[[-0.125,-0.2],[0.125,-0.2]]",-0.12962963,-0.217592593,1,0,0,2.1662,o1_image,839.7087,1,840.2081,840.2081,842.2076,0,0,0,0,1,,,,,,,,,,,,,,,,,,,,,,,,,,,,,,,,,,,,,,,,,,,,,,,,,,
,,5fdbd8a82fbe510db8935564,,male,2024-04-19_17h38.31.777,stockport_simplified,2022.2.4,Win32,60.24096386,661e456ee6de07e70aa9ef7b,66229da3b3478e60a989b99a,,,,,,,,,,,,,,,,,,,,,,,,,,,,,,,,,,,,,,,,,,,,,,,,,,,,,,,,1,48,108,34,1,A,X,N,o1_image,stimuli/out1.png,stimuli/correct_out1.png,stimuli/out2.png,,,,,,,,,,,,,,,,,,,,,,,,,,,,,,,,,,,,,,
,,5fdbd8a82fbe510db8935564,,male,2024-04-19_17h38.31.777,stockport_simplified,2022.2.4,Win32,60.24096386,661e456ee6de07e70aa9ef7b,66229da3b3478e60a989b99a,,,,,,,,,,,,,,,,,,,,,,,,,,,,,,,,,,842.2078,844.1908,"[2,5,1,8,3,6,4,7]","[[0.3,0.2],[-0.3,0.2]]","[[-0.125,-0.2],[0.125,-0.2]]",-0.131481453,-0.208333333,1,0,0,1.4666,o1_image,844.191,1,844.6916,844.6916,846.6907,0,0,0,0,1,,,,,,,,,,,,,,,,,,,,,,,,,,,,,,,,,,,,,,,,,,,,,,,,,,
,,5fdbd8a82fbe510db8935564,,male,2024-04-19_17h38.31.777,stockport_simplified,2022.2.4,Win32,60.24096386,661e456ee6de07e70aa9ef7b,66229da3b3478e60a989b99a,,,,,,,,,,,,,,,,,,,,,,,,,,,,,,,,,,,,,,,,,,,,,,,,,,,,,,,,1,49,109,20,1,N,M,C,o1_image,stimuli/out1.png,stimuli/correct_out1.png,stimuli/out2.png,,,,,,,,,,,,,,,,,,,,,,,,,,,,,,,,,,,,,,
,,5fdbd8a82fbe510db8935564,,male,2024-04-19_17h38.31.777,stockport_simplified,2022.2.4,Win32,60.24096386,661e456ee6de07e70aa9ef7b,66229da3b3478e60a989b99a,,,,,,,,,,,,,,,,,,,,,,,,,,,,,,,,,,846.6908,849.2907,"[2,5,1,8,3,6,4,7]","[[-0.3,0.2],[0.3,0.2]]","[[-0.125,-0.2],[0.125,-0.2]]",-0.130555541,-0.184259273,1,0,0,2.0832,o1_image,849.2962,1,849.7914,849.7915,851.7914,0,0,0,0,1,,,,,,,,,,,,,,,,,,,,,,,,,,,,,,,,,,,,,,,,,,,,,,,,,,
,,5fdbd8a82fbe510db8935564,,male,2024-04-19_17h38.31.777,stockport_simplified,2022.2.4,Win32,60.24096386,661e456ee6de07e70aa9ef7b,66229da3b3478e60a989b99a,,,,,,,,,,,,,,,,,,,,,,,,,,,,,,,,,,,,,,,,,,,,,,,,,,,,,,,,1,50,110,30,1,A,X,N,o1_image,stimuli/out1.png,stimuli/correct_out1.png,stimuli/out2.png,,,,,,,,,,,,,,,,,,,,,,,,,,,,,,,,,,,,,,
,,5fdbd8a82fbe510db8935564,,male,2024-04-19_17h38.31.777,stockport_simplified,2022.2.4,Win32,60.24096386,661e456ee6de07e70aa9ef7b,66229da3b3478e60a989b99a,,,,,,,,,,,,,,,,,,,,,,,,,,,,,,,,,,851.7918,854.5739,"[2,5,1,8,3,6,4,7]","[[-0.3,0.2],[0.3,0.2]]","[[-0.125,-0.2],[0.125,-0.2]]",0.116666653,-0.216666681,1,0,0,2.2661,o2_image,854.5743,1,855.0749,855.0749,857.074,0,0,0,0,1,,,,,,,,,,,,,,,,,,,,,,,,,,,,,,,,,,,,,,,,,,,,,,,,,,
,,5fdbd8a82fbe510db8935564,,male,2024-04-19_17h38.31.777,stockport_simplified,2022.2.4,Win32,60.24096386,661e456ee6de07e70aa9ef7b,66229da3b3478e60a989b99a,,,,,,,,,,,,,,,,,,,,,,,,,,,,,,,,,,,,,,,,,,,,,,,,,,,,,,,,1,51,111,55,1,N,M,D,o2_image,stimuli/out2.png,stimuli/out1.png,stimuli/correct_out2.png,,,,,,,,,,,,,,,,,,,,,,,,,,,,,,,,,,,,,,
,,5fdbd8a82fbe510db8935564,,male,2024-04-19_17h38.31.777,stockport_simplified,2022.2.4,Win32,60.24096386,661e456ee6de07e70aa9ef7b,66229da3b3478e60a989b99a,,,,,,,,,,,,,,,,,,,,,,,,,,,,,,,,,,857.0742,859.4241,"[2,5,1,8,3,6,4,7]","[[-0.3,0.2],[0.3,0.2]]","[[0.125,-0.2],[-0.125,-0.2]]",0.107407393,-0.187037079,1,0,0,1.833,o1_image,859.4245,1,859.9247,859.9247,861.9305,0,0,0,0,1,,,,,,,,,,,,,,,,,,,,,,,,,,,,,,,,,,,,,,,,,,,,,,,,,,
,,5fdbd8a82fbe510db8935564,,male,2024-04-19_17h38.31.777,stockport_simplified,2022.2.4,Win32,60.24096386,661e456ee6de07e70aa9ef7b,66229da3b3478e60a989b99a,,,,,,,,,,,,,,,,,,,,,,,,,,,,,,,,,,,,,,,,,,,,,,,,,,,,,,,,1,52,112,21,1,N,M,C,o1_image,stimuli/out1.png,stimuli/correct_out1.png,stimuli/out2.png,,,,,,,,,,,,,,,,,,,,,,,,,,,,,,,,,,,,,,
,,5fdbd8a82fbe510db8935564,,male,2024-04-19_17h38.31.777,stockport_simplified,2022.2.4,Win32,60.24096386,661e456ee6de07e70aa9ef7b,66229da3b3478e60a989b99a,,,,,,,,,,,,,,,,,,,,,,,,,,,,,,,,,,861.9311,864.4908,"[2,5,1,8,3,6,4,7]","[[-0.3,0.2],[0.3,0.2]]","[[0.125,-0.2],[-0.125,-0.2]]",0.136111153,-0.23055557,1,0,0,2.0447,o1_image,864.4911,1,864.9913,864.9914,866.9908,0,0,0,0,1,,,,,,,,,,,,,,,,,,,,,,,,,,,,,,,,,,,,,,,,,,,,,,,,,,
,,5fdbd8a82fbe510db8935564,,male,2024-04-19_17h38.31.777,stockport_simplified,2022.2.4,Win32,60.24096386,661e456ee6de07e70aa9ef7b,66229da3b3478e60a989b99a,,,,,,,,,,,,,,,,,,,,,,,,,,,,,,,,,,,,,,,,,,,,,,,,,,,,,,,,1,53,113,38,1,A,Y,N,o1_image,stimuli/out1.png,stimuli/correct_out1.png,stimuli/out2.png,,,,,,,,,,,,,,,,,,,,,,,,,,,,,,,,,,,,,,
,,5fdbd8a82fbe510db8935564,,male,2024-04-19_17h38.31.777,stockport_simplified,2022.2.4,Win32,60.24096386,661e456ee6de07e70aa9ef7b,66229da3b3478e60a989b99a,,,,,,,,,,,,,,,,,,,,,,,,,,,,,,,,,,866.991,871.7574,"[2,5,1,8,3,6,4,7]","[[-0.3,0.2],[0.3,0.2]]","[[-0.125,-0.2],[0.125,-0.2]]",0.125925912,-0.20185188,1,0,0,4.2498,o2_image,871.7628,1,872.2582,872.2583,874.258,0,0,0,0,1,,,,,,,,,,,,,,,,,,,,,,,,,,,,,,,,,,,,,,,,,,,,,,,,,,
,,5fdbd8a82fbe510db8935564,,male,2024-04-19_17h38.31.777,stockport_simplified,2022.2.4,Win32,60.24096386,661e456ee6de07e70aa9ef7b,66229da3b3478e60a989b99a,,,,,,,,,,,,,,,,,,,,,,,,,,,,,,,,,,,,,,,,,,,,,,,,,,,,,,,,1,54,114,45,1,B,Y,N,o2_image,stimuli/out2.png,stimuli/out1.png,stimuli/correct_out2.png,,,,,,,,,,,,,,,,,,,,,,,,,,,,,,,,,,,,,,
,,5fdbd8a82fbe510db8935564,,male,2024-04-19_17h38.31.777,stockport_simplified,2022.2.4,Win32,60.24096386,661e456ee6de07e70aa9ef7b,66229da3b3478e60a989b99a,,,,,,,,,,,,,,,,,,,,,,,,,,,,,,,,,,874.2586,877.8583,"[2,5,1,8,3,6,4,7]","[[0.3,0.2],[-0.3,0.2]]","[[0.125,-0.2],[-0.125,-0.2]]",0.125925912,-0.20185188,1,0,0,3.0839,o1_image,877.8762,1,878.3747,878.3747,880.3743,0,0,0,0,1,,,,,,,,,,,,,,,,,,,,,,,,,,,,,,,,,,,,,,,,,,,,,,,,,,
,,5fdbd8a82fbe510db8935564,,male,2024-04-19_17h38.31.777,stockport_simplified,2022.2.4,Win32,60.24096386,661e456ee6de07e70aa9ef7b,66229da3b3478e60a989b99a,,,,,,,,,,,,,,,,,,,,,,,,,,,,,,,,,,,,,,,,,,,,,,,,,,,,,,,,1,55,115,22,1,N,M,C,o1_image,stimuli/out1.png,stimuli/correct_out1.png,stimuli/out2.png,,,,,,,,,,,,,,,,,,,,,,,,,,,,,,,,,,,,,,
,,5fdbd8a82fbe510db8935564,,male,2024-04-19_17h38.31.777,stockport_simplified,2022.2.4,Win32,60.24096386,661e456ee6de07e70aa9ef7b,66229da3b3478e60a989b99a,,,,,,,,,,,,,,,,,,,,,,,,,,,,,,,,,,880.3745,883.0131,"[2,5,1,8,3,6,4,7]","[[-0.3,0.2],[0.3,0.2]]","[[0.125,-0.2],[-0.125,-0.2]]",-0.086111069,-0.199999986,1,0,0,2.1211,o2_image,883.0135,1,883.508,883.508,885.5075,0,0,0,0,1,,,,,,,,,,,,,,,,,,,,,,,,,,,,,,,,,,,,,,,,,,,,,,,,,,
,,5fdbd8a82fbe510db8935564,,male,2024-04-19_17h38.31.777,stockport_simplified,2022.2.4,Win32,60.24096386,661e456ee6de07e70aa9ef7b,66229da3b3478e60a989b99a,,,,,,,,,,,,,,,,,,,,,,,,,,,,,,,,,,,,,,,,,,,,,,,,,,,,,,,,1,56,116,12,1,B,X,N,o2_image,stimuli/out2.png,stimuli/out1.png,stimuli/correct_out2.png,,,,,,,,,,,,,,,,,,,,,,,,,,,,,,,,,,,,,,
,,5fdbd8a82fbe510db8935564,,male,2024-04-19_17h38.31.777,stockport_simplified,2022.2.4,Win32,60.24096386,661e456ee6de07e70aa9ef7b,66229da3b3478e60a989b99a,,,,,,,,,,,,,,,,,,,,,,,,,,,,,,,,,,885.5077,887.4574,"[2,5,1,8,3,6,4,7]","[[0.3,0.2],[-0.3,0.2]]","[[-0.125,-0.2],[0.125,-0.2]]",-0.123148106,-0.214814857,1,0,0,1.4329,o1_image,887.4578,1,887.9578,887.9578,889.9584,0,0,0,0,1,,,,,,,,,,,,,,,,,,,,,,,,,,,,,,,,,,,,,,,,,,,,,,,,,,
,,5fdbd8a82fbe510db8935564,,male,2024-04-19_17h38.31.777,stockport_simplified,2022.2.4,Win32,60.24096386,661e456ee6de07e70aa9ef7b,66229da3b3478e60a989b99a,,,,,,,,,,,,,,,,,,,,,,,,,,,,,,,,,,,,,,,,,,,,,,,,,,,,,,,,1,57,117,24,1,N,M,C,o1_image,stimuli/out1.png,stimuli/correct_out1.png,stimuli/out2.png,,,,,,,,,,,,,,,,,,,,,,,,,,,,,,,,,,,,,,
,,5fdbd8a82fbe510db8935564,,male,2024-04-19_17h38.31.777,stockport_simplified,2022.2.4,Win32,60.24096386,661e456ee6de07e70aa9ef7b,66229da3b3478e60a989b99a,,,,,,,,,,,,,,,,,,,,,,,,,,,,,,,,,,889.9591,892.9245,"[2,5,1,8,3,6,4,7]","[[0.3,0.2],[-0.3,0.2]]","[[0.125,-0.2],[-0.125,-0.2]]",-0.102777764,-0.184259273,1,0,0,2.4492,o2_image,892.925,1,893.425,893.425,895.4248,0,0,0,0,1,,,,,,,,,,,,,,,,,,,,,,,,,,,,,,,,,,,,,,,,,,,,,,,,,,
,,5fdbd8a82fbe510db8935564,,male,2024-04-19_17h38.31.777,stockport_simplified,2022.2.4,Win32,60.24096386,661e456ee6de07e70aa9ef7b,66229da3b3478e60a989b99a,,,,,,,,,,,,,,,,,,,,,,,,,,,,,,,,,,,,,,,,,,,,,,,,,,,,,,,,1,58,118,44,1,B,X,N,o2_image,stimuli/out2.png,stimuli/out1.png,stimuli/correct_out2.png,,,,,,,,,,,,,,,,,,,,,,,,,,,,,,,,,,,,,,
,,5fdbd8a82fbe510db8935564,,male,2024-04-19_17h38.31.777,stockport_simplified,2022.2.4,Win32,60.24096386,661e456ee6de07e70aa9ef7b,66229da3b3478e60a989b99a,,,,,,,,,,,,,,,,,,,,,,,,,,,,,,,,,,895.4253,898.0911,"[2,5,1,8,3,6,4,7]","[[-0.3,0.2],[0.3,0.2]]","[[-0.125,-0.2],[0.125,-0.2]]",-0.131481453,-0.205555598,1,0,0,2.1494,o1_image,898.0916,1,898.5912,898.5912,900.5916,0,0,0,0,1,,,,,,,,,,,,,,,,,,,,,,,,,,,,,,,,,,,,,,,,,,,,,,,,,,
,,5fdbd8a82fbe510db8935564,,male,2024-04-19_17h38.31.777,stockport_simplified,2022.2.4,Win32,60.24096386,661e456ee6de07e70aa9ef7b,66229da3b3478e60a989b99a,,,,,,,,,,,,,,,,,,,,,,,,,,,,,,,,,,,,,,,,,,,,,,,,,,,,,,,,1,59,119,37,1,A,Y,N,o1_image,stimuli/out1.png,stimuli/correct_out1.png,stimuli/out2.png,,,,,,,,,,,,,,,,,,,,,,,,,,,,,,,,,,,,,,
,,5fdbd8a82fbe510db8935564,,male,2024-04-19_17h38.31.777,stockport_simplified,2022.2.4,Win32,60.24096386,661e456ee6de07e70aa9ef7b,66229da3b3478e60a989b99a,,,,,,,,,,,,,,,,,,,,,,,,,,,,,,,,,,900.6146,905.6076,"[2,5,1,8,3,6,4,7]","[[-0.3,0.2],[0.3,0.2]]","[[0.125,-0.2],[-0.125,-0.2]]",-0.082407422,-0.187037079,1,0,0,4.4824,o2_image,905.6139,0,906.1142,906.1142,908.1143,,,,,,,,,,,,,,,,,,0,0,0,0,1,,,,,,,,,,,,,,,,,,,,,,,,,,,,,,,,,
,,5fdbd8a82fbe510db8935564,,male,2024-04-19_17h38.31.777,stockport_simplified,2022.2.4,Win32,60.24096386,661e456ee6de07e70aa9ef7b,66229da3b3478e60a989b99a,,,,,,,,,,,,,,,,,,,,,,,,,,,,,,,,,,,,,,,,,,,,,,,,,,,,,,,,,,,,,B,X,N,o1_image,stimuli/out1.png,stimuli/correct_out1.png,stimuli/out2.png,,,,,,0,0,0,27,1,,,,,,,,,,,,,,,,,,,,,,,,,,,,
,,5fdbd8a82fbe510db8935564,,male,2024-04-19_17h38.31.777,stockport_simplified,2022.2.4,Win32,60.24096386,661e456ee6de07e70aa9ef7b,66229da3b3478e60a989b99a,,,,,,,,,,,,,,,,,,,,,,,,,,,,,,,,,,908.1154,912.3078,"[2,5,1,8,3,6,4,7]","[[0.3,0.2],[-0.3,0.2]]","[[-0.125,-0.2],[0.125,-0.2]]",0.097222222,-0.20648151,1,0,0,3.6827,o2_image,912.3133,0,912.8082,912.8083,914.8084,,,,,,,,,,,,,,,,,,0,0,0,0,1,,,,,,,,,,,,,,,,,,,,,,,,,,,,,,,,,
,,5fdbd8a82fbe510db8935564,,male,2024-04-19_17h38.31.777,stockport_simplified,2022.2.4,Win32,60.24096386,661e456ee6de07e70aa9ef7b,66229da3b3478e60a989b99a,,,,,,,,,,,,,,,,,,,,,,,,,,,,,,,,,,,,,,,,,,,,,,,,,,,,,,,,,,,,,B,X,N,o1_image,stimuli/out1.png,stimuli/correct_out1.png,stimuli/out2.png,,,,,,0,1,1,25,1,,,,,,,,,,,,,,,,,,,,,,,,,,,,
,,5fdbd8a82fbe510db8935564,,male,2024-04-19_17h38.31.777,stockport_simplified,2022.2.4,Win32,60.24096386,661e456ee6de07e70aa9ef7b,66229da3b3478e60a989b99a,,,,,,,,,,,,,,,,,,,,,,,,,,,,,,,,,,914.809,918.7579,"[2,5,1,8,3,6,4,7]","[[0.3,0.2],[-0.3,0.2]]","[[-0.125,-0.2],[0.125,-0.2]]",-0.083333333,-0.207407422,1,0,0,3.4324,o1_image,918.7636,1,919.2578,919.2578,921.258,,,,,,,,,,,,,,,,,,0,0,0,0,1,,,,,,,,,,,,,,,,,,,,,,,,,,,,,,,,,
,,5fdbd8a82fbe510db8935564,,male,2024-04-19_17h38.31.777,stockport_simplified,2022.2.4,Win32,60.24096386,661e456ee6de07e70aa9ef7b,66229da3b3478e60a989b99a,,,,,,,,,,,,,,,,,,,,,,,,,,,,,,,,,,,,,,,,,,,,,,,,,,,,,,,,,,,,,N,M,C,o1_image,stimuli/out1.png,stimuli/correct_out1.png,stimuli/out2.png,,,,,,0,2,2,40,1,,,,,,,,,,,,,,,,,,,,,,,,,,,,
,,5fdbd8a82fbe510db8935564,,male,2024-04-19_17h38.31.777,stockport_simplified,2022.2.4,Win32,60.24096386,661e456ee6de07e70aa9ef7b,66229da3b3478e60a989b99a,,,,,,,,,,,,,,,,,,,,,,,,,,,,,,,,,,921.2582,923.5912,"[2,5,1,8,3,6,4,7]","[[-0.3,0.2],[0.3,0.2]]","[[-0.125,-0.2],[0.125,-0.2]]",0.12037037,-0.19722225,1,0,0,1.8167,o2_image,923.5917,1,924.0918,924.0919,926.092,,,,,,,,,,,,,,,,,,0,0,0,0,1,,,,,,,,,,,,,,,,,,,,,,,,,,,,,,,,,
,,5fdbd8a82fbe510db8935564,,male,2024-04-19_17h38.31.777,stockport_simplified,2022.2.4,Win32,60.24096386,661e456ee6de07e70aa9ef7b,66229da3b3478e60a989b99a,,,,,,,,,,,,,,,,,,,,,,,,,,,,,,,,,,,,,,,,,,,,,,,,,,,,,,,,,,,,,N,M,D,o2_image,stimuli/out2.png,stimuli/out1.png,stimuli/correct_out2.png,,,,,,0,3,3,53,1,,,,,,,,,,,,,,,,,,,,,,,,,,,,
,,5fdbd8a82fbe510db8935564,,male,2024-04-19_17h38.31.777,stockport_simplified,2022.2.4,Win32,60.24096386,661e456ee6de07e70aa9ef7b,66229da3b3478e60a989b99a,,,,,,,,,,,,,,,,,,,,,,,,,,,,,,,,,,926.0926,931.0078,"[2,5,1,8,3,6,4,7]","[[-0.3,0.2],[0.3,0.2]]","[[-0.125,-0.2],[0.125,-0.2]]",0.094444487,-0.175925926,1,0,0,4.3999,o2_image,931.0134,1,931.5084,931.5085,933.5077,,,,,,,,,,,,,,,,,,0,0,0,0,1,,,,,,,,,,,,,,,,,,,,,,,,,,,,,,,,,
,,5fdbd8a82fbe510db8935564,,male,2024-04-19_17h38.31.777,stockport_simplified,2022.2.4,Win32,60.24096386,661e456ee6de07e70aa9ef7b,66229da3b3478e60a989b99a,,,,,,,,,,,,,,,,,,,,,,,,,,,,,,,,,,,,,,,,,,,,,,,,,,,,,,,,,,,,,B,Y,N,o2_image,stimuli/out2.png,stimuli/out1.png,stimuli/correct_out2.png,,,,,,0,4,4,33,1,,,,,,,,,,,,,,,,,,,,,,,,,,,,
