counterbalance_2.started,counterbalance_2.stopped,participant,age,gender,date,expName,psychopyVersion,OS,frameRate,STUDY_ID,SESSION_ID,information_2.started,information_2.stopped,information_loop.thisRepN,information_loop.thisTrialN,information_loop.thisN,information_loop.thisIndex,information_loop.ran,information,consent_2.started,consent_2.stopped,slider_1.response,slider_2.response,slider_3.response,slider_4.response,slider_5.response,slider_6.response,instructions.started,instructions.stopped,task1_instr.thisRepN,task1_instr.thisTrialN,task1_instr.thisN,task1_instr.thisIndex,task1_instr.ran,task1,comprehension1_2.started,comprehension1_2.stopped,comp1_mouse.x,comp1_mouse.y,comp1_mouse.leftButton,comp1_mouse.midButton,comp1_mouse.rightButton,comp1_mouse.time,comp1_mouse.clicked_name,cue_o__trial_2.started,cue_o__trial_2.stopped,order,cue_order,out_order,cue_o_mouse.x,cue_o_mouse.y,cue_o_mouse.leftButton,cue_o_mouse.midButton,cue_o_mouse.rightButton,cue_o_mouse.time,cue_o_mouse.clicked_name,cue_selection_2.started,correct_answer,cue_selection_2.stopped,feedback_2.started,feedback_2.stopped,feedback_loop.thisRepN,feedback_loop.thisTrialN,feedback_loop.thisN,feedback_loop.thisIndex,feedback_loop.ran,stage1_trials.thisRepN,stage1_trials.thisTrialN,stage1_trials.thisN,stage1_trials.thisIndex,stage1_trials.ran,cue1,cue2,cue3,outcome,correct_out,o1_feedback,o2_feedback,stage2_feedback_loop.thisRepN,stage2_feedback_loop.thisTrialN,stage2_feedback_loop.thisN,stage2_feedback_loop.thisIndex,stage2_feedback_loop.ran,stage2_trials.thisRepN,stage2_trials.thisTrialN,stage2_trials.thisN,stage2_trials.thisIndex,stage2_trials.ran,stage3_feedback_loop.thisRepN,stage3_feedback_loop.thisTrialN,stage3_feedback_loop.thisN,stage3_feedback_loop.thisIndex,stage3_feedback_loop.ran,stage3_trials.thisRepN,stage3_trials.thisTrialN,stage3_trials.thisN,stage3_trials.thisIndex,stage3_trials.ran,debrief_2.started,debrief_2.stopped,debrief_loop.thisRepN,debrief_loop.thisTrialN,debrief_loop.thisN,debrief_loop.thisIndex,debrief_loop.ran,debrief_img,compr1_completed.thisRepN,compr1_completed.thisTrialN,compr1_completed.thisN,compr1_completed.thisIndex,compr1_completed.ran,consent_loop.thisRepN,consent_loop.thisTrialN,consent_loop.thisN,consent_loop.thisIndex,consent_loop.ran
0.0004,0.0007,65c64b9b090c48be1380151a,28,female,2024-04-19_17h37.40.086,stockport_simplified,2022.2.4,MacIntel,19.60784314,661e456ee6de07e70aa9ef7b,66229da05707434e9bc49c23,,,,,,,,,,,,,,,,,,,,,,,,,,,,,,,,,,,,,,,,,,,,,,,,,,,,,,,,,,,,,,,,,,,,,,,,,,,,,,,,,,,,,,,,,,,,,,,,,,,,,,,,,
,,65c64b9b090c48be1380151a,28,female,2024-04-19_17h37.40.086,stockport_simplified,2022.2.4,MacIntel,19.60784314,661e456ee6de07e70aa9ef7b,66229da05707434e9bc49c23,0.0311,23.8588,0,0,0,0,1,instructions/info1.png,,,,,,,,,,,,,,,,,,,,,,,,,,,,,,,,,,,,,,,,,,,,,,,,,,,,,,,,,,,,,,,,,,,,,,,,,,,,,,,,,,,,,,,,,,,,,,,,,
,,65c64b9b090c48be1380151a,28,female,2024-04-19_17h37.40.086,stockport_simplified,2022.2.4,MacIntel,19.60784314,661e456ee6de07e70aa9ef7b,66229da05707434e9bc49c23,23.8596,29.9981,0,1,1,1,1,instructions/info2.png,,,,,,,,,,,,,,,,,,,,,,,,,,,,,,,,,,,,,,,,,,,,,,,,,,,,,,,,,,,,,,,,,,,,,,,,,,,,,,,,,,,,,,,,,,,,,,,,,
,,65c64b9b090c48be1380151a,28,female,2024-04-19_17h37.40.086,stockport_simplified,2022.2.4,MacIntel,19.60784314,661e456ee6de07e70aa9ef7b,66229da05707434e9bc49c23,29.9985,33.1061,0,2,2,2,1,instructions/info3.png,,,,,,,,,,,,,,,,,,,,,,,,,,,,,,,,,,,,,,,,,,,,,,,,,,,,,,,,,,,,,,,,,,,,,,,,,,,,,,,,,,,,,,,,,,,,,,,,,
,,65c64b9b090c48be1380151a,28,female,2024-04-19_17h37.40.086,stockport_simplified,2022.2.4,MacIntel,19.60784314,661e456ee6de07e70aa9ef7b,66229da05707434e9bc49c23,,,,,,,,,33.1065,53.8506,1,1,1,1,1,1,,,,,,,,,,,,,,,,,,,,,,,,,,,,,,,,,,,,,,,,,,,,,,,,,,,,,,,,,,,,,,,,,,,,,,,,,,,,,,,,,,,,,,,,,
,,65c64b9b090c48be1380151a,28,female,2024-04-19_17h37.40.086,stockport_simplified,2022.2.4,MacIntel,19.60784314,661e456ee6de07e70aa9ef7b,66229da05707434e9bc49c23,,,,,,,,,,,,,,,,,53.8628,78.989,0,0,0,0,1,instructions/task1_1.png,,,,,,,,,,,,,,,,,,,,,,,,,,,,,,,,,,,,,,,,,,,,,,,,,,,,,,,,,,,,,,,,,,,,,,,,,,,,,,,,,
,,65c64b9b090c48be1380151a,28,female,2024-04-19_17h37.40.086,stockport_simplified,2022.2.4,MacIntel,19.60784314,661e456ee6de07e70aa9ef7b,66229da05707434e9bc49c23,,,,,,,,,,,,,,,,,79.0031,92.5247,0,1,1,1,1,instructions/task1_2.png,,,,,,,,,,,,,,,,,,,,,,,,,,,,,,,,,,,,,,,,,,,,,,,,,,,,,,,,,,,,,,,,,,,,,,,,,,,,,,,,,
,,65c64b9b090c48be1380151a,28,female,2024-04-19_17h37.40.086,stockport_simplified,2022.2.4,MacIntel,19.60784314,661e456ee6de07e70aa9ef7b,66229da05707434e9bc49c23,,,,,,,,,,,,,,,,,92.5404,105.7074,0,2,2,2,1,instructions/task1_3.png,,,,,,,,,,,,,,,,,,,,,,,,,,,,,,,,,,,,,,,,,,,,,,,,,,,,,,,,,,,,,,,,,,,,,,,,,,,,,,,,,
,,65c64b9b090c48be1380151a,28,female,2024-04-19_17h37.40.086,stockport_simplified,2022.2.4,MacIntel,19.60784314,661e456ee6de07e70aa9ef7b,66229da05707434e9bc49c23,,,,,,,,,,,,,,,,,,,,,,,,,105.7101,129.1422,-0.062841797,-0.316376953,1,0,0,23.4295,comp1_resp1,129.1919,132.7786,"[3,6,5,2,4,1,7,8]","[[-0.3,0.2],[0.3,0.2]]","[[0.125,-0.2],[-0.125,-0.2]]",0.159233398,-0.224799805,1,0,0,3.0339,o1_image,132.7806,0,133.247,133.2472,135.2453,0,0,0,0,1,,,,,,,,,,,,,,,,,,,,,,,,,,,,,,,,,,,,,,,,,,,,,,,,,,
,,65c64b9b090c48be1380151a,28,female,2024-04-19_17h37.40.086,stockport_simplified,2022.2.4,MacIntel,19.60784314,661e456ee6de07e70aa9ef7b,66229da05707434e9bc49c23,,,,,,,,,,,,,,,,,,,,,,,,,,,,,,,,,,,,,,,,,,,,,,,,,,,,,,,,0,0,0,29,1,N,M,D,o2_image,stimuli/out2.png,stimuli/out1.png,stimuli/correct_out2.png,,,,,,,,,,,,,,,,,,,,,,,,,,,,,,,,,,,,,,
,,65c64b9b090c48be1380151a,28,female,2024-04-19_17h37.40.086,stockport_simplified,2022.2.4,MacIntel,19.60784314,661e456ee6de07e70aa9ef7b,66229da05707434e9bc49c23,,,,,,,,,,,,,,,,,,,,,,,,,,,,,,,,,,135.2462,139.659,"[3,6,5,2,4,1,7,8]","[[-0.3,0.2],[0.3,0.2]]","[[-0.125,-0.2],[0.125,-0.2]]",0.135332031,-0.172827148,1,0,0,3.8968,o2_image,139.675,1,140.1586,140.1587,142.1716,0,0,0,0,1,,,,,,,,,,,,,,,,,,,,,,,,,,,,,,,,,,,,,,,,,,,,,,,,,,
,,65c64b9b090c48be1380151a,28,female,2024-04-19_17h37.40.086,stockport_simplified,2022.2.4,MacIntel,19.60784314,661e456ee6de07e70aa9ef7b,66229da05707434e9bc49c23,,,,,,,,,,,,,,,,,,,,,,,,,,,,,,,,,,,,,,,,,,,,,,,,,,,,,,,,0,1,1,17,1,B,Y,N,o2_image,stimuli/out2.png,stimuli/out1.png,stimuli/correct_out2.png,,,,,,,,,,,,,,,,,,,,,,,,,,,,,,,,,,,,,,
,,65c64b9b090c48be1380151a,28,female,2024-04-19_17h37.40.086,stockport_simplified,2022.2.4,MacIntel,19.60784314,661e456ee6de07e70aa9ef7b,66229da05707434e9bc49c23,,,,,,,,,,,,,,,,,,,,,,,,,,,,,,,,,,142.1721,148.4327,"[3,6,5,2,4,1,7,8]","[[0.3,0.2],[-0.3,0.2]]","[[-0.125,-0.2],[0.125,-0.2]]",-0.090136719,-0.20012207,1,0,0,5.7518,o1_image,148.4476,1,148.9728,148.9728,150.9747,0,0,0,0,1,,,,,,,,,,,,,,,,,,,,,,,,,,,,,,,,,,,,,,,,,,,,,,,,,,
,,65c64b9b090c48be1380151a,28,female,2024-04-19_17h37.40.086,stockport_simplified,2022.2.4,MacIntel,19.60784314,661e456ee6de07e70aa9ef7b,66229da05707434e9bc49c23,,,,,,,,,,,,,,,,,,,,,,,,,,,,,,,,,,,,,,,,,,,,,,,,,,,,,,,,0,2,2,9,1,A,Y,N,o1_image,stimuli/out1.png,stimuli/correct_out1.png,stimuli/out2.png,,,,,,,,,,,,,,,,,,,,,,,,,,,,,,,,,,,,,,
,,65c64b9b090c48be1380151a,28,female,2024-04-19_17h37.40.086,stockport_simplified,2022.2.4,MacIntel,19.60784314,661e456ee6de07e70aa9ef7b,66229da05707434e9bc49c23,,,,,,,,,,,,,,,,,,,,,,,,,,,,,,,,,,150.9752,156.9872,"[3,6,5,2,4,1,7,8]","[[-0.3,0.2],[0.3,0.2]]","[[0.125,-0.2],[-0.125,-0.2]]",0.042998047,-0.199702148,1,0,0,4.6945,o1_image,157.0038,1,157.5112,157.5112,159.4648,0,0,0,0,1,,,,,,,,,,,,,,,,,,,,,,,,,,,,,,,,,,,,,,,,,,,,,,,,,,
,,65c64b9b090c48be1380151a,28,female,2024-04-19_17h37.40.086,stockport_simplified,2022.2.4,MacIntel,19.60784314,661e456ee6de07e70aa9ef7b,66229da05707434e9bc49c23,,,,,,,,,,,,,,,,,,,,,,,,,,,,,,,,,,,,,,,,,,,,,,,,,,,,,,,,0,3,3,38,1,A,Y,N,o1_image,stimuli/out1.png,stimuli/correct_out1.png,stimuli/out2.png,,,,,,,,,,,,,,,,,,,,,,,,,,,,,,,,,,,,,,
,,65c64b9b090c48be1380151a,28,female,2024-04-19_17h37.40.086,stockport_simplified,2022.2.4,MacIntel,19.60784314,661e456ee6de07e70aa9ef7b,66229da05707434e9bc49c23,,,,,,,,,,,,,,,,,,,,,,,,,,,,,,,,,,159.4655,162.4761,"[3,6,5,2,4,1,7,8]","[[-0.3,0.2],[0.3,0.2]]","[[0.125,-0.2],[-0.125,-0.2]]",-0.150073242,-0.231582031,1,0,0,2.5002,o2_image,162.491,1,162.9787,162.9787,164.9435,0,0,0,0,1,,,,,,,,,,,,,,,,,,,,,,,,,,,,,,,,,,,,,,,,,,,,,,,,,,
,,65c64b9b090c48be1380151a,28,female,2024-04-19_17h37.40.086,stockport_simplified,2022.2.4,MacIntel,19.60784314,661e456ee6de07e70aa9ef7b,66229da05707434e9bc49c23,,,,,,,,,,,,,,,,,,,,,,,,,,,,,,,,,,,,,,,,,,,,,,,,,,,,,,,,0,4,4,41,1,B,X,N,o2_image,stimuli/out2.png,stimuli/out1.png,stimuli/correct_out2.png,,,,,,,,,,,,,,,,,,,,,,,,,,,,,,,,,,,,,,
,,65c64b9b090c48be1380151a,28,female,2024-04-19_17h37.40.086,stockport_simplified,2022.2.4,MacIntel,19.60784314,661e456ee6de07e70aa9ef7b,66229da05707434e9bc49c23,,,,,,,,,,,,,,,,,,,,,,,,,,,,,,,,,,164.9439,168.6781,"[3,6,5,2,4,1,7,8]","[[-0.3,0.2],[0.3,0.2]]","[[-0.125,-0.2],[0.125,-0.2]]",-0.097358398,-0.241264648,1,0,0,3.2325,o1_image,168.6949,0,169.1575,169.1575,171.1281,0,0,0,0,1,,,,,,,,,,,,,,,,,,,,,,,,,,,,,,,,,,,,,,,,,,,,,,,,,,
,,65c64b9b090c48be1380151a,28,female,2024-04-19_17h37.40.086,stockport_simplified,2022.2.4,MacIntel,19.60784314,661e456ee6de07e70aa9ef7b,66229da05707434e9bc49c23,,,,,,,,,,,,,,,,,,,,,,,,,,,,,,,,,,,,,,,,,,,,,,,,,,,,,,,,0,5,5,42,1,B,X,N,o2_image,stimuli/out2.png,stimuli/out1.png,stimuli/correct_out2.png,,,,,,,,,,,,,,,,,,,,,,,,,,,,,,,,,,,,,,
,,65c64b9b090c48be1380151a,28,female,2024-04-19_17h37.40.086,stockport_simplified,2022.2.4,MacIntel,19.60784314,661e456ee6de07e70aa9ef7b,66229da05707434e9bc49c23,,,,,,,,,,,,,,,,,,,,,,,,,,,,,,,,,,171.1285,172.7064,"[3,6,5,2,4,1,7,8]","[[-0.3,0.2],[0.3,0.2]]","[[-0.125,-0.2],[0.125,-0.2]]",0.146210937,-0.228227539,1,0,0,1.0553,o2_image,172.7079,1,173.198,173.198,175.1867,0,0,0,0,1,,,,,,,,,,,,,,,,,,,,,,,,,,,,,,,,,,,,,,,,,,,,,,,,,,
,,65c64b9b090c48be1380151a,28,female,2024-04-19_17h37.40.086,stockport_simplified,2022.2.4,MacIntel,19.60784314,661e456ee6de07e70aa9ef7b,66229da05707434e9bc49c23,,,,,,,,,,,,,,,,,,,,,,,,,,,,,,,,,,,,,,,,,,,,,,,,,,,,,,,,0,6,6,40,1,B,X,N,o2_image,stimuli/out2.png,stimuli/out1.png,stimuli/correct_out2.png,,,,,,,,,,,,,,,,,,,,,,,,,,,,,,,,,,,,,,
,,65c64b9b090c48be1380151a,28,female,2024-04-19_17h37.40.086,stockport_simplified,2022.2.4,MacIntel,19.60784314,661e456ee6de07e70aa9ef7b,66229da05707434e9bc49c23,,,,,,,,,,,,,,,,,,,,,,,,,,,,,,,,,,175.1871,177.0997,"[3,6,5,2,4,1,7,8]","[[-0.3,0.2],[0.3,0.2]]","[[-0.125,-0.2],[0.125,-0.2]]",0.146210937,-0.228227539,1,0,0,1.373,o2_image,177.1006,1,177.593,177.593,179.5571,0,0,0,0,1,,,,,,,,,,,,,,,,,,,,,,,,,,,,,,,,,,,,,,,,,,,,,,,,,,
,,65c64b9b090c48be1380151a,28,female,2024-04-19_17h37.40.086,stockport_simplified,2022.2.4,MacIntel,19.60784314,661e456ee6de07e70aa9ef7b,66229da05707434e9bc49c23,,,,,,,,,,,,,,,,,,,,,,,,,,,,,,,,,,,,,,,,,,,,,,,,,,,,,,,,0,7,7,43,1,B,X,N,o2_image,stimuli/out2.png,stimuli/out1.png,stimuli/correct_out2.png,,,,,,,,,,,,,,,,,,,,,,,,,,,,,,,,,,,,,,
,,65c64b9b090c48be1380151a,28,female,2024-04-19_17h37.40.086,stockport_simplified,2022.2.4,MacIntel,19.60784314,661e456ee6de07e70aa9ef7b,66229da05707434e9bc49c23,,,,,,,,,,,,,,,,,,,,,,,,,,,,,,,,,,179.5576,180.9691,"[3,6,5,2,4,1,7,8]","[[-0.3,0.2],[0.3,0.2]]","[[-0.125,-0.2],[0.125,-0.2]]",0.146210937,-0.227348633,1,0,0,0.8852,o2_image,180.9701,1,181.4646,181.4646,183.4562,0,0,0,0,1,,,,,,,,,,,,,,,,,,,,,,,,,,,,,,,,,,,,,,,,,,,,,,,,,,
,,65c64b9b090c48be1380151a,28,female,2024-04-19_17h37.40.086,stockport_simplified,2022.2.4,MacIntel,19.60784314,661e456ee6de07e70aa9ef7b,66229da05707434e9bc49c23,,,,,,,,,,,,,,,,,,,,,,,,,,,,,,,,,,,,,,,,,,,,,,,,,,,,,,,,0,8,8,28,1,N,M,D,o2_image,stimuli/out2.png,stimuli/out1.png,stimuli/correct_out2.png,,,,,,,,,,,,,,,,,,,,,,,,,,,,,,,,,,,,,,
,,65c64b9b090c48be1380151a,28,female,2024-04-19_17h37.40.086,stockport_simplified,2022.2.4,MacIntel,19.60784314,661e456ee6de07e70aa9ef7b,66229da05707434e9bc49c23,,,,,,,,,,,,,,,,,,,,,,,,,,,,,,,,,,183.4567,186.5305,"[3,6,5,2,4,1,7,8]","[[0.3,0.2],[-0.3,0.2]]","[[0.125,-0.2],[-0.125,-0.2]]",-0.12159668,-0.203149414,1,0,0,2.5264,o2_image,186.5451,1,187.0506,187.0507,189.0689,0,0,0,0,1,,,,,,,,,,,,,,,,,,,,,,,,,,,,,,,,,,,,,,,,,,,,,,,,,,
,,65c64b9b090c48be1380151a,28,female,2024-04-19_17h37.40.086,stockport_simplified,2022.2.4,MacIntel,19.60784314,661e456ee6de07e70aa9ef7b,66229da05707434e9bc49c23,,,,,,,,,,,,,,,,,,,,,,,,,,,,,,,,,,,,,,,,,,,,,,,,,,,,,,,,0,9,9,12,1,B,X,N,o2_image,stimuli/out2.png,stimuli/out1.png,stimuli/correct_out2.png,,,,,,,,,,,,,,,,,,,,,,,,,,,,,,,,,,,,,,
,,65c64b9b090c48be1380151a,28,female,2024-04-19_17h37.40.086,stockport_simplified,2022.2.4,MacIntel,19.60784314,661e456ee6de07e70aa9ef7b,66229da05707434e9bc49c23,,,,,,,,,,,,,,,,,,,,,,,,,,,,,,,,,,189.0693,191.1906,"[3,6,5,2,4,1,7,8]","[[-0.3,0.2],[0.3,0.2]]","[[0.125,-0.2],[-0.125,-0.2]]",0.142182617,-0.237504883,1,0,0,1.595,o1_image,191.1915,1,191.6828,191.6828,193.6695,0,0,0,0,1,,,,,,,,,,,,,,,,,,,,,,,,,,,,,,,,,,,,,,,,,,,,,,,,,,
,,65c64b9b090c48be1380151a,28,female,2024-04-19_17h37.40.086,stockport_simplified,2022.2.4,MacIntel,19.60784314,661e456ee6de07e70aa9ef7b,66229da05707434e9bc49c23,,,,,,,,,,,,,,,,,,,,,,,,,,,,,,,,,,,,,,,,,,,,,,,,,,,,,,,,0,10,10,1,1,A,X,N,o1_image,stimuli/out1.png,stimuli/correct_out1.png,stimuli/out2.png,,,,,,,,,,,,,,,,,,,,,,,,,,,,,,,,,,,,,,
,,65c64b9b090c48be1380151a,28,female,2024-04-19_17h37.40.086,stockport_simplified,2022.2.4,MacIntel,19.60784314,661e456ee6de07e70aa9ef7b,66229da05707434e9bc49c23,,,,,,,,,,,,,,,,,,,,,,,,,,,,,,,,,,193.6698,196.3142,"[3,6,5,2,4,1,7,8]","[[0.3,0.2],[-0.3,0.2]]","[[0.125,-0.2],[-0.125,-0.2]]",-0.165761719,-0.20862793,1,0,0,2.1409,o2_image,196.3361,0,196.8424,196.8425,198.816,0,0,0,0,1,,,,,,,,,,,,,,,,,,,,,,,,,,,,,,,,,,,,,,,,,,,,,,,,,,
,,65c64b9b090c48be1380151a,28,female,2024-04-19_17h37.40.086,stockport_simplified,2022.2.4,MacIntel,19.60784314,661e456ee6de07e70aa9ef7b,66229da05707434e9bc49c23,,,,,,,,,,,,,,,,,,,,,,,,,,,,,,,,,,,,,,,,,,,,,,,,,,,,,,,,0,11,11,23,1,N,M,C,o1_image,stimuli/out1.png,stimuli/correct_out1.png,stimuli/out2.png,,,,,,,,,,,,,,,,,,,,,,,,,,,,,,,,,,,,,,
,,65c64b9b090c48be1380151a,28,female,2024-04-19_17h37.40.086,stockport_simplified,2022.2.4,MacIntel,19.60784314,661e456ee6de07e70aa9ef7b,66229da05707434e9bc49c23,,,,,,,,,,,,,,,,,,,,,,,,,,,,,,,,,,198.8164,201.161,"[3,6,5,2,4,1,7,8]","[[-0.3,0.2],[0.3,0.2]]","[[0.125,-0.2],[-0.125,-0.2]]",0.116040039,-0.16737793,1,0,0,1.8317,o1_image,201.1618,1,201.6588,201.6589,203.6646,0,0,0,0,1,,,,,,,,,,,,,,,,,,,,,,,,,,,,,,,,,,,,,,,,,,,,,,,,,,
,,65c64b9b090c48be1380151a,28,female,2024-04-19_17h37.40.086,stockport_simplified,2022.2.4,MacIntel,19.60784314,661e456ee6de07e70aa9ef7b,66229da05707434e9bc49c23,,,,,,,,,,,,,,,,,,,,,,,,,,,,,,,,,,,,,,,,,,,,,,,,,,,,,,,,0,12,12,36,1,A,Y,N,o1_image,stimuli/out1.png,stimuli/correct_out1.png,stimuli/out2.png,,,,,,,,,,,,,,,,,,,,,,,,,,,,,,,,,,,,,,
,,65c64b9b090c48be1380151a,28,female,2024-04-19_17h37.40.086,stockport_simplified,2022.2.4,MacIntel,19.60784314,661e456ee6de07e70aa9ef7b,66229da05707434e9bc49c23,,,,,,,,,,,,,,,,,,,,,,,,,,,,,,,,,,203.665,205.6524,"[3,6,5,2,4,1,7,8]","[[-0.3,0.2],[0.3,0.2]]","[[-0.125,-0.2],[0.125,-0.2]]",0.116040039,-0.16737793,1,0,0,1.4608,o2_image,205.6533,0,206.1225,206.1225,208.0746,0,0,0,0,1,,,,,,,,,,,,,,,,,,,,,,,,,,,,,,,,,,,,,,,,,,,,,,,,,,
,,65c64b9b090c48be1380151a,28,female,2024-04-19_17h37.40.086,stockport_simplified,2022.2.4,MacIntel,19.60784314,661e456ee6de07e70aa9ef7b,66229da05707434e9bc49c23,,,,,,,,,,,,,,,,,,,,,,,,,,,,,,,,,,,,,,,,,,,,,,,,,,,,,,,,0,13,13,54,1,N,M,C,o1_image,stimuli/out1.png,stimuli/correct_out1.png,stimuli/out2.png,,,,,,,,,,,,,,,,,,,,,,,,,,,,,,,,,,,,,,
,,65c64b9b090c48be1380151a,28,female,2024-04-19_17h37.40.086,stockport_simplified,2022.2.4,MacIntel,19.60784314,661e456ee6de07e70aa9ef7b,66229da05707434e9bc49c23,,,,,,,,,,,,,,,,,,,,,,,,,,,,,,,,,,208.0751,210.8169,"[3,6,5,2,4,1,7,8]","[[0.3,0.2],[-0.3,0.2]]","[[-0.125,-0.2],[0.125,-0.2]]",-0.015112305,-0.178916016,1,0,0,1.4646,o1_image,210.8377,0,211.3321,211.3322,213.3134,0,0,0,0,1,,,,,,,,,,,,,,,,,,,,,,,,,,,,,,,,,,,,,,,,,,,,,,,,,,
,,65c64b9b090c48be1380151a,28,female,2024-04-19_17h37.40.086,stockport_simplified,2022.2.4,MacIntel,19.60784314,661e456ee6de07e70aa9ef7b,66229da05707434e9bc49c23,,,,,,,,,,,,,,,,,,,,,,,,,,,,,,,,,,,,,,,,,,,,,,,,,,,,,,,,0,14,14,46,1,B,Y,N,o2_image,stimuli/out2.png,stimuli/out1.png,stimuli/correct_out2.png,,,,,,,,,,,,,,,,,,,,,,,,,,,,,,,,,,,,,,
,,65c64b9b090c48be1380151a,28,female,2024-04-19_17h37.40.086,stockport_simplified,2022.2.4,MacIntel,19.60784314,661e456ee6de07e70aa9ef7b,66229da05707434e9bc49c23,,,,,,,,,,,,,,,,,,,,,,,,,,,,,,,,,,213.3139,214.6216,"[3,6,5,2,4,1,7,8]","[[-0.3,0.2],[0.3,0.2]]","[[0.125,-0.2],[-0.125,-0.2]]",0.09190918,-0.169272461,1,0,0,0.8021,o1_image,214.6223,0,215.1003,215.1003,217.1247,0,0,0,0,1,,,,,,,,,,,,,,,,,,,,,,,,,,,,,,,,,,,,,,,,,,,,,,,,,,
,,65c64b9b090c48be1380151a,28,female,2024-04-19_17h37.40.086,stockport_simplified,2022.2.4,MacIntel,19.60784314,661e456ee6de07e70aa9ef7b,66229da05707434e9bc49c23,,,,,,,,,,,,,,,,,,,,,,,,,,,,,,,,,,,,,,,,,,,,,,,,,,,,,,,,0,15,15,11,1,B,X,N,o2_image,stimuli/out2.png,stimuli/out1.png,stimuli/correct_out2.png,,,,,,,,,,,,,,,,,,,,,,,,,,,,,,,,,,,,,,
,,65c64b9b090c48be1380151a,28,female,2024-04-19_17h37.40.086,stockport_simplified,2022.2.4,MacIntel,19.60784314,661e456ee6de07e70aa9ef7b,66229da05707434e9bc49c23,,,,,,,,,,,,,,,,,,,,,,,,,,,,,,,,,,217.125,220.2263,"[3,6,5,2,4,1,7,8]","[[0.3,0.2],[-0.3,0.2]]","[[0.125,-0.2],[-0.125,-0.2]]",-0.186147461,-0.198041992,1,0,0,2.5688,o2_image,220.227,1,220.7256,220.7256,222.7211,0,0,0,0,1,,,,,,,,,,,,,,,,,,,,,,,,,,,,,,,,,,,,,,,,,,,,,,,,,,
,,65c64b9b090c48be1380151a,28,female,2024-04-19_17h37.40.086,stockport_simplified,2022.2.4,MacIntel,19.60784314,661e456ee6de07e70aa9ef7b,66229da05707434e9bc49c23,,,,,,,,,,,,,,,,,,,,,,,,,,,,,,,,,,,,,,,,,,,,,,,,,,,,,,,,0,16,16,44,1,B,X,N,o2_image,stimuli/out2.png,stimuli/out1.png,stimuli/correct_out2.png,,,,,,,,,,,,,,,,,,,,,,,,,,,,,,,,,,,,,,
,,65c64b9b090c48be1380151a,28,female,2024-04-19_17h37.40.086,stockport_simplified,2022.2.4,MacIntel,19.60784314,661e456ee6de07e70aa9ef7b,66229da05707434e9bc49c23,,,,,,,,,,,,,,,,,,,,,,,,,,,,,,,,,,222.7216,225.6527,"[3,6,5,2,4,1,7,8]","[[0.3,0.2],[-0.3,0.2]]","[[-0.125,-0.2],[0.125,-0.2]]",-0.119233398,-0.168374023,1,0,0,2.4162,o1_image,225.6534,1,226.1394,226.1395,228.1314,0,0,0,0,1,,,,,,,,,,,,,,,,,,,,,,,,,,,,,,,,,,,,,,,,,,,,,,,,,,
,,65c64b9b090c48be1380151a,28,female,2024-04-19_17h37.40.086,stockport_simplified,2022.2.4,MacIntel,19.60784314,661e456ee6de07e70aa9ef7b,66229da05707434e9bc49c23,,,,,,,,,,,,,,,,,,,,,,,,,,,,,,,,,,,,,,,,,,,,,,,,,,,,,,,,0,17,17,21,1,N,M,C,o1_image,stimuli/out1.png,stimuli/correct_out1.png,stimuli/out2.png,,,,,,,,,,,,,,,,,,,,,,,,,,,,,,,,,,,,,,
,,65c64b9b090c48be1380151a,28,female,2024-04-19_17h37.40.086,stockport_simplified,2022.2.4,MacIntel,19.60784314,661e456ee6de07e70aa9ef7b,66229da05707434e9bc49c23,,,,,,,,,,,,,,,,,,,,,,,,,,,,,,,,,,228.1318,232.619,"[3,6,5,2,4,1,7,8]","[[0.3,0.2],[-0.3,0.2]]","[[0.125,-0.2],[-0.125,-0.2]]",-0.095029297,-0.217402344,1,0,0,3.9586,o2_image,232.6348,1,233.1249,233.1249,235.1192,0,0,0,0,1,,,,,,,,,,,,,,,,,,,,,,,,,,,,,,,,,,,,,,,,,,,,,,,,,,
,,65c64b9b090c48be1380151a,28,female,2024-04-19_17h37.40.086,stockport_simplified,2022.2.4,MacIntel,19.60784314,661e456ee6de07e70aa9ef7b,66229da05707434e9bc49c23,,,,,,,,,,,,,,,,,,,,,,,,,,,,,,,,,,,,,,,,,,,,,,,,,,,,,,,,0,18,18,10,1,B,X,N,o2_image,stimuli/out2.png,stimuli/out1.png,stimuli/correct_out2.png,,,,,,,,,,,,,,,,,,,,,,,,,,,,,,,,,,,,,,
,,65c64b9b090c48be1380151a,28,female,2024-04-19_17h37.40.086,stockport_simplified,2022.2.4,MacIntel,19.60784314,661e456ee6de07e70aa9ef7b,66229da05707434e9bc49c23,,,,,,,,,,,,,,,,,,,,,,,,,,,,,,,,,,235.1196,239.6496,"[3,6,5,2,4,1,7,8]","[[-0.3,0.2],[0.3,0.2]]","[[0.125,-0.2],[-0.125,-0.2]]",0.108457031,-0.17809082,1,0,0,4.0243,o1_image,239.6634,1,240.1355,240.1355,242.1244,0,0,0,0,1,,,,,,,,,,,,,,,,,,,,,,,,,,,,,,,,,,,,,,,,,,,,,,,,,,
,,65c64b9b090c48be1380151a,28,female,2024-04-19_17h37.40.086,stockport_simplified,2022.2.4,MacIntel,19.60784314,661e456ee6de07e70aa9ef7b,66229da05707434e9bc49c23,,,,,,,,,,,,,,,,,,,,,,,,,,,,,,,,,,,,,,,,,,,,,,,,,,,,,,,,0,19,19,32,1,A,X,N,o1_image,stimuli/out1.png,stimuli/correct_out1.png,stimuli/out2.png,,,,,,,,,,,,,,,,,,,,,,,,,,,,,,,,,,,,,,
,,65c64b9b090c48be1380151a,28,female,2024-04-19_17h37.40.086,stockport_simplified,2022.2.4,MacIntel,19.60784314,661e456ee6de07e70aa9ef7b,66229da05707434e9bc49c23,,,,,,,,,,,,,,,,,,,,,,,,,,,,,,,,,,242.1249,244.2671,"[3,6,5,2,4,1,7,8]","[[-0.3,0.2],[0.3,0.2]]","[[0.125,-0.2],[-0.125,-0.2]]",-0.137612305,-0.194926758,1,0,0,1.6218,o2_image,244.2679,0,244.7541,244.7541,246.7582,0,0,0,0,1,,,,,,,,,,,,,,,,,,,,,,,,,,,,,,,,,,,,,,,,,,,,,,,,,,
,,65c64b9b090c48be1380151a,28,female,2024-04-19_17h37.40.086,stockport_simplified,2022.2.4,MacIntel,19.60784314,661e456ee6de07e70aa9ef7b,66229da05707434e9bc49c23,,,,,,,,,,,,,,,,,,,,,,,,,,,,,,,,,,,,,,,,,,,,,,,,,,,,,,,,0,20,20,53,1,N,M,C,o1_image,stimuli/out1.png,stimuli/correct_out1.png,stimuli/out2.png,,,,,,,,,,,,,,,,,,,,,,,,,,,,,,,,,,,,,,
,,65c64b9b090c48be1380151a,28,female,2024-04-19_17h37.40.086,stockport_simplified,2022.2.4,MacIntel,19.60784314,661e456ee6de07e70aa9ef7b,66229da05707434e9bc49c23,,,,,,,,,,,,,,,,,,,,,,,,,,,,,,,,,,246.7587,249.2752,"[3,6,5,2,4,1,7,8]","[[0.3,0.2],[-0.3,0.2]]","[[0.125,-0.2],[-0.125,-0.2]]",0.11859375,-0.196806641,1,0,0,2.0111,o1_image,249.2761,1,249.7524,249.7524,251.7408,0,0,0,0,1,,,,,,,,,,,,,,,,,,,,,,,,,,,,,,,,,,,,,,,,,,,,,,,,,,
,,65c64b9b090c48be1380151a,28,female,2024-04-19_17h37.40.086,stockport_simplified,2022.2.4,MacIntel,19.60784314,661e456ee6de07e70aa9ef7b,66229da05707434e9bc49c23,,,,,,,,,,,,,,,,,,,,,,,,,,,,,,,,,,,,,,,,,,,,,,,,,,,,,,,,0,21,21,34,1,A,X,N,o1_image,stimuli/out1.png,stimuli/correct_out1.png,stimuli/out2.png,,,,,,,,,,,,,,,,,,,,,,,,,,,,,,,,,,,,,,
,,65c64b9b090c48be1380151a,28,female,2024-04-19_17h37.40.086,stockport_simplified,2022.2.4,MacIntel,19.60784314,661e456ee6de07e70aa9ef7b,66229da05707434e9bc49c23,,,,,,,,,,,,,,,,,,,,,,,,,,,,,,,,,,251.7412,252.9995,"[3,6,5,2,4,1,7,8]","[[0.3,0.2],[-0.3,0.2]]","[[-0.125,-0.2],[0.125,-0.2]]",0.121318359,-0.200053711,1,0,0,0.7412,o2_image,253.0004,0,253.4746,253.4747,255.4596,0,0,0,0,1,,,,,,,,,,,,,,,,,,,,,,,,,,,,,,,,,,,,,,,,,,,,,,,,,,
,,65c64b9b090c48be1380151a,28,female,2024-04-19_17h37.40.086,stockport_simplified,2022.2.4,MacIntel,19.60784314,661e456ee6de07e70aa9ef7b,66229da05707434e9bc49c23,,,,,,,,,,,,,,,,,,,,,,,,,,,,,,,,,,,,,,,,,,,,,,,,,,,,,,,,0,22,22,3,1,A,X,N,o1_image,stimuli/out1.png,stimuli/correct_out1.png,stimuli/out2.png,,,,,,,,,,,,,,,,,,,,,,,,,,,,,,,,,,,,,,
,,65c64b9b090c48be1380151a,28,female,2024-04-19_17h37.40.086,stockport_simplified,2022.2.4,MacIntel,19.60784314,661e456ee6de07e70aa9ef7b,66229da05707434e9bc49c23,,,,,,,,,,,,,,,,,,,,,,,,,,,,,,,,,,255.46,258.5617,"[3,6,5,2,4,1,7,8]","[[0.3,0.2],[-0.3,0.2]]","[[-0.125,-0.2],[0.125,-0.2]]",0.090097656,-0.201953125,1,0,0,2.5969,o2_image,258.5625,0,259.0457,259.0457,261.0203,0,0,0,0,1,,,,,,,,,,,,,,,,,,,,,,,,,,,,,,,,,,,,,,,,,,,,,,,,,,
,,65c64b9b090c48be1380151a,28,female,2024-04-19_17h37.40.086,stockport_simplified,2022.2.4,MacIntel,19.60784314,661e456ee6de07e70aa9ef7b,66229da05707434e9bc49c23,,,,,,,,,,,,,,,,,,,,,,,,,,,,,,,,,,,,,,,,,,,,,,,,,,,,,,,,0,23,23,33,1,A,X,N,o1_image,stimuli/out1.png,stimuli/correct_out1.png,stimuli/out2.png,,,,,,,,,,,,,,,,,,,,,,,,,,,,,,,,,,,,,,
,,65c64b9b090c48be1380151a,28,female,2024-04-19_17h37.40.086,stockport_simplified,2022.2.4,MacIntel,19.60784314,661e456ee6de07e70aa9ef7b,66229da05707434e9bc49c23,,,,,,,,,,,,,,,,,,,,,,,,,,,,,,,,,,261.0207,262.2926,"[3,6,5,2,4,1,7,8]","[[-0.3,0.2],[0.3,0.2]]","[[-0.125,-0.2],[0.125,-0.2]]",0.087939453,-0.201953125,1,0,0,0.7664,o2_image,262.2939,0,262.7829,262.7829,264.8175,0,0,0,0,1,,,,,,,,,,,,,,,,,,,,,,,,,,,,,,,,,,,,,,,,,,,,,,,,,,
,,65c64b9b090c48be1380151a,28,female,2024-04-19_17h37.40.086,stockport_simplified,2022.2.4,MacIntel,19.60784314,661e456ee6de07e70aa9ef7b,66229da05707434e9bc49c23,,,,,,,,,,,,,,,,,,,,,,,,,,,,,,,,,,,,,,,,,,,,,,,,,,,,,,,,0,24,24,31,1,A,X,N,o1_image,stimuli/out1.png,stimuli/correct_out1.png,stimuli/out2.png,,,,,,,,,,,,,,,,,,,,,,,,,,,,,,,,,,,,,,
,,65c64b9b090c48be1380151a,28,female,2024-04-19_17h37.40.086,stockport_simplified,2022.2.4,MacIntel,19.60784314,661e456ee6de07e70aa9ef7b,66229da05707434e9bc49c23,,,,,,,,,,,,,,,,,,,,,,,,,,,,,,,,,,264.818,265.8307,"[3,6,5,2,4,1,7,8]","[[-0.3,0.2],[0.3,0.2]]","[[0.125,-0.2],[-0.125,-0.2]]",0.088510742,-0.201953125,1,0,0,0.4882,o1_image,265.8314,1,266.3042,266.3043,268.2795,0,0,0,0,1,,,,,,,,,,,,,,,,,,,,,,,,,,,,,,,,,,,,,,,,,,,,,,,,,,
,,65c64b9b090c48be1380151a,28,female,2024-04-19_17h37.40.086,stockport_simplified,2022.2.4,MacIntel,19.60784314,661e456ee6de07e70aa9ef7b,66229da05707434e9bc49c23,,,,,,,,,,,,,,,,,,,,,,,,,,,,,,,,,,,,,,,,,,,,,,,,,,,,,,,,0,25,25,4,1,A,X,N,o1_image,stimuli/out1.png,stimuli/correct_out1.png,stimuli/out2.png,,,,,,,,,,,,,,,,,,,,,,,,,,,,,,,,,,,,,,
,,65c64b9b090c48be1380151a,28,female,2024-04-19_17h37.40.086,stockport_simplified,2022.2.4,MacIntel,19.60784314,661e456ee6de07e70aa9ef7b,66229da05707434e9bc49c23,,,,,,,,,,,,,,,,,,,,,,,,,,,,,,,,,,268.2798,269.5547,"[3,6,5,2,4,1,7,8]","[[-0.3,0.2],[0.3,0.2]]","[[0.125,-0.2],[-0.125,-0.2]]",0.088510742,-0.201953125,1,0,0,0.7187,o1_image,269.5554,1,270.0413,270.0413,272.0212,0,0,0,0,1,,,,,,,,,,,,,,,,,,,,,,,,,,,,,,,,,,,,,,,,,,,,,,,,,,
,,65c64b9b090c48be1380151a,28,female,2024-04-19_17h37.40.086,stockport_simplified,2022.2.4,MacIntel,19.60784314,661e456ee6de07e70aa9ef7b,66229da05707434e9bc49c23,,,,,,,,,,,,,,,,,,,,,,,,,,,,,,,,,,,,,,,,,,,,,,,,,,,,,,,,0,26,26,7,1,A,Y,N,o1_image,stimuli/out1.png,stimuli/correct_out1.png,stimuli/out2.png,,,,,,,,,,,,,,,,,,,,,,,,,,,,,,,,,,,,,,
,,65c64b9b090c48be1380151a,28,female,2024-04-19_17h37.40.086,stockport_simplified,2022.2.4,MacIntel,19.60784314,661e456ee6de07e70aa9ef7b,66229da05707434e9bc49c23,,,,,,,,,,,,,,,,,,,,,,,,,,,,,,,,,,272.0218,273.1296,"[3,6,5,2,4,1,7,8]","[[-0.3,0.2],[0.3,0.2]]","[[0.125,-0.2],[-0.125,-0.2]]",0.088793945,-0.201953125,1,0,0,0.5798,o1_image,273.1304,0,273.6112,273.6112,275.6045,0,0,0,0,1,,,,,,,,,,,,,,,,,,,,,,,,,,,,,,,,,,,,,,,,,,,,,,,,,,
,,65c64b9b090c48be1380151a,28,female,2024-04-19_17h37.40.086,stockport_simplified,2022.2.4,MacIntel,19.60784314,661e456ee6de07e70aa9ef7b,66229da05707434e9bc49c23,,,,,,,,,,,,,,,,,,,,,,,,,,,,,,,,,,,,,,,,,,,,,,,,,,,,,,,,0,27,27,45,1,B,Y,N,o2_image,stimuli/out2.png,stimuli/out1.png,stimuli/correct_out2.png,,,,,,,,,,,,,,,,,,,,,,,,,,,,,,,,,,,,,,
,,65c64b9b090c48be1380151a,28,female,2024-04-19_17h37.40.086,stockport_simplified,2022.2.4,MacIntel,19.60784314,661e456ee6de07e70aa9ef7b,66229da05707434e9bc49c23,,,,,,,,,,,,,,,,,,,,,,,,,,,,,,,,,,275.605,277.2245,"[3,6,5,2,4,1,7,8]","[[0.3,0.2],[-0.3,0.2]]","[[0.125,-0.2],[-0.125,-0.2]]",0.088793945,-0.201953125,1,0,0,1.1116,o1_image,277.2254,0,277.7169,277.7169,279.6813,0,0,0,0,1,,,,,,,,,,,,,,,,,,,,,,,,,,,,,,,,,,,,,,,,,,,,,,,,,,
,,65c64b9b090c48be1380151a,28,female,2024-04-19_17h37.40.086,stockport_simplified,2022.2.4,MacIntel,19.60784314,661e456ee6de07e70aa9ef7b,66229da05707434e9bc49c23,,,,,,,,,,,,,,,,,,,,,,,,,,,,,,,,,,,,,,,,,,,,,,,,,,,,,,,,0,28,28,14,1,B,X,N,o2_image,stimuli/out2.png,stimuli/out1.png,stimuli/correct_out2.png,,,,,,,,,,,,,,,,,,,,,,,,,,,,,,,,,,,,,,
,,65c64b9b090c48be1380151a,28,female,2024-04-19_17h37.40.086,stockport_simplified,2022.2.4,MacIntel,19.60784314,661e456ee6de07e70aa9ef7b,66229da05707434e9bc49c23,,,,,,,,,,,,,,,,,,,,,,,,,,,,,,,,,,279.6818,282.361,"[3,6,5,2,4,1,7,8]","[[-0.3,0.2],[0.3,0.2]]","[[-0.125,-0.2],[0.125,-0.2]]",-0.116049805,-0.208168945,1,0,0,2.1716,o1_image,282.3764,0,282.846,282.846,284.8281,0,0,0,0,1,,,,,,,,,,,,,,,,,,,,,,,,,,,,,,,,,,,,,,,,,,,,,,,,,,
,,65c64b9b090c48be1380151a,28,female,2024-04-19_17h37.40.086,stockport_simplified,2022.2.4,MacIntel,19.60784314,661e456ee6de07e70aa9ef7b,66229da05707434e9bc49c23,,,,,,,,,,,,,,,,,,,,,,,,,,,,,,,,,,,,,,,,,,,,,,,,,,,,,,,,0,29,29,15,1,B,Y,N,o2_image,stimuli/out2.png,stimuli/out1.png,stimuli/correct_out2.png,,,,,,,,,,,,,,,,,,,,,,,,,,,,,,,,,,,,,,
,,65c64b9b090c48be1380151a,28,female,2024-04-19_17h37.40.086,stockport_simplified,2022.2.4,MacIntel,19.60784314,661e456ee6de07e70aa9ef7b,66229da05707434e9bc49c23,,,,,,,,,,,,,,,,,,,,,,,,,,,,,,,,,,284.8286,286.5651,"[3,6,5,2,4,1,7,8]","[[0.3,0.2],[-0.3,0.2]]","[[0.125,-0.2],[-0.125,-0.2]]",0.191762695,-0.192890625,1,0,0,1.1901,o1_image,286.5663,1,287.0504,287.0504,289.0428,0,0,0,0,1,,,,,,,,,,,,,,,,,,,,,,,,,,,,,,,,,,,,,,,,,,,,,,,,,,
,,65c64b9b090c48be1380151a,28,female,2024-04-19_17h37.40.086,stockport_simplified,2022.2.4,MacIntel,19.60784314,661e456ee6de07e70aa9ef7b,66229da05707434e9bc49c23,,,,,,,,,,,,,,,,,,,,,,,,,,,,,,,,,,,,,,,,,,,,,,,,,,,,,,,,0,30,30,0,1,A,X,N,o1_image,stimuli/out1.png,stimuli/correct_out1.png,stimuli/out2.png,,,,,,,,,,,,,,,,,,,,,,,,,,,,,,,,,,,,,,
,,65c64b9b090c48be1380151a,28,female,2024-04-19_17h37.40.086,stockport_simplified,2022.2.4,MacIntel,19.60784314,661e456ee6de07e70aa9ef7b,66229da05707434e9bc49c23,,,,,,,,,,,,,,,,,,,,,,,,,,,,,,,,,,289.0435,290.677,"[3,6,5,2,4,1,7,8]","[[0.3,0.2],[-0.3,0.2]]","[[0.125,-0.2],[-0.125,-0.2]]",0.189287109,-0.192890625,1,0,0,1.1167,o1_image,290.6778,1,291.1644,291.1644,293.1704,0,0,0,0,1,,,,,,,,,,,,,,,,,,,,,,,,,,,,,,,,,,,,,,,,,,,,,,,,,,
,,65c64b9b090c48be1380151a,28,female,2024-04-19_17h37.40.086,stockport_simplified,2022.2.4,MacIntel,19.60784314,661e456ee6de07e70aa9ef7b,66229da05707434e9bc49c23,,,,,,,,,,,,,,,,,,,,,,,,,,,,,,,,,,,,,,,,,,,,,,,,,,,,,,,,0,31,31,5,1,A,Y,N,o1_image,stimuli/out1.png,stimuli/correct_out1.png,stimuli/out2.png,,,,,,,,,,,,,,,,,,,,,,,,,,,,,,,,,,,,,,
,,65c64b9b090c48be1380151a,28,female,2024-04-19_17h37.40.086,stockport_simplified,2022.2.4,MacIntel,19.60784314,661e456ee6de07e70aa9ef7b,66229da05707434e9bc49c23,,,,,,,,,,,,,,,,,,,,,,,,,,,,,,,,,,293.1708,295.1363,"[3,6,5,2,4,1,7,8]","[[0.3,0.2],[-0.3,0.2]]","[[-0.125,-0.2],[0.125,-0.2]]",0.180678711,-0.182045898,1,0,0,1.4089,o2_image,295.1378,1,295.6342,295.6343,297.6141,0,0,0,0,1,,,,,,,,,,,,,,,,,,,,,,,,,,,,,,,,,,,,,,,,,,,,,,,,,,
,,65c64b9b090c48be1380151a,28,female,2024-04-19_17h37.40.086,stockport_simplified,2022.2.4,MacIntel,19.60784314,661e456ee6de07e70aa9ef7b,66229da05707434e9bc49c23,,,,,,,,,,,,,,,,,,,,,,,,,,,,,,,,,,,,,,,,,,,,,,,,,,,,,,,,0,32,32,55,1,N,M,D,o2_image,stimuli/out2.png,stimuli/out1.png,stimuli/correct_out2.png,,,,,,,,,,,,,,,,,,,,,,,,,,,,,,,,,,,,,,
,,65c64b9b090c48be1380151a,28,female,2024-04-19_17h37.40.086,stockport_simplified,2022.2.4,MacIntel,19.60784314,661e456ee6de07e70aa9ef7b,66229da05707434e9bc49c23,,,,,,,,,,,,,,,,,,,,,,,,,,,,,,,,,,297.6147,298.941,"[3,6,5,2,4,1,7,8]","[[-0.3,0.2],[0.3,0.2]]","[[-0.125,-0.2],[0.125,-0.2]]",0.180678711,-0.182045898,1,0,0,0.8244,o2_image,298.9417,1,299.4109,299.411,301.4384,0,0,0,0,1,,,,,,,,,,,,,,,,,,,,,,,,,,,,,,,,,,,,,,,,,,,,,,,,,,
,,65c64b9b090c48be1380151a,28,female,2024-04-19_17h37.40.086,stockport_simplified,2022.2.4,MacIntel,19.60784314,661e456ee6de07e70aa9ef7b,66229da05707434e9bc49c23,,,,,,,,,,,,,,,,,,,,,,,,,,,,,,,,,,,,,,,,,,,,,,,,,,,,,,,,0,33,33,27,1,N,M,D,o2_image,stimuli/out2.png,stimuli/out1.png,stimuli/correct_out2.png,,,,,,,,,,,,,,,,,,,,,,,,,,,,,,,,,,,,,,
,,65c64b9b090c48be1380151a,28,female,2024-04-19_17h37.40.086,stockport_simplified,2022.2.4,MacIntel,19.60784314,661e456ee6de07e70aa9ef7b,66229da05707434e9bc49c23,,,,,,,,,,,,,,,,,,,,,,,,,,,,,,,,,,301.4388,302.9716,"[3,6,5,2,4,1,7,8]","[[-0.3,0.2],[0.3,0.2]]","[[0.125,-0.2],[-0.125,-0.2]]",0.16984375,-0.18171875,1,0,0,1.0267,o1_image,302.9721,0,303.4626,303.4627,305.4329,0,0,0,0,1,,,,,,,,,,,,,,,,,,,,,,,,,,,,,,,,,,,,,,,,,,,,,,,,,,
,,65c64b9b090c48be1380151a,28,female,2024-04-19_17h37.40.086,stockport_simplified,2022.2.4,MacIntel,19.60784314,661e456ee6de07e70aa9ef7b,66229da05707434e9bc49c23,,,,,,,,,,,,,,,,,,,,,,,,,,,,,,,,,,,,,,,,,,,,,,,,,,,,,,,,0,34,34,13,1,B,X,N,o2_image,stimuli/out2.png,stimuli/out1.png,stimuli/correct_out2.png,,,,,,,,,,,,,,,,,,,,,,,,,,,,,,,,,,,,,,
,,65c64b9b090c48be1380151a,28,female,2024-04-19_17h37.40.086,stockport_simplified,2022.2.4,MacIntel,19.60784314,661e456ee6de07e70aa9ef7b,66229da05707434e9bc49c23,,,,,,,,,,,,,,,,,,,,,,,,,,,,,,,,,,305.4335,307.6253,"[3,6,5,2,4,1,7,8]","[[-0.3,0.2],[0.3,0.2]]","[[-0.125,-0.2],[0.125,-0.2]]",0.121401367,-0.186181641,1,0,0,1.6643,o2_image,307.6265,1,308.1067,308.1067,310.1099,0,0,0,0,1,,,,,,,,,,,,,,,,,,,,,,,,,,,,,,,,,,,,,,,,,,,,,,,,,,
,,65c64b9b090c48be1380151a,28,female,2024-04-19_17h37.40.086,stockport_simplified,2022.2.4,MacIntel,19.60784314,661e456ee6de07e70aa9ef7b,66229da05707434e9bc49c23,,,,,,,,,,,,,,,,,,,,,,,,,,,,,,,,,,,,,,,,,,,,,,,,,,,,,,,,0,35,35,16,1,B,Y,N,o2_image,stimuli/out2.png,stimuli/out1.png,stimuli/correct_out2.png,,,,,,,,,,,,,,,,,,,,,,,,,,,,,,,,,,,,,,
,,65c64b9b090c48be1380151a,28,female,2024-04-19_17h37.40.086,stockport_simplified,2022.2.4,MacIntel,19.60784314,661e456ee6de07e70aa9ef7b,66229da05707434e9bc49c23,,,,,,,,,,,,,,,,,,,,,,,,,,,,,,,,,,310.1103,311.5315,"[3,6,5,2,4,1,7,8]","[[-0.3,0.2],[0.3,0.2]]","[[-0.125,-0.2],[0.125,-0.2]]",0.121098633,-0.186191406,1,0,0,0.8833,o2_image,311.5322,0,312.0079,312.008,314.0038,0,0,0,0,1,,,,,,,,,,,,,,,,,,,,,,,,,,,,,,,,,,,,,,,,,,,,,,,,,,
,,65c64b9b090c48be1380151a,28,female,2024-04-19_17h37.40.086,stockport_simplified,2022.2.4,MacIntel,19.60784314,661e456ee6de07e70aa9ef7b,66229da05707434e9bc49c23,,,,,,,,,,,,,,,,,,,,,,,,,,,,,,,,,,,,,,,,,,,,,,,,,,,,,,,,0,36,36,39,1,A,Y,N,o1_image,stimuli/out1.png,stimuli/correct_out1.png,stimuli/out2.png,,,,,,,,,,,,,,,,,,,,,,,,,,,,,,,,,,,,,,
,,65c64b9b090c48be1380151a,28,female,2024-04-19_17h37.40.086,stockport_simplified,2022.2.4,MacIntel,19.60784314,661e456ee6de07e70aa9ef7b,66229da05707434e9bc49c23,,,,,,,,,,,,,,,,,,,,,,,,,,,,,,,,,,314.0042,316.5277,"[3,6,5,2,4,1,7,8]","[[-0.3,0.2],[0.3,0.2]]","[[-0.125,-0.2],[0.125,-0.2]]",0.120473633,-0.186171875,1,0,0,2.0127,o2_image,316.5285,0,317.0264,317.0264,319.0372,0,0,0,0,1,,,,,,,,,,,,,,,,,,,,,,,,,,,,,,,,,,,,,,,,,,,,,,,,,,
,,65c64b9b090c48be1380151a,28,female,2024-04-19_17h37.40.086,stockport_simplified,2022.2.4,MacIntel,19.60784314,661e456ee6de07e70aa9ef7b,66229da05707434e9bc49c23,,,,,,,,,,,,,,,,,,,,,,,,,,,,,,,,,,,,,,,,,,,,,,,,,,,,,,,,0,37,37,52,1,N,M,C,o1_image,stimuli/out1.png,stimuli/correct_out1.png,stimuli/out2.png,,,,,,,,,,,,,,,,,,,,,,,,,,,,,,,,,,,,,,
,,65c64b9b090c48be1380151a,28,female,2024-04-19_17h37.40.086,stockport_simplified,2022.2.4,MacIntel,19.60784314,661e456ee6de07e70aa9ef7b,66229da05707434e9bc49c23,,,,,,,,,,,,,,,,,,,,,,,,,,,,,,,,,,319.0377,320.4231,"[3,6,5,2,4,1,7,8]","[[-0.3,0.2],[0.3,0.2]]","[[-0.125,-0.2],[0.125,-0.2]]",0.120473633,-0.186171875,1,0,0,0.8756,o2_image,320.4242,1,320.8959,320.8959,322.9001,0,0,0,0,1,,,,,,,,,,,,,,,,,,,,,,,,,,,,,,,,,,,,,,,,,,,,,,,,,,
,,65c64b9b090c48be1380151a,28,female,2024-04-19_17h37.40.086,stockport_simplified,2022.2.4,MacIntel,19.60784314,661e456ee6de07e70aa9ef7b,66229da05707434e9bc49c23,,,,,,,,,,,,,,,,,,,,,,,,,,,,,,,,,,,,,,,,,,,,,,,,,,,,,,,,0,38,38,47,1,B,Y,N,o2_image,stimuli/out2.png,stimuli/out1.png,stimuli/correct_out2.png,,,,,,,,,,,,,,,,,,,,,,,,,,,,,,,,,,,,,,
,,65c64b9b090c48be1380151a,28,female,2024-04-19_17h37.40.086,stockport_simplified,2022.2.4,MacIntel,19.60784314,661e456ee6de07e70aa9ef7b,66229da05707434e9bc49c23,,,,,,,,,,,,,,,,,,,,,,,,,,,,,,,,,,322.9006,324.7903,"[3,6,5,2,4,1,7,8]","[[-0.3,0.2],[0.3,0.2]]","[[0.125,-0.2],[-0.125,-0.2]]",0.120175781,-0.18440918,1,0,0,1.3659,o1_image,324.7908,0,325.2429,325.2429,327.2254,0,0,0,0,1,,,,,,,,,,,,,,,,,,,,,,,,,,,,,,,,,,,,,,,,,,,,,,,,,,
,,65c64b9b090c48be1380151a,28,female,2024-04-19_17h37.40.086,stockport_simplified,2022.2.4,MacIntel,19.60784314,661e456ee6de07e70aa9ef7b,66229da05707434e9bc49c23,,,,,,,,,,,,,,,,,,,,,,,,,,,,,,,,,,,,,,,,,,,,,,,,,,,,,,,,0,39,39,25,1,N,M,D,o2_image,stimuli/out2.png,stimuli/out1.png,stimuli/correct_out2.png,,,,,,,,,,,,,,,,,,,,,,,,,,,,,,,,,,,,,,
,,65c64b9b090c48be1380151a,28,female,2024-04-19_17h37.40.086,stockport_simplified,2022.2.4,MacIntel,19.60784314,661e456ee6de07e70aa9ef7b,66229da05707434e9bc49c23,,,,,,,,,,,,,,,,,,,,,,,,,,,,,,,,,,327.2259,328.7918,"[3,6,5,2,4,1,7,8]","[[0.3,0.2],[-0.3,0.2]]","[[0.125,-0.2],[-0.125,-0.2]]",0.116347656,-0.18440918,1,0,0,1.0615,o1_image,328.7924,1,329.2833,329.2833,331.2661,0,0,0,0,1,,,,,,,,,,,,,,,,,,,,,,,,,,,,,,,,,,,,,,,,,,,,,,,,,,
,,65c64b9b090c48be1380151a,28,female,2024-04-19_17h37.40.086,stockport_simplified,2022.2.4,MacIntel,19.60784314,661e456ee6de07e70aa9ef7b,66229da05707434e9bc49c23,,,,,,,,,,,,,,,,,,,,,,,,,,,,,,,,,,,,,,,,,,,,,,,,,,,,,,,,0,40,40,6,1,A,Y,N,o1_image,stimuli/out1.png,stimuli/correct_out1.png,stimuli/out2.png,,,,,,,,,,,,,,,,,,,,,,,,,,,,,,,,,,,,,,
,,65c64b9b090c48be1380151a,28,female,2024-04-19_17h37.40.086,stockport_simplified,2022.2.4,MacIntel,19.60784314,661e456ee6de07e70aa9ef7b,66229da05707434e9bc49c23,,,,,,,,,,,,,,,,,,,,,,,,,,,,,,,,,,331.2666,332.5215,"[3,6,5,2,4,1,7,8]","[[0.3,0.2],[-0.3,0.2]]","[[-0.125,-0.2],[0.125,-0.2]]",0.115761719,-0.184726562,1,0,0,0.7459,o2_image,332.5224,0,333.0202,333.0202,334.9846,0,0,0,0,1,,,,,,,,,,,,,,,,,,,,,,,,,,,,,,,,,,,,,,,,,,,,,,,,,,
,,65c64b9b090c48be1380151a,28,female,2024-04-19_17h37.40.086,stockport_simplified,2022.2.4,MacIntel,19.60784314,661e456ee6de07e70aa9ef7b,66229da05707434e9bc49c23,,,,,,,,,,,,,,,,,,,,,,,,,,,,,,,,,,,,,,,,,,,,,,,,,,,,,,,,0,41,41,37,1,A,Y,N,o1_image,stimuli/out1.png,stimuli/correct_out1.png,stimuli/out2.png,,,,,,,,,,,,,,,,,,,,,,,,,,,,,,,,,,,,,,
,,65c64b9b090c48be1380151a,28,female,2024-04-19_17h37.40.086,stockport_simplified,2022.2.4,MacIntel,19.60784314,661e456ee6de07e70aa9ef7b,66229da05707434e9bc49c23,,,,,,,,,,,,,,,,,,,,,,,,,,,,,,,,,,334.9851,337.571,"[3,6,5,2,4,1,7,8]","[[0.3,0.2],[-0.3,0.2]]","[[0.125,-0.2],[-0.125,-0.2]]",-0.108300781,-0.205263672,1,0,0,2.0558,o2_image,337.5719,1,338.0643,338.0643,340.0407,0,0,0,0,1,,,,,,,,,,,,,,,,,,,,,,,,,,,,,,,,,,,,,,,,,,,,,,,,,,
,,65c64b9b090c48be1380151a,28,female,2024-04-19_17h37.40.086,stockport_simplified,2022.2.4,MacIntel,19.60784314,661e456ee6de07e70aa9ef7b,66229da05707434e9bc49c23,,,,,,,,,,,,,,,,,,,,,,,,,,,,,,,,,,,,,,,,,,,,,,,,,,,,,,,,0,42,42,26,1,N,M,D,o2_image,stimuli/out2.png,stimuli/out1.png,stimuli/correct_out2.png,,,,,,,,,,,,,,,,,,,,,,,,,,,,,,,,,,,,,,
,,65c64b9b090c48be1380151a,28,female,2024-04-19_17h37.40.086,stockport_simplified,2022.2.4,MacIntel,19.60784314,661e456ee6de07e70aa9ef7b,66229da05707434e9bc49c23,,,,,,,,,,,,,,,,,,,,,,,,,,,,,,,,,,340.041,341.6631,"[3,6,5,2,4,1,7,8]","[[0.3,0.2],[-0.3,0.2]]","[[0.125,-0.2],[-0.125,-0.2]]",0.10590332,-0.203139648,1,0,0,1.0931,o1_image,341.6638,1,342.1388,342.1388,344.1437,0,0,0,0,1,,,,,,,,,,,,,,,,,,,,,,,,,,,,,,,,,,,,,,,,,,,,,,,,,,
,,65c64b9b090c48be1380151a,28,female,2024-04-19_17h37.40.086,stockport_simplified,2022.2.4,MacIntel,19.60784314,661e456ee6de07e70aa9ef7b,66229da05707434e9bc49c23,,,,,,,,,,,,,,,,,,,,,,,,,,,,,,,,,,,,,,,,,,,,,,,,,,,,,,,,0,43,43,30,1,A,X,N,o1_image,stimuli/out1.png,stimuli/correct_out1.png,stimuli/out2.png,,,,,,,,,,,,,,,,,,,,,,,,,,,,,,,,,,,,,,
,,65c64b9b090c48be1380151a,28,female,2024-04-19_17h37.40.086,stockport_simplified,2022.2.4,MacIntel,19.60784314,661e456ee6de07e70aa9ef7b,66229da05707434e9bc49c23,,,,,,,,,,,,,,,,,,,,,,,,,,,,,,,,,,344.1441,346.6741,"[3,6,5,2,4,1,7,8]","[[-0.3,0.2],[0.3,0.2]]","[[0.125,-0.2],[-0.125,-0.2]]",-0.143969727,-0.19574707,1,0,0,2.0238,o2_image,346.6747,0,347.1618,347.162,349.1319,0,0,0,0,1,,,,,,,,,,,,,,,,,,,,,,,,,,,,,,,,,,,,,,,,,,,,,,,,,,
,,65c64b9b090c48be1380151a,28,female,2024-04-19_17h37.40.086,stockport_simplified,2022.2.4,MacIntel,19.60784314,661e456ee6de07e70aa9ef7b,66229da05707434e9bc49c23,,,,,,,,,,,,,,,,,,,,,,,,,,,,,,,,,,,,,,,,,,,,,,,,,,,,,,,,0,44,44,51,1,N,M,C,o1_image,stimuli/out1.png,stimuli/correct_out1.png,stimuli/out2.png,,,,,,,,,,,,,,,,,,,,,,,,,,,,,,,,,,,,,,
,,65c64b9b090c48be1380151a,28,female,2024-04-19_17h37.40.086,stockport_simplified,2022.2.4,MacIntel,19.60784314,661e456ee6de07e70aa9ef7b,66229da05707434e9bc49c23,,,,,,,,,,,,,,,,,,,,,,,,,,,,,,,,,,349.1324,351.1346,"[3,6,5,2,4,1,7,8]","[[-0.3,0.2],[0.3,0.2]]","[[-0.125,-0.2],[0.125,-0.2]]",0.139042969,-0.18565918,1,0,0,1.4756,o2_image,351.1354,1,351.6118,351.6119,353.6037,0,0,0,0,1,,,,,,,,,,,,,,,,,,,,,,,,,,,,,,,,,,,,,,,,,,,,,,,,,,
,,65c64b9b090c48be1380151a,28,female,2024-04-19_17h37.40.086,stockport_simplified,2022.2.4,MacIntel,19.60784314,661e456ee6de07e70aa9ef7b,66229da05707434e9bc49c23,,,,,,,,,,,,,,,,,,,,,,,,,,,,,,,,,,,,,,,,,,,,,,,,,,,,,,,,0,45,45,59,1,N,M,D,o2_image,stimuli/out2.png,stimuli/out1.png,stimuli/correct_out2.png,,,,,,,,,,,,,,,,,,,,,,,,,,,,,,,,,,,,,,
,,65c64b9b090c48be1380151a,28,female,2024-04-19_17h37.40.086,stockport_simplified,2022.2.4,MacIntel,19.60784314,661e456ee6de07e70aa9ef7b,66229da05707434e9bc49c23,,,,,,,,,,,,,,,,,,,,,,,,,,,,,,,,,,353.6043,356.6525,"[3,6,5,2,4,1,7,8]","[[0.3,0.2],[-0.3,0.2]]","[[0.125,-0.2],[-0.125,-0.2]]",-0.09637207,-0.200209961,1,0,0,2.5449,o2_image,356.6543,1,357.1293,357.1293,359.1467,0,0,0,0,1,,,,,,,,,,,,,,,,,,,,,,,,,,,,,,,,,,,,,,,,,,,,,,,,,,
,,65c64b9b090c48be1380151a,28,female,2024-04-19_17h37.40.086,stockport_simplified,2022.2.4,MacIntel,19.60784314,661e456ee6de07e70aa9ef7b,66229da05707434e9bc49c23,,,,,,,,,,,,,,,,,,,,,,,,,,,,,,,,,,,,,,,,,,,,,,,,,,,,,,,,0,46,46,49,1,B,Y,N,o2_image,stimuli/out2.png,stimuli/out1.png,stimuli/correct_out2.png,,,,,,,,,,,,,,,,,,,,,,,,,,,,,,,,,,,,,,
,,65c64b9b090c48be1380151a,28,female,2024-04-19_17h37.40.086,stockport_simplified,2022.2.4,MacIntel,19.60784314,661e456ee6de07e70aa9ef7b,66229da05707434e9bc49c23,,,,,,,,,,,,,,,,,,,,,,,,,,,,,,,,,,359.1472,363.8546,"[3,6,5,2,4,1,7,8]","[[-0.3,0.2],[0.3,0.2]]","[[0.125,-0.2],[-0.125,-0.2]]",0.207802734,-0.165878906,1,0,0,3.3972,o1_image,363.8694,0,364.3725,364.3726,366.3526,0,0,0,0,1,,,,,,,,,,,,,,,,,,,,,,,,,,,,,,,,,,,,,,,,,,,,,,,,,,
,,65c64b9b090c48be1380151a,28,female,2024-04-19_17h37.40.086,stockport_simplified,2022.2.4,MacIntel,19.60784314,661e456ee6de07e70aa9ef7b,66229da05707434e9bc49c23,,,,,,,,,,,,,,,,,,,,,,,,,,,,,,,,,,,,,,,,,,,,,,,,,,,,,,,,0,47,47,48,1,B,Y,N,o2_image,stimuli/out2.png,stimuli/out1.png,stimuli/correct_out2.png,,,,,,,,,,,,,,,,,,,,,,,,,,,,,,,,,,,,,,
,,65c64b9b090c48be1380151a,28,female,2024-04-19_17h37.40.086,stockport_simplified,2022.2.4,MacIntel,19.60784314,661e456ee6de07e70aa9ef7b,66229da05707434e9bc49c23,,,,,,,,,,,,,,,,,,,,,,,,,,,,,,,,,,366.3531,368.6758,"[3,6,5,2,4,1,7,8]","[[-0.3,0.2],[0.3,0.2]]","[[0.125,-0.2],[-0.125,-0.2]]",-0.138242188,-0.199711914,1,0,0,1.8185,o2_image,368.6763,0,369.1663,369.1663,371.1792,0,0,0,0,1,,,,,,,,,,,,,,,,,,,,,,,,,,,,,,,,,,,,,,,,,,,,,,,,,,
,,65c64b9b090c48be1380151a,28,female,2024-04-19_17h37.40.086,stockport_simplified,2022.2.4,MacIntel,19.60784314,661e456ee6de07e70aa9ef7b,66229da05707434e9bc49c23,,,,,,,,,,,,,,,,,,,,,,,,,,,,,,,,,,,,,,,,,,,,,,,,,,,,,,,,0,48,48,24,1,N,M,C,o1_image,stimuli/out1.png,stimuli/correct_out1.png,stimuli/out2.png,,,,,,,,,,,,,,,,,,,,,,,,,,,,,,,,,,,,,,
,,65c64b9b090c48be1380151a,28,female,2024-04-19_17h37.40.086,stockport_simplified,2022.2.4,MacIntel,19.60784314,661e456ee6de07e70aa9ef7b,66229da05707434e9bc49c23,,,,,,,,,,,,,,,,,,,,,,,,,,,,,,,,,,371.1796,373.5611,"[3,6,5,2,4,1,7,8]","[[-0.3,0.2],[0.3,0.2]]","[[-0.125,-0.2],[0.125,-0.2]]",0.203325195,-0.163798828,1,0,0,1.8775,o2_image,373.5618,1,374.0513,374.0514,376.0469,0,0,0,0,1,,,,,,,,,,,,,,,,,,,,,,,,,,,,,,,,,,,,,,,,,,,,,,,,,,
,,65c64b9b090c48be1380151a,28,female,2024-04-19_17h37.40.086,stockport_simplified,2022.2.4,MacIntel,19.60784314,661e456ee6de07e70aa9ef7b,66229da05707434e9bc49c23,,,,,,,,,,,,,,,,,,,,,,,,,,,,,,,,,,,,,,,,,,,,,,,,,,,,,,,,0,49,49,19,1,B,Y,N,o2_image,stimuli/out2.png,stimuli/out1.png,stimuli/correct_out2.png,,,,,,,,,,,,,,,,,,,,,,,,,,,,,,,,,,,,,,
,,65c64b9b090c48be1380151a,28,female,2024-04-19_17h37.40.086,stockport_simplified,2022.2.4,MacIntel,19.60784314,661e456ee6de07e70aa9ef7b,66229da05707434e9bc49c23,,,,,,,,,,,,,,,,,,,,,,,,,,,,,,,,,,376.0473,378.2434,"[3,6,5,2,4,1,7,8]","[[-0.3,0.2],[0.3,0.2]]","[[-0.125,-0.2],[0.125,-0.2]]",0.120385742,-0.190327148,1,0,0,1.6871,o2_image,378.2443,0,378.7379,378.7379,380.7445,0,0,0,0,1,,,,,,,,,,,,,,,,,,,,,,,,,,,,,,,,,,,,,,,,,,,,,,,,,,
,,65c64b9b090c48be1380151a,28,female,2024-04-19_17h37.40.086,stockport_simplified,2022.2.4,MacIntel,19.60784314,661e456ee6de07e70aa9ef7b,66229da05707434e9bc49c23,,,,,,,,,,,,,,,,,,,,,,,,,,,,,,,,,,,,,,,,,,,,,,,,,,,,,,,,0,50,50,35,1,A,Y,N,o1_image,stimuli/out1.png,stimuli/correct_out1.png,stimuli/out2.png,,,,,,,,,,,,,,,,,,,,,,,,,,,,,,,,,,,,,,
,,65c64b9b090c48be1380151a,28,female,2024-04-19_17h37.40.086,stockport_simplified,2022.2.4,MacIntel,19.60784314,661e456ee6de07e70aa9ef7b,66229da05707434e9bc49c23,,,,,,,,,,,,,,,,,,,,,,,,,,,,,,,,,,380.7449,383.1753,"[3,6,5,2,4,1,7,8]","[[-0.3,0.2],[0.3,0.2]]","[[-0.125,-0.2],[0.125,-0.2]]",0.114394531,-0.189731445,1,0,0,1.9236,o2_image,383.1761,1,383.6699,383.67,385.6336,0,0,0,0,1,,,,,,,,,,,,,,,,,,,,,,,,,,,,,,,,,,,,,,,,,,,,,,,,,,
,,65c64b9b090c48be1380151a,28,female,2024-04-19_17h37.40.086,stockport_simplified,2022.2.4,MacIntel,19.60784314,661e456ee6de07e70aa9ef7b,66229da05707434e9bc49c23,,,,,,,,,,,,,,,,,,,,,,,,,,,,,,,,,,,,,,,,,,,,,,,,,,,,,,,,0,51,51,57,1,N,M,D,o2_image,stimuli/out2.png,stimuli/out1.png,stimuli/correct_out2.png,,,,,,,,,,,,,,,,,,,,,,,,,,,,,,,,,,,,,,
,,65c64b9b090c48be1380151a,28,female,2024-04-19_17h37.40.086,stockport_simplified,2022.2.4,MacIntel,19.60784314,661e456ee6de07e70aa9ef7b,66229da05707434e9bc49c23,,,,,,,,,,,,,,,,,,,,,,,,,,,,,,,,,,385.6341,387.8179,"[3,6,5,2,4,1,7,8]","[[0.3,0.2],[-0.3,0.2]]","[[-0.125,-0.2],[0.125,-0.2]]",0.114394531,-0.189731445,1,0,0,1.6565,o2_image,387.8186,0,388.3398,388.3399,390.3364,0,0,0,0,1,,,,,,,,,,,,,,,,,,,,,,,,,,,,,,,,,,,,,,,,,,,,,,,,,,
,,65c64b9b090c48be1380151a,28,female,2024-04-19_17h37.40.086,stockport_simplified,2022.2.4,MacIntel,19.60784314,661e456ee6de07e70aa9ef7b,66229da05707434e9bc49c23,,,,,,,,,,,,,,,,,,,,,,,,,,,,,,,,,,,,,,,,,,,,,,,,,,,,,,,,0,52,52,2,1,A,X,N,o1_image,stimuli/out1.png,stimuli/correct_out1.png,stimuli/out2.png,,,,,,,,,,,,,,,,,,,,,,,,,,,,,,,,,,,,,,
,,65c64b9b090c48be1380151a,28,female,2024-04-19_17h37.40.086,stockport_simplified,2022.2.4,MacIntel,19.60784314,661e456ee6de07e70aa9ef7b,66229da05707434e9bc49c23,,,,,,,,,,,,,,,,,,,,,,,,,,,,,,,,,,390.3367,394.2002,"[3,6,5,2,4,1,7,8]","[[-0.3,0.2],[0.3,0.2]]","[[0.125,-0.2],[-0.125,-0.2]]",0.044916992,-0.189003906,1,0,0,2.5877,o1_image,394.2009,1,394.675,394.6751,396.6558,0,0,0,0,1,,,,,,,,,,,,,,,,,,,,,,,,,,,,,,,,,,,,,,,,,,,,,,,,,,
,,65c64b9b090c48be1380151a,28,female,2024-04-19_17h37.40.086,stockport_simplified,2022.2.4,MacIntel,19.60784314,661e456ee6de07e70aa9ef7b,66229da05707434e9bc49c23,,,,,,,,,,,,,,,,,,,,,,,,,,,,,,,,,,,,,,,,,,,,,,,,,,,,,,,,0,53,53,22,1,N,M,C,o1_image,stimuli/out1.png,stimuli/correct_out1.png,stimuli/out2.png,,,,,,,,,,,,,,,,,,,,,,,,,,,,,,,,,,,,,,
,,65c64b9b090c48be1380151a,28,female,2024-04-19_17h37.40.086,stockport_simplified,2022.2.4,MacIntel,19.60784314,661e456ee6de07e70aa9ef7b,66229da05707434e9bc49c23,,,,,,,,,,,,,,,,,,,,,,,,,,,,,,,,,,396.6566,398.0644,"[3,6,5,2,4,1,7,8]","[[-0.3,0.2],[0.3,0.2]]","[[0.125,-0.2],[-0.125,-0.2]]",0.11746582,-0.19440918,1,0,0,0.8671,o1_image,398.0651,0,398.5505,398.5505,400.5533,0,0,0,0,1,,,,,,,,,,,,,,,,,,,,,,,,,,,,,,,,,,,,,,,,,,,,,,,,,,
,,65c64b9b090c48be1380151a,28,female,2024-04-19_17h37.40.086,stockport_simplified,2022.2.4,MacIntel,19.60784314,661e456ee6de07e70aa9ef7b,66229da05707434e9bc49c23,,,,,,,,,,,,,,,,,,,,,,,,,,,,,,,,,,,,,,,,,,,,,,,,,,,,,,,,0,54,54,56,1,N,M,D,o2_image,stimuli/out2.png,stimuli/out1.png,stimuli/correct_out2.png,,,,,,,,,,,,,,,,,,,,,,,,,,,,,,,,,,,,,,
,,65c64b9b090c48be1380151a,28,female,2024-04-19_17h37.40.086,stockport_simplified,2022.2.4,MacIntel,19.60784314,661e456ee6de07e70aa9ef7b,66229da05707434e9bc49c23,,,,,,,,,,,,,,,,,,,,,,,,,,,,,,,,,,400.5537,401.7,"[3,6,5,2,4,1,7,8]","[[0.3,0.2],[-0.3,0.2]]","[[0.125,-0.2],[-0.125,-0.2]]",0.11746582,-0.194697266,1,0,0,0.6217,o1_image,401.7007,1,402.2112,402.2113,404.1754,0,0,0,0,1,,,,,,,,,,,,,,,,,,,,,,,,,,,,,,,,,,,,,,,,,,,,,,,,,,
,,65c64b9b090c48be1380151a,28,female,2024-04-19_17h37.40.086,stockport_simplified,2022.2.4,MacIntel,19.60784314,661e456ee6de07e70aa9ef7b,66229da05707434e9bc49c23,,,,,,,,,,,,,,,,,,,,,,,,,,,,,,,,,,,,,,,,,,,,,,,,,,,,,,,,0,55,55,8,1,A,Y,N,o1_image,stimuli/out1.png,stimuli/correct_out1.png,stimuli/out2.png,,,,,,,,,,,,,,,,,,,,,,,,,,,,,,,,,,,,,,
,,65c64b9b090c48be1380151a,28,female,2024-04-19_17h37.40.086,stockport_simplified,2022.2.4,MacIntel,19.60784314,661e456ee6de07e70aa9ef7b,66229da05707434e9bc49c23,,,,,,,,,,,,,,,,,,,,,,,,,,,,,,,,,,404.1759,408.075,"[3,6,5,2,4,1,7,8]","[[-0.3,0.2],[0.3,0.2]]","[[0.125,-0.2],[-0.125,-0.2]]",0.121625977,-0.195927734,1,0,0,3.373,o1_image,408.0909,1,408.5773,408.5774,410.5622,0,0,0,0,1,,,,,,,,,,,,,,,,,,,,,,,,,,,,,,,,,,,,,,,,,,,,,,,,,,
,,65c64b9b090c48be1380151a,28,female,2024-04-19_17h37.40.086,stockport_simplified,2022.2.4,MacIntel,19.60784314,661e456ee6de07e70aa9ef7b,66229da05707434e9bc49c23,,,,,,,,,,,,,,,,,,,,,,,,,,,,,,,,,,,,,,,,,,,,,,,,,,,,,,,,0,56,56,50,1,N,M,C,o1_image,stimuli/out1.png,stimuli/correct_out1.png,stimuli/out2.png,,,,,,,,,,,,,,,,,,,,,,,,,,,,,,,,,,,,,,
,,65c64b9b090c48be1380151a,28,female,2024-04-19_17h37.40.086,stockport_simplified,2022.2.4,MacIntel,19.60784314,661e456ee6de07e70aa9ef7b,66229da05707434e9bc49c23,,,,,,,,,,,,,,,,,,,,,,,,,,,,,,,,,,410.5627,412.7354,"[3,6,5,2,4,1,7,8]","[[0.3,0.2],[-0.3,0.2]]","[[-0.125,-0.2],[0.125,-0.2]]",0.079682617,-0.190458984,1,0,0,1.6497,o2_image,412.7361,0,413.2101,413.2101,415.1942,0,0,0,0,1,,,,,,,,,,,,,,,,,,,,,,,,,,,,,,,,,,,,,,,,,,,,,,,,,,
,,65c64b9b090c48be1380151a,28,female,2024-04-19_17h37.40.086,stockport_simplified,2022.2.4,MacIntel,19.60784314,661e456ee6de07e70aa9ef7b,66229da05707434e9bc49c23,,,,,,,,,,,,,,,,,,,,,,,,,,,,,,,,,,,,,,,,,,,,,,,,,,,,,,,,0,57,57,20,1,N,M,C,o1_image,stimuli/out1.png,stimuli/correct_out1.png,stimuli/out2.png,,,,,,,,,,,,,,,,,,,,,,,,,,,,,,,,,,,,,,
,,65c64b9b090c48be1380151a,28,female,2024-04-19_17h37.40.086,stockport_simplified,2022.2.4,MacIntel,19.60784314,661e456ee6de07e70aa9ef7b,66229da05707434e9bc49c23,,,,,,,,,,,,,,,,,,,,,,,,,,,,,,,,,,415.1948,417.7538,"[3,6,5,2,4,1,7,8]","[[-0.3,0.2],[0.3,0.2]]","[[-0.125,-0.2],[0.125,-0.2]]",0.074316406,-0.179003906,1,0,0,2.0528,o2_image,417.7546,1,418.2178,418.2178,420.1805,0,0,0,0,1,,,,,,,,,,,,,,,,,,,,,,,,,,,,,,,,,,,,,,,,,,,,,,,,,,
,,65c64b9b090c48be1380151a,28,female,2024-04-19_17h37.40.086,stockport_simplified,2022.2.4,MacIntel,19.60784314,661e456ee6de07e70aa9ef7b,66229da05707434e9bc49c23,,,,,,,,,,,,,,,,,,,,,,,,,,,,,,,,,,,,,,,,,,,,,,,,,,,,,,,,0,58,58,58,1,N,M,D,o2_image,stimuli/out2.png,stimuli/out1.png,stimuli/correct_out2.png,,,,,,,,,,,,,,,,,,,,,,,,,,,,,,,,,,,,,,
,,65c64b9b090c48be1380151a,28,female,2024-04-19_17h37.40.086,stockport_simplified,2022.2.4,MacIntel,19.60784314,661e456ee6de07e70aa9ef7b,66229da05707434e9bc49c23,,,,,,,,,,,,,,,,,,,,,,,,,,,,,,,,,,420.1809,422.9313,"[3,6,5,2,4,1,7,8]","[[-0.3,0.2],[0.3,0.2]]","[[-0.125,-0.2],[0.125,-0.2]]",0.144584961,-0.151845703,1,0,0,2.2343,o2_image,422.9478,1,423.4367,423.4367,425.419,0,0,0,0,1,,,,,,,,,,,,,,,,,,,,,,,,,,,,,,,,,,,,,,,,,,,,,,,,,,
,,65c64b9b090c48be1380151a,28,female,2024-04-19_17h37.40.086,stockport_simplified,2022.2.4,MacIntel,19.60784314,661e456ee6de07e70aa9ef7b,66229da05707434e9bc49c23,,,,,,,,,,,,,,,,,,,,,,,,,,,,,,,,,,,,,,,,,,,,,,,,,,,,,,,,0,59,59,18,1,B,Y,N,o2_image,stimuli/out2.png,stimuli/out1.png,stimuli/correct_out2.png,,,,,,,,,,,,,,,,,,,,,,,,,,,,,,,,,,,,,,
,,65c64b9b090c48be1380151a,28,female,2024-04-19_17h37.40.086,stockport_simplified,2022.2.4,MacIntel,19.60784314,661e456ee6de07e70aa9ef7b,66229da05707434e9bc49c23,,,,,,,,,,,,,,,,,,,,,,,,,,,,,,,,,,425.4196,427.4088,"[3,6,5,2,4,1,7,8]","[[0.3,0.2],[-0.3,0.2]]","[[-0.125,-0.2],[0.125,-0.2]]",-0.098720703,-0.186669922,1,0,0,1.4579,o1_image,427.4096,1,427.8983,427.8984,429.9099,0,0,0,0,1,,,,,,,,,,,,,,,,,,,,,,,,,,,,,,,,,,,,,,,,,,,,,,,,,,
,,65c64b9b090c48be1380151a,28,female,2024-04-19_17h37.40.086,stockport_simplified,2022.2.4,MacIntel,19.60784314,661e456ee6de07e70aa9ef7b,66229da05707434e9bc49c23,,,,,,,,,,,,,,,,,,,,,,,,,,,,,,,,,,,,,,,,,,,,,,,,,,,,,,,,1,0,60,20,1,N,M,C,o1_image,stimuli/out1.png,stimuli/correct_out1.png,stimuli/out2.png,,,,,,,,,,,,,,,,,,,,,,,,,,,,,,,,,,,,,,
,,65c64b9b090c48be1380151a,28,female,2024-04-19_17h37.40.086,stockport_simplified,2022.2.4,MacIntel,19.60784314,661e456ee6de07e70aa9ef7b,66229da05707434e9bc49c23,,,,,,,,,,,,,,,,,,,,,,,,,,,,,,,,,,429.9104,432.9238,"[3,6,5,2,4,1,7,8]","[[-0.3,0.2],[0.3,0.2]]","[[0.125,-0.2],[-0.125,-0.2]]",-0.099306641,-0.186669922,1,0,0,2.4593,o2_image,432.9246,1,433.4025,433.4025,435.3864,0,0,0,0,1,,,,,,,,,,,,,,,,,,,,,,,,,,,,,,,,,,,,,,,,,,,,,,,,,,
,,65c64b9b090c48be1380151a,28,female,2024-04-19_17h37.40.086,stockport_simplified,2022.2.4,MacIntel,19.60784314,661e456ee6de07e70aa9ef7b,66229da05707434e9bc49c23,,,,,,,,,,,,,,,,,,,,,,,,,,,,,,,,,,,,,,,,,,,,,,,,,,,,,,,,1,1,61,59,1,N,M,D,o2_image,stimuli/out2.png,stimuli/out1.png,stimuli/correct_out2.png,,,,,,,,,,,,,,,,,,,,,,,,,,,,,,,,,,,,,,
,,65c64b9b090c48be1380151a,28,female,2024-04-19_17h37.40.086,stockport_simplified,2022.2.4,MacIntel,19.60784314,661e456ee6de07e70aa9ef7b,66229da05707434e9bc49c23,,,,,,,,,,,,,,,,,,,,,,,,,,,,,,,,,,435.3868,437.7226,"[3,6,5,2,4,1,7,8]","[[-0.3,0.2],[0.3,0.2]]","[[-0.125,-0.2],[0.125,-0.2]]",-0.098701172,-0.186669922,1,0,0,1.8331,o1_image,437.7231,0,438.2075,438.2075,440.1884,0,0,0,0,1,,,,,,,,,,,,,,,,,,,,,,,,,,,,,,,,,,,,,,,,,,,,,,,,,,
,,65c64b9b090c48be1380151a,28,female,2024-04-19_17h37.40.086,stockport_simplified,2022.2.4,MacIntel,19.60784314,661e456ee6de07e70aa9ef7b,66229da05707434e9bc49c23,,,,,,,,,,,,,,,,,,,,,,,,,,,,,,,,,,,,,,,,,,,,,,,,,,,,,,,,1,2,62,14,1,B,X,N,o2_image,stimuli/out2.png,stimuli/out1.png,stimuli/correct_out2.png,,,,,,,,,,,,,,,,,,,,,,,,,,,,,,,,,,,,,,
,,65c64b9b090c48be1380151a,28,female,2024-04-19_17h37.40.086,stockport_simplified,2022.2.4,MacIntel,19.60784314,661e456ee6de07e70aa9ef7b,66229da05707434e9bc49c23,,,,,,,,,,,,,,,,,,,,,,,,,,,,,,,,,,440.1888,442.1723,"[3,6,5,2,4,1,7,8]","[[-0.3,0.2],[0.3,0.2]]","[[0.125,-0.2],[-0.125,-0.2]]",-0.098125,-0.186669922,1,0,0,1.436,o2_image,442.1731,0,442.6545,442.6545,444.6363,0,0,0,0,1,,,,,,,,,,,,,,,,,,,,,,,,,,,,,,,,,,,,,,,,,,,,,,,,,,
,,65c64b9b090c48be1380151a,28,female,2024-04-19_17h37.40.086,stockport_simplified,2022.2.4,MacIntel,19.60784314,661e456ee6de07e70aa9ef7b,66229da05707434e9bc49c23,,,,,,,,,,,,,,,,,,,,,,,,,,,,,,,,,,,,,,,,,,,,,,,,,,,,,,,,1,3,63,6,1,A,Y,N,o1_image,stimuli/out1.png,stimuli/correct_out1.png,stimuli/out2.png,,,,,,,,,,,,,,,,,,,,,,,,,,,,,,,,,,,,,,
,,65c64b9b090c48be1380151a,28,female,2024-04-19_17h37.40.086,stockport_simplified,2022.2.4,MacIntel,19.60784314,661e456ee6de07e70aa9ef7b,66229da05707434e9bc49c23,,,,,,,,,,,,,,,,,,,,,,,,,,,,,,,,,,444.6366,447.3427,"[3,6,5,2,4,1,7,8]","[[0.3,0.2],[-0.3,0.2]]","[[-0.125,-0.2],[0.125,-0.2]]",0.139262695,-0.165200195,1,0,0,2.1642,o2_image,447.3575,0,447.833,447.8332,449.8015,0,0,0,0,1,,,,,,,,,,,,,,,,,,,,,,,,,,,,,,,,,,,,,,,,,,,,,,,,,,
,,65c64b9b090c48be1380151a,28,female,2024-04-19_17h37.40.086,stockport_simplified,2022.2.4,MacIntel,19.60784314,661e456ee6de07e70aa9ef7b,66229da05707434e9bc49c23,,,,,,,,,,,,,,,,,,,,,,,,,,,,,,,,,,,,,,,,,,,,,,,,,,,,,,,,1,4,64,39,1,A,Y,N,o1_image,stimuli/out1.png,stimuli/correct_out1.png,stimuli/out2.png,,,,,,,,,,,,,,,,,,,,,,,,,,,,,,,,,,,,,,
,,65c64b9b090c48be1380151a,28,female,2024-04-19_17h37.40.086,stockport_simplified,2022.2.4,MacIntel,19.60784314,661e456ee6de07e70aa9ef7b,66229da05707434e9bc49c23,,,,,,,,,,,,,,,,,,,,,,,,,,,,,,,,,,449.8018,450.9437,"[3,6,5,2,4,1,7,8]","[[-0.3,0.2],[0.3,0.2]]","[[0.125,-0.2],[-0.125,-0.2]]",-0.083022461,-0.187797852,1,0,0,0.6166,o2_image,450.9444,1,451.4363,451.4363,453.4291,0,0,0,0,1,,,,,,,,,,,,,,,,,,,,,,,,,,,,,,,,,,,,,,,,,,,,,,,,,,
,,65c64b9b090c48be1380151a,28,female,2024-04-19_17h37.40.086,stockport_simplified,2022.2.4,MacIntel,19.60784314,661e456ee6de07e70aa9ef7b,66229da05707434e9bc49c23,,,,,,,,,,,,,,,,,,,,,,,,,,,,,,,,,,,,,,,,,,,,,,,,,,,,,,,,1,5,65,43,1,B,X,N,o2_image,stimuli/out2.png,stimuli/out1.png,stimuli/correct_out2.png,,,,,,,,,,,,,,,,,,,,,,,,,,,,,,,,,,,,,,
,,65c64b9b090c48be1380151a,28,female,2024-04-19_17h37.40.086,stockport_simplified,2022.2.4,MacIntel,19.60784314,661e456ee6de07e70aa9ef7b,66229da05707434e9bc49c23,,,,,,,,,,,,,,,,,,,,,,,,,,,,,,,,,,453.4295,455.047,"[3,6,5,2,4,1,7,8]","[[-0.3,0.2],[0.3,0.2]]","[[0.125,-0.2],[-0.125,-0.2]]",-0.082734375,-0.187509766,1,0,0,1.0897,o2_image,455.0478,0,455.5527,455.5528,457.5479,0,0,0,0,1,,,,,,,,,,,,,,,,,,,,,,,,,,,,,,,,,,,,,,,,,,,,,,,,,,
,,65c64b9b090c48be1380151a,28,female,2024-04-19_17h37.40.086,stockport_simplified,2022.2.4,MacIntel,19.60784314,661e456ee6de07e70aa9ef7b,66229da05707434e9bc49c23,,,,,,,,,,,,,,,,,,,,,,,,,,,,,,,,,,,,,,,,,,,,,,,,,,,,,,,,1,6,66,51,1,N,M,C,o1_image,stimuli/out1.png,stimuli/correct_out1.png,stimuli/out2.png,,,,,,,,,,,,,,,,,,,,,,,,,,,,,,,,,,,,,,
,,65c64b9b090c48be1380151a,28,female,2024-04-19_17h37.40.086,stockport_simplified,2022.2.4,MacIntel,19.60784314,661e456ee6de07e70aa9ef7b,66229da05707434e9bc49c23,,,,,,,,,,,,,,,,,,,,,,,,,,,,,,,,,,457.5483,460.1759,"[3,6,5,2,4,1,7,8]","[[-0.3,0.2],[0.3,0.2]]","[[0.125,-0.2],[-0.125,-0.2]]",0.116240234,-0.197441406,1,0,0,2.1112,o1_image,460.1768,0,460.6659,460.666,462.6658,0,0,0,0,1,,,,,,,,,,,,,,,,,,,,,,,,,,,,,,,,,,,,,,,,,,,,,,,,,,
,,65c64b9b090c48be1380151a,28,female,2024-04-19_17h37.40.086,stockport_simplified,2022.2.4,MacIntel,19.60784314,661e456ee6de07e70aa9ef7b,66229da05707434e9bc49c23,,,,,,,,,,,,,,,,,,,,,,,,,,,,,,,,,,,,,,,,,,,,,,,,,,,,,,,,1,7,67,17,1,B,Y,N,o2_image,stimuli/out2.png,stimuli/out1.png,stimuli/correct_out2.png,,,,,,,,,,,,,,,,,,,,,,,,,,,,,,,,,,,,,,
,,65c64b9b090c48be1380151a,28,female,2024-04-19_17h37.40.086,stockport_simplified,2022.2.4,MacIntel,19.60784314,661e456ee6de07e70aa9ef7b,66229da05707434e9bc49c23,,,,,,,,,,,,,,,,,,,,,,,,,,,,,,,,,,462.6664,463.7614,"[3,6,5,2,4,1,7,8]","[[-0.3,0.2],[0.3,0.2]]","[[-0.125,-0.2],[0.125,-0.2]]",-0.102900391,-0.193149414,1,0,0,0.5866,o1_image,463.7621,1,464.2387,464.2392,466.2299,0,0,0,0,1,,,,,,,,,,,,,,,,,,,,,,,,,,,,,,,,,,,,,,,,,,,,,,,,,,
,,65c64b9b090c48be1380151a,28,female,2024-04-19_17h37.40.086,stockport_simplified,2022.2.4,MacIntel,19.60784314,661e456ee6de07e70aa9ef7b,66229da05707434e9bc49c23,,,,,,,,,,,,,,,,,,,,,,,,,,,,,,,,,,,,,,,,,,,,,,,,,,,,,,,,1,8,68,22,1,N,M,C,o1_image,stimuli/out1.png,stimuli/correct_out1.png,stimuli/out2.png,,,,,,,,,,,,,,,,,,,,,,,,,,,,,,,,,,,,,,
,,65c64b9b090c48be1380151a,28,female,2024-04-19_17h37.40.086,stockport_simplified,2022.2.4,MacIntel,19.60784314,661e456ee6de07e70aa9ef7b,66229da05707434e9bc49c23,,,,,,,,,,,,,,,,,,,,,,,,,,,,,,,,,,466.2303,469.1147,"[3,6,5,2,4,1,7,8]","[[0.3,0.2],[-0.3,0.2]]","[[-0.125,-0.2],[0.125,-0.2]]",-0.102905273,-0.192260742,1,0,0,2.3603,o1_image,469.1155,0,469.6072,469.6072,471.5697,0,0,0,0,1,,,,,,,,,,,,,,,,,,,,,,,,,,,,,,,,,,,,,,,,,,,,,,,,,,
,,65c64b9b090c48be1380151a,28,female,2024-04-19_17h37.40.086,stockport_simplified,2022.2.4,MacIntel,19.60784314,661e456ee6de07e70aa9ef7b,66229da05707434e9bc49c23,,,,,,,,,,,,,,,,,,,,,,,,,,,,,,,,,,,,,,,,,,,,,,,,,,,,,,,,1,9,69,41,1,B,X,N,o2_image,stimuli/out2.png,stimuli/out1.png,stimuli/correct_out2.png,,,,,,,,,,,,,,,,,,,,,,,,,,,,,,,,,,,,,,
,,65c64b9b090c48be1380151a,28,female,2024-04-19_17h37.40.086,stockport_simplified,2022.2.4,MacIntel,19.60784314,661e456ee6de07e70aa9ef7b,66229da05707434e9bc49c23,,,,,,,,,,,,,,,,,,,,,,,,,,,,,,,,,,471.5702,473.1567,"[3,6,5,2,4,1,7,8]","[[0.3,0.2],[-0.3,0.2]]","[[-0.125,-0.2],[0.125,-0.2]]",0.114472656,-0.199306641,1,0,0,1.0721,o2_image,473.1579,0,473.6416,473.6416,475.6665,0,0,0,0,1,,,,,,,,,,,,,,,,,,,,,,,,,,,,,,,,,,,,,,,,,,,,,,,,,,
,,65c64b9b090c48be1380151a,28,female,2024-04-19_17h37.40.086,stockport_simplified,2022.2.4,MacIntel,19.60784314,661e456ee6de07e70aa9ef7b,66229da05707434e9bc49c23,,,,,,,,,,,,,,,,,,,,,,,,,,,,,,,,,,,,,,,,,,,,,,,,,,,,,,,,1,10,70,31,1,A,X,N,o1_image,stimuli/out1.png,stimuli/correct_out1.png,stimuli/out2.png,,,,,,,,,,,,,,,,,,,,,,,,,,,,,,,,,,,,,,
,,65c64b9b090c48be1380151a,28,female,2024-04-19_17h37.40.086,stockport_simplified,2022.2.4,MacIntel,19.60784314,661e456ee6de07e70aa9ef7b,66229da05707434e9bc49c23,,,,,,,,,,,,,,,,,,,,,,,,,,,,,,,,,,475.6671,477.5131,"[3,6,5,2,4,1,7,8]","[[0.3,0.2],[-0.3,0.2]]","[[0.125,-0.2],[-0.125,-0.2]]",0.032016602,-0.183916016,1,0,0,0.5809,o1_image,477.5135,1,478.0124,478.0124,480.0067,0,0,0,0,1,,,,,,,,,,,,,,,,,,,,,,,,,,,,,,,,,,,,,,,,,,,,,,,,,,
,,65c64b9b090c48be1380151a,28,female,2024-04-19_17h37.40.086,stockport_simplified,2022.2.4,MacIntel,19.60784314,661e456ee6de07e70aa9ef7b,66229da05707434e9bc49c23,,,,,,,,,,,,,,,,,,,,,,,,,,,,,,,,,,,,,,,,,,,,,,,,,,,,,,,,1,11,71,35,1,A,Y,N,o1_image,stimuli/out1.png,stimuli/correct_out1.png,stimuli/out2.png,,,,,,,,,,,,,,,,,,,,,,,,,,,,,,,,,,,,,,
,,65c64b9b090c48be1380151a,28,female,2024-04-19_17h37.40.086,stockport_simplified,2022.2.4,MacIntel,19.60784314,661e456ee6de07e70aa9ef7b,66229da05707434e9bc49c23,,,,,,,,,,,,,,,,,,,,,,,,,,,,,,,,,,480.0071,481.4424,"[3,6,5,2,4,1,7,8]","[[-0.3,0.2],[0.3,0.2]]","[[-0.125,-0.2],[0.125,-0.2]]",0.11105957,-0.212563477,1,0,0,0.9277,o2_image,481.4432,1,481.9305,481.9306,483.8922,0,0,0,0,1,,,,,,,,,,,,,,,,,,,,,,,,,,,,,,,,,,,,,,,,,,,,,,,,,,
,,65c64b9b090c48be1380151a,28,female,2024-04-19_17h37.40.086,stockport_simplified,2022.2.4,MacIntel,19.60784314,661e456ee6de07e70aa9ef7b,66229da05707434e9bc49c23,,,,,,,,,,,,,,,,,,,,,,,,,,,,,,,,,,,,,,,,,,,,,,,,,,,,,,,,1,12,72,27,1,N,M,D,o2_image,stimuli/out2.png,stimuli/out1.png,stimuli/correct_out2.png,,,,,,,,,,,,,,,,,,,,,,,,,,,,,,,,,,,,,,
,,65c64b9b090c48be1380151a,28,female,2024-04-19_17h37.40.086,stockport_simplified,2022.2.4,MacIntel,19.60784314,661e456ee6de07e70aa9ef7b,66229da05707434e9bc49c23,,,,,,,,,,,,,,,,,,,,,,,,,,,,,,,,,,483.8928,485.3084,"[3,6,5,2,4,1,7,8]","[[-0.3,0.2],[0.3,0.2]]","[[-0.125,-0.2],[0.125,-0.2]]",0.096279297,-0.203349609,1,0,0,0.9111,o2_image,485.3089,1,485.7804,485.7804,487.7686,0,0,0,0,1,,,,,,,,,,,,,,,,,,,,,,,,,,,,,,,,,,,,,,,,,,,,,,,,,,
,,65c64b9b090c48be1380151a,28,female,2024-04-19_17h37.40.086,stockport_simplified,2022.2.4,MacIntel,19.60784314,661e456ee6de07e70aa9ef7b,66229da05707434e9bc49c23,,,,,,,,,,,,,,,,,,,,,,,,,,,,,,,,,,,,,,,,,,,,,,,,,,,,,,,,1,13,73,28,1,N,M,D,o2_image,stimuli/out2.png,stimuli/out1.png,stimuli/correct_out2.png,,,,,,,,,,,,,,,,,,,,,,,,,,,,,,,,,,,,,,
,,65c64b9b090c48be1380151a,28,female,2024-04-19_17h37.40.086,stockport_simplified,2022.2.4,MacIntel,19.60784314,661e456ee6de07e70aa9ef7b,66229da05707434e9bc49c23,,,,,,,,,,,,,,,,,,,,,,,,,,,,,,,,,,487.7691,490.5151,"[3,6,5,2,4,1,7,8]","[[0.3,0.2],[-0.3,0.2]]","[[0.125,-0.2],[-0.125,-0.2]]",0.096279297,-0.203349609,1,0,0,2.236,o1_image,490.5299,0,491.0016,491.0017,492.9702,0,0,0,0,1,,,,,,,,,,,,,,,,,,,,,,,,,,,,,,,,,,,,,,,,,,,,,,,,,,
,,65c64b9b090c48be1380151a,28,female,2024-04-19_17h37.40.086,stockport_simplified,2022.2.4,MacIntel,19.60784314,661e456ee6de07e70aa9ef7b,66229da05707434e9bc49c23,,,,,,,,,,,,,,,,,,,,,,,,,,,,,,,,,,,,,,,,,,,,,,,,,,,,,,,,1,14,74,49,1,B,Y,N,o2_image,stimuli/out2.png,stimuli/out1.png,stimuli/correct_out2.png,,,,,,,,,,,,,,,,,,,,,,,,,,,,,,,,,,,,,,
,,65c64b9b090c48be1380151a,28,female,2024-04-19_17h37.40.086,stockport_simplified,2022.2.4,MacIntel,19.60784314,661e456ee6de07e70aa9ef7b,66229da05707434e9bc49c23,,,,,,,,,,,,,,,,,,,,,,,,,,,,,,,,,,492.9707,495.844,"[3,6,5,2,4,1,7,8]","[[-0.3,0.2],[0.3,0.2]]","[[-0.125,-0.2],[0.125,-0.2]]",0.094980469,-0.203349609,1,0,0,2.3665,o2_image,495.8449,1,496.3207,496.3208,498.3108,0,0,0,0,1,,,,,,,,,,,,,,,,,,,,,,,,,,,,,,,,,,,,,,,,,,,,,,,,,,
,,65c64b9b090c48be1380151a,28,female,2024-04-19_17h37.40.086,stockport_simplified,2022.2.4,MacIntel,19.60784314,661e456ee6de07e70aa9ef7b,66229da05707434e9bc49c23,,,,,,,,,,,,,,,,,,,,,,,,,,,,,,,,,,,,,,,,,,,,,,,,,,,,,,,,1,15,75,19,1,B,Y,N,o2_image,stimuli/out2.png,stimuli/out1.png,stimuli/correct_out2.png,,,,,,,,,,,,,,,,,,,,,,,,,,,,,,,,,,,,,,
,,65c64b9b090c48be1380151a,28,female,2024-04-19_17h37.40.086,stockport_simplified,2022.2.4,MacIntel,19.60784314,661e456ee6de07e70aa9ef7b,66229da05707434e9bc49c23,,,,,,,,,,,,,,,,,,,,,,,,,,,,,,,,,,498.3116,499.7108,"[3,6,5,2,4,1,7,8]","[[-0.3,0.2],[0.3,0.2]]","[[-0.125,-0.2],[0.125,-0.2]]",0.094980469,-0.203349609,1,0,0,0.877,o2_image,499.7117,0,500.1927,500.1927,502.1906,0,0,0,0,1,,,,,,,,,,,,,,,,,,,,,,,,,,,,,,,,,,,,,,,,,,,,,,,,,,
,,65c64b9b090c48be1380151a,28,female,2024-04-19_17h37.40.086,stockport_simplified,2022.2.4,MacIntel,19.60784314,661e456ee6de07e70aa9ef7b,66229da05707434e9bc49c23,,,,,,,,,,,,,,,,,,,,,,,,,,,,,,,,,,,,,,,,,,,,,,,,,,,,,,,,1,16,76,9,1,A,Y,N,o1_image,stimuli/out1.png,stimuli/correct_out1.png,stimuli/out2.png,,,,,,,,,,,,,,,,,,,,,,,,,,,,,,,,,,,,,,
,,65c64b9b090c48be1380151a,28,female,2024-04-19_17h37.40.086,stockport_simplified,2022.2.4,MacIntel,19.60784314,661e456ee6de07e70aa9ef7b,66229da05707434e9bc49c23,,,,,,,,,,,,,,,,,,,,,,,,,,,,,,,,,,502.1912,504.3185,"[3,6,5,2,4,1,7,8]","[[0.3,0.2],[-0.3,0.2]]","[[0.125,-0.2],[-0.125,-0.2]]",0.094980469,-0.203349609,1,0,0,1.6044,o1_image,504.3193,0,504.807,504.807,506.8167,0,0,0,0,1,,,,,,,,,,,,,,,,,,,,,,,,,,,,,,,,,,,,,,,,,,,,,,,,,,
,,65c64b9b090c48be1380151a,28,female,2024-04-19_17h37.40.086,stockport_simplified,2022.2.4,MacIntel,19.60784314,661e456ee6de07e70aa9ef7b,66229da05707434e9bc49c23,,,,,,,,,,,,,,,,,,,,,,,,,,,,,,,,,,,,,,,,,,,,,,,,,,,,,,,,1,17,77,12,1,B,X,N,o2_image,stimuli/out2.png,stimuli/out1.png,stimuli/correct_out2.png,,,,,,,,,,,,,,,,,,,,,,,,,,,,,,,,,,,,,,
,,65c64b9b090c48be1380151a,28,female,2024-04-19_17h37.40.086,stockport_simplified,2022.2.4,MacIntel,19.60784314,661e456ee6de07e70aa9ef7b,66229da05707434e9bc49c23,,,,,,,,,,,,,,,,,,,,,,,,,,,,,,,,,,506.8169,508.8308,"[3,6,5,2,4,1,7,8]","[[0.3,0.2],[-0.3,0.2]]","[[-0.125,-0.2],[0.125,-0.2]]",0.123203125,-0.222001953,1,0,0,1.5103,o2_image,508.8315,1,509.3276,509.3276,511.2995,0,0,0,0,1,,,,,,,,,,,,,,,,,,,,,,,,,,,,,,,,,,,,,,,,,,,,,,,,,,
,,65c64b9b090c48be1380151a,28,female,2024-04-19_17h37.40.086,stockport_simplified,2022.2.4,MacIntel,19.60784314,661e456ee6de07e70aa9ef7b,66229da05707434e9bc49c23,,,,,,,,,,,,,,,,,,,,,,,,,,,,,,,,,,,,,,,,,,,,,,,,,,,,,,,,1,18,78,48,1,B,Y,N,o2_image,stimuli/out2.png,stimuli/out1.png,stimuli/correct_out2.png,,,,,,,,,,,,,,,,,,,,,,,,,,,,,,,,,,,,,,
,,65c64b9b090c48be1380151a,28,female,2024-04-19_17h37.40.086,stockport_simplified,2022.2.4,MacIntel,19.60784314,661e456ee6de07e70aa9ef7b,66229da05707434e9bc49c23,,,,,,,,,,,,,,,,,,,,,,,,,,,,,,,,,,511.2999,513.0476,"[3,6,5,2,4,1,7,8]","[[0.3,0.2],[-0.3,0.2]]","[[0.125,-0.2],[-0.125,-0.2]]",0.123203125,-0.222001953,1,0,0,1.212,o1_image,513.0486,1,513.5439,513.5439,515.5385,0,0,0,0,1,,,,,,,,,,,,,,,,,,,,,,,,,,,,,,,,,,,,,,,,,,,,,,,,,,
,,65c64b9b090c48be1380151a,28,female,2024-04-19_17h37.40.086,stockport_simplified,2022.2.4,MacIntel,19.60784314,661e456ee6de07e70aa9ef7b,66229da05707434e9bc49c23,,,,,,,,,,,,,,,,,,,,,,,,,,,,,,,,,,,,,,,,,,,,,,,,,,,,,,,,1,19,79,7,1,A,Y,N,o1_image,stimuli/out1.png,stimuli/correct_out1.png,stimuli/out2.png,,,,,,,,,,,,,,,,,,,,,,,,,,,,,,,,,,,,,,
,,65c64b9b090c48be1380151a,28,female,2024-04-19_17h37.40.086,stockport_simplified,2022.2.4,MacIntel,19.60784314,661e456ee6de07e70aa9ef7b,66229da05707434e9bc49c23,,,,,,,,,,,,,,,,,,,,,,,,,,,,,,,,,,515.5391,519.6555,"[3,6,5,2,4,1,7,8]","[[-0.3,0.2],[0.3,0.2]]","[[-0.125,-0.2],[0.125,-0.2]]",-0.16387207,-0.226425781,1,0,0,3.6094,o1_image,519.6707,0,520.1475,520.1475,522.1329,0,0,0,0,1,,,,,,,,,,,,,,,,,,,,,,,,,,,,,,,,,,,,,,,,,,,,,,,,,,
,,65c64b9b090c48be1380151a,28,female,2024-04-19_17h37.40.086,stockport_simplified,2022.2.4,MacIntel,19.60784314,661e456ee6de07e70aa9ef7b,66229da05707434e9bc49c23,,,,,,,,,,,,,,,,,,,,,,,,,,,,,,,,,,,,,,,,,,,,,,,,,,,,,,,,1,20,80,10,1,B,X,N,o2_image,stimuli/out2.png,stimuli/out1.png,stimuli/correct_out2.png,,,,,,,,,,,,,,,,,,,,,,,,,,,,,,,,,,,,,,
,,65c64b9b090c48be1380151a,28,female,2024-04-19_17h37.40.086,stockport_simplified,2022.2.4,MacIntel,19.60784314,661e456ee6de07e70aa9ef7b,66229da05707434e9bc49c23,,,,,,,,,,,,,,,,,,,,,,,,,,,,,,,,,,522.1334,524.3148,"[3,6,5,2,4,1,7,8]","[[0.3,0.2],[-0.3,0.2]]","[[-0.125,-0.2],[0.125,-0.2]]",0.156308594,-0.218637695,1,0,0,1.6531,o2_image,524.3164,1,524.811,524.8111,526.7891,0,0,0,0,1,,,,,,,,,,,,,,,,,,,,,,,,,,,,,,,,,,,,,,,,,,,,,,,,,,
,,65c64b9b090c48be1380151a,28,female,2024-04-19_17h37.40.086,stockport_simplified,2022.2.4,MacIntel,19.60784314,661e456ee6de07e70aa9ef7b,66229da05707434e9bc49c23,,,,,,,,,,,,,,,,,,,,,,,,,,,,,,,,,,,,,,,,,,,,,,,,,,,,,,,,1,21,81,58,1,N,M,D,o2_image,stimuli/out2.png,stimuli/out1.png,stimuli/correct_out2.png,,,,,,,,,,,,,,,,,,,,,,,,,,,,,,,,,,,,,,
,,65c64b9b090c48be1380151a,28,female,2024-04-19_17h37.40.086,stockport_simplified,2022.2.4,MacIntel,19.60784314,661e456ee6de07e70aa9ef7b,66229da05707434e9bc49c23,,,,,,,,,,,,,,,,,,,,,,,,,,,,,,,,,,526.7895,528.0429,"[3,6,5,2,4,1,7,8]","[[0.3,0.2],[-0.3,0.2]]","[[-0.125,-0.2],[0.125,-0.2]]",0.156308594,-0.218637695,1,0,0,0.7481,o2_image,528.0437,1,528.5325,528.5326,530.5427,0,0,0,0,1,,,,,,,,,,,,,,,,,,,,,,,,,,,,,,,,,,,,,,,,,,,,,,,,,,
,,65c64b9b090c48be1380151a,28,female,2024-04-19_17h37.40.086,stockport_simplified,2022.2.4,MacIntel,19.60784314,661e456ee6de07e70aa9ef7b,66229da05707434e9bc49c23,,,,,,,,,,,,,,,,,,,,,,,,,,,,,,,,,,,,,,,,,,,,,,,,,,,,,,,,1,22,82,57,1,N,M,D,o2_image,stimuli/out2.png,stimuli/out1.png,stimuli/correct_out2.png,,,,,,,,,,,,,,,,,,,,,,,,,,,,,,,,,,,,,,
,,65c64b9b090c48be1380151a,28,female,2024-04-19_17h37.40.086,stockport_simplified,2022.2.4,MacIntel,19.60784314,661e456ee6de07e70aa9ef7b,66229da05707434e9bc49c23,,,,,,,,,,,,,,,,,,,,,,,,,,,,,,,,,,530.5431,533.6462,"[3,6,5,2,4,1,7,8]","[[-0.3,0.2],[0.3,0.2]]","[[0.125,-0.2],[-0.125,-0.2]]",-0.122333984,-0.2553125,1,0,0,2.5718,o2_image,533.66,0,534.1797,534.1797,536.1584,0,0,0,0,1,,,,,,,,,,,,,,,,,,,,,,,,,,,,,,,,,,,,,,,,,,,,,,,,,,
,,65c64b9b090c48be1380151a,28,female,2024-04-19_17h37.40.086,stockport_simplified,2022.2.4,MacIntel,19.60784314,661e456ee6de07e70aa9ef7b,66229da05707434e9bc49c23,,,,,,,,,,,,,,,,,,,,,,,,,,,,,,,,,,,,,,,,,,,,,,,,,,,,,,,,1,23,83,53,1,N,M,C,o1_image,stimuli/out1.png,stimuli/correct_out1.png,stimuli/out2.png,,,,,,,,,,,,,,,,,,,,,,,,,,,,,,,,,,,,,,
,,65c64b9b090c48be1380151a,28,female,2024-04-19_17h37.40.086,stockport_simplified,2022.2.4,MacIntel,19.60784314,661e456ee6de07e70aa9ef7b,66229da05707434e9bc49c23,,,,,,,,,,,,,,,,,,,,,,,,,,,,,,,,,,536.1587,538.5388,"[3,6,5,2,4,1,7,8]","[[-0.3,0.2],[0.3,0.2]]","[[0.125,-0.2],[-0.125,-0.2]]",0.217045898,-0.169575195,1,0,0,1.0335,o1_image,538.5398,0,538.9635,538.9635,540.9469,0,0,0,0,1,,,,,,,,,,,,,,,,,,,,,,,,,,,,,,,,,,,,,,,,,,,,,,,,,,
,,65c64b9b090c48be1380151a,28,female,2024-04-19_17h37.40.086,stockport_simplified,2022.2.4,MacIntel,19.60784314,661e456ee6de07e70aa9ef7b,66229da05707434e9bc49c23,,,,,,,,,,,,,,,,,,,,,,,,,,,,,,,,,,,,,,,,,,,,,,,,,,,,,,,,1,24,84,18,1,B,Y,N,o2_image,stimuli/out2.png,stimuli/out1.png,stimuli/correct_out2.png,,,,,,,,,,,,,,,,,,,,,,,,,,,,,,,,,,,,,,
,,65c64b9b090c48be1380151a,28,female,2024-04-19_17h37.40.086,stockport_simplified,2022.2.4,MacIntel,19.60784314,661e456ee6de07e70aa9ef7b,66229da05707434e9bc49c23,,,,,,,,,,,,,,,,,,,,,,,,,,,,,,,,,,540.9474,541.9973,"[3,6,5,2,4,1,7,8]","[[0.3,0.2],[-0.3,0.2]]","[[0.125,-0.2],[-0.125,-0.2]]",0.167719727,-0.198173828,1,0,0,0.5271,o1_image,541.998,1,542.5002,542.5002,544.4816,0,0,0,0,1,,,,,,,,,,,,,,,,,,,,,,,,,,,,,,,,,,,,,,,,,,,,,,,,,,
,,65c64b9b090c48be1380151a,28,female,2024-04-19_17h37.40.086,stockport_simplified,2022.2.4,MacIntel,19.60784314,661e456ee6de07e70aa9ef7b,66229da05707434e9bc49c23,,,,,,,,,,,,,,,,,,,,,,,,,,,,,,,,,,,,,,,,,,,,,,,,,,,,,,,,1,25,85,38,1,A,Y,N,o1_image,stimuli/out1.png,stimuli/correct_out1.png,stimuli/out2.png,,,,,,,,,,,,,,,,,,,,,,,,,,,,,,,,,,,,,,
,,65c64b9b090c48be1380151a,28,female,2024-04-19_17h37.40.086,stockport_simplified,2022.2.4,MacIntel,19.60784314,661e456ee6de07e70aa9ef7b,66229da05707434e9bc49c23,,,,,,,,,,,,,,,,,,,,,,,,,,,,,,,,,,544.4821,546.035,"[3,6,5,2,4,1,7,8]","[[-0.3,0.2],[0.3,0.2]]","[[0.125,-0.2],[-0.125,-0.2]]",0.16652832,-0.198173828,1,0,0,0.9965,o1_image,546.0358,0,546.5265,546.5266,548.5201,0,0,0,0,1,,,,,,,,,,,,,,,,,,,,,,,,,,,,,,,,,,,,,,,,,,,,,,,,,,
,,65c64b9b090c48be1380151a,28,female,2024-04-19_17h37.40.086,stockport_simplified,2022.2.4,MacIntel,19.60784314,661e456ee6de07e70aa9ef7b,66229da05707434e9bc49c23,,,,,,,,,,,,,,,,,,,,,,,,,,,,,,,,,,,,,,,,,,,,,,,,,,,,,,,,1,26,86,46,1,B,Y,N,o2_image,stimuli/out2.png,stimuli/out1.png,stimuli/correct_out2.png,,,,,,,,,,,,,,,,,,,,,,,,,,,,,,,,,,,,,,
,,65c64b9b090c48be1380151a,28,female,2024-04-19_17h37.40.086,stockport_simplified,2022.2.4,MacIntel,19.60784314,661e456ee6de07e70aa9ef7b,66229da05707434e9bc49c23,,,,,,,,,,,,,,,,,,,,,,,,,,,,,,,,,,548.5206,550.3453,"[3,6,5,2,4,1,7,8]","[[-0.3,0.2],[0.3,0.2]]","[[0.125,-0.2],[-0.125,-0.2]]",0.16652832,-0.198173828,1,0,0,1.3145,o1_image,550.3462,0,550.8281,550.8282,552.8253,0,0,0,0,1,,,,,,,,,,,,,,,,,,,,,,,,,,,,,,,,,,,,,,,,,,,,,,,,,,
,,65c64b9b090c48be1380151a,28,female,2024-04-19_17h37.40.086,stockport_simplified,2022.2.4,MacIntel,19.60784314,661e456ee6de07e70aa9ef7b,66229da05707434e9bc49c23,,,,,,,,,,,,,,,,,,,,,,,,,,,,,,,,,,,,,,,,,,,,,,,,,,,,,,,,1,27,87,26,1,N,M,D,o2_image,stimuli/out2.png,stimuli/out1.png,stimuli/correct_out2.png,,,,,,,,,,,,,,,,,,,,,,,,,,,,,,,,,,,,,,
,,65c64b9b090c48be1380151a,28,female,2024-04-19_17h37.40.086,stockport_simplified,2022.2.4,MacIntel,19.60784314,661e456ee6de07e70aa9ef7b,66229da05707434e9bc49c23,,,,,,,,,,,,,,,,,,,,,,,,,,,,,,,,,,552.8256,554.1495,"[3,6,5,2,4,1,7,8]","[[-0.3,0.2],[0.3,0.2]]","[[-0.125,-0.2],[0.125,-0.2]]",0.165566406,-0.200546875,1,0,0,0.8137,o2_image,554.1502,1,554.6473,554.6474,556.6554,0,0,0,0,1,,,,,,,,,,,,,,,,,,,,,,,,,,,,,,,,,,,,,,,,,,,,,,,,,,
,,65c64b9b090c48be1380151a,28,female,2024-04-19_17h37.40.086,stockport_simplified,2022.2.4,MacIntel,19.60784314,661e456ee6de07e70aa9ef7b,66229da05707434e9bc49c23,,,,,,,,,,,,,,,,,,,,,,,,,,,,,,,,,,,,,,,,,,,,,,,,,,,,,,,,1,28,88,45,1,B,Y,N,o2_image,stimuli/out2.png,stimuli/out1.png,stimuli/correct_out2.png,,,,,,,,,,,,,,,,,,,,,,,,,,,,,,,,,,,,,,
,,65c64b9b090c48be1380151a,28,female,2024-04-19_17h37.40.086,stockport_simplified,2022.2.4,MacIntel,19.60784314,661e456ee6de07e70aa9ef7b,66229da05707434e9bc49c23,,,,,,,,,,,,,,,,,,,,,,,,,,,,,,,,,,556.6559,559.9698,"[3,6,5,2,4,1,7,8]","[[0.3,0.2],[-0.3,0.2]]","[[0.125,-0.2],[-0.125,-0.2]]",-0.084829102,-0.211586914,1,0,0,2.7877,o2_image,559.9854,0,560.4771,560.4771,562.463,0,0,0,0,1,,,,,,,,,,,,,,,,,,,,,,,,,,,,,,,,,,,,,,,,,,,,,,,,,,
,,65c64b9b090c48be1380151a,28,female,2024-04-19_17h37.40.086,stockport_simplified,2022.2.4,MacIntel,19.60784314,661e456ee6de07e70aa9ef7b,66229da05707434e9bc49c23,,,,,,,,,,,,,,,,,,,,,,,,,,,,,,,,,,,,,,,,,,,,,,,,,,,,,,,,1,29,89,21,1,N,M,C,o1_image,stimuli/out1.png,stimuli/correct_out1.png,stimuli/out2.png,,,,,,,,,,,,,,,,,,,,,,,,,,,,,,,,,,,,,,
,,65c64b9b090c48be1380151a,28,female,2024-04-19_17h37.40.086,stockport_simplified,2022.2.4,MacIntel,19.60784314,661e456ee6de07e70aa9ef7b,66229da05707434e9bc49c23,,,,,,,,,,,,,,,,,,,,,,,,,,,,,,,,,,562.4634,566.2403,"[3,6,5,2,4,1,7,8]","[[-0.3,0.2],[0.3,0.2]]","[[0.125,-0.2],[-0.125,-0.2]]",0.119140625,-0.159086914,1,0,0,3.2676,o1_image,566.2569,1,566.7507,566.7508,568.7537,0,0,0,0,1,,,,,,,,,,,,,,,,,,,,,,,,,,,,,,,,,,,,,,,,,,,,,,,,,,
,,65c64b9b090c48be1380151a,28,female,2024-04-19_17h37.40.086,stockport_simplified,2022.2.4,MacIntel,19.60784314,661e456ee6de07e70aa9ef7b,66229da05707434e9bc49c23,,,,,,,,,,,,,,,,,,,,,,,,,,,,,,,,,,,,,,,,,,,,,,,,,,,,,,,,1,30,90,4,1,A,X,N,o1_image,stimuli/out1.png,stimuli/correct_out1.png,stimuli/out2.png,,,,,,,,,,,,,,,,,,,,,,,,,,,,,,,,,,,,,,
,,65c64b9b090c48be1380151a,28,female,2024-04-19_17h37.40.086,stockport_simplified,2022.2.4,MacIntel,19.60784314,661e456ee6de07e70aa9ef7b,66229da05707434e9bc49c23,,,,,,,,,,,,,,,,,,,,,,,,,,,,,,,,,,568.7545,572.0805,"[3,6,5,2,4,1,7,8]","[[-0.3,0.2],[0.3,0.2]]","[[0.125,-0.2],[-0.125,-0.2]]",-0.118037109,-0.163359375,1,0,0,2.7746,o2_image,572.0946,0,572.591,572.5911,574.6079,0,0,0,0,1,,,,,,,,,,,,,,,,,,,,,,,,,,,,,,,,,,,,,,,,,,,,,,,,,,
,,65c64b9b090c48be1380151a,28,female,2024-04-19_17h37.40.086,stockport_simplified,2022.2.4,MacIntel,19.60784314,661e456ee6de07e70aa9ef7b,66229da05707434e9bc49c23,,,,,,,,,,,,,,,,,,,,,,,,,,,,,,,,,,,,,,,,,,,,,,,,,,,,,,,,1,31,91,24,1,N,M,C,o1_image,stimuli/out1.png,stimuli/correct_out1.png,stimuli/out2.png,,,,,,,,,,,,,,,,,,,,,,,,,,,,,,,,,,,,,,
,,65c64b9b090c48be1380151a,28,female,2024-04-19_17h37.40.086,stockport_simplified,2022.2.4,MacIntel,19.60784314,661e456ee6de07e70aa9ef7b,66229da05707434e9bc49c23,,,,,,,,,,,,,,,,,,,,,,,,,,,,,,,,,,574.6084,576.8638,"[3,6,5,2,4,1,7,8]","[[-0.3,0.2],[0.3,0.2]]","[[-0.125,-0.2],[0.125,-0.2]]",0.141079102,-0.18809082,1,0,0,1.7263,o2_image,576.8645,1,577.3473,577.3473,579.33,0,0,0,0,1,,,,,,,,,,,,,,,,,,,,,,,,,,,,,,,,,,,,,,,,,,,,,,,,,,
,,65c64b9b090c48be1380151a,28,female,2024-04-19_17h37.40.086,stockport_simplified,2022.2.4,MacIntel,19.60784314,661e456ee6de07e70aa9ef7b,66229da05707434e9bc49c23,,,,,,,,,,,,,,,,,,,,,,,,,,,,,,,,,,,,,,,,,,,,,,,,,,,,,,,,1,32,92,25,1,N,M,D,o2_image,stimuli/out2.png,stimuli/out1.png,stimuli/correct_out2.png,,,,,,,,,,,,,,,,,,,,,,,,,,,,,,,,,,,,,,
,,65c64b9b090c48be1380151a,28,female,2024-04-19_17h37.40.086,stockport_simplified,2022.2.4,MacIntel,19.60784314,661e456ee6de07e70aa9ef7b,66229da05707434e9bc49c23,,,,,,,,,,,,,,,,,,,,,,,,,,,,,,,,,,579.3305,581.5676,"[3,6,5,2,4,1,7,8]","[[0.3,0.2],[-0.3,0.2]]","[[-0.125,-0.2],[0.125,-0.2]]",0.141079102,-0.18809082,1,0,0,1.7337,o2_image,581.5686,0,582.0473,582.0474,584.0414,0,0,0,0,1,,,,,,,,,,,,,,,,,,,,,,,,,,,,,,,,,,,,,,,,,,,,,,,,,,
,,65c64b9b090c48be1380151a,28,female,2024-04-19_17h37.40.086,stockport_simplified,2022.2.4,MacIntel,19.60784314,661e456ee6de07e70aa9ef7b,66229da05707434e9bc49c23,,,,,,,,,,,,,,,,,,,,,,,,,,,,,,,,,,,,,,,,,,,,,,,,,,,,,,,,1,33,93,32,1,A,X,N,o1_image,stimuli/out1.png,stimuli/correct_out1.png,stimuli/out2.png,,,,,,,,,,,,,,,,,,,,,,,,,,,,,,,,,,,,,,
,,65c64b9b090c48be1380151a,28,female,2024-04-19_17h37.40.086,stockport_simplified,2022.2.4,MacIntel,19.60784314,661e456ee6de07e70aa9ef7b,66229da05707434e9bc49c23,,,,,,,,,,,,,,,,,,,,,,,,,,,,,,,,,,584.0419,585.7716,"[3,6,5,2,4,1,7,8]","[[0.3,0.2],[-0.3,0.2]]","[[-0.125,-0.2],[0.125,-0.2]]",0.141079102,-0.188374023,1,0,0,1.2248,o2_image,585.7724,0,586.2698,586.2699,588.2643,0,0,0,0,1,,,,,,,,,,,,,,,,,,,,,,,,,,,,,,,,,,,,,,,,,,,,,,,,,,
,,65c64b9b090c48be1380151a,28,female,2024-04-19_17h37.40.086,stockport_simplified,2022.2.4,MacIntel,19.60784314,661e456ee6de07e70aa9ef7b,66229da05707434e9bc49c23,,,,,,,,,,,,,,,,,,,,,,,,,,,,,,,,,,,,,,,,,,,,,,,,,,,,,,,,1,34,94,3,1,A,X,N,o1_image,stimuli/out1.png,stimuli/correct_out1.png,stimuli/out2.png,,,,,,,,,,,,,,,,,,,,,,,,,,,,,,,,,,,,,,
,,65c64b9b090c48be1380151a,28,female,2024-04-19_17h37.40.086,stockport_simplified,2022.2.4,MacIntel,19.60784314,661e456ee6de07e70aa9ef7b,66229da05707434e9bc49c23,,,,,,,,,,,,,,,,,,,,,,,,,,,,,,,,,,588.2647,589.1687,"[3,6,5,2,4,1,7,8]","[[0.3,0.2],[-0.3,0.2]]","[[0.125,-0.2],[-0.125,-0.2]]",0.141079102,-0.188955078,1,0,0,0.394,o1_image,589.1695,0,589.6587,589.6588,591.6554,0,0,0,0,1,,,,,,,,,,,,,,,,,,,,,,,,,,,,,,,,,,,,,,,,,,,,,,,,,,
,,65c64b9b090c48be1380151a,28,female,2024-04-19_17h37.40.086,stockport_simplified,2022.2.4,MacIntel,19.60784314,661e456ee6de07e70aa9ef7b,66229da05707434e9bc49c23,,,,,,,,,,,,,,,,,,,,,,,,,,,,,,,,,,,,,,,,,,,,,,,,,,,,,,,,1,35,95,56,1,N,M,D,o2_image,stimuli/out2.png,stimuli/out1.png,stimuli/correct_out2.png,,,,,,,,,,,,,,,,,,,,,,,,,,,,,,,,,,,,,,
,,65c64b9b090c48be1380151a,28,female,2024-04-19_17h37.40.086,stockport_simplified,2022.2.4,MacIntel,19.60784314,661e456ee6de07e70aa9ef7b,66229da05707434e9bc49c23,,,,,,,,,,,,,,,,,,,,,,,,,,,,,,,,,,591.6559,592.9884,"[3,6,5,2,4,1,7,8]","[[-0.3,0.2],[0.3,0.2]]","[[0.125,-0.2],[-0.125,-0.2]]",0.141079102,-0.188666992,1,0,0,0.8274,o1_image,592.9893,1,593.5111,593.5111,595.5171,0,0,0,0,1,,,,,,,,,,,,,,,,,,,,,,,,,,,,,,,,,,,,,,,,,,,,,,,,,,
,,65c64b9b090c48be1380151a,28,female,2024-04-19_17h37.40.086,stockport_simplified,2022.2.4,MacIntel,19.60784314,661e456ee6de07e70aa9ef7b,66229da05707434e9bc49c23,,,,,,,,,,,,,,,,,,,,,,,,,,,,,,,,,,,,,,,,,,,,,,,,,,,,,,,,1,36,96,36,1,A,Y,N,o1_image,stimuli/out1.png,stimuli/correct_out1.png,stimuli/out2.png,,,,,,,,,,,,,,,,,,,,,,,,,,,,,,,,,,,,,,
,,65c64b9b090c48be1380151a,28,female,2024-04-19_17h37.40.086,stockport_simplified,2022.2.4,MacIntel,19.60784314,661e456ee6de07e70aa9ef7b,66229da05707434e9bc49c23,,,,,,,,,,,,,,,,,,,,,,,,,,,,,,,,,,595.5177,596.5611,"[3,6,5,2,4,1,7,8]","[[0.3,0.2],[-0.3,0.2]]","[[-0.125,-0.2],[0.125,-0.2]]",0.141079102,-0.188666992,1,0,0,0.5351,o2_image,596.562,0,597.0458,597.0458,599.0299,0,0,0,0,1,,,,,,,,,,,,,,,,,,,,,,,,,,,,,,,,,,,,,,,,,,,,,,,,,,
,,65c64b9b090c48be1380151a,28,female,2024-04-19_17h37.40.086,stockport_simplified,2022.2.4,MacIntel,19.60784314,661e456ee6de07e70aa9ef7b,66229da05707434e9bc49c23,,,,,,,,,,,,,,,,,,,,,,,,,,,,,,,,,,,,,,,,,,,,,,,,,,,,,,,,1,37,97,2,1,A,X,N,o1_image,stimuli/out1.png,stimuli/correct_out1.png,stimuli/out2.png,,,,,,,,,,,,,,,,,,,,,,,,,,,,,,,,,,,,,,
,,65c64b9b090c48be1380151a,28,female,2024-04-19_17h37.40.086,stockport_simplified,2022.2.4,MacIntel,19.60784314,661e456ee6de07e70aa9ef7b,66229da05707434e9bc49c23,,,,,,,,,,,,,,,,,,,,,,,,,,,,,,,,,,599.0302,601.3054,"[3,6,5,2,4,1,7,8]","[[-0.3,0.2],[0.3,0.2]]","[[-0.125,-0.2],[0.125,-0.2]]",0.138857422,-0.187729492,1,0,0,1.7634,o2_image,601.3062,1,601.7849,601.785,603.7688,0,0,0,0,1,,,,,,,,,,,,,,,,,,,,,,,,,,,,,,,,,,,,,,,,,,,,,,,,,,
,,65c64b9b090c48be1380151a,28,female,2024-04-19_17h37.40.086,stockport_simplified,2022.2.4,MacIntel,19.60784314,661e456ee6de07e70aa9ef7b,66229da05707434e9bc49c23,,,,,,,,,,,,,,,,,,,,,,,,,,,,,,,,,,,,,,,,,,,,,,,,,,,,,,,,1,38,98,40,1,B,X,N,o2_image,stimuli/out2.png,stimuli/out1.png,stimuli/correct_out2.png,,,,,,,,,,,,,,,,,,,,,,,,,,,,,,,,,,,,,,
,,65c64b9b090c48be1380151a,28,female,2024-04-19_17h37.40.086,stockport_simplified,2022.2.4,MacIntel,19.60784314,661e456ee6de07e70aa9ef7b,66229da05707434e9bc49c23,,,,,,,,,,,,,,,,,,,,,,,,,,,,,,,,,,603.7692,605.0066,"[3,6,5,2,4,1,7,8]","[[-0.3,0.2],[0.3,0.2]]","[[0.125,-0.2],[-0.125,-0.2]]",0.139140625,-0.187729492,1,0,0,0.731,o1_image,605.0077,0,605.5007,605.5007,607.5127,0,0,0,0,1,,,,,,,,,,,,,,,,,,,,,,,,,,,,,,,,,,,,,,,,,,,,,,,,,,
,,65c64b9b090c48be1380151a,28,female,2024-04-19_17h37.40.086,stockport_simplified,2022.2.4,MacIntel,19.60784314,661e456ee6de07e70aa9ef7b,66229da05707434e9bc49c23,,,,,,,,,,,,,,,,,,,,,,,,,,,,,,,,,,,,,,,,,,,,,,,,,,,,,,,,1,39,99,11,1,B,X,N,o2_image,stimuli/out2.png,stimuli/out1.png,stimuli/correct_out2.png,,,,,,,,,,,,,,,,,,,,,,,,,,,,,,,,,,,,,,
,,65c64b9b090c48be1380151a,28,female,2024-04-19_17h37.40.086,stockport_simplified,2022.2.4,MacIntel,19.60784314,661e456ee6de07e70aa9ef7b,66229da05707434e9bc49c23,,,,,,,,,,,,,,,,,,,,,,,,,,,,,,,,,,607.5137,609.9503,"[3,6,5,2,4,1,7,8]","[[-0.3,0.2],[0.3,0.2]]","[[0.125,-0.2],[-0.125,-0.2]]",0.139140625,-0.187729492,1,0,0,1.8804,o1_image,609.9512,1,610.4486,610.4486,612.4474,0,0,0,0,1,,,,,,,,,,,,,,,,,,,,,,,,,,,,,,,,,,,,,,,,,,,,,,,,,,
,,65c64b9b090c48be1380151a,28,female,2024-04-19_17h37.40.086,stockport_simplified,2022.2.4,MacIntel,19.60784314,661e456ee6de07e70aa9ef7b,66229da05707434e9bc49c23,,,,,,,,,,,,,,,,,,,,,,,,,,,,,,,,,,,,,,,,,,,,,,,,,,,,,,,,1,40,100,30,1,A,X,N,o1_image,stimuli/out1.png,stimuli/correct_out1.png,stimuli/out2.png,,,,,,,,,,,,,,,,,,,,,,,,,,,,,,,,,,,,,,
,,65c64b9b090c48be1380151a,28,female,2024-04-19_17h37.40.086,stockport_simplified,2022.2.4,MacIntel,19.60784314,661e456ee6de07e70aa9ef7b,66229da05707434e9bc49c23,,,,,,,,,,,,,,,,,,,,,,,,,,,,,,,,,,612.4479,614.9472,"[3,6,5,2,4,1,7,8]","[[0.3,0.2],[-0.3,0.2]]","[[-0.125,-0.2],[0.125,-0.2]]",0.139140625,-0.193139648,1,0,0,1.9577,o2_image,614.9486,1,615.4387,615.4387,617.4317,0,0,0,0,1,,,,,,,,,,,,,,,,,,,,,,,,,,,,,,,,,,,,,,,,,,,,,,,,,,
,,65c64b9b090c48be1380151a,28,female,2024-04-19_17h37.40.086,stockport_simplified,2022.2.4,MacIntel,19.60784314,661e456ee6de07e70aa9ef7b,66229da05707434e9bc49c23,,,,,,,,,,,,,,,,,,,,,,,,,,,,,,,,,,,,,,,,,,,,,,,,,,,,,,,,1,41,101,16,1,B,Y,N,o2_image,stimuli/out2.png,stimuli/out1.png,stimuli/correct_out2.png,,,,,,,,,,,,,,,,,,,,,,,,,,,,,,,,,,,,,,
,,65c64b9b090c48be1380151a,28,female,2024-04-19_17h37.40.086,stockport_simplified,2022.2.4,MacIntel,19.60784314,661e456ee6de07e70aa9ef7b,66229da05707434e9bc49c23,,,,,,,,,,,,,,,,,,,,,,,,,,,,,,,,,,617.4321,619.308,"[3,6,5,2,4,1,7,8]","[[-0.3,0.2],[0.3,0.2]]","[[-0.125,-0.2],[0.125,-0.2]]",0.139140625,-0.193139648,1,0,0,1.351,o2_image,619.3088,0,619.7838,619.7838,621.7558,0,0,0,0,1,,,,,,,,,,,,,,,,,,,,,,,,,,,,,,,,,,,,,,,,,,,,,,,,,,
,,65c64b9b090c48be1380151a,28,female,2024-04-19_17h37.40.086,stockport_simplified,2022.2.4,MacIntel,19.60784314,661e456ee6de07e70aa9ef7b,66229da05707434e9bc49c23,,,,,,,,,,,,,,,,,,,,,,,,,,,,,,,,,,,,,,,,,,,,,,,,,,,,,,,,1,42,102,37,1,A,Y,N,o1_image,stimuli/out1.png,stimuli/correct_out1.png,stimuli/out2.png,,,,,,,,,,,,,,,,,,,,,,,,,,,,,,,,,,,,,,
,,65c64b9b090c48be1380151a,28,female,2024-04-19_17h37.40.086,stockport_simplified,2022.2.4,MacIntel,19.60784314,661e456ee6de07e70aa9ef7b,66229da05707434e9bc49c23,,,,,,,,,,,,,,,,,,,,,,,,,,,,,,,,,,621.7564,623.8286,"[3,6,5,2,4,1,7,8]","[[0.3,0.2],[-0.3,0.2]]","[[0.125,-0.2],[-0.125,-0.2]]",-0.103408203,-0.202265625,1,0,0,1.5422,o2_image,623.8291,0,624.3415,624.3415,626.335,0,0,0,0,1,,,,,,,,,,,,,,,,,,,,,,,,,,,,,,,,,,,,,,,,,,,,,,,,,,
,,65c64b9b090c48be1380151a,28,female,2024-04-19_17h37.40.086,stockport_simplified,2022.2.4,MacIntel,19.60784314,661e456ee6de07e70aa9ef7b,66229da05707434e9bc49c23,,,,,,,,,,,,,,,,,,,,,,,,,,,,,,,,,,,,,,,,,,,,,,,,,,,,,,,,1,43,103,23,1,N,M,C,o1_image,stimuli/out1.png,stimuli/correct_out1.png,stimuli/out2.png,,,,,,,,,,,,,,,,,,,,,,,,,,,,,,,,,,,,,,
,,65c64b9b090c48be1380151a,28,female,2024-04-19_17h37.40.086,stockport_simplified,2022.2.4,MacIntel,19.60784314,661e456ee6de07e70aa9ef7b,66229da05707434e9bc49c23,,,,,,,,,,,,,,,,,,,,,,,,,,,,,,,,,,626.3354,628.0077,"[3,6,5,2,4,1,7,8]","[[-0.3,0.2],[0.3,0.2]]","[[-0.125,-0.2],[0.125,-0.2]]",0.12059082,-0.190371094,1,0,0,1.1623,o2_image,628.0082,1,628.495,628.495,630.5026,0,0,0,0,1,,,,,,,,,,,,,,,,,,,,,,,,,,,,,,,,,,,,,,,,,,,,,,,,,,
,,65c64b9b090c48be1380151a,28,female,2024-04-19_17h37.40.086,stockport_simplified,2022.2.4,MacIntel,19.60784314,661e456ee6de07e70aa9ef7b,66229da05707434e9bc49c23,,,,,,,,,,,,,,,,,,,,,,,,,,,,,,,,,,,,,,,,,,,,,,,,,,,,,,,,1,44,104,15,1,B,Y,N,o2_image,stimuli/out2.png,stimuli/out1.png,stimuli/correct_out2.png,,,,,,,,,,,,,,,,,,,,,,,,,,,,,,,,,,,,,,
,,65c64b9b090c48be1380151a,28,female,2024-04-19_17h37.40.086,stockport_simplified,2022.2.4,MacIntel,19.60784314,661e456ee6de07e70aa9ef7b,66229da05707434e9bc49c23,,,,,,,,,,,,,,,,,,,,,,,,,,,,,,,,,,630.503,632.081,"[3,6,5,2,4,1,7,8]","[[-0.3,0.2],[0.3,0.2]]","[[-0.125,-0.2],[0.125,-0.2]]",0.12059082,-0.190371094,1,0,0,1.0729,o2_image,632.0815,0,632.5601,632.5601,634.5738,0,0,0,0,1,,,,,,,,,,,,,,,,,,,,,,,,,,,,,,,,,,,,,,,,,,,,,,,,,,
,,65c64b9b090c48be1380151a,28,female,2024-04-19_17h37.40.086,stockport_simplified,2022.2.4,MacIntel,19.60784314,661e456ee6de07e70aa9ef7b,66229da05707434e9bc49c23,,,,,,,,,,,,,,,,,,,,,,,,,,,,,,,,,,,,,,,,,,,,,,,,,,,,,,,,1,45,105,1,1,A,X,N,o1_image,stimuli/out1.png,stimuli/correct_out1.png,stimuli/out2.png,,,,,,,,,,,,,,,,,,,,,,,,,,,,,,,,,,,,,,
,,65c64b9b090c48be1380151a,28,female,2024-04-19_17h37.40.086,stockport_simplified,2022.2.4,MacIntel,19.60784314,661e456ee6de07e70aa9ef7b,66229da05707434e9bc49c23,,,,,,,,,,,,,,,,,,,,,,,,,,,,,,,,,,634.5742,636.4113,"[3,6,5,2,4,1,7,8]","[[0.3,0.2],[-0.3,0.2]]","[[-0.125,-0.2],[0.125,-0.2]]",0.12059082,-0.190654297,1,0,0,1.312,o2_image,636.4121,0,636.9152,636.9152,638.9075,0,0,0,0,1,,,,,,,,,,,,,,,,,,,,,,,,,,,,,,,,,,,,,,,,,,,,,,,,,,
,,65c64b9b090c48be1380151a,28,female,2024-04-19_17h37.40.086,stockport_simplified,2022.2.4,MacIntel,19.60784314,661e456ee6de07e70aa9ef7b,66229da05707434e9bc49c23,,,,,,,,,,,,,,,,,,,,,,,,,,,,,,,,,,,,,,,,,,,,,,,,,,,,,,,,1,46,106,33,1,A,X,N,o1_image,stimuli/out1.png,stimuli/correct_out1.png,stimuli/out2.png,,,,,,,,,,,,,,,,,,,,,,,,,,,,,,,,,,,,,,
,,65c64b9b090c48be1380151a,28,female,2024-04-19_17h37.40.086,stockport_simplified,2022.2.4,MacIntel,19.60784314,661e456ee6de07e70aa9ef7b,66229da05707434e9bc49c23,,,,,,,,,,,,,,,,,,,,,,,,,,,,,,,,,,638.9079,640.5057,"[3,6,5,2,4,1,7,8]","[[-0.3,0.2],[0.3,0.2]]","[[-0.125,-0.2],[0.125,-0.2]]",-0.105307617,-0.182714844,1,0,0,1.0881,o1_image,640.5066,1,640.9977,640.9978,643.0065,0,0,0,0,1,,,,,,,,,,,,,,,,,,,,,,,,,,,,,,,,,,,,,,,,,,,,,,,,,,
,,65c64b9b090c48be1380151a,28,female,2024-04-19_17h37.40.086,stockport_simplified,2022.2.4,MacIntel,19.60784314,661e456ee6de07e70aa9ef7b,66229da05707434e9bc49c23,,,,,,,,,,,,,,,,,,,,,,,,,,,,,,,,,,,,,,,,,,,,,,,,,,,,,,,,1,47,107,0,1,A,X,N,o1_image,stimuli/out1.png,stimuli/correct_out1.png,stimuli/out2.png,,,,,,,,,,,,,,,,,,,,,,,,,,,,,,,,,,,,,,
,,65c64b9b090c48be1380151a,28,female,2024-04-19_17h37.40.086,stockport_simplified,2022.2.4,MacIntel,19.60784314,661e456ee6de07e70aa9ef7b,66229da05707434e9bc49c23,,,,,,,,,,,,,,,,,,,,,,,,,,,,,,,,,,643.0068,644.679,"[3,6,5,2,4,1,7,8]","[[0.3,0.2],[-0.3,0.2]]","[[0.125,-0.2],[-0.125,-0.2]]",0.126313477,-0.209086914,1,0,0,1.1615,o1_image,644.6798,1,645.171,645.171,647.1647,0,0,0,0,1,,,,,,,,,,,,,,,,,,,,,,,,,,,,,,,,,,,,,,,,,,,,,,,,,,
,,65c64b9b090c48be1380151a,28,female,2024-04-19_17h37.40.086,stockport_simplified,2022.2.4,MacIntel,19.60784314,661e456ee6de07e70aa9ef7b,66229da05707434e9bc49c23,,,,,,,,,,,,,,,,,,,,,,,,,,,,,,,,,,,,,,,,,,,,,,,,,,,,,,,,1,48,108,50,1,N,M,C,o1_image,stimuli/out1.png,stimuli/correct_out1.png,stimuli/out2.png,,,,,,,,,,,,,,,,,,,,,,,,,,,,,,,,,,,,,,
,,65c64b9b090c48be1380151a,28,female,2024-04-19_17h37.40.086,stockport_simplified,2022.2.4,MacIntel,19.60784314,661e456ee6de07e70aa9ef7b,66229da05707434e9bc49c23,,,,,,,,,,,,,,,,,,,,,,,,,,,,,,,,,,647.165,648.866,"[3,6,5,2,4,1,7,8]","[[0.3,0.2],[-0.3,0.2]]","[[-0.125,-0.2],[0.125,-0.2]]",0.122817383,-0.228461914,1,0,0,1.1999,o2_image,648.8668,1,649.3436,649.3436,651.3037,0,0,0,0,1,,,,,,,,,,,,,,,,,,,,,,,,,,,,,,,,,,,,,,,,,,,,,,,,,,
,,65c64b9b090c48be1380151a,28,female,2024-04-19_17h37.40.086,stockport_simplified,2022.2.4,MacIntel,19.60784314,661e456ee6de07e70aa9ef7b,66229da05707434e9bc49c23,,,,,,,,,,,,,,,,,,,,,,,,,,,,,,,,,,,,,,,,,,,,,,,,,,,,,,,,1,49,109,55,1,N,M,D,o2_image,stimuli/out2.png,stimuli/out1.png,stimuli/correct_out2.png,,,,,,,,,,,,,,,,,,,,,,,,,,,,,,,,,,,,,,
,,65c64b9b090c48be1380151a,28,female,2024-04-19_17h37.40.086,stockport_simplified,2022.2.4,MacIntel,19.60784314,661e456ee6de07e70aa9ef7b,66229da05707434e9bc49c23,,,,,,,,,,,,,,,,,,,,,,,,,,,,,,,,,,651.3041,652.774,"[3,6,5,2,4,1,7,8]","[[-0.3,0.2],[0.3,0.2]]","[[-0.125,-0.2],[0.125,-0.2]]",0.123105469,-0.227880859,1,0,0,0.9647,o2_image,652.7748,0,653.2671,653.2673,655.2582,0,0,0,0,1,,,,,,,,,,,,,,,,,,,,,,,,,,,,,,,,,,,,,,,,,,,,,,,,,,
,,65c64b9b090c48be1380151a,28,female,2024-04-19_17h37.40.086,stockport_simplified,2022.2.4,MacIntel,19.60784314,661e456ee6de07e70aa9ef7b,66229da05707434e9bc49c23,,,,,,,,,,,,,,,,,,,,,,,,,,,,,,,,,,,,,,,,,,,,,,,,,,,,,,,,1,50,110,34,1,A,X,N,o1_image,stimuli/out1.png,stimuli/correct_out1.png,stimuli/out2.png,,,,,,,,,,,,,,,,,,,,,,,,,,,,,,,,,,,,,,
,,65c64b9b090c48be1380151a,28,female,2024-04-19_17h37.40.086,stockport_simplified,2022.2.4,MacIntel,19.60784314,661e456ee6de07e70aa9ef7b,66229da05707434e9bc49c23,,,,,,,,,,,,,,,,,,,,,,,,,,,,,,,,,,655.2587,656.598,"[3,6,5,2,4,1,7,8]","[[0.3,0.2],[-0.3,0.2]]","[[-0.125,-0.2],[0.125,-0.2]]",0.123105469,-0.227880859,1,0,0,0.8344,o2_image,656.5987,0,657.0905,657.0906,659.1102,0,0,0,0,1,,,,,,,,,,,,,,,,,,,,,,,,,,,,,,,,,,,,,,,,,,,,,,,,,,
,,65c64b9b090c48be1380151a,28,female,2024-04-19_17h37.40.086,stockport_simplified,2022.2.4,MacIntel,19.60784314,661e456ee6de07e70aa9ef7b,66229da05707434e9bc49c23,,,,,,,,,,,,,,,,,,,,,,,,,,,,,,,,,,,,,,,,,,,,,,,,,,,,,,,,1,51,111,52,1,N,M,C,o1_image,stimuli/out1.png,stimuli/correct_out1.png,stimuli/out2.png,,,,,,,,,,,,,,,,,,,,,,,,,,,,,,,,,,,,,,
,,65c64b9b090c48be1380151a,28,female,2024-04-19_17h37.40.086,stockport_simplified,2022.2.4,MacIntel,19.60784314,661e456ee6de07e70aa9ef7b,66229da05707434e9bc49c23,,,,,,,,,,,,,,,,,,,,,,,,,,,,,,,,,,659.1105,662.281,"[3,6,5,2,4,1,7,8]","[[0.3,0.2],[-0.3,0.2]]","[[0.125,-0.2],[-0.125,-0.2]]",0.114711914,-0.203413086,1,0,0,2.6519,o1_image,662.282,1,662.7722,662.7723,664.757,0,0,0,0,1,,,,,,,,,,,,,,,,,,,,,,,,,,,,,,,,,,,,,,,,,,,,,,,,,,
,,65c64b9b090c48be1380151a,28,female,2024-04-19_17h37.40.086,stockport_simplified,2022.2.4,MacIntel,19.60784314,661e456ee6de07e70aa9ef7b,66229da05707434e9bc49c23,,,,,,,,,,,,,,,,,,,,,,,,,,,,,,,,,,,,,,,,,,,,,,,,,,,,,,,,1,52,112,5,1,A,Y,N,o1_image,stimuli/out1.png,stimuli/correct_out1.png,stimuli/out2.png,,,,,,,,,,,,,,,,,,,,,,,,,,,,,,,,,,,,,,
,,65c64b9b090c48be1380151a,28,female,2024-04-19_17h37.40.086,stockport_simplified,2022.2.4,MacIntel,19.60784314,661e456ee6de07e70aa9ef7b,66229da05707434e9bc49c23,,,,,,,,,,,,,,,,,,,,,,,,,,,,,,,,,,664.7575,666.7486,"[3,6,5,2,4,1,7,8]","[[-0.3,0.2],[0.3,0.2]]","[[-0.125,-0.2],[0.125,-0.2]]",-0.14347168,-0.228798828,1,0,0,1.4871,o1_image,666.7503,0,667.2294,667.2295,669.2421,0,0,0,0,1,,,,,,,,,,,,,,,,,,,,,,,,,,,,,,,,,,,,,,,,,,,,,,,,,,
,,65c64b9b090c48be1380151a,28,female,2024-04-19_17h37.40.086,stockport_simplified,2022.2.4,MacIntel,19.60784314,661e456ee6de07e70aa9ef7b,66229da05707434e9bc49c23,,,,,,,,,,,,,,,,,,,,,,,,,,,,,,,,,,,,,,,,,,,,,,,,,,,,,,,,1,53,113,47,1,B,Y,N,o2_image,stimuli/out2.png,stimuli/out1.png,stimuli/correct_out2.png,,,,,,,,,,,,,,,,,,,,,,,,,,,,,,,,,,,,,,
,,65c64b9b090c48be1380151a,28,female,2024-04-19_17h37.40.086,stockport_simplified,2022.2.4,MacIntel,19.60784314,661e456ee6de07e70aa9ef7b,66229da05707434e9bc49c23,,,,,,,,,,,,,,,,,,,,,,,,,,,,,,,,,,669.2423,671.461,"[3,6,5,2,4,1,7,8]","[[0.3,0.2],[-0.3,0.2]]","[[0.125,-0.2],[-0.125,-0.2]]",0.151132812,-0.187089844,1,0,0,1.7142,o1_image,671.4615,0,671.9847,671.9848,673.9604,0,0,0,0,1,,,,,,,,,,,,,,,,,,,,,,,,,,,,,,,,,,,,,,,,,,,,,,,,,,
,,65c64b9b090c48be1380151a,28,female,2024-04-19_17h37.40.086,stockport_simplified,2022.2.4,MacIntel,19.60784314,661e456ee6de07e70aa9ef7b,66229da05707434e9bc49c23,,,,,,,,,,,,,,,,,,,,,,,,,,,,,,,,,,,,,,,,,,,,,,,,,,,,,,,,1,54,114,29,1,N,M,D,o2_image,stimuli/out2.png,stimuli/out1.png,stimuli/correct_out2.png,,,,,,,,,,,,,,,,,,,,,,,,,,,,,,,,,,,,,,
,,65c64b9b090c48be1380151a,28,female,2024-04-19_17h37.40.086,stockport_simplified,2022.2.4,MacIntel,19.60784314,661e456ee6de07e70aa9ef7b,66229da05707434e9bc49c23,,,,,,,,,,,,,,,,,,,,,,,,,,,,,,,,,,673.961,676.3423,"[3,6,5,2,4,1,7,8]","[[-0.3,0.2],[0.3,0.2]]","[[-0.125,-0.2],[0.125,-0.2]]",0.151132812,-0.187373047,1,0,0,1.8419,o2_image,676.3431,1,676.8206,676.8206,678.8299,0,0,0,0,1,,,,,,,,,,,,,,,,,,,,,,,,,,,,,,,,,,,,,,,,,,,,,,,,,,
,,65c64b9b090c48be1380151a,28,female,2024-04-19_17h37.40.086,stockport_simplified,2022.2.4,MacIntel,19.60784314,661e456ee6de07e70aa9ef7b,66229da05707434e9bc49c23,,,,,,,,,,,,,,,,,,,,,,,,,,,,,,,,,,,,,,,,,,,,,,,,,,,,,,,,1,55,115,42,1,B,X,N,o2_image,stimuli/out2.png,stimuli/out1.png,stimuli/correct_out2.png,,,,,,,,,,,,,,,,,,,,,,,,,,,,,,,,,,,,,,
,,65c64b9b090c48be1380151a,28,female,2024-04-19_17h37.40.086,stockport_simplified,2022.2.4,MacIntel,19.60784314,661e456ee6de07e70aa9ef7b,66229da05707434e9bc49c23,,,,,,,,,,,,,,,,,,,,,,,,,,,,,,,,,,678.8303,680.121,"[3,6,5,2,4,1,7,8]","[[-0.3,0.2],[0.3,0.2]]","[[-0.125,-0.2],[0.125,-0.2]]",0.151132812,-0.188867188,1,0,0,0.7856,o2_image,680.1218,1,680.5937,680.5938,682.5809,0,0,0,0,1,,,,,,,,,,,,,,,,,,,,,,,,,,,,,,,,,,,,,,,,,,,,,,,,,,
,,65c64b9b090c48be1380151a,28,female,2024-04-19_17h37.40.086,stockport_simplified,2022.2.4,MacIntel,19.60784314,661e456ee6de07e70aa9ef7b,66229da05707434e9bc49c23,,,,,,,,,,,,,,,,,,,,,,,,,,,,,,,,,,,,,,,,,,,,,,,,,,,,,,,,1,56,116,44,1,B,X,N,o2_image,stimuli/out2.png,stimuli/out1.png,stimuli/correct_out2.png,,,,,,,,,,,,,,,,,,,,,,,,,,,,,,,,,,,,,,
,,65c64b9b090c48be1380151a,28,female,2024-04-19_17h37.40.086,stockport_simplified,2022.2.4,MacIntel,19.60784314,661e456ee6de07e70aa9ef7b,66229da05707434e9bc49c23,,,,,,,,,,,,,,,,,,,,,,,,,,,,,,,,,,682.5813,684.9738,"[3,6,5,2,4,1,7,8]","[[0.3,0.2],[-0.3,0.2]]","[[0.125,-0.2],[-0.125,-0.2]]",-0.140136719,-0.204814453,1,0,0,1.8837,o2_image,684.9747,0,685.4639,685.464,687.4677,0,0,0,0,1,,,,,,,,,,,,,,,,,,,,,,,,,,,,,,,,,,,,,,,,,,,,,,,,,,
,,65c64b9b090c48be1380151a,28,female,2024-04-19_17h37.40.086,stockport_simplified,2022.2.4,MacIntel,19.60784314,661e456ee6de07e70aa9ef7b,66229da05707434e9bc49c23,,,,,,,,,,,,,,,,,,,,,,,,,,,,,,,,,,,,,,,,,,,,,,,,,,,,,,,,1,57,117,8,1,A,Y,N,o1_image,stimuli/out1.png,stimuli/correct_out1.png,stimuli/out2.png,,,,,,,,,,,,,,,,,,,,,,,,,,,,,,,,,,,,,,
,,65c64b9b090c48be1380151a,28,female,2024-04-19_17h37.40.086,stockport_simplified,2022.2.4,MacIntel,19.60784314,661e456ee6de07e70aa9ef7b,66229da05707434e9bc49c23,,,,,,,,,,,,,,,,,,,,,,,,,,,,,,,,,,687.4682,689.8075,"[3,6,5,2,4,1,7,8]","[[0.3,0.2],[-0.3,0.2]]","[[-0.125,-0.2],[0.125,-0.2]]",-0.146479492,-0.196967773,1,0,0,1.8139,o1_image,689.822,1,690.3114,690.3114,692.2767,0,0,0,0,1,,,,,,,,,,,,,,,,,,,,,,,,,,,,,,,,,,,,,,,,,,,,,,,,,,
,,65c64b9b090c48be1380151a,28,female,2024-04-19_17h37.40.086,stockport_simplified,2022.2.4,MacIntel,19.60784314,661e456ee6de07e70aa9ef7b,66229da05707434e9bc49c23,,,,,,,,,,,,,,,,,,,,,,,,,,,,,,,,,,,,,,,,,,,,,,,,,,,,,,,,1,58,118,54,1,N,M,C,o1_image,stimuli/out1.png,stimuli/correct_out1.png,stimuli/out2.png,,,,,,,,,,,,,,,,,,,,,,,,,,,,,,,,,,,,,,
,,65c64b9b090c48be1380151a,28,female,2024-04-19_17h37.40.086,stockport_simplified,2022.2.4,MacIntel,19.60784314,661e456ee6de07e70aa9ef7b,66229da05707434e9bc49c23,,,,,,,,,,,,,,,,,,,,,,,,,,,,,,,,,,692.2771,694.773,"[3,6,5,2,4,1,7,8]","[[-0.3,0.2],[0.3,0.2]]","[[-0.125,-0.2],[0.125,-0.2]]",0.122236328,-0.182719727,1,0,0,1.9875,o2_image,694.7737,1,695.2697,695.2697,697.2597,0,0,0,0,1,,,,,,,,,,,,,,,,,,,,,,,,,,,,,,,,,,,,,,,,,,,,,,,,,,
,,65c64b9b090c48be1380151a,28,female,2024-04-19_17h37.40.086,stockport_simplified,2022.2.4,MacIntel,19.60784314,661e456ee6de07e70aa9ef7b,66229da05707434e9bc49c23,,,,,,,,,,,,,,,,,,,,,,,,,,,,,,,,,,,,,,,,,,,,,,,,,,,,,,,,1,59,119,13,1,B,X,N,o2_image,stimuli/out2.png,stimuli/out1.png,stimuli/correct_out2.png,,,,,,,,,,,,,,,,,,,,,,,,,,,,,,,,,,,,,,
,,65c64b9b090c48be1380151a,28,female,2024-04-19_17h37.40.086,stockport_simplified,2022.2.4,MacIntel,19.60784314,661e456ee6de07e70aa9ef7b,66229da05707434e9bc49c23,,,,,,,,,,,,,,,,,,,,,,,,,,,,,,,,,,697.2793,701.6882,"[3,6,5,2,4,1,7,8]","[[0.3,0.2],[-0.3,0.2]]","[[-0.125,-0.2],[0.125,-0.2]]",-0.155571289,-0.182612305,1,0,0,3.8883,o1_image,701.7028,1,702.1886,702.1887,704.139,,,,,,,,,,,,,,,,,,0,0,0,0,1,,,,,,,,,,,,,,,,,,,,,,,,,,,,,,,,,
,,65c64b9b090c48be1380151a,28,female,2024-04-19_17h37.40.086,stockport_simplified,2022.2.4,MacIntel,19.60784314,661e456ee6de07e70aa9ef7b,66229da05707434e9bc49c23,,,,,,,,,,,,,,,,,,,,,,,,,,,,,,,,,,,,,,,,,,,,,,,,,,,,,,,,,,,,,N,M,C,o1_image,stimuli/out1.png,stimuli/correct_out1.png,stimuli/out2.png,,,,,,0,0,0,48,1,,,,,,,,,,,,,,,,,,,,,,,,,,,,
,,65c64b9b090c48be1380151a,28,female,2024-04-19_17h37.40.086,stockport_simplified,2022.2.4,MacIntel,19.60784314,661e456ee6de07e70aa9ef7b,66229da05707434e9bc49c23,,,,,,,,,,,,,,,,,,,,,,,,,,,,,,,,,,704.1403,706.3887,"[3,6,5,2,4,1,7,8]","[[-0.3,0.2],[0.3,0.2]]","[[0.125,-0.2],[-0.125,-0.2]]",-0.095307617,-0.188720703,1,0,0,1.7102,o2_image,706.3894,0,706.881,706.8811,708.8704,,,,,,,,,,,,,,,,,,0,0,0,0,1,,,,,,,,,,,,,,,,,,,,,,,,,,,,,,,,,
,,65c64b9b090c48be1380151a,28,female,2024-04-19_17h37.40.086,stockport_simplified,2022.2.4,MacIntel,19.60784314,661e456ee6de07e70aa9ef7b,66229da05707434e9bc49c23,,,,,,,,,,,,,,,,,,,,,,,,,,,,,,,,,,,,,,,,,,,,,,,,,,,,,,,,,,,,,N,M,C,o1_image,stimuli/out1.png,stimuli/correct_out1.png,stimuli/out2.png,,,,,,0,1,1,46,1,,,,,,,,,,,,,,,,,,,,,,,,,,,,
,,65c64b9b090c48be1380151a,28,female,2024-04-19_17h37.40.086,stockport_simplified,2022.2.4,MacIntel,19.60784314,661e456ee6de07e70aa9ef7b,66229da05707434e9bc49c23,,,,,,,,,,,,,,,,,,,,,,,,,,,,,,,,,,708.8709,711.261,"[3,6,5,2,4,1,7,8]","[[0.3,0.2],[-0.3,0.2]]","[[-0.125,-0.2],[0.125,-0.2]]",0.170893555,-0.186899414,1,0,0,1.8799,o2_image,711.2616,1,711.7332,711.7333,713.6994,,,,,,,,,,,,,,,,,,0,0,0,0,1,,,,,,,,,,,,,,,,,,,,,,,,,,,,,,,,,
