counterbalance_2.started,counterbalance_2.stopped,participant,age,gender,date,expName,psychopyVersion,OS,frameRate,STUDY_ID,SESSION_ID,information_2.started,information_2.stopped,information_loop.thisRepN,information_loop.thisTrialN,information_loop.thisN,information_loop.thisIndex,information_loop.ran,information,consent_2.started,consent_2.stopped,slider_1.response,slider_2.response,slider_3.response,slider_4.response,slider_5.response,slider_6.response,instructions.started,instructions.stopped,task1_instr.thisRepN,task1_instr.thisTrialN,task1_instr.thisN,task1_instr.thisIndex,task1_instr.ran,task1,comprehension1_2.started,comprehension1_2.stopped,comp1_mouse.x,comp1_mouse.y,comp1_mouse.leftButton,comp1_mouse.midButton,comp1_mouse.rightButton,comp1_mouse.time,comp1_mouse.clicked_name,cue_o__trial_2.started,cue_o__trial_2.stopped,order,cue_order,out_order,cue_o_mouse.x,cue_o_mouse.y,cue_o_mouse.leftButton,cue_o_mouse.midButton,cue_o_mouse.rightButton,cue_o_mouse.time,cue_o_mouse.clicked_name,cue_selection_2.started,correct_answer,cue_selection_2.stopped,feedback_2.started,feedback_2.stopped,feedback_loop.thisRepN,feedback_loop.thisTrialN,feedback_loop.thisN,feedback_loop.thisIndex,feedback_loop.ran,stage1_trials.thisRepN,stage1_trials.thisTrialN,stage1_trials.thisN,stage1_trials.thisIndex,stage1_trials.ran,cue1,cue2,cue3,outcome,correct_out,o1_feedback,o2_feedback,stage2_feedback_loop.thisRepN,stage2_feedback_loop.thisTrialN,stage2_feedback_loop.thisN,stage2_feedback_loop.thisIndex,stage2_feedback_loop.ran,stage2_trials.thisRepN,stage2_trials.thisTrialN,stage2_trials.thisN,stage2_trials.thisIndex,stage2_trials.ran,stage3_feedback_loop.thisRepN,stage3_feedback_loop.thisTrialN,stage3_feedback_loop.thisN,stage3_feedback_loop.thisIndex,stage3_feedback_loop.ran,stage3_trials.thisRepN,stage3_trials.thisTrialN,stage3_trials.thisN,stage3_trials.thisIndex,stage3_trials.ran,debrief_2.started,debrief_2.stopped,debrief_loop.thisRepN,debrief_loop.thisTrialN,debrief_loop.thisN,debrief_loop.thisIndex,debrief_loop.ran,debrief_img,compr1_completed.thisRepN,compr1_completed.thisTrialN,compr1_completed.thisN,compr1_completed.thisIndex,compr1_completed.ran,consent_loop.thisRepN,consent_loop.thisTrialN,consent_loop.thisN,consent_loop.thisIndex,consent_loop.ran
0,0,5d1dc2f9bc2b1d001a2415a5,31,male,2024-04-24_12h32.17.709,stockport_simplified,2022.2.4,Win32,60.0240096,661e456ee6de07e70aa9ef7b,6628df8ed6cae02178be69e8,,,,,,,,,,,,,,,,,,,,,,,,,,,,,,,,,,,,,,,,,,,,,,,,,,,,,,,,,,,,,,,,,,,,,,,,,,,,,,,,,,,,,,,,,,,,,,,,,,,,,,,,,
,,5d1dc2f9bc2b1d001a2415a5,31,male,2024-04-24_12h32.17.709,stockport_simplified,2022.2.4,Win32,60.0240096,661e456ee6de07e70aa9ef7b,6628df8ed6cae02178be69e8,0.016,12.995,0,0,0,0,1,instructions/info1.png,,,,,,,,,,,,,,,,,,,,,,,,,,,,,,,,,,,,,,,,,,,,,,,,,,,,,,,,,,,,,,,,,,,,,,,,,,,,,,,,,,,,,,,,,,,,,,,,,
,,5d1dc2f9bc2b1d001a2415a5,31,male,2024-04-24_12h32.17.709,stockport_simplified,2022.2.4,Win32,60.0240096,661e456ee6de07e70aa9ef7b,6628df8ed6cae02178be69e8,12.996,16.103,0,1,1,1,1,instructions/info2.png,,,,,,,,,,,,,,,,,,,,,,,,,,,,,,,,,,,,,,,,,,,,,,,,,,,,,,,,,,,,,,,,,,,,,,,,,,,,,,,,,,,,,,,,,,,,,,,,,
,,5d1dc2f9bc2b1d001a2415a5,31,male,2024-04-24_12h32.17.709,stockport_simplified,2022.2.4,Win32,60.0240096,661e456ee6de07e70aa9ef7b,6628df8ed6cae02178be69e8,16.104,21.305,0,2,2,2,1,instructions/info3.png,,,,,,,,,,,,,,,,,,,,,,,,,,,,,,,,,,,,,,,,,,,,,,,,,,,,,,,,,,,,,,,,,,,,,,,,,,,,,,,,,,,,,,,,,,,,,,,,,
,,5d1dc2f9bc2b1d001a2415a5,31,male,2024-04-24_12h32.17.709,stockport_simplified,2022.2.4,Win32,60.0240096,661e456ee6de07e70aa9ef7b,6628df8ed6cae02178be69e8,,,,,,,,,21.305,29.242,1,1,1,1,1,1,,,,,,,,,,,,,,,,,,,,,,,,,,,,,,,,,,,,,,,,,,,,,,,,,,,,,,,,,,,,,,,,,,,,,,,,,,,,,,,,,,,,,,,,,
,,5d1dc2f9bc2b1d001a2415a5,31,male,2024-04-24_12h32.17.709,stockport_simplified,2022.2.4,Win32,60.0240096,661e456ee6de07e70aa9ef7b,6628df8ed6cae02178be69e8,,,,,,,,,,,,,,,,,29.253,46.528,0,0,0,0,1,instructions/task1_1.png,,,,,,,,,,,,,,,,,,,,,,,,,,,,,,,,,,,,,,,,,,,,,,,,,,,,,,,,,,,,,,,,,,,,,,,,,,,,,,,,,
,,5d1dc2f9bc2b1d001a2415a5,31,male,2024-04-24_12h32.17.709,stockport_simplified,2022.2.4,Win32,60.0240096,661e456ee6de07e70aa9ef7b,6628df8ed6cae02178be69e8,,,,,,,,,,,,,,,,,46.53,56.436,0,1,1,1,1,instructions/task1_2.png,,,,,,,,,,,,,,,,,,,,,,,,,,,,,,,,,,,,,,,,,,,,,,,,,,,,,,,,,,,,,,,,,,,,,,,,,,,,,,,,,
,,5d1dc2f9bc2b1d001a2415a5,31,male,2024-04-24_12h32.17.709,stockport_simplified,2022.2.4,Win32,60.0240096,661e456ee6de07e70aa9ef7b,6628df8ed6cae02178be69e8,,,,,,,,,,,,,,,,,56.436,68.315,0,2,2,2,1,instructions/task1_3.png,,,,,,,,,,,,,,,,,,,,,,,,,,,,,,,,,,,,,,,,,,,,,,,,,,,,,,,,,,,,,,,,,,,,,,,,,,,,,,,,,
,,5d1dc2f9bc2b1d001a2415a5,31,male,2024-04-24_12h32.17.709,stockport_simplified,2022.2.4,Win32,60.0240096,661e456ee6de07e70aa9ef7b,6628df8ed6cae02178be69e8,,,,,,,,,,,,,,,,,,,,,,,,,68.315,86.03,-0.197222222,-0.328703704,1,0,0,17.714,comp1_resp1,86.063,88.327,"[7,6,2,8,4,1,5,3]","[[0.3,0.2],[-0.3,0.2]]","[[0.125,-0.2],[-0.125,-0.2]]",-0.091666667,-0.182407407,1,0,0,1.732,o2_image,88.329,0,88.826,88.826,90.84,0,0,0,0,1,,,,,,,,,,,,,,,,,,,,,,,,,,,,,,,,,,,,,,,,,,,,,,,,,,
,,5d1dc2f9bc2b1d001a2415a5,31,male,2024-04-24_12h32.17.709,stockport_simplified,2022.2.4,Win32,60.0240096,661e456ee6de07e70aa9ef7b,6628df8ed6cae02178be69e8,,,,,,,,,,,,,,,,,,,,,,,,,,,,,,,,,,,,,,,,,,,,,,,,,,,,,,,,0,0,0,21,1,N,M,C,o1_image,stimuli/out1.png,stimuli/correct_out1.png,stimuli/out2.png,,,,,,,,,,,,,,,,,,,,,,,,,,,,,,,,,,,,,,
,,5d1dc2f9bc2b1d001a2415a5,31,male,2024-04-24_12h32.17.709,stockport_simplified,2022.2.4,Win32,60.0240096,661e456ee6de07e70aa9ef7b,6628df8ed6cae02178be69e8,,,,,,,,,,,,,,,,,,,,,,,,,,,,,,,,,,90.841,94.39,"[7,6,2,8,4,1,5,3]","[[0.3,0.2],[-0.3,0.2]]","[[-0.125,-0.2],[0.125,-0.2]]",0.10462963,-0.210185185,1,0,0,3.015,o2_image,94.392,1,94.878,94.878,96.889,0,0,0,0,1,,,,,,,,,,,,,,,,,,,,,,,,,,,,,,,,,,,,,,,,,,,,,,,,,,
,,5d1dc2f9bc2b1d001a2415a5,31,male,2024-04-24_12h32.17.709,stockport_simplified,2022.2.4,Win32,60.0240096,661e456ee6de07e70aa9ef7b,6628df8ed6cae02178be69e8,,,,,,,,,,,,,,,,,,,,,,,,,,,,,,,,,,,,,,,,,,,,,,,,,,,,,,,,0,1,1,43,1,B,X,N,o2_image,stimuli/out2.png,stimuli/out1.png,stimuli/correct_out2.png,,,,,,,,,,,,,,,,,,,,,,,,,,,,,,,,,,,,,,
,,5d1dc2f9bc2b1d001a2415a5,31,male,2024-04-24_12h32.17.709,stockport_simplified,2022.2.4,Win32,60.0240096,661e456ee6de07e70aa9ef7b,6628df8ed6cae02178be69e8,,,,,,,,,,,,,,,,,,,,,,,,,,,,,,,,,,96.89,100.633,"[7,6,2,8,4,1,5,3]","[[-0.3,0.2],[0.3,0.2]]","[[0.125,-0.2],[-0.125,-0.2]]",-0.123148148,-0.217592593,1,0,0,3.229,o2_image,100.636,1,101.116,101.116,103.115,0,0,0,0,1,,,,,,,,,,,,,,,,,,,,,,,,,,,,,,,,,,,,,,,,,,,,,,,,,,
,,5d1dc2f9bc2b1d001a2415a5,31,male,2024-04-24_12h32.17.709,stockport_simplified,2022.2.4,Win32,60.0240096,661e456ee6de07e70aa9ef7b,6628df8ed6cae02178be69e8,,,,,,,,,,,,,,,,,,,,,,,,,,,,,,,,,,,,,,,,,,,,,,,,,,,,,,,,0,2,2,49,1,B,Y,N,o2_image,stimuli/out2.png,stimuli/out1.png,stimuli/correct_out2.png,,,,,,,,,,,,,,,,,,,,,,,,,,,,,,,,,,,,,,
,,5d1dc2f9bc2b1d001a2415a5,31,male,2024-04-24_12h32.17.709,stockport_simplified,2022.2.4,Win32,60.0240096,661e456ee6de07e70aa9ef7b,6628df8ed6cae02178be69e8,,,,,,,,,,,,,,,,,,,,,,,,,,,,,,,,,,103.116,105.547,"[7,6,2,8,4,1,5,3]","[[-0.3,0.2],[0.3,0.2]]","[[-0.125,-0.2],[0.125,-0.2]]",0.112037037,-0.232407407,1,0,0,1.915,o2_image,105.548,1,106.045,106.045,108.059,0,0,0,0,1,,,,,,,,,,,,,,,,,,,,,,,,,,,,,,,,,,,,,,,,,,,,,,,,,,
,,5d1dc2f9bc2b1d001a2415a5,31,male,2024-04-24_12h32.17.709,stockport_simplified,2022.2.4,Win32,60.0240096,661e456ee6de07e70aa9ef7b,6628df8ed6cae02178be69e8,,,,,,,,,,,,,,,,,,,,,,,,,,,,,,,,,,,,,,,,,,,,,,,,,,,,,,,,0,3,3,12,1,B,X,N,o2_image,stimuli/out2.png,stimuli/out1.png,stimuli/correct_out2.png,,,,,,,,,,,,,,,,,,,,,,,,,,,,,,,,,,,,,,
,,5d1dc2f9bc2b1d001a2415a5,31,male,2024-04-24_12h32.17.709,stockport_simplified,2022.2.4,Win32,60.0240096,661e456ee6de07e70aa9ef7b,6628df8ed6cae02178be69e8,,,,,,,,,,,,,,,,,,,,,,,,,,,,,,,,,,108.06,110.575,"[7,6,2,8,4,1,5,3]","[[-0.3,0.2],[0.3,0.2]]","[[-0.125,-0.2],[0.125,-0.2]]",-0.140740741,-0.223148148,1,0,0,1.998,o1_image,110.577,1,111.073,111.073,113.055,0,0,0,0,1,,,,,,,,,,,,,,,,,,,,,,,,,,,,,,,,,,,,,,,,,,,,,,,,,,
,,5d1dc2f9bc2b1d001a2415a5,31,male,2024-04-24_12h32.17.709,stockport_simplified,2022.2.4,Win32,60.0240096,661e456ee6de07e70aa9ef7b,6628df8ed6cae02178be69e8,,,,,,,,,,,,,,,,,,,,,,,,,,,,,,,,,,,,,,,,,,,,,,,,,,,,,,,,0,4,4,33,1,A,X,N,o1_image,stimuli/out1.png,stimuli/correct_out1.png,stimuli/out2.png,,,,,,,,,,,,,,,,,,,,,,,,,,,,,,,,,,,,,,
,,5d1dc2f9bc2b1d001a2415a5,31,male,2024-04-24_12h32.17.709,stockport_simplified,2022.2.4,Win32,60.0240096,661e456ee6de07e70aa9ef7b,6628df8ed6cae02178be69e8,,,,,,,,,,,,,,,,,,,,,,,,,,,,,,,,,,113.056,116.619,"[7,6,2,8,4,1,5,3]","[[-0.3,0.2],[0.3,0.2]]","[[-0.125,-0.2],[0.125,-0.2]]",0.152777778,-0.209259259,1,0,0,3.045,o2_image,116.62,1,117.137,117.137,119.151,0,0,0,0,1,,,,,,,,,,,,,,,,,,,,,,,,,,,,,,,,,,,,,,,,,,,,,,,,,,
,,5d1dc2f9bc2b1d001a2415a5,31,male,2024-04-24_12h32.17.709,stockport_simplified,2022.2.4,Win32,60.0240096,661e456ee6de07e70aa9ef7b,6628df8ed6cae02178be69e8,,,,,,,,,,,,,,,,,,,,,,,,,,,,,,,,,,,,,,,,,,,,,,,,,,,,,,,,0,5,5,57,1,N,M,D,o2_image,stimuli/out2.png,stimuli/out1.png,stimuli/correct_out2.png,,,,,,,,,,,,,,,,,,,,,,,,,,,,,,,,,,,,,,
,,5d1dc2f9bc2b1d001a2415a5,31,male,2024-04-24_12h32.17.709,stockport_simplified,2022.2.4,Win32,60.0240096,661e456ee6de07e70aa9ef7b,6628df8ed6cae02178be69e8,,,,,,,,,,,,,,,,,,,,,,,,,,,,,,,,,,119.151,120.766,"[7,6,2,8,4,1,5,3]","[[-0.3,0.2],[0.3,0.2]]","[[-0.125,-0.2],[0.125,-0.2]]",0.151851852,-0.209259259,1,0,0,1.081,o2_image,120.767,1,121.28,121.28,123.28,0,0,0,0,1,,,,,,,,,,,,,,,,,,,,,,,,,,,,,,,,,,,,,,,,,,,,,,,,,,
,,5d1dc2f9bc2b1d001a2415a5,31,male,2024-04-24_12h32.17.709,stockport_simplified,2022.2.4,Win32,60.0240096,661e456ee6de07e70aa9ef7b,6628df8ed6cae02178be69e8,,,,,,,,,,,,,,,,,,,,,,,,,,,,,,,,,,,,,,,,,,,,,,,,,,,,,,,,0,6,6,26,1,N,M,D,o2_image,stimuli/out2.png,stimuli/out1.png,stimuli/correct_out2.png,,,,,,,,,,,,,,,,,,,,,,,,,,,,,,,,,,,,,,
,,5d1dc2f9bc2b1d001a2415a5,31,male,2024-04-24_12h32.17.709,stockport_simplified,2022.2.4,Win32,60.0240096,661e456ee6de07e70aa9ef7b,6628df8ed6cae02178be69e8,,,,,,,,,,,,,,,,,,,,,,,,,,,,,,,,,,123.281,126.281,"[7,6,2,8,4,1,5,3]","[[0.3,0.2],[-0.3,0.2]]","[[-0.125,-0.2],[0.125,-0.2]]",-0.111111111,-0.216666667,1,0,0,2.482,o1_image,126.282,0,126.796,126.796,128.794,0,0,0,0,1,,,,,,,,,,,,,,,,,,,,,,,,,,,,,,,,,,,,,,,,,,,,,,,,,,
,,5d1dc2f9bc2b1d001a2415a5,31,male,2024-04-24_12h32.17.709,stockport_simplified,2022.2.4,Win32,60.0240096,661e456ee6de07e70aa9ef7b,6628df8ed6cae02178be69e8,,,,,,,,,,,,,,,,,,,,,,,,,,,,,,,,,,,,,,,,,,,,,,,,,,,,,,,,0,7,7,17,1,B,Y,N,o2_image,stimuli/out2.png,stimuli/out1.png,stimuli/correct_out2.png,,,,,,,,,,,,,,,,,,,,,,,,,,,,,,,,,,,,,,
,,5d1dc2f9bc2b1d001a2415a5,31,male,2024-04-24_12h32.17.709,stockport_simplified,2022.2.4,Win32,60.0240096,661e456ee6de07e70aa9ef7b,6628df8ed6cae02178be69e8,,,,,,,,,,,,,,,,,,,,,,,,,,,,,,,,,,128.798,130.776,"[7,6,2,8,4,1,5,3]","[[-0.3,0.2],[0.3,0.2]]","[[-0.125,-0.2],[0.125,-0.2]]",-0.10462963,-0.209259259,1,0,0,1.465,o1_image,130.778,1,131.272,131.272,133.273,0,0,0,0,1,,,,,,,,,,,,,,,,,,,,,,,,,,,,,,,,,,,,,,,,,,,,,,,,,,
,,5d1dc2f9bc2b1d001a2415a5,31,male,2024-04-24_12h32.17.709,stockport_simplified,2022.2.4,Win32,60.0240096,661e456ee6de07e70aa9ef7b,6628df8ed6cae02178be69e8,,,,,,,,,,,,,,,,,,,,,,,,,,,,,,,,,,,,,,,,,,,,,,,,,,,,,,,,0,8,8,51,1,N,M,C,o1_image,stimuli/out1.png,stimuli/correct_out1.png,stimuli/out2.png,,,,,,,,,,,,,,,,,,,,,,,,,,,,,,,,,,,,,,
,,5d1dc2f9bc2b1d001a2415a5,31,male,2024-04-24_12h32.17.709,stockport_simplified,2022.2.4,Win32,60.0240096,661e456ee6de07e70aa9ef7b,6628df8ed6cae02178be69e8,,,,,,,,,,,,,,,,,,,,,,,,,,,,,,,,,,133.274,137.402,"[7,6,2,8,4,1,5,3]","[[0.3,0.2],[-0.3,0.2]]","[[0.125,-0.2],[-0.125,-0.2]]",0.162962963,-0.192592593,1,0,0,3.596,o1_image,137.403,1,137.885,137.885,139.883,0,0,0,0,1,,,,,,,,,,,,,,,,,,,,,,,,,,,,,,,,,,,,,,,,,,,,,,,,,,
,,5d1dc2f9bc2b1d001a2415a5,31,male,2024-04-24_12h32.17.709,stockport_simplified,2022.2.4,Win32,60.0240096,661e456ee6de07e70aa9ef7b,6628df8ed6cae02178be69e8,,,,,,,,,,,,,,,,,,,,,,,,,,,,,,,,,,,,,,,,,,,,,,,,,,,,,,,,0,9,9,34,1,A,X,N,o1_image,stimuli/out1.png,stimuli/correct_out1.png,stimuli/out2.png,,,,,,,,,,,,,,,,,,,,,,,,,,,,,,,,,,,,,,
,,5d1dc2f9bc2b1d001a2415a5,31,male,2024-04-24_12h32.17.709,stockport_simplified,2022.2.4,Win32,60.0240096,661e456ee6de07e70aa9ef7b,6628df8ed6cae02178be69e8,,,,,,,,,,,,,,,,,,,,,,,,,,,,,,,,,,139.883,141.467,"[7,6,2,8,4,1,5,3]","[[0.3,0.2],[-0.3,0.2]]","[[0.125,-0.2],[-0.125,-0.2]]",0.151851852,-0.198148148,1,0,0,1.083,o1_image,141.468,0,141.965,141.965,143.963,0,0,0,0,1,,,,,,,,,,,,,,,,,,,,,,,,,,,,,,,,,,,,,,,,,,,,,,,,,,
,,5d1dc2f9bc2b1d001a2415a5,31,male,2024-04-24_12h32.17.709,stockport_simplified,2022.2.4,Win32,60.0240096,661e456ee6de07e70aa9ef7b,6628df8ed6cae02178be69e8,,,,,,,,,,,,,,,,,,,,,,,,,,,,,,,,,,,,,,,,,,,,,,,,,,,,,,,,0,10,10,14,1,B,X,N,o2_image,stimuli/out2.png,stimuli/out1.png,stimuli/correct_out2.png,,,,,,,,,,,,,,,,,,,,,,,,,,,,,,,,,,,,,,
,,5d1dc2f9bc2b1d001a2415a5,31,male,2024-04-24_12h32.17.709,stockport_simplified,2022.2.4,Win32,60.0240096,661e456ee6de07e70aa9ef7b,6628df8ed6cae02178be69e8,,,,,,,,,,,,,,,,,,,,,,,,,,,,,,,,,,143.963,145.847,"[7,6,2,8,4,1,5,3]","[[0.3,0.2],[-0.3,0.2]]","[[-0.125,-0.2],[0.125,-0.2]]",0.106481481,-0.210185185,1,0,0,1.383,o2_image,145.849,1,146.328,146.328,148.309,0,0,0,0,1,,,,,,,,,,,,,,,,,,,,,,,,,,,,,,,,,,,,,,,,,,,,,,,,,,
,,5d1dc2f9bc2b1d001a2415a5,31,male,2024-04-24_12h32.17.709,stockport_simplified,2022.2.4,Win32,60.0240096,661e456ee6de07e70aa9ef7b,6628df8ed6cae02178be69e8,,,,,,,,,,,,,,,,,,,,,,,,,,,,,,,,,,,,,,,,,,,,,,,,,,,,,,,,0,11,11,42,1,B,X,N,o2_image,stimuli/out2.png,stimuli/out1.png,stimuli/correct_out2.png,,,,,,,,,,,,,,,,,,,,,,,,,,,,,,,,,,,,,,
,,5d1dc2f9bc2b1d001a2415a5,31,male,2024-04-24_12h32.17.709,stockport_simplified,2022.2.4,Win32,60.0240096,661e456ee6de07e70aa9ef7b,6628df8ed6cae02178be69e8,,,,,,,,,,,,,,,,,,,,,,,,,,,,,,,,,,148.31,151.393,"[7,6,2,8,4,1,5,3]","[[0.3,0.2],[-0.3,0.2]]","[[0.125,-0.2],[-0.125,-0.2]]",-0.088888889,-0.213888889,1,0,0,2.567,o2_image,151.394,1,151.907,151.907,153.888,0,0,0,0,1,,,,,,,,,,,,,,,,,,,,,,,,,,,,,,,,,,,,,,,,,,,,,,,,,,
,,5d1dc2f9bc2b1d001a2415a5,31,male,2024-04-24_12h32.17.709,stockport_simplified,2022.2.4,Win32,60.0240096,661e456ee6de07e70aa9ef7b,6628df8ed6cae02178be69e8,,,,,,,,,,,,,,,,,,,,,,,,,,,,,,,,,,,,,,,,,,,,,,,,,,,,,,,,0,12,12,47,1,B,Y,N,o2_image,stimuli/out2.png,stimuli/out1.png,stimuli/correct_out2.png,,,,,,,,,,,,,,,,,,,,,,,,,,,,,,,,,,,,,,
,,5d1dc2f9bc2b1d001a2415a5,31,male,2024-04-24_12h32.17.709,stockport_simplified,2022.2.4,Win32,60.0240096,661e456ee6de07e70aa9ef7b,6628df8ed6cae02178be69e8,,,,,,,,,,,,,,,,,,,,,,,,,,,,,,,,,,153.888,156.404,"[7,6,2,8,4,1,5,3]","[[0.3,0.2],[-0.3,0.2]]","[[-0.125,-0.2],[0.125,-0.2]]",0.113888889,-0.209259259,1,0,0,2.014,o2_image,156.405,0,156.903,156.903,158.884,0,0,0,0,1,,,,,,,,,,,,,,,,,,,,,,,,,,,,,,,,,,,,,,,,,,,,,,,,,,
,,5d1dc2f9bc2b1d001a2415a5,31,male,2024-04-24_12h32.17.709,stockport_simplified,2022.2.4,Win32,60.0240096,661e456ee6de07e70aa9ef7b,6628df8ed6cae02178be69e8,,,,,,,,,,,,,,,,,,,,,,,,,,,,,,,,,,,,,,,,,,,,,,,,,,,,,,,,0,13,13,3,1,A,X,N,o1_image,stimuli/out1.png,stimuli/correct_out1.png,stimuli/out2.png,,,,,,,,,,,,,,,,,,,,,,,,,,,,,,,,,,,,,,
,,5d1dc2f9bc2b1d001a2415a5,31,male,2024-04-24_12h32.17.709,stockport_simplified,2022.2.4,Win32,60.0240096,661e456ee6de07e70aa9ef7b,6628df8ed6cae02178be69e8,,,,,,,,,,,,,,,,,,,,,,,,,,,,,,,,,,158.884,161.6,"[7,6,2,8,4,1,5,3]","[[-0.3,0.2],[0.3,0.2]]","[[0.125,-0.2],[-0.125,-0.2]]",-0.169444444,-0.217592593,1,0,0,2.198,o2_image,161.606,0,162.115,162.115,164.115,0,0,0,0,1,,,,,,,,,,,,,,,,,,,,,,,,,,,,,,,,,,,,,,,,,,,,,,,,,,
,,5d1dc2f9bc2b1d001a2415a5,31,male,2024-04-24_12h32.17.709,stockport_simplified,2022.2.4,Win32,60.0240096,661e456ee6de07e70aa9ef7b,6628df8ed6cae02178be69e8,,,,,,,,,,,,,,,,,,,,,,,,,,,,,,,,,,,,,,,,,,,,,,,,,,,,,,,,0,14,14,2,1,A,X,N,o1_image,stimuli/out1.png,stimuli/correct_out1.png,stimuli/out2.png,,,,,,,,,,,,,,,,,,,,,,,,,,,,,,,,,,,,,,
,,5d1dc2f9bc2b1d001a2415a5,31,male,2024-04-24_12h32.17.709,stockport_simplified,2022.2.4,Win32,60.0240096,661e456ee6de07e70aa9ef7b,6628df8ed6cae02178be69e8,,,,,,,,,,,,,,,,,,,,,,,,,,,,,,,,,,164.115,166.698,"[7,6,2,8,4,1,5,3]","[[-0.3,0.2],[0.3,0.2]]","[[0.125,-0.2],[-0.125,-0.2]]",0.111111111,-0.208333333,1,0,0,2.063,o1_image,166.699,1,167.178,167.178,169.177,0,0,0,0,1,,,,,,,,,,,,,,,,,,,,,,,,,,,,,,,,,,,,,,,,,,,,,,,,,,
,,5d1dc2f9bc2b1d001a2415a5,31,male,2024-04-24_12h32.17.709,stockport_simplified,2022.2.4,Win32,60.0240096,661e456ee6de07e70aa9ef7b,6628df8ed6cae02178be69e8,,,,,,,,,,,,,,,,,,,,,,,,,,,,,,,,,,,,,,,,,,,,,,,,,,,,,,,,0,15,15,20,1,N,M,C,o1_image,stimuli/out1.png,stimuli/correct_out1.png,stimuli/out2.png,,,,,,,,,,,,,,,,,,,,,,,,,,,,,,,,,,,,,,
,,5d1dc2f9bc2b1d001a2415a5,31,male,2024-04-24_12h32.17.709,stockport_simplified,2022.2.4,Win32,60.0240096,661e456ee6de07e70aa9ef7b,6628df8ed6cae02178be69e8,,,,,,,,,,,,,,,,,,,,,,,,,,,,,,,,,,169.178,170.993,"[7,6,2,8,4,1,5,3]","[[-0.3,0.2],[0.3,0.2]]","[[0.125,-0.2],[-0.125,-0.2]]",0.112037037,-0.208333333,1,0,0,1.301,o1_image,170.994,1,171.474,171.475,173.472,0,0,0,0,1,,,,,,,,,,,,,,,,,,,,,,,,,,,,,,,,,,,,,,,,,,,,,,,,,,
,,5d1dc2f9bc2b1d001a2415a5,31,male,2024-04-24_12h32.17.709,stockport_simplified,2022.2.4,Win32,60.0240096,661e456ee6de07e70aa9ef7b,6628df8ed6cae02178be69e8,,,,,,,,,,,,,,,,,,,,,,,,,,,,,,,,,,,,,,,,,,,,,,,,,,,,,,,,0,16,16,23,1,N,M,C,o1_image,stimuli/out1.png,stimuli/correct_out1.png,stimuli/out2.png,,,,,,,,,,,,,,,,,,,,,,,,,,,,,,,,,,,,,,
,,5d1dc2f9bc2b1d001a2415a5,31,male,2024-04-24_12h32.17.709,stockport_simplified,2022.2.4,Win32,60.0240096,661e456ee6de07e70aa9ef7b,6628df8ed6cae02178be69e8,,,,,,,,,,,,,,,,,,,,,,,,,,,,,,,,,,173.472,176.12,"[7,6,2,8,4,1,5,3]","[[0.3,0.2],[-0.3,0.2]]","[[0.125,-0.2],[-0.125,-0.2]]",-0.096296296,-0.225925926,1,0,0,2.144,o2_image,176.121,0,176.601,176.601,178.586,0,0,0,0,1,,,,,,,,,,,,,,,,,,,,,,,,,,,,,,,,,,,,,,,,,,,,,,,,,,
,,5d1dc2f9bc2b1d001a2415a5,31,male,2024-04-24_12h32.17.709,stockport_simplified,2022.2.4,Win32,60.0240096,661e456ee6de07e70aa9ef7b,6628df8ed6cae02178be69e8,,,,,,,,,,,,,,,,,,,,,,,,,,,,,,,,,,,,,,,,,,,,,,,,,,,,,,,,0,17,17,31,1,A,X,N,o1_image,stimuli/out1.png,stimuli/correct_out1.png,stimuli/out2.png,,,,,,,,,,,,,,,,,,,,,,,,,,,,,,,,,,,,,,
,,5d1dc2f9bc2b1d001a2415a5,31,male,2024-04-24_12h32.17.709,stockport_simplified,2022.2.4,Win32,60.0240096,661e456ee6de07e70aa9ef7b,6628df8ed6cae02178be69e8,,,,,,,,,,,,,,,,,,,,,,,,,,,,,,,,,,178.586,182.033,"[7,6,2,8,4,1,5,3]","[[0.3,0.2],[-0.3,0.2]]","[[-0.125,-0.2],[0.125,-0.2]]",-0.112037037,-0.2,1,0,0,2.931,o1_image,182.034,1,182.533,182.533,184.53,0,0,0,0,1,,,,,,,,,,,,,,,,,,,,,,,,,,,,,,,,,,,,,,,,,,,,,,,,,,
,,5d1dc2f9bc2b1d001a2415a5,31,male,2024-04-24_12h32.17.709,stockport_simplified,2022.2.4,Win32,60.0240096,661e456ee6de07e70aa9ef7b,6628df8ed6cae02178be69e8,,,,,,,,,,,,,,,,,,,,,,,,,,,,,,,,,,,,,,,,,,,,,,,,,,,,,,,,0,18,18,9,1,A,Y,N,o1_image,stimuli/out1.png,stimuli/correct_out1.png,stimuli/out2.png,,,,,,,,,,,,,,,,,,,,,,,,,,,,,,,,,,,,,,
,,5d1dc2f9bc2b1d001a2415a5,31,male,2024-04-24_12h32.17.709,stockport_simplified,2022.2.4,Win32,60.0240096,661e456ee6de07e70aa9ef7b,6628df8ed6cae02178be69e8,,,,,,,,,,,,,,,,,,,,,,,,,,,,,,,,,,184.53,186.945,"[7,6,2,8,4,1,5,3]","[[-0.3,0.2],[0.3,0.2]]","[[0.125,-0.2],[-0.125,-0.2]]",-0.099074074,-0.178703704,1,0,0,1.914,o2_image,186.947,1,187.444,187.444,189.442,0,0,0,0,1,,,,,,,,,,,,,,,,,,,,,,,,,,,,,,,,,,,,,,,,,,,,,,,,,,
,,5d1dc2f9bc2b1d001a2415a5,31,male,2024-04-24_12h32.17.709,stockport_simplified,2022.2.4,Win32,60.0240096,661e456ee6de07e70aa9ef7b,6628df8ed6cae02178be69e8,,,,,,,,,,,,,,,,,,,,,,,,,,,,,,,,,,,,,,,,,,,,,,,,,,,,,,,,0,19,19,25,1,N,M,D,o2_image,stimuli/out2.png,stimuli/out1.png,stimuli/correct_out2.png,,,,,,,,,,,,,,,,,,,,,,,,,,,,,,,,,,,,,,
,,5d1dc2f9bc2b1d001a2415a5,31,male,2024-04-24_12h32.17.709,stockport_simplified,2022.2.4,Win32,60.0240096,661e456ee6de07e70aa9ef7b,6628df8ed6cae02178be69e8,,,,,,,,,,,,,,,,,,,,,,,,,,,,,,,,,,189.443,191.608,"[7,6,2,8,4,1,5,3]","[[0.3,0.2],[-0.3,0.2]]","[[-0.125,-0.2],[0.125,-0.2]]",-0.109259259,-0.168518519,1,0,0,1.647,o1_image,191.609,1,192.107,192.107,194.09,0,0,0,0,1,,,,,,,,,,,,,,,,,,,,,,,,,,,,,,,,,,,,,,,,,,,,,,,,,,
,,5d1dc2f9bc2b1d001a2415a5,31,male,2024-04-24_12h32.17.709,stockport_simplified,2022.2.4,Win32,60.0240096,661e456ee6de07e70aa9ef7b,6628df8ed6cae02178be69e8,,,,,,,,,,,,,,,,,,,,,,,,,,,,,,,,,,,,,,,,,,,,,,,,,,,,,,,,0,20,20,24,1,N,M,C,o1_image,stimuli/out1.png,stimuli/correct_out1.png,stimuli/out2.png,,,,,,,,,,,,,,,,,,,,,,,,,,,,,,,,,,,,,,
,,5d1dc2f9bc2b1d001a2415a5,31,male,2024-04-24_12h32.17.709,stockport_simplified,2022.2.4,Win32,60.0240096,661e456ee6de07e70aa9ef7b,6628df8ed6cae02178be69e8,,,,,,,,,,,,,,,,,,,,,,,,,,,,,,,,,,194.091,195.655,"[7,6,2,8,4,1,5,3]","[[-0.3,0.2],[0.3,0.2]]","[[-0.125,-0.2],[0.125,-0.2]]",-0.111111111,-0.180555556,1,0,0,1.048,o1_image,195.657,1,196.154,196.154,198.135,0,0,0,0,1,,,,,,,,,,,,,,,,,,,,,,,,,,,,,,,,,,,,,,,,,,,,,,,,,,
,,5d1dc2f9bc2b1d001a2415a5,31,male,2024-04-24_12h32.17.709,stockport_simplified,2022.2.4,Win32,60.0240096,661e456ee6de07e70aa9ef7b,6628df8ed6cae02178be69e8,,,,,,,,,,,,,,,,,,,,,,,,,,,,,,,,,,,,,,,,,,,,,,,,,,,,,,,,0,21,21,52,1,N,M,C,o1_image,stimuli/out1.png,stimuli/correct_out1.png,stimuli/out2.png,,,,,,,,,,,,,,,,,,,,,,,,,,,,,,,,,,,,,,
,,5d1dc2f9bc2b1d001a2415a5,31,male,2024-04-24_12h32.17.709,stockport_simplified,2022.2.4,Win32,60.0240096,661e456ee6de07e70aa9ef7b,6628df8ed6cae02178be69e8,,,,,,,,,,,,,,,,,,,,,,,,,,,,,,,,,,198.135,200.233,"[7,6,2,8,4,1,5,3]","[[-0.3,0.2],[0.3,0.2]]","[[-0.125,-0.2],[0.125,-0.2]]",-0.112037037,-0.181481481,1,0,0,1.595,o1_image,200.235,1,200.735,200.735,202.731,0,0,0,0,1,,,,,,,,,,,,,,,,,,,,,,,,,,,,,,,,,,,,,,,,,,,,,,,,,,
,,5d1dc2f9bc2b1d001a2415a5,31,male,2024-04-24_12h32.17.709,stockport_simplified,2022.2.4,Win32,60.0240096,661e456ee6de07e70aa9ef7b,6628df8ed6cae02178be69e8,,,,,,,,,,,,,,,,,,,,,,,,,,,,,,,,,,,,,,,,,,,,,,,,,,,,,,,,0,22,22,8,1,A,Y,N,o1_image,stimuli/out1.png,stimuli/correct_out1.png,stimuli/out2.png,,,,,,,,,,,,,,,,,,,,,,,,,,,,,,,,,,,,,,
,,5d1dc2f9bc2b1d001a2415a5,31,male,2024-04-24_12h32.17.709,stockport_simplified,2022.2.4,Win32,60.0240096,661e456ee6de07e70aa9ef7b,6628df8ed6cae02178be69e8,,,,,,,,,,,,,,,,,,,,,,,,,,,,,,,,,,202.732,207.632,"[7,6,2,8,4,1,5,3]","[[0.3,0.2],[-0.3,0.2]]","[[0.125,-0.2],[-0.125,-0.2]]",-0.088888889,-0.187962963,1,0,0,4.399,o2_image,207.633,0,208.144,208.144,210.143,0,0,0,0,1,,,,,,,,,,,,,,,,,,,,,,,,,,,,,,,,,,,,,,,,,,,,,,,,,,
,,5d1dc2f9bc2b1d001a2415a5,31,male,2024-04-24_12h32.17.709,stockport_simplified,2022.2.4,Win32,60.0240096,661e456ee6de07e70aa9ef7b,6628df8ed6cae02178be69e8,,,,,,,,,,,,,,,,,,,,,,,,,,,,,,,,,,,,,,,,,,,,,,,,,,,,,,,,0,23,23,30,1,A,X,N,o1_image,stimuli/out1.png,stimuli/correct_out1.png,stimuli/out2.png,,,,,,,,,,,,,,,,,,,,,,,,,,,,,,,,,,,,,,
,,5d1dc2f9bc2b1d001a2415a5,31,male,2024-04-24_12h32.17.709,stockport_simplified,2022.2.4,Win32,60.0240096,661e456ee6de07e70aa9ef7b,6628df8ed6cae02178be69e8,,,,,,,,,,,,,,,,,,,,,,,,,,,,,,,,,,210.143,213.142,"[7,6,2,8,4,1,5,3]","[[-0.3,0.2],[0.3,0.2]]","[[-0.125,-0.2],[0.125,-0.2]]",-0.147222222,-0.168518519,1,0,0,2.481,o1_image,213.143,0,213.657,213.657,215.672,0,0,0,0,1,,,,,,,,,,,,,,,,,,,,,,,,,,,,,,,,,,,,,,,,,,,,,,,,,,
,,5d1dc2f9bc2b1d001a2415a5,31,male,2024-04-24_12h32.17.709,stockport_simplified,2022.2.4,Win32,60.0240096,661e456ee6de07e70aa9ef7b,6628df8ed6cae02178be69e8,,,,,,,,,,,,,,,,,,,,,,,,,,,,,,,,,,,,,,,,,,,,,,,,,,,,,,,,0,24,24,28,1,N,M,D,o2_image,stimuli/out2.png,stimuli/out1.png,stimuli/correct_out2.png,,,,,,,,,,,,,,,,,,,,,,,,,,,,,,,,,,,,,,
,,5d1dc2f9bc2b1d001a2415a5,31,male,2024-04-24_12h32.17.709,stockport_simplified,2022.2.4,Win32,60.0240096,661e456ee6de07e70aa9ef7b,6628df8ed6cae02178be69e8,,,,,,,,,,,,,,,,,,,,,,,,,,,,,,,,,,215.673,218.454,"[7,6,2,8,4,1,5,3]","[[-0.3,0.2],[0.3,0.2]]","[[-0.125,-0.2],[0.125,-0.2]]",-0.161111111,-0.187962963,1,0,0,2.248,o1_image,218.455,0,218.951,218.951,220.933,0,0,0,0,1,,,,,,,,,,,,,,,,,,,,,,,,,,,,,,,,,,,,,,,,,,,,,,,,,,
,,5d1dc2f9bc2b1d001a2415a5,31,male,2024-04-24_12h32.17.709,stockport_simplified,2022.2.4,Win32,60.0240096,661e456ee6de07e70aa9ef7b,6628df8ed6cae02178be69e8,,,,,,,,,,,,,,,,,,,,,,,,,,,,,,,,,,,,,,,,,,,,,,,,,,,,,,,,0,25,25,46,1,B,Y,N,o2_image,stimuli/out2.png,stimuli/out1.png,stimuli/correct_out2.png,,,,,,,,,,,,,,,,,,,,,,,,,,,,,,,,,,,,,,
,,5d1dc2f9bc2b1d001a2415a5,31,male,2024-04-24_12h32.17.709,stockport_simplified,2022.2.4,Win32,60.0240096,661e456ee6de07e70aa9ef7b,6628df8ed6cae02178be69e8,,,,,,,,,,,,,,,,,,,,,,,,,,,,,,,,,,220.933,223.45,"[7,6,2,8,4,1,5,3]","[[-0.3,0.2],[0.3,0.2]]","[[0.125,-0.2],[-0.125,-0.2]]",0.137962963,-0.17962963,1,0,0,1.998,o1_image,223.45,1,223.949,223.949,225.964,0,0,0,0,1,,,,,,,,,,,,,,,,,,,,,,,,,,,,,,,,,,,,,,,,,,,,,,,,,,
,,5d1dc2f9bc2b1d001a2415a5,31,male,2024-04-24_12h32.17.709,stockport_simplified,2022.2.4,Win32,60.0240096,661e456ee6de07e70aa9ef7b,6628df8ed6cae02178be69e8,,,,,,,,,,,,,,,,,,,,,,,,,,,,,,,,,,,,,,,,,,,,,,,,,,,,,,,,0,26,26,22,1,N,M,C,o1_image,stimuli/out1.png,stimuli/correct_out1.png,stimuli/out2.png,,,,,,,,,,,,,,,,,,,,,,,,,,,,,,,,,,,,,,
,,5d1dc2f9bc2b1d001a2415a5,31,male,2024-04-24_12h32.17.709,stockport_simplified,2022.2.4,Win32,60.0240096,661e456ee6de07e70aa9ef7b,6628df8ed6cae02178be69e8,,,,,,,,,,,,,,,,,,,,,,,,,,,,,,,,,,225.966,228.444,"[7,6,2,8,4,1,5,3]","[[-0.3,0.2],[0.3,0.2]]","[[0.125,-0.2],[-0.125,-0.2]]",0.123148148,-0.183333333,1,0,0,1.964,o1_image,228.446,0,228.944,228.944,230.943,0,0,0,0,1,,,,,,,,,,,,,,,,,,,,,,,,,,,,,,,,,,,,,,,,,,,,,,,,,,
,,5d1dc2f9bc2b1d001a2415a5,31,male,2024-04-24_12h32.17.709,stockport_simplified,2022.2.4,Win32,60.0240096,661e456ee6de07e70aa9ef7b,6628df8ed6cae02178be69e8,,,,,,,,,,,,,,,,,,,,,,,,,,,,,,,,,,,,,,,,,,,,,,,,,,,,,,,,0,27,27,45,1,B,Y,N,o2_image,stimuli/out2.png,stimuli/out1.png,stimuli/correct_out2.png,,,,,,,,,,,,,,,,,,,,,,,,,,,,,,,,,,,,,,
,,5d1dc2f9bc2b1d001a2415a5,31,male,2024-04-24_12h32.17.709,stockport_simplified,2022.2.4,Win32,60.0240096,661e456ee6de07e70aa9ef7b,6628df8ed6cae02178be69e8,,,,,,,,,,,,,,,,,,,,,,,,,,,,,,,,,,230.944,234.69,"[7,6,2,8,4,1,5,3]","[[0.3,0.2],[-0.3,0.2]]","[[-0.125,-0.2],[0.125,-0.2]]",0.127777778,-0.183333333,1,0,0,3.23,o2_image,234.691,1,235.171,235.171,237.187,0,0,0,0,1,,,,,,,,,,,,,,,,,,,,,,,,,,,,,,,,,,,,,,,,,,,,,,,,,,
,,5d1dc2f9bc2b1d001a2415a5,31,male,2024-04-24_12h32.17.709,stockport_simplified,2022.2.4,Win32,60.0240096,661e456ee6de07e70aa9ef7b,6628df8ed6cae02178be69e8,,,,,,,,,,,,,,,,,,,,,,,,,,,,,,,,,,,,,,,,,,,,,,,,,,,,,,,,0,28,28,13,1,B,X,N,o2_image,stimuli/out2.png,stimuli/out1.png,stimuli/correct_out2.png,,,,,,,,,,,,,,,,,,,,,,,,,,,,,,,,,,,,,,
,,5d1dc2f9bc2b1d001a2415a5,31,male,2024-04-24_12h32.17.709,stockport_simplified,2022.2.4,Win32,60.0240096,661e456ee6de07e70aa9ef7b,6628df8ed6cae02178be69e8,,,,,,,,,,,,,,,,,,,,,,,,,,,,,,,,,,237.188,240.57,"[7,6,2,8,4,1,5,3]","[[-0.3,0.2],[0.3,0.2]]","[[0.125,-0.2],[-0.125,-0.2]]",-0.098148148,-0.182407407,1,0,0,2.881,o2_image,240.571,0,241.051,241.051,243.032,0,0,0,0,1,,,,,,,,,,,,,,,,,,,,,,,,,,,,,,,,,,,,,,,,,,,,,,,,,,
,,5d1dc2f9bc2b1d001a2415a5,31,male,2024-04-24_12h32.17.709,stockport_simplified,2022.2.4,Win32,60.0240096,661e456ee6de07e70aa9ef7b,6628df8ed6cae02178be69e8,,,,,,,,,,,,,,,,,,,,,,,,,,,,,,,,,,,,,,,,,,,,,,,,,,,,,,,,0,29,29,36,1,A,Y,N,o1_image,stimuli/out1.png,stimuli/correct_out1.png,stimuli/out2.png,,,,,,,,,,,,,,,,,,,,,,,,,,,,,,,,,,,,,,
,,5d1dc2f9bc2b1d001a2415a5,31,male,2024-04-24_12h32.17.709,stockport_simplified,2022.2.4,Win32,60.0240096,661e456ee6de07e70aa9ef7b,6628df8ed6cae02178be69e8,,,,,,,,,,,,,,,,,,,,,,,,,,,,,,,,,,243.032,244.965,"[7,6,2,8,4,1,5,3]","[[0.3,0.2],[-0.3,0.2]]","[[-0.125,-0.2],[0.125,-0.2]]",-0.128703704,-0.191666667,1,0,0,1.433,o1_image,244.966,0,245.462,245.462,247.462,0,0,0,0,1,,,,,,,,,,,,,,,,,,,,,,,,,,,,,,,,,,,,,,,,,,,,,,,,,,
,,5d1dc2f9bc2b1d001a2415a5,31,male,2024-04-24_12h32.17.709,stockport_simplified,2022.2.4,Win32,60.0240096,661e456ee6de07e70aa9ef7b,6628df8ed6cae02178be69e8,,,,,,,,,,,,,,,,,,,,,,,,,,,,,,,,,,,,,,,,,,,,,,,,,,,,,,,,0,30,30,48,1,B,Y,N,o2_image,stimuli/out2.png,stimuli/out1.png,stimuli/correct_out2.png,,,,,,,,,,,,,,,,,,,,,,,,,,,,,,,,,,,,,,
,,5d1dc2f9bc2b1d001a2415a5,31,male,2024-04-24_12h32.17.709,stockport_simplified,2022.2.4,Win32,60.0240096,661e456ee6de07e70aa9ef7b,6628df8ed6cae02178be69e8,,,,,,,,,,,,,,,,,,,,,,,,,,,,,,,,,,247.462,251.292,"[7,6,2,8,4,1,5,3]","[[-0.3,0.2],[0.3,0.2]]","[[0.125,-0.2],[-0.125,-0.2]]",0.082407407,-0.200925926,1,0,0,3.312,o1_image,251.293,1,251.793,251.793,253.792,0,0,0,0,1,,,,,,,,,,,,,,,,,,,,,,,,,,,,,,,,,,,,,,,,,,,,,,,,,,
,,5d1dc2f9bc2b1d001a2415a5,31,male,2024-04-24_12h32.17.709,stockport_simplified,2022.2.4,Win32,60.0240096,661e456ee6de07e70aa9ef7b,6628df8ed6cae02178be69e8,,,,,,,,,,,,,,,,,,,,,,,,,,,,,,,,,,,,,,,,,,,,,,,,,,,,,,,,0,31,31,5,1,A,Y,N,o1_image,stimuli/out1.png,stimuli/correct_out1.png,stimuli/out2.png,,,,,,,,,,,,,,,,,,,,,,,,,,,,,,,,,,,,,,
,,5d1dc2f9bc2b1d001a2415a5,31,male,2024-04-24_12h32.17.709,stockport_simplified,2022.2.4,Win32,60.0240096,661e456ee6de07e70aa9ef7b,6628df8ed6cae02178be69e8,,,,,,,,,,,,,,,,,,,,,,,,,,,,,,,,,,253.793,257.473,"[7,6,2,8,4,1,5,3]","[[0.3,0.2],[-0.3,0.2]]","[[0.125,-0.2],[-0.125,-0.2]]",-0.138888889,-0.213888889,1,0,0,3.147,o2_image,257.475,0,257.97,257.97,259.95,0,0,0,0,1,,,,,,,,,,,,,,,,,,,,,,,,,,,,,,,,,,,,,,,,,,,,,,,,,,
,,5d1dc2f9bc2b1d001a2415a5,31,male,2024-04-24_12h32.17.709,stockport_simplified,2022.2.4,Win32,60.0240096,661e456ee6de07e70aa9ef7b,6628df8ed6cae02178be69e8,,,,,,,,,,,,,,,,,,,,,,,,,,,,,,,,,,,,,,,,,,,,,,,,,,,,,,,,0,32,32,32,1,A,X,N,o1_image,stimuli/out1.png,stimuli/correct_out1.png,stimuli/out2.png,,,,,,,,,,,,,,,,,,,,,,,,,,,,,,,,,,,,,,
,,5d1dc2f9bc2b1d001a2415a5,31,male,2024-04-24_12h32.17.709,stockport_simplified,2022.2.4,Win32,60.0240096,661e456ee6de07e70aa9ef7b,6628df8ed6cae02178be69e8,,,,,,,,,,,,,,,,,,,,,,,,,,,,,,,,,,259.951,263.252,"[7,6,2,8,4,1,5,3]","[[-0.3,0.2],[0.3,0.2]]","[[-0.125,-0.2],[0.125,-0.2]]",0.087037037,-0.193518519,1,0,0,2.799,o2_image,263.253,1,263.731,263.731,265.713,0,0,0,0,1,,,,,,,,,,,,,,,,,,,,,,,,,,,,,,,,,,,,,,,,,,,,,,,,,,
,,5d1dc2f9bc2b1d001a2415a5,31,male,2024-04-24_12h32.17.709,stockport_simplified,2022.2.4,Win32,60.0240096,661e456ee6de07e70aa9ef7b,6628df8ed6cae02178be69e8,,,,,,,,,,,,,,,,,,,,,,,,,,,,,,,,,,,,,,,,,,,,,,,,,,,,,,,,0,33,33,27,1,N,M,D,o2_image,stimuli/out2.png,stimuli/out1.png,stimuli/correct_out2.png,,,,,,,,,,,,,,,,,,,,,,,,,,,,,,,,,,,,,,
,,5d1dc2f9bc2b1d001a2415a5,31,male,2024-04-24_12h32.17.709,stockport_simplified,2022.2.4,Win32,60.0240096,661e456ee6de07e70aa9ef7b,6628df8ed6cae02178be69e8,,,,,,,,,,,,,,,,,,,,,,,,,,,,,,,,,,265.714,269.994,"[7,6,2,8,4,1,5,3]","[[-0.3,0.2],[0.3,0.2]]","[[0.125,-0.2],[-0.125,-0.2]]",0.127777778,-0.165740741,1,0,0,3.764,o1_image,269.995,1,270.492,270.492,272.474,0,0,0,0,1,,,,,,,,,,,,,,,,,,,,,,,,,,,,,,,,,,,,,,,,,,,,,,,,,,
,,5d1dc2f9bc2b1d001a2415a5,31,male,2024-04-24_12h32.17.709,stockport_simplified,2022.2.4,Win32,60.0240096,661e456ee6de07e70aa9ef7b,6628df8ed6cae02178be69e8,,,,,,,,,,,,,,,,,,,,,,,,,,,,,,,,,,,,,,,,,,,,,,,,,,,,,,,,0,34,34,39,1,A,Y,N,o1_image,stimuli/out1.png,stimuli/correct_out1.png,stimuli/out2.png,,,,,,,,,,,,,,,,,,,,,,,,,,,,,,,,,,,,,,
,,5d1dc2f9bc2b1d001a2415a5,31,male,2024-04-24_12h32.17.709,stockport_simplified,2022.2.4,Win32,60.0240096,661e456ee6de07e70aa9ef7b,6628df8ed6cae02178be69e8,,,,,,,,,,,,,,,,,,,,,,,,,,,,,,,,,,272.474,275.689,"[7,6,2,8,4,1,5,3]","[[0.3,0.2],[-0.3,0.2]]","[[-0.125,-0.2],[0.125,-0.2]]",0.127777778,-0.177777778,1,0,0,2.714,o2_image,275.69,0,276.172,276.172,278.188,0,0,0,0,1,,,,,,,,,,,,,,,,,,,,,,,,,,,,,,,,,,,,,,,,,,,,,,,,,,
,,5d1dc2f9bc2b1d001a2415a5,31,male,2024-04-24_12h32.17.709,stockport_simplified,2022.2.4,Win32,60.0240096,661e456ee6de07e70aa9ef7b,6628df8ed6cae02178be69e8,,,,,,,,,,,,,,,,,,,,,,,,,,,,,,,,,,,,,,,,,,,,,,,,,,,,,,,,0,35,35,1,1,A,X,N,o1_image,stimuli/out1.png,stimuli/correct_out1.png,stimuli/out2.png,,,,,,,,,,,,,,,,,,,,,,,,,,,,,,,,,,,,,,
,,5d1dc2f9bc2b1d001a2415a5,31,male,2024-04-24_12h32.17.709,stockport_simplified,2022.2.4,Win32,60.0240096,661e456ee6de07e70aa9ef7b,6628df8ed6cae02178be69e8,,,,,,,,,,,,,,,,,,,,,,,,,,,,,,,,,,278.188,281.085,"[7,6,2,8,4,1,5,3]","[[0.3,0.2],[-0.3,0.2]]","[[-0.125,-0.2],[0.125,-0.2]]",-0.078703704,-0.191666667,1,0,0,2.382,o1_image,281.086,1,281.6,281.6,283.582,0,0,0,0,1,,,,,,,,,,,,,,,,,,,,,,,,,,,,,,,,,,,,,,,,,,,,,,,,,,
,,5d1dc2f9bc2b1d001a2415a5,31,male,2024-04-24_12h32.17.709,stockport_simplified,2022.2.4,Win32,60.0240096,661e456ee6de07e70aa9ef7b,6628df8ed6cae02178be69e8,,,,,,,,,,,,,,,,,,,,,,,,,,,,,,,,,,,,,,,,,,,,,,,,,,,,,,,,0,36,36,38,1,A,Y,N,o1_image,stimuli/out1.png,stimuli/correct_out1.png,stimuli/out2.png,,,,,,,,,,,,,,,,,,,,,,,,,,,,,,,,,,,,,,
,,5d1dc2f9bc2b1d001a2415a5,31,male,2024-04-24_12h32.17.709,stockport_simplified,2022.2.4,Win32,60.0240096,661e456ee6de07e70aa9ef7b,6628df8ed6cae02178be69e8,,,,,,,,,,,,,,,,,,,,,,,,,,,,,,,,,,283.582,286.695,"[7,6,2,8,4,1,5,3]","[[-0.3,0.2],[0.3,0.2]]","[[0.125,-0.2],[-0.125,-0.2]]",-0.136111111,-0.200925926,1,0,0,2.596,o2_image,286.696,1,287.196,287.196,289.194,0,0,0,0,1,,,,,,,,,,,,,,,,,,,,,,,,,,,,,,,,,,,,,,,,,,,,,,,,,,
,,5d1dc2f9bc2b1d001a2415a5,31,male,2024-04-24_12h32.17.709,stockport_simplified,2022.2.4,Win32,60.0240096,661e456ee6de07e70aa9ef7b,6628df8ed6cae02178be69e8,,,,,,,,,,,,,,,,,,,,,,,,,,,,,,,,,,,,,,,,,,,,,,,,,,,,,,,,0,37,37,40,1,B,X,N,o2_image,stimuli/out2.png,stimuli/out1.png,stimuli/correct_out2.png,,,,,,,,,,,,,,,,,,,,,,,,,,,,,,,,,,,,,,
,,5d1dc2f9bc2b1d001a2415a5,31,male,2024-04-24_12h32.17.709,stockport_simplified,2022.2.4,Win32,60.0240096,661e456ee6de07e70aa9ef7b,6628df8ed6cae02178be69e8,,,,,,,,,,,,,,,,,,,,,,,,,,,,,,,,,,289.196,293.494,"[7,6,2,8,4,1,5,3]","[[0.3,0.2],[-0.3,0.2]]","[[0.125,-0.2],[-0.125,-0.2]]",-0.109259259,-0.176851852,1,0,0,3.783,o2_image,293.495,1,293.973,293.973,295.972,0,0,0,0,1,,,,,,,,,,,,,,,,,,,,,,,,,,,,,,,,,,,,,,,,,,,,,,,,,,
,,5d1dc2f9bc2b1d001a2415a5,31,male,2024-04-24_12h32.17.709,stockport_simplified,2022.2.4,Win32,60.0240096,661e456ee6de07e70aa9ef7b,6628df8ed6cae02178be69e8,,,,,,,,,,,,,,,,,,,,,,,,,,,,,,,,,,,,,,,,,,,,,,,,,,,,,,,,0,38,38,41,1,B,X,N,o2_image,stimuli/out2.png,stimuli/out1.png,stimuli/correct_out2.png,,,,,,,,,,,,,,,,,,,,,,,,,,,,,,,,,,,,,,
,,5d1dc2f9bc2b1d001a2415a5,31,male,2024-04-24_12h32.17.709,stockport_simplified,2022.2.4,Win32,60.0240096,661e456ee6de07e70aa9ef7b,6628df8ed6cae02178be69e8,,,,,,,,,,,,,,,,,,,,,,,,,,,,,,,,,,295.972,299.119,"[7,6,2,8,4,1,5,3]","[[-0.3,0.2],[0.3,0.2]]","[[0.125,-0.2],[-0.125,-0.2]]",-0.109259259,-0.177777778,1,0,0,2.646,o2_image,299.121,0,299.619,299.619,301.619,0,0,0,0,1,,,,,,,,,,,,,,,,,,,,,,,,,,,,,,,,,,,,,,,,,,,,,,,,,,
,,5d1dc2f9bc2b1d001a2415a5,31,male,2024-04-24_12h32.17.709,stockport_simplified,2022.2.4,Win32,60.0240096,661e456ee6de07e70aa9ef7b,6628df8ed6cae02178be69e8,,,,,,,,,,,,,,,,,,,,,,,,,,,,,,,,,,,,,,,,,,,,,,,,,,,,,,,,0,39,39,7,1,A,Y,N,o1_image,stimuli/out1.png,stimuli/correct_out1.png,stimuli/out2.png,,,,,,,,,,,,,,,,,,,,,,,,,,,,,,,,,,,,,,
,,5d1dc2f9bc2b1d001a2415a5,31,male,2024-04-24_12h32.17.709,stockport_simplified,2022.2.4,Win32,60.0240096,661e456ee6de07e70aa9ef7b,6628df8ed6cae02178be69e8,,,,,,,,,,,,,,,,,,,,,,,,,,,,,,,,,,301.619,304.349,"[7,6,2,8,4,1,5,3]","[[0.3,0.2],[-0.3,0.2]]","[[0.125,-0.2],[-0.125,-0.2]]",-0.088888889,-0.188888889,1,0,0,2.214,o2_image,304.352,1,304.832,304.832,306.83,0,0,0,0,1,,,,,,,,,,,,,,,,,,,,,,,,,,,,,,,,,,,,,,,,,,,,,,,,,,
,,5d1dc2f9bc2b1d001a2415a5,31,male,2024-04-24_12h32.17.709,stockport_simplified,2022.2.4,Win32,60.0240096,661e456ee6de07e70aa9ef7b,6628df8ed6cae02178be69e8,,,,,,,,,,,,,,,,,,,,,,,,,,,,,,,,,,,,,,,,,,,,,,,,,,,,,,,,0,40,40,11,1,B,X,N,o2_image,stimuli/out2.png,stimuli/out1.png,stimuli/correct_out2.png,,,,,,,,,,,,,,,,,,,,,,,,,,,,,,,,,,,,,,
,,5d1dc2f9bc2b1d001a2415a5,31,male,2024-04-24_12h32.17.709,stockport_simplified,2022.2.4,Win32,60.0240096,661e456ee6de07e70aa9ef7b,6628df8ed6cae02178be69e8,,,,,,,,,,,,,,,,,,,,,,,,,,,,,,,,,,306.83,309.178,"[7,6,2,8,4,1,5,3]","[[-0.3,0.2],[0.3,0.2]]","[[0.125,-0.2],[-0.125,-0.2]]",0.149074074,-0.153703704,1,0,0,1.848,o1_image,309.18,0,309.697,309.697,311.676,0,0,0,0,1,,,,,,,,,,,,,,,,,,,,,,,,,,,,,,,,,,,,,,,,,,,,,,,,,,
,,5d1dc2f9bc2b1d001a2415a5,31,male,2024-04-24_12h32.17.709,stockport_simplified,2022.2.4,Win32,60.0240096,661e456ee6de07e70aa9ef7b,6628df8ed6cae02178be69e8,,,,,,,,,,,,,,,,,,,,,,,,,,,,,,,,,,,,,,,,,,,,,,,,,,,,,,,,0,41,41,16,1,B,Y,N,o2_image,stimuli/out2.png,stimuli/out1.png,stimuli/correct_out2.png,,,,,,,,,,,,,,,,,,,,,,,,,,,,,,,,,,,,,,
,,5d1dc2f9bc2b1d001a2415a5,31,male,2024-04-24_12h32.17.709,stockport_simplified,2022.2.4,Win32,60.0240096,661e456ee6de07e70aa9ef7b,6628df8ed6cae02178be69e8,,,,,,,,,,,,,,,,,,,,,,,,,,,,,,,,,,311.677,314.61,"[7,6,2,8,4,1,5,3]","[[-0.3,0.2],[0.3,0.2]]","[[0.125,-0.2],[-0.125,-0.2]]",-0.090740741,-0.166666667,1,0,0,2.427,o2_image,314.612,1,315.108,315.108,317.106,0,0,0,0,1,,,,,,,,,,,,,,,,,,,,,,,,,,,,,,,,,,,,,,,,,,,,,,,,,,
,,5d1dc2f9bc2b1d001a2415a5,31,male,2024-04-24_12h32.17.709,stockport_simplified,2022.2.4,Win32,60.0240096,661e456ee6de07e70aa9ef7b,6628df8ed6cae02178be69e8,,,,,,,,,,,,,,,,,,,,,,,,,,,,,,,,,,,,,,,,,,,,,,,,,,,,,,,,0,42,42,55,1,N,M,D,o2_image,stimuli/out2.png,stimuli/out1.png,stimuli/correct_out2.png,,,,,,,,,,,,,,,,,,,,,,,,,,,,,,,,,,,,,,
,,5d1dc2f9bc2b1d001a2415a5,31,male,2024-04-24_12h32.17.709,stockport_simplified,2022.2.4,Win32,60.0240096,661e456ee6de07e70aa9ef7b,6628df8ed6cae02178be69e8,,,,,,,,,,,,,,,,,,,,,,,,,,,,,,,,,,317.106,318.858,"[7,6,2,8,4,1,5,3]","[[-0.3,0.2],[0.3,0.2]]","[[0.125,-0.2],[-0.125,-0.2]]",0.106481481,-0.187962963,1,0,0,1.251,o1_image,318.859,1,319.338,319.338,321.336,0,0,0,0,1,,,,,,,,,,,,,,,,,,,,,,,,,,,,,,,,,,,,,,,,,,,,,,,,,,
,,5d1dc2f9bc2b1d001a2415a5,31,male,2024-04-24_12h32.17.709,stockport_simplified,2022.2.4,Win32,60.0240096,661e456ee6de07e70aa9ef7b,6628df8ed6cae02178be69e8,,,,,,,,,,,,,,,,,,,,,,,,,,,,,,,,,,,,,,,,,,,,,,,,,,,,,,,,0,43,43,53,1,N,M,C,o1_image,stimuli/out1.png,stimuli/correct_out1.png,stimuli/out2.png,,,,,,,,,,,,,,,,,,,,,,,,,,,,,,,,,,,,,,
,,5d1dc2f9bc2b1d001a2415a5,31,male,2024-04-24_12h32.17.709,stockport_simplified,2022.2.4,Win32,60.0240096,661e456ee6de07e70aa9ef7b,6628df8ed6cae02178be69e8,,,,,,,,,,,,,,,,,,,,,,,,,,,,,,,,,,321.338,323.784,"[7,6,2,8,4,1,5,3]","[[-0.3,0.2],[0.3,0.2]]","[[-0.125,-0.2],[0.125,-0.2]]",-0.112037037,-0.188888889,1,0,0,1.927,o1_image,323.786,1,324.301,324.301,326.281,0,0,0,0,1,,,,,,,,,,,,,,,,,,,,,,,,,,,,,,,,,,,,,,,,,,,,,,,,,,
,,5d1dc2f9bc2b1d001a2415a5,31,male,2024-04-24_12h32.17.709,stockport_simplified,2022.2.4,Win32,60.0240096,661e456ee6de07e70aa9ef7b,6628df8ed6cae02178be69e8,,,,,,,,,,,,,,,,,,,,,,,,,,,,,,,,,,,,,,,,,,,,,,,,,,,,,,,,0,44,44,35,1,A,Y,N,o1_image,stimuli/out1.png,stimuli/correct_out1.png,stimuli/out2.png,,,,,,,,,,,,,,,,,,,,,,,,,,,,,,,,,,,,,,
,,5d1dc2f9bc2b1d001a2415a5,31,male,2024-04-24_12h32.17.709,stockport_simplified,2022.2.4,Win32,60.0240096,661e456ee6de07e70aa9ef7b,6628df8ed6cae02178be69e8,,,,,,,,,,,,,,,,,,,,,,,,,,,,,,,,,,326.282,327.999,"[7,6,2,8,4,1,5,3]","[[0.3,0.2],[-0.3,0.2]]","[[-0.125,-0.2],[0.125,-0.2]]",-0.124074074,-0.225,1,0,0,1.213,o1_image,328.001,1,328.514,328.514,330.51,0,0,0,0,1,,,,,,,,,,,,,,,,,,,,,,,,,,,,,,,,,,,,,,,,,,,,,,,,,,
,,5d1dc2f9bc2b1d001a2415a5,31,male,2024-04-24_12h32.17.709,stockport_simplified,2022.2.4,Win32,60.0240096,661e456ee6de07e70aa9ef7b,6628df8ed6cae02178be69e8,,,,,,,,,,,,,,,,,,,,,,,,,,,,,,,,,,,,,,,,,,,,,,,,,,,,,,,,0,45,45,50,1,N,M,C,o1_image,stimuli/out1.png,stimuli/correct_out1.png,stimuli/out2.png,,,,,,,,,,,,,,,,,,,,,,,,,,,,,,,,,,,,,,
,,5d1dc2f9bc2b1d001a2415a5,31,male,2024-04-24_12h32.17.709,stockport_simplified,2022.2.4,Win32,60.0240096,661e456ee6de07e70aa9ef7b,6628df8ed6cae02178be69e8,,,,,,,,,,,,,,,,,,,,,,,,,,,,,,,,,,330.511,334.876,"[7,6,2,8,4,1,5,3]","[[-0.3,0.2],[0.3,0.2]]","[[-0.125,-0.2],[0.125,-0.2]]",0.122222222,-0.202777778,1,0,0,3.865,o2_image,334.878,0,335.357,335.357,337.359,0,0,0,0,1,,,,,,,,,,,,,,,,,,,,,,,,,,,,,,,,,,,,,,,,,,,,,,,,,,
,,5d1dc2f9bc2b1d001a2415a5,31,male,2024-04-24_12h32.17.709,stockport_simplified,2022.2.4,Win32,60.0240096,661e456ee6de07e70aa9ef7b,6628df8ed6cae02178be69e8,,,,,,,,,,,,,,,,,,,,,,,,,,,,,,,,,,,,,,,,,,,,,,,,,,,,,,,,0,46,46,4,1,A,X,N,o1_image,stimuli/out1.png,stimuli/correct_out1.png,stimuli/out2.png,,,,,,,,,,,,,,,,,,,,,,,,,,,,,,,,,,,,,,
,,5d1dc2f9bc2b1d001a2415a5,31,male,2024-04-24_12h32.17.709,stockport_simplified,2022.2.4,Win32,60.0240096,661e456ee6de07e70aa9ef7b,6628df8ed6cae02178be69e8,,,,,,,,,,,,,,,,,,,,,,,,,,,,,,,,,,337.359,341.076,"[7,6,2,8,4,1,5,3]","[[-0.3,0.2],[0.3,0.2]]","[[-0.125,-0.2],[0.125,-0.2]]",-0.10462963,-0.148148148,1,0,0,3.201,o1_image,341.082,1,341.584,341.584,343.585,0,0,0,0,1,,,,,,,,,,,,,,,,,,,,,,,,,,,,,,,,,,,,,,,,,,,,,,,,,,
,,5d1dc2f9bc2b1d001a2415a5,31,male,2024-04-24_12h32.17.709,stockport_simplified,2022.2.4,Win32,60.0240096,661e456ee6de07e70aa9ef7b,6628df8ed6cae02178be69e8,,,,,,,,,,,,,,,,,,,,,,,,,,,,,,,,,,,,,,,,,,,,,,,,,,,,,,,,0,47,47,37,1,A,Y,N,o1_image,stimuli/out1.png,stimuli/correct_out1.png,stimuli/out2.png,,,,,,,,,,,,,,,,,,,,,,,,,,,,,,,,,,,,,,
,,5d1dc2f9bc2b1d001a2415a5,31,male,2024-04-24_12h32.17.709,stockport_simplified,2022.2.4,Win32,60.0240096,661e456ee6de07e70aa9ef7b,6628df8ed6cae02178be69e8,,,,,,,,,,,,,,,,,,,,,,,,,,,,,,,,,,343.586,346.064,"[7,6,2,8,4,1,5,3]","[[-0.3,0.2],[0.3,0.2]]","[[-0.125,-0.2],[0.125,-0.2]]",-0.127777778,-0.184259259,1,0,0,1.962,o1_image,346.066,0,346.563,346.563,348.566,0,0,0,0,1,,,,,,,,,,,,,,,,,,,,,,,,,,,,,,,,,,,,,,,,,,,,,,,,,,
,,5d1dc2f9bc2b1d001a2415a5,31,male,2024-04-24_12h32.17.709,stockport_simplified,2022.2.4,Win32,60.0240096,661e456ee6de07e70aa9ef7b,6628df8ed6cae02178be69e8,,,,,,,,,,,,,,,,,,,,,,,,,,,,,,,,,,,,,,,,,,,,,,,,,,,,,,,,0,48,48,15,1,B,Y,N,o2_image,stimuli/out2.png,stimuli/out1.png,stimuli/correct_out2.png,,,,,,,,,,,,,,,,,,,,,,,,,,,,,,,,,,,,,,
,,5d1dc2f9bc2b1d001a2415a5,31,male,2024-04-24_12h32.17.709,stockport_simplified,2022.2.4,Win32,60.0240096,661e456ee6de07e70aa9ef7b,6628df8ed6cae02178be69e8,,,,,,,,,,,,,,,,,,,,,,,,,,,,,,,,,,348.567,350.332,"[7,6,2,8,4,1,5,3]","[[-0.3,0.2],[0.3,0.2]]","[[-0.125,-0.2],[0.125,-0.2]]",0.133333333,-0.172222222,1,0,0,1.251,o2_image,350.333,1,350.845,350.845,352.843,0,0,0,0,1,,,,,,,,,,,,,,,,,,,,,,,,,,,,,,,,,,,,,,,,,,,,,,,,,,
,,5d1dc2f9bc2b1d001a2415a5,31,male,2024-04-24_12h32.17.709,stockport_simplified,2022.2.4,Win32,60.0240096,661e456ee6de07e70aa9ef7b,6628df8ed6cae02178be69e8,,,,,,,,,,,,,,,,,,,,,,,,,,,,,,,,,,,,,,,,,,,,,,,,,,,,,,,,0,49,49,18,1,B,Y,N,o2_image,stimuli/out2.png,stimuli/out1.png,stimuli/correct_out2.png,,,,,,,,,,,,,,,,,,,,,,,,,,,,,,,,,,,,,,
,,5d1dc2f9bc2b1d001a2415a5,31,male,2024-04-24_12h32.17.709,stockport_simplified,2022.2.4,Win32,60.0240096,661e456ee6de07e70aa9ef7b,6628df8ed6cae02178be69e8,,,,,,,,,,,,,,,,,,,,,,,,,,,,,,,,,,352.843,355.329,"[7,6,2,8,4,1,5,3]","[[0.3,0.2],[-0.3,0.2]]","[[0.125,-0.2],[-0.125,-0.2]]",-0.140740741,-0.2,1,0,0,1.985,o2_image,355.34,0,355.856,355.856,357.859,0,0,0,0,1,,,,,,,,,,,,,,,,,,,,,,,,,,,,,,,,,,,,,,,,,,,,,,,,,,
,,5d1dc2f9bc2b1d001a2415a5,31,male,2024-04-24_12h32.17.709,stockport_simplified,2022.2.4,Win32,60.0240096,661e456ee6de07e70aa9ef7b,6628df8ed6cae02178be69e8,,,,,,,,,,,,,,,,,,,,,,,,,,,,,,,,,,,,,,,,,,,,,,,,,,,,,,,,0,50,50,6,1,A,Y,N,o1_image,stimuli/out1.png,stimuli/correct_out1.png,stimuli/out2.png,,,,,,,,,,,,,,,,,,,,,,,,,,,,,,,,,,,,,,
,,5d1dc2f9bc2b1d001a2415a5,31,male,2024-04-24_12h32.17.709,stockport_simplified,2022.2.4,Win32,60.0240096,661e456ee6de07e70aa9ef7b,6628df8ed6cae02178be69e8,,,,,,,,,,,,,,,,,,,,,,,,,,,,,,,,,,357.859,359.97,"[7,6,2,8,4,1,5,3]","[[-0.3,0.2],[0.3,0.2]]","[[-0.125,-0.2],[0.125,-0.2]]",-0.094444444,-0.141666667,1,0,0,1.598,o1_image,359.971,1,360.472,360.472,362.472,0,0,0,0,1,,,,,,,,,,,,,,,,,,,,,,,,,,,,,,,,,,,,,,,,,,,,,,,,,,
,,5d1dc2f9bc2b1d001a2415a5,31,male,2024-04-24_12h32.17.709,stockport_simplified,2022.2.4,Win32,60.0240096,661e456ee6de07e70aa9ef7b,6628df8ed6cae02178be69e8,,,,,,,,,,,,,,,,,,,,,,,,,,,,,,,,,,,,,,,,,,,,,,,,,,,,,,,,0,51,51,54,1,N,M,C,o1_image,stimuli/out1.png,stimuli/correct_out1.png,stimuli/out2.png,,,,,,,,,,,,,,,,,,,,,,,,,,,,,,,,,,,,,,
,,5d1dc2f9bc2b1d001a2415a5,31,male,2024-04-24_12h32.17.709,stockport_simplified,2022.2.4,Win32,60.0240096,661e456ee6de07e70aa9ef7b,6628df8ed6cae02178be69e8,,,,,,,,,,,,,,,,,,,,,,,,,,,,,,,,,,362.473,365.702,"[7,6,2,8,4,1,5,3]","[[-0.3,0.2],[0.3,0.2]]","[[0.125,-0.2],[-0.125,-0.2]]",-0.105555556,-0.180555556,1,0,0,2.701,o2_image,365.703,1,366.198,366.198,368.18,0,0,0,0,1,,,,,,,,,,,,,,,,,,,,,,,,,,,,,,,,,,,,,,,,,,,,,,,,,,
,,5d1dc2f9bc2b1d001a2415a5,31,male,2024-04-24_12h32.17.709,stockport_simplified,2022.2.4,Win32,60.0240096,661e456ee6de07e70aa9ef7b,6628df8ed6cae02178be69e8,,,,,,,,,,,,,,,,,,,,,,,,,,,,,,,,,,,,,,,,,,,,,,,,,,,,,,,,0,52,52,10,1,B,X,N,o2_image,stimuli/out2.png,stimuli/out1.png,stimuli/correct_out2.png,,,,,,,,,,,,,,,,,,,,,,,,,,,,,,,,,,,,,,
,,5d1dc2f9bc2b1d001a2415a5,31,male,2024-04-24_12h32.17.709,stockport_simplified,2022.2.4,Win32,60.0240096,661e456ee6de07e70aa9ef7b,6628df8ed6cae02178be69e8,,,,,,,,,,,,,,,,,,,,,,,,,,,,,,,,,,368.18,371.045,"[7,6,2,8,4,1,5,3]","[[-0.3,0.2],[0.3,0.2]]","[[-0.125,-0.2],[0.125,-0.2]]",0.138888889,-0.187037037,1,0,0,2.349,o2_image,371.046,1,371.543,371.543,373.558,0,0,0,0,1,,,,,,,,,,,,,,,,,,,,,,,,,,,,,,,,,,,,,,,,,,,,,,,,,,
,,5d1dc2f9bc2b1d001a2415a5,31,male,2024-04-24_12h32.17.709,stockport_simplified,2022.2.4,Win32,60.0240096,661e456ee6de07e70aa9ef7b,6628df8ed6cae02178be69e8,,,,,,,,,,,,,,,,,,,,,,,,,,,,,,,,,,,,,,,,,,,,,,,,,,,,,,,,0,53,53,29,1,N,M,D,o2_image,stimuli/out2.png,stimuli/out1.png,stimuli/correct_out2.png,,,,,,,,,,,,,,,,,,,,,,,,,,,,,,,,,,,,,,
,,5d1dc2f9bc2b1d001a2415a5,31,male,2024-04-24_12h32.17.709,stockport_simplified,2022.2.4,Win32,60.0240096,661e456ee6de07e70aa9ef7b,6628df8ed6cae02178be69e8,,,,,,,,,,,,,,,,,,,,,,,,,,,,,,,,,,373.558,375.442,"[7,6,2,8,4,1,5,3]","[[0.3,0.2],[-0.3,0.2]]","[[0.125,-0.2],[-0.125,-0.2]]",-0.096296296,-0.194444444,1,0,0,1.382,o2_image,375.443,1,375.941,375.941,377.937,0,0,0,0,1,,,,,,,,,,,,,,,,,,,,,,,,,,,,,,,,,,,,,,,,,,,,,,,,,,
,,5d1dc2f9bc2b1d001a2415a5,31,male,2024-04-24_12h32.17.709,stockport_simplified,2022.2.4,Win32,60.0240096,661e456ee6de07e70aa9ef7b,6628df8ed6cae02178be69e8,,,,,,,,,,,,,,,,,,,,,,,,,,,,,,,,,,,,,,,,,,,,,,,,,,,,,,,,0,54,54,56,1,N,M,D,o2_image,stimuli/out2.png,stimuli/out1.png,stimuli/correct_out2.png,,,,,,,,,,,,,,,,,,,,,,,,,,,,,,,,,,,,,,
,,5d1dc2f9bc2b1d001a2415a5,31,male,2024-04-24_12h32.17.709,stockport_simplified,2022.2.4,Win32,60.0240096,661e456ee6de07e70aa9ef7b,6628df8ed6cae02178be69e8,,,,,,,,,,,,,,,,,,,,,,,,,,,,,,,,,,377.937,379.587,"[7,6,2,8,4,1,5,3]","[[0.3,0.2],[-0.3,0.2]]","[[0.125,-0.2],[-0.125,-0.2]]",-0.100925926,-0.193518519,1,0,0,1.15,o2_image,379.589,1,380.086,380.086,382.084,0,0,0,0,1,,,,,,,,,,,,,,,,,,,,,,,,,,,,,,,,,,,,,,,,,,,,,,,,,,
,,5d1dc2f9bc2b1d001a2415a5,31,male,2024-04-24_12h32.17.709,stockport_simplified,2022.2.4,Win32,60.0240096,661e456ee6de07e70aa9ef7b,6628df8ed6cae02178be69e8,,,,,,,,,,,,,,,,,,,,,,,,,,,,,,,,,,,,,,,,,,,,,,,,,,,,,,,,0,55,55,59,1,N,M,D,o2_image,stimuli/out2.png,stimuli/out1.png,stimuli/correct_out2.png,,,,,,,,,,,,,,,,,,,,,,,,,,,,,,,,,,,,,,
,,5d1dc2f9bc2b1d001a2415a5,31,male,2024-04-24_12h32.17.709,stockport_simplified,2022.2.4,Win32,60.0240096,661e456ee6de07e70aa9ef7b,6628df8ed6cae02178be69e8,,,,,,,,,,,,,,,,,,,,,,,,,,,,,,,,,,382.085,385.617,"[7,6,2,8,4,1,5,3]","[[-0.3,0.2],[0.3,0.2]]","[[-0.125,-0.2],[0.125,-0.2]]",-0.102777778,-0.198148148,1,0,0,3.014,o1_image,385.618,1,386.114,386.114,388.129,0,0,0,0,1,,,,,,,,,,,,,,,,,,,,,,,,,,,,,,,,,,,,,,,,,,,,,,,,,,
,,5d1dc2f9bc2b1d001a2415a5,31,male,2024-04-24_12h32.17.709,stockport_simplified,2022.2.4,Win32,60.0240096,661e456ee6de07e70aa9ef7b,6628df8ed6cae02178be69e8,,,,,,,,,,,,,,,,,,,,,,,,,,,,,,,,,,,,,,,,,,,,,,,,,,,,,,,,0,56,56,0,1,A,X,N,o1_image,stimuli/out1.png,stimuli/correct_out1.png,stimuli/out2.png,,,,,,,,,,,,,,,,,,,,,,,,,,,,,,,,,,,,,,
,,5d1dc2f9bc2b1d001a2415a5,31,male,2024-04-24_12h32.17.709,stockport_simplified,2022.2.4,Win32,60.0240096,661e456ee6de07e70aa9ef7b,6628df8ed6cae02178be69e8,,,,,,,,,,,,,,,,,,,,,,,,,,,,,,,,,,388.13,389.88,"[7,6,2,8,4,1,5,3]","[[-0.3,0.2],[0.3,0.2]]","[[0.125,-0.2],[-0.125,-0.2]]",-0.091666667,-0.221296296,1,0,0,1.234,o2_image,389.882,1,390.378,390.378,392.376,0,0,0,0,1,,,,,,,,,,,,,,,,,,,,,,,,,,,,,,,,,,,,,,,,,,,,,,,,,,
,,5d1dc2f9bc2b1d001a2415a5,31,male,2024-04-24_12h32.17.709,stockport_simplified,2022.2.4,Win32,60.0240096,661e456ee6de07e70aa9ef7b,6628df8ed6cae02178be69e8,,,,,,,,,,,,,,,,,,,,,,,,,,,,,,,,,,,,,,,,,,,,,,,,,,,,,,,,0,57,57,44,1,B,X,N,o2_image,stimuli/out2.png,stimuli/out1.png,stimuli/correct_out2.png,,,,,,,,,,,,,,,,,,,,,,,,,,,,,,,,,,,,,,
,,5d1dc2f9bc2b1d001a2415a5,31,male,2024-04-24_12h32.17.709,stockport_simplified,2022.2.4,Win32,60.0240096,661e456ee6de07e70aa9ef7b,6628df8ed6cae02178be69e8,,,,,,,,,,,,,,,,,,,,,,,,,,,,,,,,,,392.376,394.141,"[7,6,2,8,4,1,5,3]","[[0.3,0.2],[-0.3,0.2]]","[[0.125,-0.2],[-0.125,-0.2]]",-0.096296296,-0.219444444,1,0,0,1.247,o2_image,394.143,1,394.642,394.642,396.622,0,0,0,0,1,,,,,,,,,,,,,,,,,,,,,,,,,,,,,,,,,,,,,,,,,,,,,,,,,,
,,5d1dc2f9bc2b1d001a2415a5,31,male,2024-04-24_12h32.17.709,stockport_simplified,2022.2.4,Win32,60.0240096,661e456ee6de07e70aa9ef7b,6628df8ed6cae02178be69e8,,,,,,,,,,,,,,,,,,,,,,,,,,,,,,,,,,,,,,,,,,,,,,,,,,,,,,,,0,58,58,58,1,N,M,D,o2_image,stimuli/out2.png,stimuli/out1.png,stimuli/correct_out2.png,,,,,,,,,,,,,,,,,,,,,,,,,,,,,,,,,,,,,,
,,5d1dc2f9bc2b1d001a2415a5,31,male,2024-04-24_12h32.17.709,stockport_simplified,2022.2.4,Win32,60.0240096,661e456ee6de07e70aa9ef7b,6628df8ed6cae02178be69e8,,,,,,,,,,,,,,,,,,,,,,,,,,,,,,,,,,396.622,401.003,"[7,6,2,8,4,1,5,3]","[[0.3,0.2],[-0.3,0.2]]","[[0.125,-0.2],[-0.125,-0.2]]",-0.09537037,-0.218518519,1,0,0,3.862,o2_image,401.004,1,401.502,401.502,403.484,0,0,0,0,1,,,,,,,,,,,,,,,,,,,,,,,,,,,,,,,,,,,,,,,,,,,,,,,,,,
,,5d1dc2f9bc2b1d001a2415a5,31,male,2024-04-24_12h32.17.709,stockport_simplified,2022.2.4,Win32,60.0240096,661e456ee6de07e70aa9ef7b,6628df8ed6cae02178be69e8,,,,,,,,,,,,,,,,,,,,,,,,,,,,,,,,,,,,,,,,,,,,,,,,,,,,,,,,0,59,59,19,1,B,Y,N,o2_image,stimuli/out2.png,stimuli/out1.png,stimuli/correct_out2.png,,,,,,,,,,,,,,,,,,,,,,,,,,,,,,,,,,,,,,
,,5d1dc2f9bc2b1d001a2415a5,31,male,2024-04-24_12h32.17.709,stockport_simplified,2022.2.4,Win32,60.0240096,661e456ee6de07e70aa9ef7b,6628df8ed6cae02178be69e8,,,,,,,,,,,,,,,,,,,,,,,,,,,,,,,,,,403.484,405.999,"[7,6,2,8,4,1,5,3]","[[-0.3,0.2],[0.3,0.2]]","[[0.125,-0.2],[-0.125,-0.2]]",0.111111111,-0.205555556,1,0,0,1.996,o1_image,406,1,406.498,406.498,408.496,0,0,0,0,1,,,,,,,,,,,,,,,,,,,,,,,,,,,,,,,,,,,,,,,,,,,,,,,,,,
,,5d1dc2f9bc2b1d001a2415a5,31,male,2024-04-24_12h32.17.709,stockport_simplified,2022.2.4,Win32,60.0240096,661e456ee6de07e70aa9ef7b,6628df8ed6cae02178be69e8,,,,,,,,,,,,,,,,,,,,,,,,,,,,,,,,,,,,,,,,,,,,,,,,,,,,,,,,1,0,60,30,1,A,X,N,o1_image,stimuli/out1.png,stimuli/correct_out1.png,stimuli/out2.png,,,,,,,,,,,,,,,,,,,,,,,,,,,,,,,,,,,,,,
,,5d1dc2f9bc2b1d001a2415a5,31,male,2024-04-24_12h32.17.709,stockport_simplified,2022.2.4,Win32,60.0240096,661e456ee6de07e70aa9ef7b,6628df8ed6cae02178be69e8,,,,,,,,,,,,,,,,,,,,,,,,,,,,,,,,,,408.497,411.677,"[7,6,2,8,4,1,5,3]","[[0.3,0.2],[-0.3,0.2]]","[[-0.125,-0.2],[0.125,-0.2]]",-0.097222222,-0.223148148,1,0,0,2.679,o1_image,411.678,1,412.178,412.178,414.192,0,0,0,0,1,,,,,,,,,,,,,,,,,,,,,,,,,,,,,,,,,,,,,,,,,,,,,,,,,,
,,5d1dc2f9bc2b1d001a2415a5,31,male,2024-04-24_12h32.17.709,stockport_simplified,2022.2.4,Win32,60.0240096,661e456ee6de07e70aa9ef7b,6628df8ed6cae02178be69e8,,,,,,,,,,,,,,,,,,,,,,,,,,,,,,,,,,,,,,,,,,,,,,,,,,,,,,,,1,1,61,32,1,A,X,N,o1_image,stimuli/out1.png,stimuli/correct_out1.png,stimuli/out2.png,,,,,,,,,,,,,,,,,,,,,,,,,,,,,,,,,,,,,,
,,5d1dc2f9bc2b1d001a2415a5,31,male,2024-04-24_12h32.17.709,stockport_simplified,2022.2.4,Win32,60.0240096,661e456ee6de07e70aa9ef7b,6628df8ed6cae02178be69e8,,,,,,,,,,,,,,,,,,,,,,,,,,,,,,,,,,414.194,416.774,"[7,6,2,8,4,1,5,3]","[[0.3,0.2],[-0.3,0.2]]","[[0.125,-0.2],[-0.125,-0.2]]",-0.073148148,-0.203703704,1,0,0,2.064,o2_image,416.775,1,417.274,417.274,419.269,0,0,0,0,1,,,,,,,,,,,,,,,,,,,,,,,,,,,,,,,,,,,,,,,,,,,,,,,,,,
,,5d1dc2f9bc2b1d001a2415a5,31,male,2024-04-24_12h32.17.709,stockport_simplified,2022.2.4,Win32,60.0240096,661e456ee6de07e70aa9ef7b,6628df8ed6cae02178be69e8,,,,,,,,,,,,,,,,,,,,,,,,,,,,,,,,,,,,,,,,,,,,,,,,,,,,,,,,1,2,62,49,1,B,Y,N,o2_image,stimuli/out2.png,stimuli/out1.png,stimuli/correct_out2.png,,,,,,,,,,,,,,,,,,,,,,,,,,,,,,,,,,,,,,
,,5d1dc2f9bc2b1d001a2415a5,31,male,2024-04-24_12h32.17.709,stockport_simplified,2022.2.4,Win32,60.0240096,661e456ee6de07e70aa9ef7b,6628df8ed6cae02178be69e8,,,,,,,,,,,,,,,,,,,,,,,,,,,,,,,,,,419.272,421.869,"[7,6,2,8,4,1,5,3]","[[-0.3,0.2],[0.3,0.2]]","[[-0.125,-0.2],[0.125,-0.2]]",-0.084259259,-0.219444444,1,0,0,2.064,o1_image,421.87,1,422.352,422.352,424.351,0,0,0,0,1,,,,,,,,,,,,,,,,,,,,,,,,,,,,,,,,,,,,,,,,,,,,,,,,,,
,,5d1dc2f9bc2b1d001a2415a5,31,male,2024-04-24_12h32.17.709,stockport_simplified,2022.2.4,Win32,60.0240096,661e456ee6de07e70aa9ef7b,6628df8ed6cae02178be69e8,,,,,,,,,,,,,,,,,,,,,,,,,,,,,,,,,,,,,,,,,,,,,,,,,,,,,,,,1,3,63,50,1,N,M,C,o1_image,stimuli/out1.png,stimuli/correct_out1.png,stimuli/out2.png,,,,,,,,,,,,,,,,,,,,,,,,,,,,,,,,,,,,,,
,,5d1dc2f9bc2b1d001a2415a5,31,male,2024-04-24_12h32.17.709,stockport_simplified,2022.2.4,Win32,60.0240096,661e456ee6de07e70aa9ef7b,6628df8ed6cae02178be69e8,,,,,,,,,,,,,,,,,,,,,,,,,,,,,,,,,,424.351,426.516,"[7,6,2,8,4,1,5,3]","[[0.3,0.2],[-0.3,0.2]]","[[0.125,-0.2],[-0.125,-0.2]]",-0.084259259,-0.214814815,1,0,0,1.651,o2_image,426.518,1,427.032,427.032,429.012,0,0,0,0,1,,,,,,,,,,,,,,,,,,,,,,,,,,,,,,,,,,,,,,,,,,,,,,,,,,
,,5d1dc2f9bc2b1d001a2415a5,31,male,2024-04-24_12h32.17.709,stockport_simplified,2022.2.4,Win32,60.0240096,661e456ee6de07e70aa9ef7b,6628df8ed6cae02178be69e8,,,,,,,,,,,,,,,,,,,,,,,,,,,,,,,,,,,,,,,,,,,,,,,,,,,,,,,,1,4,64,14,1,B,X,N,o2_image,stimuli/out2.png,stimuli/out1.png,stimuli/correct_out2.png,,,,,,,,,,,,,,,,,,,,,,,,,,,,,,,,,,,,,,
,,5d1dc2f9bc2b1d001a2415a5,31,male,2024-04-24_12h32.17.709,stockport_simplified,2022.2.4,Win32,60.0240096,661e456ee6de07e70aa9ef7b,6628df8ed6cae02178be69e8,,,,,,,,,,,,,,,,,,,,,,,,,,,,,,,,,,429.013,430.928,"[7,6,2,8,4,1,5,3]","[[0.3,0.2],[-0.3,0.2]]","[[-0.125,-0.2],[0.125,-0.2]]",-0.084259259,-0.214814815,1,0,0,1.398,o1_image,430.929,1,431.429,431.429,433.426,0,0,0,0,1,,,,,,,,,,,,,,,,,,,,,,,,,,,,,,,,,,,,,,,,,,,,,,,,,,
,,5d1dc2f9bc2b1d001a2415a5,31,male,2024-04-24_12h32.17.709,stockport_simplified,2022.2.4,Win32,60.0240096,661e456ee6de07e70aa9ef7b,6628df8ed6cae02178be69e8,,,,,,,,,,,,,,,,,,,,,,,,,,,,,,,,,,,,,,,,,,,,,,,,,,,,,,,,1,5,65,22,1,N,M,C,o1_image,stimuli/out1.png,stimuli/correct_out1.png,stimuli/out2.png,,,,,,,,,,,,,,,,,,,,,,,,,,,,,,,,,,,,,,
,,5d1dc2f9bc2b1d001a2415a5,31,male,2024-04-24_12h32.17.709,stockport_simplified,2022.2.4,Win32,60.0240096,661e456ee6de07e70aa9ef7b,6628df8ed6cae02178be69e8,,,,,,,,,,,,,,,,,,,,,,,,,,,,,,,,,,433.427,436.211,"[7,6,2,8,4,1,5,3]","[[-0.3,0.2],[0.3,0.2]]","[[0.125,-0.2],[-0.125,-0.2]]",-0.077777778,-0.213888889,1,0,0,2.251,o2_image,436.213,1,436.689,436.689,438.689,0,0,0,0,1,,,,,,,,,,,,,,,,,,,,,,,,,,,,,,,,,,,,,,,,,,,,,,,,,,
,,5d1dc2f9bc2b1d001a2415a5,31,male,2024-04-24_12h32.17.709,stockport_simplified,2022.2.4,Win32,60.0240096,661e456ee6de07e70aa9ef7b,6628df8ed6cae02178be69e8,,,,,,,,,,,,,,,,,,,,,,,,,,,,,,,,,,,,,,,,,,,,,,,,,,,,,,,,1,6,66,17,1,B,Y,N,o2_image,stimuli/out2.png,stimuli/out1.png,stimuli/correct_out2.png,,,,,,,,,,,,,,,,,,,,,,,,,,,,,,,,,,,,,,
,,5d1dc2f9bc2b1d001a2415a5,31,male,2024-04-24_12h32.17.709,stockport_simplified,2022.2.4,Win32,60.0240096,661e456ee6de07e70aa9ef7b,6628df8ed6cae02178be69e8,,,,,,,,,,,,,,,,,,,,,,,,,,,,,,,,,,438.69,440.236,"[7,6,2,8,4,1,5,3]","[[-0.3,0.2],[0.3,0.2]]","[[-0.125,-0.2],[0.125,-0.2]]",-0.077777778,-0.213888889,1,0,0,1.031,o1_image,440.237,1,440.736,440.736,442.718,0,0,0,0,1,,,,,,,,,,,,,,,,,,,,,,,,,,,,,,,,,,,,,,,,,,,,,,,,,,
,,5d1dc2f9bc2b1d001a2415a5,31,male,2024-04-24_12h32.17.709,stockport_simplified,2022.2.4,Win32,60.0240096,661e456ee6de07e70aa9ef7b,6628df8ed6cae02178be69e8,,,,,,,,,,,,,,,,,,,,,,,,,,,,,,,,,,,,,,,,,,,,,,,,,,,,,,,,1,7,67,52,1,N,M,C,o1_image,stimuli/out1.png,stimuli/correct_out1.png,stimuli/out2.png,,,,,,,,,,,,,,,,,,,,,,,,,,,,,,,,,,,,,,
,,5d1dc2f9bc2b1d001a2415a5,31,male,2024-04-24_12h32.17.709,stockport_simplified,2022.2.4,Win32,60.0240096,661e456ee6de07e70aa9ef7b,6628df8ed6cae02178be69e8,,,,,,,,,,,,,,,,,,,,,,,,,,,,,,,,,,442.719,444.85,"[7,6,2,8,4,1,5,3]","[[-0.3,0.2],[0.3,0.2]]","[[-0.125,-0.2],[0.125,-0.2]]",0.122222222,-0.193518519,1,0,0,1.616,o2_image,444.851,1,445.355,445.355,447.365,0,0,0,0,1,,,,,,,,,,,,,,,,,,,,,,,,,,,,,,,,,,,,,,,,,,,,,,,,,,
,,5d1dc2f9bc2b1d001a2415a5,31,male,2024-04-24_12h32.17.709,stockport_simplified,2022.2.4,Win32,60.0240096,661e456ee6de07e70aa9ef7b,6628df8ed6cae02178be69e8,,,,,,,,,,,,,,,,,,,,,,,,,,,,,,,,,,,,,,,,,,,,,,,,,,,,,,,,1,8,68,27,1,N,M,D,o2_image,stimuli/out2.png,stimuli/out1.png,stimuli/correct_out2.png,,,,,,,,,,,,,,,,,,,,,,,,,,,,,,,,,,,,,,
,,5d1dc2f9bc2b1d001a2415a5,31,male,2024-04-24_12h32.17.709,stockport_simplified,2022.2.4,Win32,60.0240096,661e456ee6de07e70aa9ef7b,6628df8ed6cae02178be69e8,,,,,,,,,,,,,,,,,,,,,,,,,,,,,,,,,,447.366,453.077,"[7,6,2,8,4,1,5,3]","[[-0.3,0.2],[0.3,0.2]]","[[-0.125,-0.2],[0.125,-0.2]]",-0.073148148,-0.198148148,1,0,0,5.195,o1_image,453.08,1,453.577,453.577,455.574,0,0,0,0,1,,,,,,,,,,,,,,,,,,,,,,,,,,,,,,,,,,,,,,,,,,,,,,,,,,
,,5d1dc2f9bc2b1d001a2415a5,31,male,2024-04-24_12h32.17.709,stockport_simplified,2022.2.4,Win32,60.0240096,661e456ee6de07e70aa9ef7b,6628df8ed6cae02178be69e8,,,,,,,,,,,,,,,,,,,,,,,,,,,,,,,,,,,,,,,,,,,,,,,,,,,,,,,,1,9,69,39,1,A,Y,N,o1_image,stimuli/out1.png,stimuli/correct_out1.png,stimuli/out2.png,,,,,,,,,,,,,,,,,,,,,,,,,,,,,,,,,,,,,,
,,5d1dc2f9bc2b1d001a2415a5,31,male,2024-04-24_12h32.17.709,stockport_simplified,2022.2.4,Win32,60.0240096,661e456ee6de07e70aa9ef7b,6628df8ed6cae02178be69e8,,,,,,,,,,,,,,,,,,,,,,,,,,,,,,,,,,455.575,457.473,"[7,6,2,8,4,1,5,3]","[[-0.3,0.2],[0.3,0.2]]","[[0.125,-0.2],[-0.125,-0.2]]",-0.085185185,-0.216666667,1,0,0,1.364,o2_image,457.474,1,457.955,457.955,459.954,0,0,0,0,1,,,,,,,,,,,,,,,,,,,,,,,,,,,,,,,,,,,,,,,,,,,,,,,,,,
,,5d1dc2f9bc2b1d001a2415a5,31,male,2024-04-24_12h32.17.709,stockport_simplified,2022.2.4,Win32,60.0240096,661e456ee6de07e70aa9ef7b,6628df8ed6cae02178be69e8,,,,,,,,,,,,,,,,,,,,,,,,,,,,,,,,,,,,,,,,,,,,,,,,,,,,,,,,1,10,70,25,1,N,M,D,o2_image,stimuli/out2.png,stimuli/out1.png,stimuli/correct_out2.png,,,,,,,,,,,,,,,,,,,,,,,,,,,,,,,,,,,,,,
,,5d1dc2f9bc2b1d001a2415a5,31,male,2024-04-24_12h32.17.709,stockport_simplified,2022.2.4,Win32,60.0240096,661e456ee6de07e70aa9ef7b,6628df8ed6cae02178be69e8,,,,,,,,,,,,,,,,,,,,,,,,,,,,,,,,,,459.954,462.286,"[7,6,2,8,4,1,5,3]","[[-0.3,0.2],[0.3,0.2]]","[[-0.125,-0.2],[0.125,-0.2]]",0.055555556,-0.198148148,1,0,0,1.814,o2_image,462.288,1,462.801,462.801,464.782,0,0,0,0,1,,,,,,,,,,,,,,,,,,,,,,,,,,,,,,,,,,,,,,,,,,,,,,,,,,
,,5d1dc2f9bc2b1d001a2415a5,31,male,2024-04-24_12h32.17.709,stockport_simplified,2022.2.4,Win32,60.0240096,661e456ee6de07e70aa9ef7b,6628df8ed6cae02178be69e8,,,,,,,,,,,,,,,,,,,,,,,,,,,,,,,,,,,,,,,,,,,,,,,,,,,,,,,,1,11,71,48,1,B,Y,N,o2_image,stimuli/out2.png,stimuli/out1.png,stimuli/correct_out2.png,,,,,,,,,,,,,,,,,,,,,,,,,,,,,,,,,,,,,,
,,5d1dc2f9bc2b1d001a2415a5,31,male,2024-04-24_12h32.17.709,stockport_simplified,2022.2.4,Win32,60.0240096,661e456ee6de07e70aa9ef7b,6628df8ed6cae02178be69e8,,,,,,,,,,,,,,,,,,,,,,,,,,,,,,,,,,464.783,468.449,"[7,6,2,8,4,1,5,3]","[[-0.3,0.2],[0.3,0.2]]","[[0.125,-0.2],[-0.125,-0.2]]",0.139814815,-0.197222222,1,0,0,3.148,o1_image,468.451,1,468.947,468.947,470.946,0,0,0,0,1,,,,,,,,,,,,,,,,,,,,,,,,,,,,,,,,,,,,,,,,,,,,,,,,,,
,,5d1dc2f9bc2b1d001a2415a5,31,male,2024-04-24_12h32.17.709,stockport_simplified,2022.2.4,Win32,60.0240096,661e456ee6de07e70aa9ef7b,6628df8ed6cae02178be69e8,,,,,,,,,,,,,,,,,,,,,,,,,,,,,,,,,,,,,,,,,,,,,,,,,,,,,,,,1,12,72,33,1,A,X,N,o1_image,stimuli/out1.png,stimuli/correct_out1.png,stimuli/out2.png,,,,,,,,,,,,,,,,,,,,,,,,,,,,,,,,,,,,,,
,,5d1dc2f9bc2b1d001a2415a5,31,male,2024-04-24_12h32.17.709,stockport_simplified,2022.2.4,Win32,60.0240096,661e456ee6de07e70aa9ef7b,6628df8ed6cae02178be69e8,,,,,,,,,,,,,,,,,,,,,,,,,,,,,,,,,,470.947,473.476,"[7,6,2,8,4,1,5,3]","[[0.3,0.2],[-0.3,0.2]]","[[0.125,-0.2],[-0.125,-0.2]]",0.094444444,-0.219444444,1,0,0,2.013,o1_image,473.478,1,473.975,473.975,475.974,0,0,0,0,1,,,,,,,,,,,,,,,,,,,,,,,,,,,,,,,,,,,,,,,,,,,,,,,,,,
,,5d1dc2f9bc2b1d001a2415a5,31,male,2024-04-24_12h32.17.709,stockport_simplified,2022.2.4,Win32,60.0240096,661e456ee6de07e70aa9ef7b,6628df8ed6cae02178be69e8,,,,,,,,,,,,,,,,,,,,,,,,,,,,,,,,,,,,,,,,,,,,,,,,,,,,,,,,1,13,73,1,1,A,X,N,o1_image,stimuli/out1.png,stimuli/correct_out1.png,stimuli/out2.png,,,,,,,,,,,,,,,,,,,,,,,,,,,,,,,,,,,,,,
,,5d1dc2f9bc2b1d001a2415a5,31,male,2024-04-24_12h32.17.709,stockport_simplified,2022.2.4,Win32,60.0240096,661e456ee6de07e70aa9ef7b,6628df8ed6cae02178be69e8,,,,,,,,,,,,,,,,,,,,,,,,,,,,,,,,,,475.974,478.04,"[7,6,2,8,4,1,5,3]","[[0.3,0.2],[-0.3,0.2]]","[[0.125,-0.2],[-0.125,-0.2]]",0.094444444,-0.219444444,1,0,0,1.548,o1_image,478.042,1,478.538,478.538,480.553,0,0,0,0,1,,,,,,,,,,,,,,,,,,,,,,,,,,,,,,,,,,,,,,,,,,,,,,,,,,
,,5d1dc2f9bc2b1d001a2415a5,31,male,2024-04-24_12h32.17.709,stockport_simplified,2022.2.4,Win32,60.0240096,661e456ee6de07e70aa9ef7b,6628df8ed6cae02178be69e8,,,,,,,,,,,,,,,,,,,,,,,,,,,,,,,,,,,,,,,,,,,,,,,,,,,,,,,,1,14,74,3,1,A,X,N,o1_image,stimuli/out1.png,stimuli/correct_out1.png,stimuli/out2.png,,,,,,,,,,,,,,,,,,,,,,,,,,,,,,,,,,,,,,
,,5d1dc2f9bc2b1d001a2415a5,31,male,2024-04-24_12h32.17.709,stockport_simplified,2022.2.4,Win32,60.0240096,661e456ee6de07e70aa9ef7b,6628df8ed6cae02178be69e8,,,,,,,,,,,,,,,,,,,,,,,,,,,,,,,,,,480.553,482.737,"[7,6,2,8,4,1,5,3]","[[-0.3,0.2],[0.3,0.2]]","[[-0.125,-0.2],[0.125,-0.2]]",0.142592593,-0.162037037,1,0,0,1.664,o2_image,482.74,1,483.235,483.235,485.235,0,0,0,0,1,,,,,,,,,,,,,,,,,,,,,,,,,,,,,,,,,,,,,,,,,,,,,,,,,,
,,5d1dc2f9bc2b1d001a2415a5,31,male,2024-04-24_12h32.17.709,stockport_simplified,2022.2.4,Win32,60.0240096,661e456ee6de07e70aa9ef7b,6628df8ed6cae02178be69e8,,,,,,,,,,,,,,,,,,,,,,,,,,,,,,,,,,,,,,,,,,,,,,,,,,,,,,,,1,15,75,45,1,B,Y,N,o2_image,stimuli/out2.png,stimuli/out1.png,stimuli/correct_out2.png,,,,,,,,,,,,,,,,,,,,,,,,,,,,,,,,,,,,,,
,,5d1dc2f9bc2b1d001a2415a5,31,male,2024-04-24_12h32.17.709,stockport_simplified,2022.2.4,Win32,60.0240096,661e456ee6de07e70aa9ef7b,6628df8ed6cae02178be69e8,,,,,,,,,,,,,,,,,,,,,,,,,,,,,,,,,,485.235,487.566,"[7,6,2,8,4,1,5,3]","[[0.3,0.2],[-0.3,0.2]]","[[0.125,-0.2],[-0.125,-0.2]]",-0.085185185,-0.183333333,1,0,0,1.814,o2_image,487.568,1,488.063,488.063,490.062,0,0,0,0,1,,,,,,,,,,,,,,,,,,,,,,,,,,,,,,,,,,,,,,,,,,,,,,,,,,
,,5d1dc2f9bc2b1d001a2415a5,31,male,2024-04-24_12h32.17.709,stockport_simplified,2022.2.4,Win32,60.0240096,661e456ee6de07e70aa9ef7b,6628df8ed6cae02178be69e8,,,,,,,,,,,,,,,,,,,,,,,,,,,,,,,,,,,,,,,,,,,,,,,,,,,,,,,,1,16,76,43,1,B,X,N,o2_image,stimuli/out2.png,stimuli/out1.png,stimuli/correct_out2.png,,,,,,,,,,,,,,,,,,,,,,,,,,,,,,,,,,,,,,
,,5d1dc2f9bc2b1d001a2415a5,31,male,2024-04-24_12h32.17.709,stockport_simplified,2022.2.4,Win32,60.0240096,661e456ee6de07e70aa9ef7b,6628df8ed6cae02178be69e8,,,,,,,,,,,,,,,,,,,,,,,,,,,,,,,,,,490.062,491.828,"[7,6,2,8,4,1,5,3]","[[0.3,0.2],[-0.3,0.2]]","[[0.125,-0.2],[-0.125,-0.2]]",-0.086111111,-0.222222222,1,0,0,1.264,o2_image,491.831,1,492.324,492.324,494.326,0,0,0,0,1,,,,,,,,,,,,,,,,,,,,,,,,,,,,,,,,,,,,,,,,,,,,,,,,,,
,,5d1dc2f9bc2b1d001a2415a5,31,male,2024-04-24_12h32.17.709,stockport_simplified,2022.2.4,Win32,60.0240096,661e456ee6de07e70aa9ef7b,6628df8ed6cae02178be69e8,,,,,,,,,,,,,,,,,,,,,,,,,,,,,,,,,,,,,,,,,,,,,,,,,,,,,,,,1,17,77,19,1,B,Y,N,o2_image,stimuli/out2.png,stimuli/out1.png,stimuli/correct_out2.png,,,,,,,,,,,,,,,,,,,,,,,,,,,,,,,,,,,,,,
,,5d1dc2f9bc2b1d001a2415a5,31,male,2024-04-24_12h32.17.709,stockport_simplified,2022.2.4,Win32,60.0240096,661e456ee6de07e70aa9ef7b,6628df8ed6cae02178be69e8,,,,,,,,,,,,,,,,,,,,,,,,,,,,,,,,,,494.327,498.722,"[7,6,2,8,4,1,5,3]","[[-0.3,0.2],[0.3,0.2]]","[[-0.125,-0.2],[0.125,-0.2]]",-0.090740741,-0.22037037,1,0,0,3.881,o1_image,498.723,1,499.205,499.205,501.203,0,0,0,0,1,,,,,,,,,,,,,,,,,,,,,,,,,,,,,,,,,,,,,,,,,,,,,,,,,,
,,5d1dc2f9bc2b1d001a2415a5,31,male,2024-04-24_12h32.17.709,stockport_simplified,2022.2.4,Win32,60.0240096,661e456ee6de07e70aa9ef7b,6628df8ed6cae02178be69e8,,,,,,,,,,,,,,,,,,,,,,,,,,,,,,,,,,,,,,,,,,,,,,,,,,,,,,,,1,18,78,51,1,N,M,C,o1_image,stimuli/out1.png,stimuli/correct_out1.png,stimuli/out2.png,,,,,,,,,,,,,,,,,,,,,,,,,,,,,,,,,,,,,,
,,5d1dc2f9bc2b1d001a2415a5,31,male,2024-04-24_12h32.17.709,stockport_simplified,2022.2.4,Win32,60.0240096,661e456ee6de07e70aa9ef7b,6628df8ed6cae02178be69e8,,,,,,,,,,,,,,,,,,,,,,,,,,,,,,,,,,501.203,505.1,"[7,6,2,8,4,1,5,3]","[[0.3,0.2],[-0.3,0.2]]","[[0.125,-0.2],[-0.125,-0.2]]",-0.091666667,-0.219444444,1,0,0,3.38,o2_image,505.101,0,505.617,505.617,507.615,0,0,0,0,1,,,,,,,,,,,,,,,,,,,,,,,,,,,,,,,,,,,,,,,,,,,,,,,,,,
,,5d1dc2f9bc2b1d001a2415a5,31,male,2024-04-24_12h32.17.709,stockport_simplified,2022.2.4,Win32,60.0240096,661e456ee6de07e70aa9ef7b,6628df8ed6cae02178be69e8,,,,,,,,,,,,,,,,,,,,,,,,,,,,,,,,,,,,,,,,,,,,,,,,,,,,,,,,1,19,79,5,1,A,Y,N,o1_image,stimuli/out1.png,stimuli/correct_out1.png,stimuli/out2.png,,,,,,,,,,,,,,,,,,,,,,,,,,,,,,,,,,,,,,
,,5d1dc2f9bc2b1d001a2415a5,31,male,2024-04-24_12h32.17.709,stockport_simplified,2022.2.4,Win32,60.0240096,661e456ee6de07e70aa9ef7b,6628df8ed6cae02178be69e8,,,,,,,,,,,,,,,,,,,,,,,,,,,,,,,,,,507.616,509.349,"[7,6,2,8,4,1,5,3]","[[-0.3,0.2],[0.3,0.2]]","[[-0.125,-0.2],[0.125,-0.2]]",-0.09537037,-0.222222222,1,0,0,1.213,o1_image,509.351,1,509.83,509.83,511.829,0,0,0,0,1,,,,,,,,,,,,,,,,,,,,,,,,,,,,,,,,,,,,,,,,,,,,,,,,,,
,,5d1dc2f9bc2b1d001a2415a5,31,male,2024-04-24_12h32.17.709,stockport_simplified,2022.2.4,Win32,60.0240096,661e456ee6de07e70aa9ef7b,6628df8ed6cae02178be69e8,,,,,,,,,,,,,,,,,,,,,,,,,,,,,,,,,,,,,,,,,,,,,,,,,,,,,,,,1,20,80,24,1,N,M,C,o1_image,stimuli/out1.png,stimuli/correct_out1.png,stimuli/out2.png,,,,,,,,,,,,,,,,,,,,,,,,,,,,,,,,,,,,,,
,,5d1dc2f9bc2b1d001a2415a5,31,male,2024-04-24_12h32.17.709,stockport_simplified,2022.2.4,Win32,60.0240096,661e456ee6de07e70aa9ef7b,6628df8ed6cae02178be69e8,,,,,,,,,,,,,,,,,,,,,,,,,,,,,,,,,,511.829,513.743,"[7,6,2,8,4,1,5,3]","[[-0.3,0.2],[0.3,0.2]]","[[0.125,-0.2],[-0.125,-0.2]]",-0.110185185,-0.215740741,1,0,0,1.398,o2_image,513.745,1,514.244,514.245,516.242,0,0,0,0,1,,,,,,,,,,,,,,,,,,,,,,,,,,,,,,,,,,,,,,,,,,,,,,,,,,
,,5d1dc2f9bc2b1d001a2415a5,31,male,2024-04-24_12h32.17.709,stockport_simplified,2022.2.4,Win32,60.0240096,661e456ee6de07e70aa9ef7b,6628df8ed6cae02178be69e8,,,,,,,,,,,,,,,,,,,,,,,,,,,,,,,,,,,,,,,,,,,,,,,,,,,,,,,,1,21,81,59,1,N,M,D,o2_image,stimuli/out2.png,stimuli/out1.png,stimuli/correct_out2.png,,,,,,,,,,,,,,,,,,,,,,,,,,,,,,,,,,,,,,
,,5d1dc2f9bc2b1d001a2415a5,31,male,2024-04-24_12h32.17.709,stockport_simplified,2022.2.4,Win32,60.0240096,661e456ee6de07e70aa9ef7b,6628df8ed6cae02178be69e8,,,,,,,,,,,,,,,,,,,,,,,,,,,,,,,,,,516.243,517.941,"[7,6,2,8,4,1,5,3]","[[0.3,0.2],[-0.3,0.2]]","[[0.125,-0.2],[-0.125,-0.2]]",-0.110185185,-0.215740741,1,0,0,1.183,o2_image,517.943,1,518.457,518.457,520.454,0,0,0,0,1,,,,,,,,,,,,,,,,,,,,,,,,,,,,,,,,,,,,,,,,,,,,,,,,,,
,,5d1dc2f9bc2b1d001a2415a5,31,male,2024-04-24_12h32.17.709,stockport_simplified,2022.2.4,Win32,60.0240096,661e456ee6de07e70aa9ef7b,6628df8ed6cae02178be69e8,,,,,,,,,,,,,,,,,,,,,,,,,,,,,,,,,,,,,,,,,,,,,,,,,,,,,,,,1,22,82,40,1,B,X,N,o2_image,stimuli/out2.png,stimuli/out1.png,stimuli/correct_out2.png,,,,,,,,,,,,,,,,,,,,,,,,,,,,,,,,,,,,,,
,,5d1dc2f9bc2b1d001a2415a5,31,male,2024-04-24_12h32.17.709,stockport_simplified,2022.2.4,Win32,60.0240096,661e456ee6de07e70aa9ef7b,6628df8ed6cae02178be69e8,,,,,,,,,,,,,,,,,,,,,,,,,,,,,,,,,,520.454,523.119,"[7,6,2,8,4,1,5,3]","[[-0.3,0.2],[0.3,0.2]]","[[-0.125,-0.2],[0.125,-0.2]]",-0.157407407,-0.228703704,1,0,0,2.147,o1_image,523.12,1,523.637,523.637,525.632,0,0,0,0,1,,,,,,,,,,,,,,,,,,,,,,,,,,,,,,,,,,,,,,,,,,,,,,,,,,
,,5d1dc2f9bc2b1d001a2415a5,31,male,2024-04-24_12h32.17.709,stockport_simplified,2022.2.4,Win32,60.0240096,661e456ee6de07e70aa9ef7b,6628df8ed6cae02178be69e8,,,,,,,,,,,,,,,,,,,,,,,,,,,,,,,,,,,,,,,,,,,,,,,,,,,,,,,,1,23,83,31,1,A,X,N,o1_image,stimuli/out1.png,stimuli/correct_out1.png,stimuli/out2.png,,,,,,,,,,,,,,,,,,,,,,,,,,,,,,,,,,,,,,
,,5d1dc2f9bc2b1d001a2415a5,31,male,2024-04-24_12h32.17.709,stockport_simplified,2022.2.4,Win32,60.0240096,661e456ee6de07e70aa9ef7b,6628df8ed6cae02178be69e8,,,,,,,,,,,,,,,,,,,,,,,,,,,,,,,,,,525.633,527.517,"[7,6,2,8,4,1,5,3]","[[-0.3,0.2],[0.3,0.2]]","[[0.125,-0.2],[-0.125,-0.2]]",-0.161111111,-0.260185185,1,0,0,1.382,o2_image,527.518,1,527.998,527.998,529.98,0,0,0,0,1,,,,,,,,,,,,,,,,,,,,,,,,,,,,,,,,,,,,,,,,,,,,,,,,,,
,,5d1dc2f9bc2b1d001a2415a5,31,male,2024-04-24_12h32.17.709,stockport_simplified,2022.2.4,Win32,60.0240096,661e456ee6de07e70aa9ef7b,6628df8ed6cae02178be69e8,,,,,,,,,,,,,,,,,,,,,,,,,,,,,,,,,,,,,,,,,,,,,,,,,,,,,,,,1,24,84,42,1,B,X,N,o2_image,stimuli/out2.png,stimuli/out1.png,stimuli/correct_out2.png,,,,,,,,,,,,,,,,,,,,,,,,,,,,,,,,,,,,,,
,,5d1dc2f9bc2b1d001a2415a5,31,male,2024-04-24_12h32.17.709,stockport_simplified,2022.2.4,Win32,60.0240096,661e456ee6de07e70aa9ef7b,6628df8ed6cae02178be69e8,,,,,,,,,,,,,,,,,,,,,,,,,,,,,,,,,,529.98,533.01,"[7,6,2,8,4,1,5,3]","[[0.3,0.2],[-0.3,0.2]]","[[-0.125,-0.2],[0.125,-0.2]]",0.128703704,-0.211111111,1,0,0,2.529,o2_image,533.012,1,533.494,533.494,535.492,0,0,0,0,1,,,,,,,,,,,,,,,,,,,,,,,,,,,,,,,,,,,,,,,,,,,,,,,,,,
,,5d1dc2f9bc2b1d001a2415a5,31,male,2024-04-24_12h32.17.709,stockport_simplified,2022.2.4,Win32,60.0240096,661e456ee6de07e70aa9ef7b,6628df8ed6cae02178be69e8,,,,,,,,,,,,,,,,,,,,,,,,,,,,,,,,,,,,,,,,,,,,,,,,,,,,,,,,1,25,85,58,1,N,M,D,o2_image,stimuli/out2.png,stimuli/out1.png,stimuli/correct_out2.png,,,,,,,,,,,,,,,,,,,,,,,,,,,,,,,,,,,,,,
,,5d1dc2f9bc2b1d001a2415a5,31,male,2024-04-24_12h32.17.709,stockport_simplified,2022.2.4,Win32,60.0240096,661e456ee6de07e70aa9ef7b,6628df8ed6cae02178be69e8,,,,,,,,,,,,,,,,,,,,,,,,,,,,,,,,,,535.492,538.807,"[7,6,2,8,4,1,5,3]","[[-0.3,0.2],[0.3,0.2]]","[[-0.125,-0.2],[0.125,-0.2]]",-0.184259259,-0.177777778,1,0,0,2.797,o1_image,538.808,1,539.289,539.289,541.287,0,0,0,0,1,,,,,,,,,,,,,,,,,,,,,,,,,,,,,,,,,,,,,,,,,,,,,,,,,,
,,5d1dc2f9bc2b1d001a2415a5,31,male,2024-04-24_12h32.17.709,stockport_simplified,2022.2.4,Win32,60.0240096,661e456ee6de07e70aa9ef7b,6628df8ed6cae02178be69e8,,,,,,,,,,,,,,,,,,,,,,,,,,,,,,,,,,,,,,,,,,,,,,,,,,,,,,,,1,26,86,4,1,A,X,N,o1_image,stimuli/out1.png,stimuli/correct_out1.png,stimuli/out2.png,,,,,,,,,,,,,,,,,,,,,,,,,,,,,,,,,,,,,,
,,5d1dc2f9bc2b1d001a2415a5,31,male,2024-04-24_12h32.17.709,stockport_simplified,2022.2.4,Win32,60.0240096,661e456ee6de07e70aa9ef7b,6628df8ed6cae02178be69e8,,,,,,,,,,,,,,,,,,,,,,,,,,,,,,,,,,541.287,544.501,"[7,6,2,8,4,1,5,3]","[[0.3,0.2],[-0.3,0.2]]","[[0.125,-0.2],[-0.125,-0.2]]",0.130555556,-0.172222222,1,0,0,2.697,o1_image,544.502,1,545.002,545.002,547,0,0,0,0,1,,,,,,,,,,,,,,,,,,,,,,,,,,,,,,,,,,,,,,,,,,,,,,,,,,
,,5d1dc2f9bc2b1d001a2415a5,31,male,2024-04-24_12h32.17.709,stockport_simplified,2022.2.4,Win32,60.0240096,661e456ee6de07e70aa9ef7b,6628df8ed6cae02178be69e8,,,,,,,,,,,,,,,,,,,,,,,,,,,,,,,,,,,,,,,,,,,,,,,,,,,,,,,,1,27,87,23,1,N,M,C,o1_image,stimuli/out1.png,stimuli/correct_out1.png,stimuli/out2.png,,,,,,,,,,,,,,,,,,,,,,,,,,,,,,,,,,,,,,
,,5d1dc2f9bc2b1d001a2415a5,31,male,2024-04-24_12h32.17.709,stockport_simplified,2022.2.4,Win32,60.0240096,661e456ee6de07e70aa9ef7b,6628df8ed6cae02178be69e8,,,,,,,,,,,,,,,,,,,,,,,,,,,,,,,,,,547.002,549.597,"[7,6,2,8,4,1,5,3]","[[0.3,0.2],[-0.3,0.2]]","[[0.125,-0.2],[-0.125,-0.2]]",0.102777778,-0.176851852,1,0,0,2.079,o1_image,549.599,1,550.08,550.08,552.08,0,0,0,0,1,,,,,,,,,,,,,,,,,,,,,,,,,,,,,,,,,,,,,,,,,,,,,,,,,,
,,5d1dc2f9bc2b1d001a2415a5,31,male,2024-04-24_12h32.17.709,stockport_simplified,2022.2.4,Win32,60.0240096,661e456ee6de07e70aa9ef7b,6628df8ed6cae02178be69e8,,,,,,,,,,,,,,,,,,,,,,,,,,,,,,,,,,,,,,,,,,,,,,,,,,,,,,,,1,28,88,8,1,A,Y,N,o1_image,stimuli/out1.png,stimuli/correct_out1.png,stimuli/out2.png,,,,,,,,,,,,,,,,,,,,,,,,,,,,,,,,,,,,,,
,,5d1dc2f9bc2b1d001a2415a5,31,male,2024-04-24_12h32.17.709,stockport_simplified,2022.2.4,Win32,60.0240096,661e456ee6de07e70aa9ef7b,6628df8ed6cae02178be69e8,,,,,,,,,,,,,,,,,,,,,,,,,,,,,,,,,,552.081,554.627,"[7,6,2,8,4,1,5,3]","[[-0.3,0.2],[0.3,0.2]]","[[0.125,-0.2],[-0.125,-0.2]]",-0.126851852,-0.14537037,1,0,0,2.015,o2_image,554.628,1,555.142,555.142,557.139,0,0,0,0,1,,,,,,,,,,,,,,,,,,,,,,,,,,,,,,,,,,,,,,,,,,,,,,,,,,
,,5d1dc2f9bc2b1d001a2415a5,31,male,2024-04-24_12h32.17.709,stockport_simplified,2022.2.4,Win32,60.0240096,661e456ee6de07e70aa9ef7b,6628df8ed6cae02178be69e8,,,,,,,,,,,,,,,,,,,,,,,,,,,,,,,,,,,,,,,,,,,,,,,,,,,,,,,,1,29,89,16,1,B,Y,N,o2_image,stimuli/out2.png,stimuli/out1.png,stimuli/correct_out2.png,,,,,,,,,,,,,,,,,,,,,,,,,,,,,,,,,,,,,,
,,5d1dc2f9bc2b1d001a2415a5,31,male,2024-04-24_12h32.17.709,stockport_simplified,2022.2.4,Win32,60.0240096,661e456ee6de07e70aa9ef7b,6628df8ed6cae02178be69e8,,,,,,,,,,,,,,,,,,,,,,,,,,,,,,,,,,557.141,559.539,"[7,6,2,8,4,1,5,3]","[[0.3,0.2],[-0.3,0.2]]","[[-0.125,-0.2],[0.125,-0.2]]",-0.106481481,-0.188888889,1,0,0,1.88,o1_image,559.54,1,560.055,560.056,562.055,0,0,0,0,1,,,,,,,,,,,,,,,,,,,,,,,,,,,,,,,,,,,,,,,,,,,,,,,,,,
,,5d1dc2f9bc2b1d001a2415a5,31,male,2024-04-24_12h32.17.709,stockport_simplified,2022.2.4,Win32,60.0240096,661e456ee6de07e70aa9ef7b,6628df8ed6cae02178be69e8,,,,,,,,,,,,,,,,,,,,,,,,,,,,,,,,,,,,,,,,,,,,,,,,,,,,,,,,1,30,90,6,1,A,Y,N,o1_image,stimuli/out1.png,stimuli/correct_out1.png,stimuli/out2.png,,,,,,,,,,,,,,,,,,,,,,,,,,,,,,,,,,,,,,
,,5d1dc2f9bc2b1d001a2415a5,31,male,2024-04-24_12h32.17.709,stockport_simplified,2022.2.4,Win32,60.0240096,661e456ee6de07e70aa9ef7b,6628df8ed6cae02178be69e8,,,,,,,,,,,,,,,,,,,,,,,,,,,,,,,,,,562.055,563.52,"[7,6,2,8,4,1,5,3]","[[0.3,0.2],[-0.3,0.2]]","[[-0.125,-0.2],[0.125,-0.2]]",-0.143518519,-0.199074074,1,0,0,0.95,o1_image,563.522,1,564.018,564.018,566,0,0,0,0,1,,,,,,,,,,,,,,,,,,,,,,,,,,,,,,,,,,,,,,,,,,,,,,,,,,
,,5d1dc2f9bc2b1d001a2415a5,31,male,2024-04-24_12h32.17.709,stockport_simplified,2022.2.4,Win32,60.0240096,661e456ee6de07e70aa9ef7b,6628df8ed6cae02178be69e8,,,,,,,,,,,,,,,,,,,,,,,,,,,,,,,,,,,,,,,,,,,,,,,,,,,,,,,,1,31,91,54,1,N,M,C,o1_image,stimuli/out1.png,stimuli/correct_out1.png,stimuli/out2.png,,,,,,,,,,,,,,,,,,,,,,,,,,,,,,,,,,,,,,
,,5d1dc2f9bc2b1d001a2415a5,31,male,2024-04-24_12h32.17.709,stockport_simplified,2022.2.4,Win32,60.0240096,661e456ee6de07e70aa9ef7b,6628df8ed6cae02178be69e8,,,,,,,,,,,,,,,,,,,,,,,,,,,,,,,,,,566.001,567.801,"[7,6,2,8,4,1,5,3]","[[0.3,0.2],[-0.3,0.2]]","[[-0.125,-0.2],[0.125,-0.2]]",-0.133333333,-0.257407407,1,0,0,1.283,o1_image,567.801,1,568.281,568.281,570.263,0,0,0,0,1,,,,,,,,,,,,,,,,,,,,,,,,,,,,,,,,,,,,,,,,,,,,,,,,,,
,,5d1dc2f9bc2b1d001a2415a5,31,male,2024-04-24_12h32.17.709,stockport_simplified,2022.2.4,Win32,60.0240096,661e456ee6de07e70aa9ef7b,6628df8ed6cae02178be69e8,,,,,,,,,,,,,,,,,,,,,,,,,,,,,,,,,,,,,,,,,,,,,,,,,,,,,,,,1,32,92,35,1,A,Y,N,o1_image,stimuli/out1.png,stimuli/correct_out1.png,stimuli/out2.png,,,,,,,,,,,,,,,,,,,,,,,,,,,,,,,,,,,,,,
,,5d1dc2f9bc2b1d001a2415a5,31,male,2024-04-24_12h32.17.709,stockport_simplified,2022.2.4,Win32,60.0240096,661e456ee6de07e70aa9ef7b,6628df8ed6cae02178be69e8,,,,,,,,,,,,,,,,,,,,,,,,,,,,,,,,,,570.264,572.296,"[7,6,2,8,4,1,5,3]","[[0.3,0.2],[-0.3,0.2]]","[[0.125,-0.2],[-0.125,-0.2]]",0.100925926,-0.205555556,1,0,0,1.517,o1_image,572.297,1,572.812,572.812,574.812,0,0,0,0,1,,,,,,,,,,,,,,,,,,,,,,,,,,,,,,,,,,,,,,,,,,,,,,,,,,
,,5d1dc2f9bc2b1d001a2415a5,31,male,2024-04-24_12h32.17.709,stockport_simplified,2022.2.4,Win32,60.0240096,661e456ee6de07e70aa9ef7b,6628df8ed6cae02178be69e8,,,,,,,,,,,,,,,,,,,,,,,,,,,,,,,,,,,,,,,,,,,,,,,,,,,,,,,,1,33,93,36,1,A,Y,N,o1_image,stimuli/out1.png,stimuli/correct_out1.png,stimuli/out2.png,,,,,,,,,,,,,,,,,,,,,,,,,,,,,,,,,,,,,,
,,5d1dc2f9bc2b1d001a2415a5,31,male,2024-04-24_12h32.17.709,stockport_simplified,2022.2.4,Win32,60.0240096,661e456ee6de07e70aa9ef7b,6628df8ed6cae02178be69e8,,,,,,,,,,,,,,,,,,,,,,,,,,,,,,,,,,574.813,576.825,"[7,6,2,8,4,1,5,3]","[[0.3,0.2],[-0.3,0.2]]","[[-0.125,-0.2],[0.125,-0.2]]",0.084259259,-0.210185185,1,0,0,1.482,o2_image,576.826,1,577.342,577.342,579.341,0,0,0,0,1,,,,,,,,,,,,,,,,,,,,,,,,,,,,,,,,,,,,,,,,,,,,,,,,,,
,,5d1dc2f9bc2b1d001a2415a5,31,male,2024-04-24_12h32.17.709,stockport_simplified,2022.2.4,Win32,60.0240096,661e456ee6de07e70aa9ef7b,6628df8ed6cae02178be69e8,,,,,,,,,,,,,,,,,,,,,,,,,,,,,,,,,,,,,,,,,,,,,,,,,,,,,,,,1,34,94,26,1,N,M,D,o2_image,stimuli/out2.png,stimuli/out1.png,stimuli/correct_out2.png,,,,,,,,,,,,,,,,,,,,,,,,,,,,,,,,,,,,,,
,,5d1dc2f9bc2b1d001a2415a5,31,male,2024-04-24_12h32.17.709,stockport_simplified,2022.2.4,Win32,60.0240096,661e456ee6de07e70aa9ef7b,6628df8ed6cae02178be69e8,,,,,,,,,,,,,,,,,,,,,,,,,,,,,,,,,,579.342,584.22,"[7,6,2,8,4,1,5,3]","[[-0.3,0.2],[0.3,0.2]]","[[-0.125,-0.2],[0.125,-0.2]]",-0.112037037,-0.212962963,1,0,0,4.36,o1_image,584.222,1,584.7,584.7,586.701,0,0,0,0,1,,,,,,,,,,,,,,,,,,,,,,,,,,,,,,,,,,,,,,,,,,,,,,,,,,
,,5d1dc2f9bc2b1d001a2415a5,31,male,2024-04-24_12h32.17.709,stockport_simplified,2022.2.4,Win32,60.0240096,661e456ee6de07e70aa9ef7b,6628df8ed6cae02178be69e8,,,,,,,,,,,,,,,,,,,,,,,,,,,,,,,,,,,,,,,,,,,,,,,,,,,,,,,,1,35,95,38,1,A,Y,N,o1_image,stimuli/out1.png,stimuli/correct_out1.png,stimuli/out2.png,,,,,,,,,,,,,,,,,,,,,,,,,,,,,,,,,,,,,,
,,5d1dc2f9bc2b1d001a2415a5,31,male,2024-04-24_12h32.17.709,stockport_simplified,2022.2.4,Win32,60.0240096,661e456ee6de07e70aa9ef7b,6628df8ed6cae02178be69e8,,,,,,,,,,,,,,,,,,,,,,,,,,,,,,,,,,586.701,588.367,"[7,6,2,8,4,1,5,3]","[[-0.3,0.2],[0.3,0.2]]","[[0.125,-0.2],[-0.125,-0.2]]",-0.114814815,-0.199074074,1,0,0,1.149,o2_image,588.369,1,588.864,588.864,590.863,0,0,0,0,1,,,,,,,,,,,,,,,,,,,,,,,,,,,,,,,,,,,,,,,,,,,,,,,,,,
,,5d1dc2f9bc2b1d001a2415a5,31,male,2024-04-24_12h32.17.709,stockport_simplified,2022.2.4,Win32,60.0240096,661e456ee6de07e70aa9ef7b,6628df8ed6cae02178be69e8,,,,,,,,,,,,,,,,,,,,,,,,,,,,,,,,,,,,,,,,,,,,,,,,,,,,,,,,1,36,96,29,1,N,M,D,o2_image,stimuli/out2.png,stimuli/out1.png,stimuli/correct_out2.png,,,,,,,,,,,,,,,,,,,,,,,,,,,,,,,,,,,,,,
,,5d1dc2f9bc2b1d001a2415a5,31,male,2024-04-24_12h32.17.709,stockport_simplified,2022.2.4,Win32,60.0240096,661e456ee6de07e70aa9ef7b,6628df8ed6cae02178be69e8,,,,,,,,,,,,,,,,,,,,,,,,,,,,,,,,,,590.864,592.995,"[7,6,2,8,4,1,5,3]","[[0.3,0.2],[-0.3,0.2]]","[[0.125,-0.2],[-0.125,-0.2]]",-0.148148148,-0.207407407,1,0,0,1.614,o2_image,592.996,1,593.511,593.511,595.51,0,0,0,0,1,,,,,,,,,,,,,,,,,,,,,,,,,,,,,,,,,,,,,,,,,,,,,,,,,,
,,5d1dc2f9bc2b1d001a2415a5,31,male,2024-04-24_12h32.17.709,stockport_simplified,2022.2.4,Win32,60.0240096,661e456ee6de07e70aa9ef7b,6628df8ed6cae02178be69e8,,,,,,,,,,,,,,,,,,,,,,,,,,,,,,,,,,,,,,,,,,,,,,,,,,,,,,,,1,37,97,11,1,B,X,N,o2_image,stimuli/out2.png,stimuli/out1.png,stimuli/correct_out2.png,,,,,,,,,,,,,,,,,,,,,,,,,,,,,,,,,,,,,,
,,5d1dc2f9bc2b1d001a2415a5,31,male,2024-04-24_12h32.17.709,stockport_simplified,2022.2.4,Win32,60.0240096,661e456ee6de07e70aa9ef7b,6628df8ed6cae02178be69e8,,,,,,,,,,,,,,,,,,,,,,,,,,,,,,,,,,595.511,597.325,"[7,6,2,8,4,1,5,3]","[[0.3,0.2],[-0.3,0.2]]","[[-0.125,-0.2],[0.125,-0.2]]",-0.137962963,-0.203703704,1,0,0,1.282,o1_image,597.326,1,597.829,597.829,599.838,0,0,0,0,1,,,,,,,,,,,,,,,,,,,,,,,,,,,,,,,,,,,,,,,,,,,,,,,,,,
,,5d1dc2f9bc2b1d001a2415a5,31,male,2024-04-24_12h32.17.709,stockport_simplified,2022.2.4,Win32,60.0240096,661e456ee6de07e70aa9ef7b,6628df8ed6cae02178be69e8,,,,,,,,,,,,,,,,,,,,,,,,,,,,,,,,,,,,,,,,,,,,,,,,,,,,,,,,1,38,98,7,1,A,Y,N,o1_image,stimuli/out1.png,stimuli/correct_out1.png,stimuli/out2.png,,,,,,,,,,,,,,,,,,,,,,,,,,,,,,,,,,,,,,
,,5d1dc2f9bc2b1d001a2415a5,31,male,2024-04-24_12h32.17.709,stockport_simplified,2022.2.4,Win32,60.0240096,661e456ee6de07e70aa9ef7b,6628df8ed6cae02178be69e8,,,,,,,,,,,,,,,,,,,,,,,,,,,,,,,,,,599.839,602.803,"[7,6,2,8,4,1,5,3]","[[0.3,0.2],[-0.3,0.2]]","[[0.125,-0.2],[-0.125,-0.2]]",0.141666667,-0.199074074,1,0,0,2.464,o1_image,602.805,1,603.302,603.302,605.284,0,0,0,0,1,,,,,,,,,,,,,,,,,,,,,,,,,,,,,,,,,,,,,,,,,,,,,,,,,,
,,5d1dc2f9bc2b1d001a2415a5,31,male,2024-04-24_12h32.17.709,stockport_simplified,2022.2.4,Win32,60.0240096,661e456ee6de07e70aa9ef7b,6628df8ed6cae02178be69e8,,,,,,,,,,,,,,,,,,,,,,,,,,,,,,,,,,,,,,,,,,,,,,,,,,,,,,,,1,39,99,2,1,A,X,N,o1_image,stimuli/out1.png,stimuli/correct_out1.png,stimuli/out2.png,,,,,,,,,,,,,,,,,,,,,,,,,,,,,,,,,,,,,,
,,5d1dc2f9bc2b1d001a2415a5,31,male,2024-04-24_12h32.17.709,stockport_simplified,2022.2.4,Win32,60.0240096,661e456ee6de07e70aa9ef7b,6628df8ed6cae02178be69e8,,,,,,,,,,,,,,,,,,,,,,,,,,,,,,,,,,605.284,606.784,"[7,6,2,8,4,1,5,3]","[[0.3,0.2],[-0.3,0.2]]","[[-0.125,-0.2],[0.125,-0.2]]",0.139814815,-0.199074074,1,0,0,0.998,o2_image,606.786,1,607.282,607.282,609.264,0,0,0,0,1,,,,,,,,,,,,,,,,,,,,,,,,,,,,,,,,,,,,,,,,,,,,,,,,,,
,,5d1dc2f9bc2b1d001a2415a5,31,male,2024-04-24_12h32.17.709,stockport_simplified,2022.2.4,Win32,60.0240096,661e456ee6de07e70aa9ef7b,6628df8ed6cae02178be69e8,,,,,,,,,,,,,,,,,,,,,,,,,,,,,,,,,,,,,,,,,,,,,,,,,,,,,,,,1,40,100,55,1,N,M,D,o2_image,stimuli/out2.png,stimuli/out1.png,stimuli/correct_out2.png,,,,,,,,,,,,,,,,,,,,,,,,,,,,,,,,,,,,,,
,,5d1dc2f9bc2b1d001a2415a5,31,male,2024-04-24_12h32.17.709,stockport_simplified,2022.2.4,Win32,60.0240096,661e456ee6de07e70aa9ef7b,6628df8ed6cae02178be69e8,,,,,,,,,,,,,,,,,,,,,,,,,,,,,,,,,,609.265,611.166,"[7,6,2,8,4,1,5,3]","[[-0.3,0.2],[0.3,0.2]]","[[-0.125,-0.2],[0.125,-0.2]]",0.130555556,-0.200925926,1,0,0,1.385,o2_image,611.167,1,611.646,611.646,613.645,0,0,0,0,1,,,,,,,,,,,,,,,,,,,,,,,,,,,,,,,,,,,,,,,,,,,,,,,,,,
,,5d1dc2f9bc2b1d001a2415a5,31,male,2024-04-24_12h32.17.709,stockport_simplified,2022.2.4,Win32,60.0240096,661e456ee6de07e70aa9ef7b,6628df8ed6cae02178be69e8,,,,,,,,,,,,,,,,,,,,,,,,,,,,,,,,,,,,,,,,,,,,,,,,,,,,,,,,1,41,101,10,1,B,X,N,o2_image,stimuli/out2.png,stimuli/out1.png,stimuli/correct_out2.png,,,,,,,,,,,,,,,,,,,,,,,,,,,,,,,,,,,,,,
,,5d1dc2f9bc2b1d001a2415a5,31,male,2024-04-24_12h32.17.709,stockport_simplified,2022.2.4,Win32,60.0240096,661e456ee6de07e70aa9ef7b,6628df8ed6cae02178be69e8,,,,,,,,,,,,,,,,,,,,,,,,,,,,,,,,,,613.647,615.809,"[7,6,2,8,4,1,5,3]","[[-0.3,0.2],[0.3,0.2]]","[[-0.125,-0.2],[0.125,-0.2]]",-0.077777778,-0.20462963,1,0,0,1.629,o1_image,615.811,1,616.31,616.31,618.308,0,0,0,0,1,,,,,,,,,,,,,,,,,,,,,,,,,,,,,,,,,,,,,,,,,,,,,,,,,,
,,5d1dc2f9bc2b1d001a2415a5,31,male,2024-04-24_12h32.17.709,stockport_simplified,2022.2.4,Win32,60.0240096,661e456ee6de07e70aa9ef7b,6628df8ed6cae02178be69e8,,,,,,,,,,,,,,,,,,,,,,,,,,,,,,,,,,,,,,,,,,,,,,,,,,,,,,,,1,42,102,37,1,A,Y,N,o1_image,stimuli/out1.png,stimuli/correct_out1.png,stimuli/out2.png,,,,,,,,,,,,,,,,,,,,,,,,,,,,,,,,,,,,,,
,,5d1dc2f9bc2b1d001a2415a5,31,male,2024-04-24_12h32.17.709,stockport_simplified,2022.2.4,Win32,60.0240096,661e456ee6de07e70aa9ef7b,6628df8ed6cae02178be69e8,,,,,,,,,,,,,,,,,,,,,,,,,,,,,,,,,,618.308,620.14,"[7,6,2,8,4,1,5,3]","[[0.3,0.2],[-0.3,0.2]]","[[-0.125,-0.2],[0.125,-0.2]]",0.1,-0.183333333,1,0,0,1.313,o2_image,620.141,1,620.656,620.656,622.651,0,0,0,0,1,,,,,,,,,,,,,,,,,,,,,,,,,,,,,,,,,,,,,,,,,,,,,,,,,,
,,5d1dc2f9bc2b1d001a2415a5,31,male,2024-04-24_12h32.17.709,stockport_simplified,2022.2.4,Win32,60.0240096,661e456ee6de07e70aa9ef7b,6628df8ed6cae02178be69e8,,,,,,,,,,,,,,,,,,,,,,,,,,,,,,,,,,,,,,,,,,,,,,,,,,,,,,,,1,43,103,12,1,B,X,N,o2_image,stimuli/out2.png,stimuli/out1.png,stimuli/correct_out2.png,,,,,,,,,,,,,,,,,,,,,,,,,,,,,,,,,,,,,,
,,5d1dc2f9bc2b1d001a2415a5,31,male,2024-04-24_12h32.17.709,stockport_simplified,2022.2.4,Win32,60.0240096,661e456ee6de07e70aa9ef7b,6628df8ed6cae02178be69e8,,,,,,,,,,,,,,,,,,,,,,,,,,,,,,,,,,622.652,624.537,"[7,6,2,8,4,1,5,3]","[[-0.3,0.2],[0.3,0.2]]","[[-0.125,-0.2],[0.125,-0.2]]",-0.088888889,-0.206481481,1,0,0,1.383,o1_image,624.538,1,625.036,625.036,627.033,0,0,0,0,1,,,,,,,,,,,,,,,,,,,,,,,,,,,,,,,,,,,,,,,,,,,,,,,,,,
,,5d1dc2f9bc2b1d001a2415a5,31,male,2024-04-24_12h32.17.709,stockport_simplified,2022.2.4,Win32,60.0240096,661e456ee6de07e70aa9ef7b,6628df8ed6cae02178be69e8,,,,,,,,,,,,,,,,,,,,,,,,,,,,,,,,,,,,,,,,,,,,,,,,,,,,,,,,1,44,104,21,1,N,M,C,o1_image,stimuli/out1.png,stimuli/correct_out1.png,stimuli/out2.png,,,,,,,,,,,,,,,,,,,,,,,,,,,,,,,,,,,,,,
,,5d1dc2f9bc2b1d001a2415a5,31,male,2024-04-24_12h32.17.709,stockport_simplified,2022.2.4,Win32,60.0240096,661e456ee6de07e70aa9ef7b,6628df8ed6cae02178be69e8,,,,,,,,,,,,,,,,,,,,,,,,,,,,,,,,,,627.034,629.2,"[7,6,2,8,4,1,5,3]","[[-0.3,0.2],[0.3,0.2]]","[[-0.125,-0.2],[0.125,-0.2]]",-0.091666667,-0.206481481,1,0,0,1.649,o1_image,629.201,1,629.698,629.698,631.679,0,0,0,0,1,,,,,,,,,,,,,,,,,,,,,,,,,,,,,,,,,,,,,,,,,,,,,,,,,,
,,5d1dc2f9bc2b1d001a2415a5,31,male,2024-04-24_12h32.17.709,stockport_simplified,2022.2.4,Win32,60.0240096,661e456ee6de07e70aa9ef7b,6628df8ed6cae02178be69e8,,,,,,,,,,,,,,,,,,,,,,,,,,,,,,,,,,,,,,,,,,,,,,,,,,,,,,,,1,45,105,0,1,A,X,N,o1_image,stimuli/out1.png,stimuli/correct_out1.png,stimuli/out2.png,,,,,,,,,,,,,,,,,,,,,,,,,,,,,,,,,,,,,,
,,5d1dc2f9bc2b1d001a2415a5,31,male,2024-04-24_12h32.17.709,stockport_simplified,2022.2.4,Win32,60.0240096,661e456ee6de07e70aa9ef7b,6628df8ed6cae02178be69e8,,,,,,,,,,,,,,,,,,,,,,,,,,,,,,,,,,631.679,633.416,"[7,6,2,8,4,1,5,3]","[[-0.3,0.2],[0.3,0.2]]","[[0.125,-0.2],[-0.125,-0.2]]",0.140740741,-0.159259259,1,0,0,1.218,o1_image,633.417,1,633.911,633.911,635.892,0,0,0,0,1,,,,,,,,,,,,,,,,,,,,,,,,,,,,,,,,,,,,,,,,,,,,,,,,,,
,,5d1dc2f9bc2b1d001a2415a5,31,male,2024-04-24_12h32.17.709,stockport_simplified,2022.2.4,Win32,60.0240096,661e456ee6de07e70aa9ef7b,6628df8ed6cae02178be69e8,,,,,,,,,,,,,,,,,,,,,,,,,,,,,,,,,,,,,,,,,,,,,,,,,,,,,,,,1,46,106,53,1,N,M,C,o1_image,stimuli/out1.png,stimuli/correct_out1.png,stimuli/out2.png,,,,,,,,,,,,,,,,,,,,,,,,,,,,,,,,,,,,,,
,,5d1dc2f9bc2b1d001a2415a5,31,male,2024-04-24_12h32.17.709,stockport_simplified,2022.2.4,Win32,60.0240096,661e456ee6de07e70aa9ef7b,6628df8ed6cae02178be69e8,,,,,,,,,,,,,,,,,,,,,,,,,,,,,,,,,,635.892,637.791,"[7,6,2,8,4,1,5,3]","[[0.3,0.2],[-0.3,0.2]]","[[-0.125,-0.2],[0.125,-0.2]]",0.140740741,-0.182407407,1,0,0,1.399,o2_image,637.792,1,638.291,638.291,640.273,0,0,0,0,1,,,,,,,,,,,,,,,,,,,,,,,,,,,,,,,,,,,,,,,,,,,,,,,,,,
,,5d1dc2f9bc2b1d001a2415a5,31,male,2024-04-24_12h32.17.709,stockport_simplified,2022.2.4,Win32,60.0240096,661e456ee6de07e70aa9ef7b,6628df8ed6cae02178be69e8,,,,,,,,,,,,,,,,,,,,,,,,,,,,,,,,,,,,,,,,,,,,,,,,,,,,,,,,1,47,107,13,1,B,X,N,o2_image,stimuli/out2.png,stimuli/out1.png,stimuli/correct_out2.png,,,,,,,,,,,,,,,,,,,,,,,,,,,,,,,,,,,,,,
,,5d1dc2f9bc2b1d001a2415a5,31,male,2024-04-24_12h32.17.709,stockport_simplified,2022.2.4,Win32,60.0240096,661e456ee6de07e70aa9ef7b,6628df8ed6cae02178be69e8,,,,,,,,,,,,,,,,,,,,,,,,,,,,,,,,,,640.273,641.954,"[7,6,2,8,4,1,5,3]","[[-0.3,0.2],[0.3,0.2]]","[[0.125,-0.2],[-0.125,-0.2]]",0.089814815,-0.19537037,1,0,0,1.165,o1_image,641.955,1,642.452,642.453,644.451,0,0,0,0,1,,,,,,,,,,,,,,,,,,,,,,,,,,,,,,,,,,,,,,,,,,,,,,,,,,
,,5d1dc2f9bc2b1d001a2415a5,31,male,2024-04-24_12h32.17.709,stockport_simplified,2022.2.4,Win32,60.0240096,661e456ee6de07e70aa9ef7b,6628df8ed6cae02178be69e8,,,,,,,,,,,,,,,,,,,,,,,,,,,,,,,,,,,,,,,,,,,,,,,,,,,,,,,,1,48,108,20,1,N,M,C,o1_image,stimuli/out1.png,stimuli/correct_out1.png,stimuli/out2.png,,,,,,,,,,,,,,,,,,,,,,,,,,,,,,,,,,,,,,
,,5d1dc2f9bc2b1d001a2415a5,31,male,2024-04-24_12h32.17.709,stockport_simplified,2022.2.4,Win32,60.0240096,661e456ee6de07e70aa9ef7b,6628df8ed6cae02178be69e8,,,,,,,,,,,,,,,,,,,,,,,,,,,,,,,,,,644.452,646.321,"[7,6,2,8,4,1,5,3]","[[0.3,0.2],[-0.3,0.2]]","[[-0.125,-0.2],[0.125,-0.2]]",0.108333333,-0.196296296,1,0,0,1.347,o2_image,646.324,1,646.8,646.8,648.822,0,0,0,0,1,,,,,,,,,,,,,,,,,,,,,,,,,,,,,,,,,,,,,,,,,,,,,,,,,,
,,5d1dc2f9bc2b1d001a2415a5,31,male,2024-04-24_12h32.17.709,stockport_simplified,2022.2.4,Win32,60.0240096,661e456ee6de07e70aa9ef7b,6628df8ed6cae02178be69e8,,,,,,,,,,,,,,,,,,,,,,,,,,,,,,,,,,,,,,,,,,,,,,,,,,,,,,,,1,49,109,44,1,B,X,N,o2_image,stimuli/out2.png,stimuli/out1.png,stimuli/correct_out2.png,,,,,,,,,,,,,,,,,,,,,,,,,,,,,,,,,,,,,,
,,5d1dc2f9bc2b1d001a2415a5,31,male,2024-04-24_12h32.17.709,stockport_simplified,2022.2.4,Win32,60.0240096,661e456ee6de07e70aa9ef7b,6628df8ed6cae02178be69e8,,,,,,,,,,,,,,,,,,,,,,,,,,,,,,,,,,648.827,650.849,"[7,6,2,8,4,1,5,3]","[[-0.3,0.2],[0.3,0.2]]","[[-0.125,-0.2],[0.125,-0.2]]",0.137962963,-0.19537037,1,0,0,1.515,o2_image,650.851,1,651.347,651.347,653.345,0,0,0,0,1,,,,,,,,,,,,,,,,,,,,,,,,,,,,,,,,,,,,,,,,,,,,,,,,,,
,,5d1dc2f9bc2b1d001a2415a5,31,male,2024-04-24_12h32.17.709,stockport_simplified,2022.2.4,Win32,60.0240096,661e456ee6de07e70aa9ef7b,6628df8ed6cae02178be69e8,,,,,,,,,,,,,,,,,,,,,,,,,,,,,,,,,,,,,,,,,,,,,,,,,,,,,,,,1,50,110,41,1,B,X,N,o2_image,stimuli/out2.png,stimuli/out1.png,stimuli/correct_out2.png,,,,,,,,,,,,,,,,,,,,,,,,,,,,,,,,,,,,,,
,,5d1dc2f9bc2b1d001a2415a5,31,male,2024-04-24_12h32.17.709,stockport_simplified,2022.2.4,Win32,60.0240096,661e456ee6de07e70aa9ef7b,6628df8ed6cae02178be69e8,,,,,,,,,,,,,,,,,,,,,,,,,,,,,,,,,,653.345,656.343,"[7,6,2,8,4,1,5,3]","[[0.3,0.2],[-0.3,0.2]]","[[0.125,-0.2],[-0.125,-0.2]]",-0.040740741,-0.197222222,1,0,0,2.023,o2_image,656.345,1,656.842,656.842,658.859,0,0,0,0,1,,,,,,,,,,,,,,,,,,,,,,,,,,,,,,,,,,,,,,,,,,,,,,,,,,
,,5d1dc2f9bc2b1d001a2415a5,31,male,2024-04-24_12h32.17.709,stockport_simplified,2022.2.4,Win32,60.0240096,661e456ee6de07e70aa9ef7b,6628df8ed6cae02178be69e8,,,,,,,,,,,,,,,,,,,,,,,,,,,,,,,,,,,,,,,,,,,,,,,,,,,,,,,,1,51,111,56,1,N,M,D,o2_image,stimuli/out2.png,stimuli/out1.png,stimuli/correct_out2.png,,,,,,,,,,,,,,,,,,,,,,,,,,,,,,,,,,,,,,
,,5d1dc2f9bc2b1d001a2415a5,31,male,2024-04-24_12h32.17.709,stockport_simplified,2022.2.4,Win32,60.0240096,661e456ee6de07e70aa9ef7b,6628df8ed6cae02178be69e8,,,,,,,,,,,,,,,,,,,,,,,,,,,,,,,,,,658.861,661.539,"[7,6,2,8,4,1,5,3]","[[0.3,0.2],[-0.3,0.2]]","[[0.125,-0.2],[-0.125,-0.2]]",0.209259259,-0.191666667,1,0,0,1.78,o1_image,661.54,1,662.039,662.039,664.022,0,0,0,0,1,,,,,,,,,,,,,,,,,,,,,,,,,,,,,,,,,,,,,,,,,,,,,,,,,,
,,5d1dc2f9bc2b1d001a2415a5,31,male,2024-04-24_12h32.17.709,stockport_simplified,2022.2.4,Win32,60.0240096,661e456ee6de07e70aa9ef7b,6628df8ed6cae02178be69e8,,,,,,,,,,,,,,,,,,,,,,,,,,,,,,,,,,,,,,,,,,,,,,,,,,,,,,,,1,52,112,9,1,A,Y,N,o1_image,stimuli/out1.png,stimuli/correct_out1.png,stimuli/out2.png,,,,,,,,,,,,,,,,,,,,,,,,,,,,,,,,,,,,,,
,,5d1dc2f9bc2b1d001a2415a5,31,male,2024-04-24_12h32.17.709,stockport_simplified,2022.2.4,Win32,60.0240096,661e456ee6de07e70aa9ef7b,6628df8ed6cae02178be69e8,,,,,,,,,,,,,,,,,,,,,,,,,,,,,,,,,,664.023,665.968,"[7,6,2,8,4,1,5,3]","[[0.3,0.2],[-0.3,0.2]]","[[0.125,-0.2],[-0.125,-0.2]]",-0.077777778,-0.162037037,1,0,0,1.415,o2_image,665.97,1,666.45,666.45,668.467,0,0,0,0,1,,,,,,,,,,,,,,,,,,,,,,,,,,,,,,,,,,,,,,,,,,,,,,,,,,
,,5d1dc2f9bc2b1d001a2415a5,31,male,2024-04-24_12h32.17.709,stockport_simplified,2022.2.4,Win32,60.0240096,661e456ee6de07e70aa9ef7b,6628df8ed6cae02178be69e8,,,,,,,,,,,,,,,,,,,,,,,,,,,,,,,,,,,,,,,,,,,,,,,,,,,,,,,,1,53,113,57,1,N,M,D,o2_image,stimuli/out2.png,stimuli/out1.png,stimuli/correct_out2.png,,,,,,,,,,,,,,,,,,,,,,,,,,,,,,,,,,,,,,
,,5d1dc2f9bc2b1d001a2415a5,31,male,2024-04-24_12h32.17.709,stockport_simplified,2022.2.4,Win32,60.0240096,661e456ee6de07e70aa9ef7b,6628df8ed6cae02178be69e8,,,,,,,,,,,,,,,,,,,,,,,,,,,,,,,,,,668.467,671.017,"[7,6,2,8,4,1,5,3]","[[-0.3,0.2],[0.3,0.2]]","[[-0.125,-0.2],[0.125,-0.2]]",-0.125925926,-0.201851852,1,0,0,2.049,o1_image,671.017,1,671.496,671.496,673.495,0,0,0,0,1,,,,,,,,,,,,,,,,,,,,,,,,,,,,,,,,,,,,,,,,,,,,,,,,,,
,,5d1dc2f9bc2b1d001a2415a5,31,male,2024-04-24_12h32.17.709,stockport_simplified,2022.2.4,Win32,60.0240096,661e456ee6de07e70aa9ef7b,6628df8ed6cae02178be69e8,,,,,,,,,,,,,,,,,,,,,,,,,,,,,,,,,,,,,,,,,,,,,,,,,,,,,,,,1,54,114,34,1,A,X,N,o1_image,stimuli/out1.png,stimuli/correct_out1.png,stimuli/out2.png,,,,,,,,,,,,,,,,,,,,,,,,,,,,,,,,,,,,,,
,,5d1dc2f9bc2b1d001a2415a5,31,male,2024-04-24_12h32.17.709,stockport_simplified,2022.2.4,Win32,60.0240096,661e456ee6de07e70aa9ef7b,6628df8ed6cae02178be69e8,,,,,,,,,,,,,,,,,,,,,,,,,,,,,,,,,,673.496,675.977,"[7,6,2,8,4,1,5,3]","[[-0.3,0.2],[0.3,0.2]]","[[0.125,-0.2],[-0.125,-0.2]]",-0.114814815,-0.196296296,1,0,0,1.948,o2_image,675.978,1,676.492,676.492,678.492,0,0,0,0,1,,,,,,,,,,,,,,,,,,,,,,,,,,,,,,,,,,,,,,,,,,,,,,,,,,
,,5d1dc2f9bc2b1d001a2415a5,31,male,2024-04-24_12h32.17.709,stockport_simplified,2022.2.4,Win32,60.0240096,661e456ee6de07e70aa9ef7b,6628df8ed6cae02178be69e8,,,,,,,,,,,,,,,,,,,,,,,,,,,,,,,,,,,,,,,,,,,,,,,,,,,,,,,,1,55,115,15,1,B,Y,N,o2_image,stimuli/out2.png,stimuli/out1.png,stimuli/correct_out2.png,,,,,,,,,,,,,,,,,,,,,,,,,,,,,,,,,,,,,,
,,5d1dc2f9bc2b1d001a2415a5,31,male,2024-04-24_12h32.17.709,stockport_simplified,2022.2.4,Win32,60.0240096,661e456ee6de07e70aa9ef7b,6628df8ed6cae02178be69e8,,,,,,,,,,,,,,,,,,,,,,,,,,,,,,,,,,678.494,680.14,"[7,6,2,8,4,1,5,3]","[[0.3,0.2],[-0.3,0.2]]","[[0.125,-0.2],[-0.125,-0.2]]",-0.123148148,-0.192592593,1,0,0,1.131,o2_image,680.142,1,680.64,680.64,682.655,0,0,0,0,1,,,,,,,,,,,,,,,,,,,,,,,,,,,,,,,,,,,,,,,,,,,,,,,,,,
,,5d1dc2f9bc2b1d001a2415a5,31,male,2024-04-24_12h32.17.709,stockport_simplified,2022.2.4,Win32,60.0240096,661e456ee6de07e70aa9ef7b,6628df8ed6cae02178be69e8,,,,,,,,,,,,,,,,,,,,,,,,,,,,,,,,,,,,,,,,,,,,,,,,,,,,,,,,1,56,116,47,1,B,Y,N,o2_image,stimuli/out2.png,stimuli/out1.png,stimuli/correct_out2.png,,,,,,,,,,,,,,,,,,,,,,,,,,,,,,,,,,,,,,
,,5d1dc2f9bc2b1d001a2415a5,31,male,2024-04-24_12h32.17.709,stockport_simplified,2022.2.4,Win32,60.0240096,661e456ee6de07e70aa9ef7b,6628df8ed6cae02178be69e8,,,,,,,,,,,,,,,,,,,,,,,,,,,,,,,,,,682.656,684.688,"[7,6,2,8,4,1,5,3]","[[-0.3,0.2],[0.3,0.2]]","[[-0.125,-0.2],[0.125,-0.2]]",0.137962963,-0.15462963,1,0,0,1.514,o2_image,684.689,1,685.202,685.202,687.2,0,0,0,0,1,,,,,,,,,,,,,,,,,,,,,,,,,,,,,,,,,,,,,,,,,,,,,,,,,,
,,5d1dc2f9bc2b1d001a2415a5,31,male,2024-04-24_12h32.17.709,stockport_simplified,2022.2.4,Win32,60.0240096,661e456ee6de07e70aa9ef7b,6628df8ed6cae02178be69e8,,,,,,,,,,,,,,,,,,,,,,,,,,,,,,,,,,,,,,,,,,,,,,,,,,,,,,,,1,57,117,28,1,N,M,D,o2_image,stimuli/out2.png,stimuli/out1.png,stimuli/correct_out2.png,,,,,,,,,,,,,,,,,,,,,,,,,,,,,,,,,,,,,,
,,5d1dc2f9bc2b1d001a2415a5,31,male,2024-04-24_12h32.17.709,stockport_simplified,2022.2.4,Win32,60.0240096,661e456ee6de07e70aa9ef7b,6628df8ed6cae02178be69e8,,,,,,,,,,,,,,,,,,,,,,,,,,,,,,,,,,687.201,689.985,"[7,6,2,8,4,1,5,3]","[[0.3,0.2],[-0.3,0.2]]","[[0.125,-0.2],[-0.125,-0.2]]",-0.102777778,-0.189814815,1,0,0,2.281,o2_image,689.985,1,690.481,690.481,692.479,0,0,0,0,1,,,,,,,,,,,,,,,,,,,,,,,,,,,,,,,,,,,,,,,,,,,,,,,,,,
,,5d1dc2f9bc2b1d001a2415a5,31,male,2024-04-24_12h32.17.709,stockport_simplified,2022.2.4,Win32,60.0240096,661e456ee6de07e70aa9ef7b,6628df8ed6cae02178be69e8,,,,,,,,,,,,,,,,,,,,,,,,,,,,,,,,,,,,,,,,,,,,,,,,,,,,,,,,1,58,118,18,1,B,Y,N,o2_image,stimuli/out2.png,stimuli/out1.png,stimuli/correct_out2.png,,,,,,,,,,,,,,,,,,,,,,,,,,,,,,,,,,,,,,
,,5d1dc2f9bc2b1d001a2415a5,31,male,2024-04-24_12h32.17.709,stockport_simplified,2022.2.4,Win32,60.0240096,661e456ee6de07e70aa9ef7b,6628df8ed6cae02178be69e8,,,,,,,,,,,,,,,,,,,,,,,,,,,,,,,,,,692.479,695.014,"[7,6,2,8,4,1,5,3]","[[-0.3,0.2],[0.3,0.2]]","[[-0.125,-0.2],[0.125,-0.2]]",0.222222222,-0.160185185,1,0,0,1.55,o2_image,695.016,1,695.527,695.527,697.544,0,0,0,0,1,,,,,,,,,,,,,,,,,,,,,,,,,,,,,,,,,,,,,,,,,,,,,,,,,,
,,5d1dc2f9bc2b1d001a2415a5,31,male,2024-04-24_12h32.17.709,stockport_simplified,2022.2.4,Win32,60.0240096,661e456ee6de07e70aa9ef7b,6628df8ed6cae02178be69e8,,,,,,,,,,,,,,,,,,,,,,,,,,,,,,,,,,,,,,,,,,,,,,,,,,,,,,,,1,59,119,46,1,B,Y,N,o2_image,stimuli/out2.png,stimuli/out1.png,stimuli/correct_out2.png,,,,,,,,,,,,,,,,,,,,,,,,,,,,,,,,,,,,,,
,,5d1dc2f9bc2b1d001a2415a5,31,male,2024-04-24_12h32.17.709,stockport_simplified,2022.2.4,Win32,60.0240096,661e456ee6de07e70aa9ef7b,6628df8ed6cae02178be69e8,,,,,,,,,,,,,,,,,,,,,,,,,,,,,,,,,,697.57,699.208,"[7,6,2,8,4,1,5,3]","[[-0.3,0.2],[0.3,0.2]]","[[-0.125,-0.2],[0.125,-0.2]]",-0.099074074,-0.194444444,1,0,0,1.132,o1_image,699.209,1,699.723,699.723,701.706,,,,,,,,,,,,,,,,,,0,0,0,0,1,,,,,,,,,,,,,,,,,,,,,,,,,,,,,,,,,
,,5d1dc2f9bc2b1d001a2415a5,31,male,2024-04-24_12h32.17.709,stockport_simplified,2022.2.4,Win32,60.0240096,661e456ee6de07e70aa9ef7b,6628df8ed6cae02178be69e8,,,,,,,,,,,,,,,,,,,,,,,,,,,,,,,,,,,,,,,,,,,,,,,,,,,,,,,,,,,,,A,Y,N,o1_image,stimuli/out1.png,stimuli/correct_out1.png,stimuli/out2.png,,,,,,0,0,0,13,1,,,,,,,,,,,,,,,,,,,,,,,,,,,,
,,5d1dc2f9bc2b1d001a2415a5,31,male,2024-04-24_12h32.17.709,stockport_simplified,2022.2.4,Win32,60.0240096,661e456ee6de07e70aa9ef7b,6628df8ed6cae02178be69e8,,,,,,,,,,,,,,,,,,,,,,,,,,,,,,,,,,701.706,703.354,"[7,6,2,8,4,1,5,3]","[[0.3,0.2],[-0.3,0.2]]","[[-0.125,-0.2],[0.125,-0.2]]",0.058333333,-0.192592593,1,0,0,1.132,o2_image,703.355,1,703.853,703.854,705.852,,,,,,,,,,,,,,,,,,0,0,0,0,1,,,,,,,,,,,,,,,,,,,,,,,,,,,,,,,,,
,,5d1dc2f9bc2b1d001a2415a5,31,male,2024-04-24_12h32.17.709,stockport_simplified,2022.2.4,Win32,60.0240096,661e456ee6de07e70aa9ef7b,6628df8ed6cae02178be69e8,,,,,,,,,,,,,,,,,,,,,,,,,,,,,,,,,,,,,,,,,,,,,,,,,,,,,,,,,,,,,B,X,N,o2_image,stimuli/out2.png,stimuli/out1.png,stimuli/correct_out2.png,,,,,,0,1,1,22,1,,,,,,,,,,,,,,,,,,,,,,,,,,,,
,,5d1dc2f9bc2b1d001a2415a5,31,male,2024-04-24_12h32.17.709,stockport_simplified,2022.2.4,Win32,60.0240096,661e456ee6de07e70aa9ef7b,6628df8ed6cae02178be69e8,,,,,,,,,,,,,,,,,,,,,,,,,,,,,,,,,,705.852,707.55,"[7,6,2,8,4,1,5,3]","[[0.3,0.2],[-0.3,0.2]]","[[0.125,-0.2],[-0.125,-0.2]]",-0.09537037,-0.212037037,1,0,0,1.197,o2_image,707.551,1,708.032,708.032,710.033,,,,,,,,,,,,,,,,,,0,0,0,0,1,,,,,,,,,,,,,,,,,,,,,,,,,,,,,,,,,
,,5d1dc2f9bc2b1d001a2415a5,31,male,2024-04-24_12h32.17.709,stockport_simplified,2022.2.4,Win32,60.0240096,661e456ee6de07e70aa9ef7b,6628df8ed6cae02178be69e8,,,,,,,,,,,,,,,,,,,,,,,,,,,,,,,,,,,,,,,,,,,,,,,,,,,,,,,,,,,,,N,M,D,o2_image,stimuli/out2.png,stimuli/out1.png,stimuli/correct_out2.png,,,,,,0,2,2,57,1,,,,,,,,,,,,,,,,,,,,,,,,,,,,
,,5d1dc2f9bc2b1d001a2415a5,31,male,2024-04-24_12h32.17.709,stockport_simplified,2022.2.4,Win32,60.0240096,661e456ee6de07e70aa9ef7b,6628df8ed6cae02178be69e8,,,,,,,,,,,,,,,,,,,,,,,,,,,,,,,,,,710.036,711.581,"[7,6,2,8,4,1,5,3]","[[0.3,0.2],[-0.3,0.2]]","[[0.125,-0.2],[-0.125,-0.2]]",-0.096296296,-0.212037037,1,0,0,1.03,o2_image,711.582,1,712.063,712.063,714.045,,,,,,,,,,,,,,,,,,0,0,0,0,1,,,,,,,,,,,,,,,,,,,,,,,,,,,,,,,,,
,,5d1dc2f9bc2b1d001a2415a5,31,male,2024-04-24_12h32.17.709,stockport_simplified,2022.2.4,Win32,60.0240096,661e456ee6de07e70aa9ef7b,6628df8ed6cae02178be69e8,,,,,,,,,,,,,,,,,,,,,,,,,,,,,,,,,,,,,,,,,,,,,,,,,,,,,,,,,,,,,B,Y,N,o2_image,stimuli/out2.png,stimuli/out1.png,stimuli/correct_out2.png,,,,,,0,3,3,32,1,,,,,,,,,,,,,,,,,,,,,,,,,,,,
,,5d1dc2f9bc2b1d001a2415a5,31,male,2024-04-24_12h32.17.709,stockport_simplified,2022.2.4,Win32,60.0240096,661e456ee6de07e70aa9ef7b,6628df8ed6cae02178be69e8,,,,,,,,,,,,,,,,,,,,,,,,,,,,,,,,,,714.046,716.264,"[7,6,2,8,4,1,5,3]","[[0.3,0.2],[-0.3,0.2]]","[[-0.125,-0.2],[0.125,-0.2]]",0.144444444,-0.175925926,1,0,0,1.702,o2_image,716.266,0,716.759,716.759,718.759,,,,,,,,,,,,,,,,,,0,0,0,0,1,,,,,,,,,,,,,,,,,,,,,,,,,,,,,,,,,
,,5d1dc2f9bc2b1d001a2415a5,31,male,2024-04-24_12h32.17.709,stockport_simplified,2022.2.4,Win32,60.0240096,661e456ee6de07e70aa9ef7b,6628df8ed6cae02178be69e8,,,,,,,,,,,,,,,,,,,,,,,,,,,,,,,,,,,,,,,,,,,,,,,,,,,,,,,,,,,,,B,X,N,o1_image,stimuli/out1.png,stimuli/correct_out1.png,stimuli/out2.png,,,,,,0,4,4,28,1,,,,,,,,,,,,,,,,,,,,,,,,,,,,
,,5d1dc2f9bc2b1d001a2415a5,31,male,2024-04-24_12h32.17.709,stockport_simplified,2022.2.4,Win32,60.0240096,661e456ee6de07e70aa9ef7b,6628df8ed6cae02178be69e8,,,,,,,,,,,,,,,,,,,,,,,,,,,,,,,,,,718.759,720.34,"[7,6,2,8,4,1,5,3]","[[0.3,0.2],[-0.3,0.2]]","[[0.125,-0.2],[-0.125,-0.2]]",-0.092592593,-0.211111111,1,0,0,1.064,o2_image,720.341,1,720.856,720.856,722.857,,,,,,,,,,,,,,,,,,0,0,0,0,1,,,,,,,,,,,,,,,,,,,,,,,,,,,,,,,,,
,,5d1dc2f9bc2b1d001a2415a5,31,male,2024-04-24_12h32.17.709,stockport_simplified,2022.2.4,Win32,60.0240096,661e456ee6de07e70aa9ef7b,6628df8ed6cae02178be69e8,,,,,,,,,,,,,,,,,,,,,,,,,,,,,,,,,,,,,,,,,,,,,,,,,,,,,,,,,,,,,N,M,D,o2_image,stimuli/out2.png,stimuli/out1.png,stimuli/correct_out2.png,,,,,,0,5,5,51,1,,,,,,,,,,,,,,,,,,,,,,,,,,,,
